"Log_BG","Log_Freq_HAL","Ortho_N","Stimulus","Type","acc","accuracy","average_response_time","avg_rt","background","bidi","canvas_backend","clock_backend","color_backend","compensation","coordinates","correct","correct_Experimental_intro","correct_Introduction","correct_Practice_intro","correct_experimenter_kb","correct_response","count_End_Of_Experiment","count_End_Of_Practice","count_Experimental_Loop","count_Experimental_intro","count_Fixation","count_Introduction","count_Practice_Loop","count_Practice_intro","count_Stimulus","count_block_break_feedback","count_experimental_sequence","count_experimenter_kb","count_increment_trial_count","count_init_trial_count","count_logger","count_practice_sequence","count_right","count_task","count_wrong","datetime","description","disable_garbage_collection","experiment_file","experiment_path","font_bold","font_family","font_italic","font_size","font_underline","foreground","form_clicks","fullscreen","height","keyboard_backend","live_row","live_row_Experimental_Loop","live_row_Practice_Loop","logfile","mouse_backend","opensesame_codename","opensesame_version","osf_always_upload_data","osf_always_upload_experiment","osf_datanode_id","osf_id","repeat_cycle","response","response_End_Of_Experiment","response_Experimental_intro","response_Introduction","response_Practice_intro","response_block_break_feedback","response_experimenter_kb","response_time","response_time_End_Of_Experiment","response_time_Experimental_intro","response_time_Introduction","response_time_Practice_intro","response_time_block_break_feedback","response_time_experimenter_kb","round_decimals","sampler_backend","sound_buf_size","sound_channels","sound_freq","sound_sample_size","start","subject_nr","subject_parity","time_End_Of_Experiment","time_End_Of_Practice","time_Experimental_Loop","time_Experimental_intro","time_Fixation","time_Introduction","time_Practice_Loop","time_Practice_intro","time_Stimulus","time_block_break_feedback","time_experimental_sequence","time_experimenter_kb","time_increment_trial_count","time_init_trial_count","time_logger","time_practice_sequence","time_right","time_task","time_wrong","title","total_correct","total_response_time","total_responses","uniform_coordinates","width"
"3.492014979","0","9","yine","non-word","100","100","1365.8","1365.8","black","no","legacy","legacy","legacy","0","uniform","1","undefined","undefined","undefined","1","f","0","0","0","0","4","0","0","0","4","NA","0","4","0","0","0","3","4","0","4","Fri Feb 19 17:49:49 2021","The main experiment item","yes","Lexical_Decision_Task.osexp","/Users/shannonbellinger","no","Andale Mono","no","18","no","white","no","yes","576","legacy","0","0","3","/Users/shannonbellinger/subject-5207819.csv","legacy","Lentiform Loewenfeld","3.3.7","yes","yes","600bd7cfb6416f0113b04181","602110864497cf011d9c0822","0","f","NA","space","space","space","NA","f","1049","NA","4467","18041","5983","NA","1049","2","legacy","1024","2","48000","-16","task","5207819","odd","NA","37739","44209","39741","44233","3641","27680","21692","44736","NA","44231","44737","NA","44209","45787","35783","37211","3628","NA","Lexical Decision Task","5","6829","5","yes","1024"
"2.6599162","0","2","saff","non-word","83.33333333333333","83.33333333333333","1548.8333333333333","1548.8333333333333","black","no","legacy","legacy","legacy","0","uniform","0","undefined","undefined","undefined","0","f","0","0","0","0","5","0","0","0","5","NA","1","5","1","0","1","3","5","0","5","Fri Feb 19 17:49:49 2021","The main experiment item","yes","Lexical_Decision_Task.osexp","/Users/shannonbellinger","no","Andale Mono","no","18","no","white","no","yes","576","legacy","1","1","3","/Users/shannonbellinger/subject-5207819.csv","legacy","Lentiform Loewenfeld","3.3.7","yes","yes","600bd7cfb6416f0113b04181","602110864497cf011d9c0822","0","j","NA","space","space","space","NA","j","2464","NA","4467","18041","5983","NA","2464","2","legacy","1024","2","48000","-16","task","5207819","odd","NA","37739","44209","39741","46351","3641","27680","21692","46854","NA","46349","46854","46293","44209","49319","35783","45793","3628","NA","Lexical Decision Task","5","9293","6","yes","1024"
"2.895974732","6.65","5","sift","word","85.71428571428571","85.71428571428571","1459.2857142857142","1459.2857142857142","black","no","legacy","legacy","legacy","0","uniform","1","undefined","undefined","undefined","1","j","0","0","0","0","6","0","0","0","6","NA","2","6","2","0","2","3","6","0","6","Fri Feb 19 17:49:49 2021","The main experiment item","yes","Lexical_Decision_Task.osexp","/Users/shannonbellinger","no","Andale Mono","no","18","no","white","no","yes","576","legacy","2","2","3","/Users/shannonbellinger/subject-5207819.csv","legacy","Lentiform Loewenfeld","3.3.7","yes","yes","600bd7cfb6416f0113b04181","602110864497cf011d9c0822","0","j","NA","space","space","space","NA","j","922","NA","4467","18041","5983","NA","922","2","legacy","1024","2","48000","-16","task","5207819","odd","NA","37739","44209","39741","50882","3641","27680","21692","51386","NA","50879","51386","50823","44209","52309","35783","45793","3628","49323","Lexical Decision Task","6","10215","7","yes","1024"
"3.076883066","0","8","mout","non-word","75","75","1374.75","1374.75","black","no","legacy","legacy","legacy","0","uniform","0","undefined","undefined","undefined","0","f","0","0","0","0","7","0","0","0","7","NA","3","7","3","0","3","3","7","0","7","Fri Feb 19 17:49:49 2021","The main experiment item","yes","Lexical_Decision_Task.osexp","/Users/shannonbellinger","no","Andale Mono","no","18","no","white","no","yes","576","legacy","3","3","3","/Users/shannonbellinger/subject-5207819.csv","legacy","Lentiform Loewenfeld","3.3.7","yes","yes","600bd7cfb6416f0113b04181","602110864497cf011d9c0822","0","j","NA","space","space","space","NA","j","783","NA","4467","18041","5983","NA","783","2","legacy","1024","2","48000","-16","task","5207819","odd","NA","37739","44209","39741","52867","3641","27680","21692","53371","NA","52865","53371","52813","44209","54155","35783","52313","3628","49323","Lexical Decision Task","6","10998","8","yes","1024"
"2.979548375","8.71","4","soup","word","77.77777777777777","77.77777777777777","1271.111111111111","1271.111111111111","black","no","legacy","legacy","legacy","0","uniform","1","undefined","undefined","undefined","1","j","0","0","0","0","8","0","0","0","8","NA","4","8","4","0","4","3","8","0","8","Fri Feb 19 17:49:49 2021","The main experiment item","yes","Lexical_Decision_Task.osexp","/Users/shannonbellinger","no","Andale Mono","no","18","no","white","no","yes","576","legacy","4","4","3","/Users/shannonbellinger/subject-5207819.csv","legacy","Lentiform Loewenfeld","3.3.7","yes","yes","600bd7cfb6416f0113b04181","602110864497cf011d9c0822","0","j","NA","space","space","space","NA","j","442","NA","4467","18041","5983","NA","442","2","legacy","1024","2","48000","-16","task","5207819","odd","NA","37739","44209","39741","55716","3641","27680","21692","56219","NA","55713","56219","55658","44209","56662","35783","52313","3628","54158","Lexical Decision Task","7","11440","9","yes","1024"
"3.307211407","6.07","7","honk","word","70","70","1226.8","1226.8","black","no","legacy","legacy","legacy","0","uniform","0","undefined","undefined","undefined","0","j","0","0","0","0","9","0","0","0","9","NA","5","9","5","0","5","3","9","0","9","Fri Feb 19 17:49:49 2021","The main experiment item","yes","Lexical_Decision_Task.osexp","/Users/shannonbellinger","no","Andale Mono","no","18","no","white","no","yes","576","legacy","5","5","3","/Users/shannonbellinger/subject-5207819.csv","legacy","Lentiform Loewenfeld","3.3.7","yes","yes","600bd7cfb6416f0113b04181","602110864497cf011d9c0822","0","f","NA","space","space","space","NA","f","828","NA","4467","18041","5983","NA","828","2","legacy","1024","2","48000","-16","task","5207819","odd","NA","37739","44209","39741","57221","3641","27680","21692","57725","NA","57219","57725","57166","44209","58554","35783","56666","3628","54158","Lexical Decision Task","7","12268","10","yes","1024"
"2.793790385","5.67","9","swab","word","72.72727272727273","72.72727272727273","1176.1818181818182","1176.1818181818182","black","no","legacy","legacy","legacy","0","uniform","1","undefined","undefined","undefined","1","j","0","0","0","0","10","0","0","0","10","NA","6","10","6","0","6","3","10","0","10","Fri Feb 19 17:49:49 2021","The main experiment item","yes","Lexical_Decision_Task.osexp","/Users/shannonbellinger","no","Andale Mono","no","18","no","white","no","yes","576","legacy","6","6","3","/Users/shannonbellinger/subject-5207819.csv","legacy","Lentiform Loewenfeld","3.3.7","yes","yes","600bd7cfb6416f0113b04181","602110864497cf011d9c0822","0","j","NA","space","space","space","NA","j","670","NA","4467","18041","5983","NA","670","2","legacy","1024","2","48000","-16","task","5207819","odd","NA","37739","44209","39741","60118","3641","27680","21692","60621","NA","60115","60621","60057","44209","61291","35783","56666","3628","58557","Lexical Decision Task","8","12938","11","yes","1024"
"3.121778632","0","9","sark","non-word","75","75","1147.6666666666667","1147.6666666666667","black","no","legacy","legacy","legacy","0","uniform","1","undefined","undefined","undefined","1","f","0","0","0","0","11","0","0","0","11","NA","7","11","7","0","7","3","11","0","11","Fri Feb 19 17:49:49 2021","The main experiment item","yes","Lexical_Decision_Task.osexp","/Users/shannonbellinger","no","Andale Mono","no","18","no","white","no","yes","576","legacy","7","7","3","/Users/shannonbellinger/subject-5207819.csv","legacy","Lentiform Loewenfeld","3.3.7","yes","yes","600bd7cfb6416f0113b04181","602110864497cf011d9c0822","0","f","NA","space","space","space","NA","f","834","NA","4467","18041","5983","NA","834","2","legacy","1024","2","48000","-16","task","5207819","odd","NA","37739","44209","39741","61855","3641","27680","21692","62358","NA","61852","62359","61795","44209","63193","35783","61295","3628","58557","Lexical Decision Task","9","13772","12","yes","1024"
"2.996511672","0","7","hoil","non-word","76.92307692307692","76.92307692307692","1118.3846153846155","1118.3846153846155","black","no","legacy","legacy","legacy","0","uniform","1","undefined","undefined","undefined","1","f","0","0","0","0","12","0","0","0","12","NA","8","12","8","0","8","3","12","0","12","Fri Feb 19 17:49:49 2021","The main experiment item","yes","Lexical_Decision_Task.osexp","/Users/shannonbellinger","no","Andale Mono","no","18","no","white","no","yes","576","legacy","8","8","3","/Users/shannonbellinger/subject-5207819.csv","legacy","Lentiform Loewenfeld","3.3.7","yes","yes","600bd7cfb6416f0113b04181","602110864497cf011d9c0822","0","f","NA","space","space","space","NA","f","767","NA","4467","18041","5983","NA","767","2","legacy","1024","2","48000","-16","task","5207819","odd","NA","37739","44209","39741","63755","3641","27680","21692","64258","NA","63752","64258","63696","44209","65026","35783","63196","3628","58557","Lexical Decision Task","10","14539","13","yes","1024"
"2.839898939","8.99","6","soap","word","78.57142857142857","78.57142857142857","1073.2142857142858","1073.2142857142858","black","no","legacy","legacy","legacy","0","uniform","1","undefined","undefined","undefined","1","j","0","0","0","0","13","0","0","0","13","NA","9","13","9","0","9","3","13","0","13","Fri Feb 19 17:49:49 2021","The main experiment item","yes","Lexical_Decision_Task.osexp","/Users/shannonbellinger","no","Andale Mono","no","18","no","white","no","yes","576","legacy","9","9","3","/Users/shannonbellinger/subject-5207819.csv","legacy","Lentiform Loewenfeld","3.3.7","yes","yes","600bd7cfb6416f0113b04181","602110864497cf011d9c0822","0","j","NA","space","space","space","NA","j","486","NA","4467","18041","5983","NA","486","2","legacy","1024","2","48000","-16","task","5207819","odd","NA","37739","44209","39741","65584","3641","27680","21692","66087","NA","65582","66087","65529","44209","66573","35783","65029","3628","58557","Lexical Decision Task","11","15025","14","yes","1024"
"3.374137706","10.21","4","tree","word","80","80","1029","1029","black","no","legacy","legacy","legacy","0","uniform","1","undefined","undefined","undefined","1","j","0","0","0","0","14","0","0","0","14","NA","10","14","10","0","10","3","14","0","14","Fri Feb 19 17:49:49 2021","The main experiment item","yes","Lexical_Decision_Task.osexp","/Users/shannonbellinger","no","Andale Mono","no","18","no","white","no","yes","576","legacy","10","10","3","/Users/shannonbellinger/subject-5207819.csv","legacy","Lentiform Loewenfeld","3.3.7","yes","yes","600bd7cfb6416f0113b04181","602110864497cf011d9c0822","0","j","NA","space","space","space","NA","j","410","NA","4467","18041","5983","NA","410","2","legacy","1024","2","48000","-16","task","5207819","odd","NA","37739","44209","39741","67132","3641","27680","21692","67636","NA","67129","67636","67077","44209","68046","35783","66577","3628","58557","Lexical Decision Task","12","15435","15","yes","1024"
"3.440331212","7.35","6","stew","word","81.25","81.25","992.9375","992.9375","black","no","legacy","legacy","legacy","0","uniform","1","undefined","undefined","undefined","1","j","0","0","0","0","15","0","0","0","15","NA","11","15","11","0","11","3","15","0","15","Fri Feb 19 17:49:49 2021","The main experiment item","yes","Lexical_Decision_Task.osexp","/Users/shannonbellinger","no","Andale Mono","no","18","no","white","no","yes","576","legacy","11","11","3","/Users/shannonbellinger/subject-5207819.csv","legacy","Lentiform Loewenfeld","3.3.7","yes","yes","600bd7cfb6416f0113b04181","602110864497cf011d9c0822","0","j","NA","space","space","space","NA","j","452","NA","4467","18041","5983","NA","452","2","legacy","1024","2","48000","-16","task","5207819","odd","NA","37739","44209","39741","68606","3641","27680","21692","69109","NA","68604","69109","68551","44209","69561","35783","68050","3628","58557","Lexical Decision Task","13","15887","16","yes","1024"
"2.880623071","0","9","curp","non-word","82.3529411764706","82.3529411764706","1002.2941176470588","1002.2941176470588","black","no","legacy","legacy","legacy","0","uniform","1","undefined","undefined","undefined","1","f","0","0","0","0","16","0","0","0","16","NA","12","16","12","0","12","3","16","0","16","Fri Feb 19 17:49:49 2021","The main experiment item","yes","Lexical_Decision_Task.osexp","/Users/shannonbellinger","no","Andale Mono","no","18","no","white","no","yes","576","legacy","12","12","3","/Users/shannonbellinger/subject-5207819.csv","legacy","Lentiform Loewenfeld","3.3.7","yes","yes","600bd7cfb6416f0113b04181","602110864497cf011d9c0822","0","f","NA","space","space","space","NA","f","1152","NA","4467","18041","5983","NA","1152","2","legacy","1024","2","48000","-16","task","5207819","odd","NA","37739","44209","39741","70120","3641","27680","21692","70623","NA","70118","70623","70065","44209","71776","35783","69565","3628","58557","Lexical Decision Task","14","17039","17","yes","1024"
"2.75025376","10.2","6","jump","word","83.33333333333333","83.33333333333333","972.9444444444445","972.9444444444445","black","no","legacy","legacy","legacy","0","uniform","1","undefined","undefined","undefined","1","j","0","0","0","0","17","0","0","0","17","NA","13","17","13","0","13","3","17","0","17","Fri Feb 19 17:49:49 2021","The main experiment item","yes","Lexical_Decision_Task.osexp","/Users/shannonbellinger","no","Andale Mono","no","18","no","white","no","yes","576","legacy","13","13","3","/Users/shannonbellinger/subject-5207819.csv","legacy","Lentiform Loewenfeld","3.3.7","yes","yes","600bd7cfb6416f0113b04181","602110864497cf011d9c0822","0","j","NA","space","space","space","NA","j","474","NA","4467","18041","5983","NA","474","2","legacy","1024","2","48000","-16","task","5207819","odd","NA","37739","44209","39741","72334","3641","27680","21692","72838","NA","72332","72838","72280","44209","73313","35783","71780","3628","58557","Lexical Decision Task","15","17513","18","yes","1024"
"2.983324025","9.56","2","debt","word","84.21052631578948","84.21052631578948","949.9473684210526","949.9473684210526","black","no","legacy","legacy","legacy","0","uniform","1","undefined","undefined","undefined","1","j","0","0","0","0","18","0","0","0","18","NA","14","18","14","0","14","3","18","0","18","Fri Feb 19 17:49:49 2021","The main experiment item","yes","Lexical_Decision_Task.osexp","/Users/shannonbellinger","no","Andale Mono","no","18","no","white","no","yes","576","legacy","14","14","3","/Users/shannonbellinger/subject-5207819.csv","legacy","Lentiform Loewenfeld","3.3.7","yes","yes","600bd7cfb6416f0113b04181","602110864497cf011d9c0822","0","j","NA","space","space","space","NA","j","536","NA","4467","18041","5983","NA","536","2","legacy","1024","2","48000","-16","task","5207819","odd","NA","37739","44209","39741","73873","3641","27680","21692","74376","NA","73871","74376","73817","44209","74913","35783","73317","3628","58557","Lexical Decision Task","16","18049","19","yes","1024"
"2.8162413","0","5","nusk","non-word","85","85","942.15","942.15","black","no","legacy","legacy","legacy","0","uniform","1","undefined","undefined","undefined","1","f","0","0","0","0","19","0","0","0","19","NA","15","19","15","0","15","3","19","0","19","Fri Feb 19 17:49:49 2021","The main experiment item","yes","Lexical_Decision_Task.osexp","/Users/shannonbellinger","no","Andale Mono","no","18","no","white","no","yes","576","legacy","15","15","3","/Users/shannonbellinger/subject-5207819.csv","legacy","Lentiform Loewenfeld","3.3.7","yes","yes","600bd7cfb6416f0113b04181","602110864497cf011d9c0822","0","f","NA","space","space","space","NA","f","794","NA","4467","18041","5983","NA","794","2","legacy","1024","2","48000","-16","task","5207819","odd","NA","37739","44209","39741","75474","3641","27680","21692","75977","NA","75472","75978","75417","44209","76773","35783","74917","3628","58557","Lexical Decision Task","17","18843","20","yes","1024"
"3.347850856","10.51","2","rich","word","85.71428571428571","85.71428571428571","921.1904761904761","921.1904761904761","black","no","legacy","legacy","legacy","0","uniform","1","undefined","undefined","undefined","1","j","0","0","0","0","20","0","0","0","20","NA","16","20","16","0","16","3","20","0","20","Fri Feb 19 17:49:49 2021","The main experiment item","yes","Lexical_Decision_Task.osexp","/Users/shannonbellinger","no","Andale Mono","no","18","no","white","no","yes","576","legacy","16","16","3","/Users/shannonbellinger/subject-5207819.csv","legacy","Lentiform Loewenfeld","3.3.7","yes","yes","600bd7cfb6416f0113b04181","602110864497cf011d9c0822","0","j","NA","space","space","space","NA","j","502","NA","4467","18041","5983","NA","502","2","legacy","1024","2","48000","-16","task","5207819","odd","NA","37739","44209","39741","77331","3641","27680","21692","77834","NA","77328","77834","77276","44209","78337","35783","76776","3628","58557","Lexical Decision Task","18","19345","21","yes","1024"
"2.842815106","7.86","8","lump","word","86.36363636363636","86.36363636363636","908.3636363636364","908.3636363636364","black","no","legacy","legacy","legacy","0","uniform","1","undefined","undefined","undefined","1","j","0","0","0","0","21","0","0","0","21","NA","17","21","17","0","17","3","21","0","21","Fri Feb 19 17:49:49 2021","The main experiment item","yes","Lexical_Decision_Task.osexp","/Users/shannonbellinger","no","Andale Mono","no","18","no","white","no","yes","576","legacy","17","17","3","/Users/shannonbellinger/subject-5207819.csv","legacy","Lentiform Loewenfeld","3.3.7","yes","yes","600bd7cfb6416f0113b04181","602110864497cf011d9c0822","0","j","NA","space","space","space","NA","j","639","NA","4467","18041","5983","NA","639","2","legacy","1024","2","48000","-16","task","5207819","odd","NA","37739","44209","39741","78895","3641","27680","21692","79398","NA","78893","79398","78841","44209","80038","35783","78341","3628","58557","Lexical Decision Task","19","19984","22","yes","1024"
"3.174641193","0","3","ramb","non-word","86.95652173913044","86.95652173913044","911.8260869565217","911.8260869565217","black","no","legacy","legacy","legacy","0","uniform","1","undefined","undefined","undefined","1","f","0","0","0","0","22","0","0","0","22","NA","18","22","18","0","18","3","22","0","22","Fri Feb 19 17:49:49 2021","The main experiment item","yes","Lexical_Decision_Task.osexp","/Users/shannonbellinger","no","Andale Mono","no","18","no","white","no","yes","576","legacy","18","18","3","/Users/shannonbellinger/subject-5207819.csv","legacy","Lentiform Loewenfeld","3.3.7","yes","yes","600bd7cfb6416f0113b04181","602110864497cf011d9c0822","0","f","NA","space","space","space","NA","f","988","NA","4467","18041","5983","NA","988","2","legacy","1024","2","48000","-16","task","5207819","odd","NA","37739","44209","39741","80597","3641","27680","21692","81102","NA","80594","81102","80542","44209","82091","35783","80041","3628","58557","Lexical Decision Task","20","20972","23","yes","1024"
"3.248054965","7.86","5","glow","word","87.5","87.5","892.25","892.25","black","no","legacy","legacy","legacy","0","uniform","1","undefined","undefined","undefined","1","j","0","0","0","0","23","0","0","0","23","NA","19","23","19","0","19","3","23","0","23","Fri Feb 19 17:49:49 2021","The main experiment item","yes","Lexical_Decision_Task.osexp","/Users/shannonbellinger","no","Andale Mono","no","18","no","white","no","yes","576","legacy","19","19","3","/Users/shannonbellinger/subject-5207819.csv","legacy","Lentiform Loewenfeld","3.3.7","yes","yes","600bd7cfb6416f0113b04181","602110864497cf011d9c0822","0","j","NA","space","space","space","NA","j","442","NA","4467","18041","5983","NA","442","2","legacy","1024","2","48000","-16","task","5207819","odd","NA","37739","44209","39741","82651","3641","27680","21692","83154","NA","82648","83154","82595","44209","83597","35783","82094","3628","58557","Lexical Decision Task","21","21414","24","yes","1024"
"2.971428938","9.86","7","spot","word","88","88","875.48","875.48","black","no","legacy","legacy","legacy","0","uniform","1","undefined","undefined","undefined","1","j","0","0","0","0","24","0","0","0","24","NA","20","24","20","0","20","3","24","0","24","Fri Feb 19 17:49:49 2021","The main experiment item","yes","Lexical_Decision_Task.osexp","/Users/shannonbellinger","no","Andale Mono","no","18","no","white","no","yes","576","legacy","20","20","3","/Users/shannonbellinger/subject-5207819.csv","legacy","Lentiform Loewenfeld","3.3.7","yes","yes","600bd7cfb6416f0113b04181","602110864497cf011d9c0822","0","j","NA","space","space","space","NA","j","473","NA","4467","18041","5983","NA","473","2","legacy","1024","2","48000","-16","task","5207819","odd","NA","37739","44209","39741","84158","3641","27680","21692","84664","NA","84155","84664","84101","44209","85138","35783","83601","3628","58557","Lexical Decision Task","22","21887","25","yes","1024"
"2.706148589","0","4","hube","non-word","88.46153846153847","88.46153846153847","867.5","867.5","black","no","legacy","legacy","legacy","0","uniform","1","undefined","undefined","undefined","1","f","0","0","0","0","25","0","0","0","25","NA","21","25","21","0","21","3","25","0","25","Fri Feb 19 17:49:49 2021","The main experiment item","yes","Lexical_Decision_Task.osexp","/Users/shannonbellinger","no","Andale Mono","no","18","no","white","no","yes","576","legacy","21","21","3","/Users/shannonbellinger/subject-5207819.csv","legacy","Lentiform Loewenfeld","3.3.7","yes","yes","600bd7cfb6416f0113b04181","602110864497cf011d9c0822","0","f","NA","space","space","space","NA","f","668","NA","4467","18041","5983","NA","668","2","legacy","1024","2","48000","-16","task","5207819","odd","NA","37739","44209","39741","85699","3641","27680","21692","86204","NA","85696","86204","85641","44209","86873","35783","85141","3628","58557","Lexical Decision Task","23","22555","26","yes","1024"
"3.378276681","6.39","8","bran","word","85.18518518518519","85.18518518518519","865.8888888888889","865.8888888888889","black","no","legacy","legacy","legacy","0","uniform","0","undefined","undefined","undefined","0","j","0","0","0","0","26","0","0","0","26","NA","22","26","22","0","22","3","26","0","26","Fri Feb 19 17:49:49 2021","The main experiment item","yes","Lexical_Decision_Task.osexp","/Users/shannonbellinger","no","Andale Mono","no","18","no","white","no","yes","576","legacy","22","22","3","/Users/shannonbellinger/subject-5207819.csv","legacy","Lentiform Loewenfeld","3.3.7","yes","yes","600bd7cfb6416f0113b04181","602110864497cf011d9c0822","0","f","NA","space","space","space","NA","f","824","NA","4467","18041","5983","NA","824","2","legacy","1024","2","48000","-16","task","5207819","odd","NA","37739","44209","39741","87433","3641","27680","21692","87937","NA","87430","87938","87376","44209","88763","35783","86876","3628","58557","Lexical Decision Task","23","23379","27","yes","1024"
"2.799799878","0","4","ciff","non-word","85.71428571428571","85.71428571428571","858.1428571428571","858.1428571428571","black","no","legacy","legacy","legacy","0","uniform","1","undefined","undefined","undefined","1","f","0","0","0","0","27","0","0","0","27","NA","23","27","23","0","23","3","27","0","27","Fri Feb 19 17:49:49 2021","The main experiment item","yes","Lexical_Decision_Task.osexp","/Users/shannonbellinger","no","Andale Mono","no","18","no","white","no","yes","576","legacy","23","23","3","/Users/shannonbellinger/subject-5207819.csv","legacy","Lentiform Loewenfeld","3.3.7","yes","yes","600bd7cfb6416f0113b04181","602110864497cf011d9c0822","0","f","NA","space","space","space","NA","f","649","NA","4467","18041","5983","NA","649","2","legacy","1024","2","48000","-16","task","5207819","odd","NA","37739","44209","39741","90330","3641","27680","21692","90836","NA","90325","90836","90267","44209","91486","35783","86876","3628","88767","Lexical Decision Task","24","24028","28","yes","1024"
"2.814027728","8.2","4","foam","word","86.20689655172414","86.20689655172414","845.7241379310345","845.7241379310345","black","no","legacy","legacy","legacy","0","uniform","1","undefined","undefined","undefined","1","j","0","0","0","0","28","0","0","0","28","NA","24","28","24","0","24","3","28","0","28","Fri Feb 19 17:49:49 2021","The main experiment item","yes","Lexical_Decision_Task.osexp","/Users/shannonbellinger","no","Andale Mono","no","18","no","white","no","yes","576","legacy","24","24","3","/Users/shannonbellinger/subject-5207819.csv","legacy","Lentiform Loewenfeld","3.3.7","yes","yes","600bd7cfb6416f0113b04181","602110864497cf011d9c0822","0","j","NA","space","space","space","NA","j","498","NA","4467","18041","5983","NA","498","2","legacy","1024","2","48000","-16","task","5207819","odd","NA","37739","44209","39741","92051","3641","27680","21692","92554","NA","92048","92555","91991","44209","93054","35783","91490","3628","88767","Lexical Decision Task","25","24526","29","yes","1024"
"3.132473155","0","4","glim","non-word","86.66666666666667","86.66666666666667","841.4","841.4","black","no","legacy","legacy","legacy","0","uniform","1","undefined","undefined","undefined","1","f","0","0","0","0","29","0","0","0","29","NA","25","29","25","0","25","3","29","0","29","Fri Feb 19 17:49:49 2021","The main experiment item","yes","Lexical_Decision_Task.osexp","/Users/shannonbellinger","no","Andale Mono","no","18","no","white","no","yes","576","legacy","25","25","3","/Users/shannonbellinger/subject-5207819.csv","legacy","Lentiform Loewenfeld","3.3.7","yes","yes","600bd7cfb6416f0113b04181","602110864497cf011d9c0822","0","f","NA","space","space","space","NA","f","716","NA","4467","18041","5983","NA","716","2","legacy","1024","2","48000","-16","task","5207819","odd","NA","37739","44209","39741","93614","3641","27680","21692","94119","NA","93611","94119","93558","44209","94836","35783","93058","3628","88767","Lexical Decision Task","26","25242","30","yes","1024"
"2.868644438","10.52","4","town","word","87.09677419354838","87.09677419354838","828.258064516129","828.258064516129","black","no","legacy","legacy","legacy","0","uniform","1","undefined","undefined","undefined","1","j","0","0","0","0","30","0","0","0","30","NA","26","30","26","0","26","3","30","0","30","Fri Feb 19 17:49:49 2021","The main experiment item","yes","Lexical_Decision_Task.osexp","/Users/shannonbellinger","no","Andale Mono","no","18","no","white","no","yes","576","legacy","26","26","3","/Users/shannonbellinger/subject-5207819.csv","legacy","Lentiform Loewenfeld","3.3.7","yes","yes","600bd7cfb6416f0113b04181","602110864497cf011d9c0822","0","j","NA","space","space","space","NA","j","434","NA","4467","18041","5983","NA","434","2","legacy","1024","2","48000","-16","task","5207819","odd","NA","37739","44209","39741","95396","3641","27680","21692","95899","NA","95393","95899","95340","44209","96333","35783","94840","3628","88767","Lexical Decision Task","27","25676","31","yes","1024"
"3.705778213","0","6","stin","non-word","87.5","87.5","821.84375","821.84375","black","no","legacy","legacy","legacy","0","uniform","1","undefined","undefined","undefined","1","f","0","0","0","0","31","0","0","0","31","NA","27","31","27","0","27","3","31","0","31","Fri Feb 19 17:49:49 2021","The main experiment item","yes","Lexical_Decision_Task.osexp","/Users/shannonbellinger","no","Andale Mono","no","18","no","white","no","yes","576","legacy","27","27","3","/Users/shannonbellinger/subject-5207819.csv","legacy","Lentiform Loewenfeld","3.3.7","yes","yes","600bd7cfb6416f0113b04181","602110864497cf011d9c0822","0","f","NA","space","space","space","NA","f","623","NA","4467","18041","5983","NA","623","2","legacy","1024","2","48000","-16","task","5207819","odd","NA","37739","44209","39741","96892","3641","27680","21692","97395","NA","96889","97395","96837","44209","98018","35783","96337","3628","88767","Lexical Decision Task","28","26299","32","yes","1024"
"2.771097306","0","9","jold","non-word","87.87878787878788","87.87878787878788","813.4242424242424","813.4242424242424","black","no","legacy","legacy","legacy","0","uniform","1","undefined","undefined","undefined","1","f","0","0","0","0","32","0","0","0","32","NA","28","32","28","0","28","3","32","0","32","Fri Feb 19 17:49:49 2021","The main experiment item","yes","Lexical_Decision_Task.osexp","/Users/shannonbellinger","no","Andale Mono","no","18","no","white","no","yes","576","legacy","28","28","3","/Users/shannonbellinger/subject-5207819.csv","legacy","Lentiform Loewenfeld","3.3.7","yes","yes","600bd7cfb6416f0113b04181","602110864497cf011d9c0822","0","f","NA","space","space","space","NA","f","544","NA","4467","18041","5983","NA","544","2","legacy","1024","2","48000","-16","task","5207819","odd","NA","37739","44209","39741","98576","3641","27680","21692","99079","NA","98574","99079","98522","44209","99624","35783","98022","3628","88767","Lexical Decision Task","29","26843","33","yes","1024"
"2.809559715","8.44","4","volt","word","88.23529411764706","88.23529411764706","809.5294117647059","809.5294117647059","black","no","legacy","legacy","legacy","0","uniform","1","undefined","undefined","undefined","1","j","0","0","0","0","33","0","0","0","33","NA","29","33","29","0","29","3","33","0","33","Fri Feb 19 17:49:49 2021","The main experiment item","yes","Lexical_Decision_Task.osexp","/Users/shannonbellinger","no","Andale Mono","no","18","no","white","no","yes","576","legacy","29","29","3","/Users/shannonbellinger/subject-5207819.csv","legacy","Lentiform Loewenfeld","3.3.7","yes","yes","600bd7cfb6416f0113b04181","602110864497cf011d9c0822","0","j","NA","space","space","space","NA","j","681","NA","4467","18041","5983","NA","681","2","legacy","1024","2","48000","-16","task","5207819","odd","NA","37739","44209","39741","100182","3641","27680","21692","100686","NA","100180","100686","100128","44209","101368","35783","99628","3628","88767","Lexical Decision Task","30","27524","34","yes","1024"
"3.269668578","0","7","trag","non-word","88.57142857142857","88.57142857142857","804.9428571428572","804.9428571428572","black","no","legacy","legacy","legacy","0","uniform","1","undefined","undefined","undefined","1","f","0","0","0","0","34","0","0","0","34","NA","30","34","30","0","30","3","34","0","34","Fri Feb 19 17:49:49 2021","The main experiment item","yes","Lexical_Decision_Task.osexp","/Users/shannonbellinger","no","Andale Mono","no","18","no","white","no","yes","576","legacy","30","30","3","/Users/shannonbellinger/subject-5207819.csv","legacy","Lentiform Loewenfeld","3.3.7","yes","yes","600bd7cfb6416f0113b04181","602110864497cf011d9c0822","0","f","NA","space","space","space","NA","f","649","NA","4467","18041","5983","NA","649","2","legacy","1024","2","48000","-16","task","5207819","odd","NA","37739","44209","39741","101928","3641","27680","21692","102431","NA","101925","102432","101872","44209","103082","35783","101372","3628","88767","Lexical Decision Task","31","28173","35","yes","1024"
"3.299579929","0","2","flis","non-word","88.88888888888889","88.88888888888889","798.2777777777778","798.2777777777778","black","no","legacy","legacy","legacy","0","uniform","1","undefined","undefined","undefined","1","f","0","0","0","0","35","0","0","0","35","NA","31","35","31","0","31","3","35","0","35","Fri Feb 19 17:49:49 2021","The main experiment item","yes","Lexical_Decision_Task.osexp","/Users/shannonbellinger","no","Andale Mono","no","18","no","white","no","yes","576","legacy","31","31","3","/Users/shannonbellinger/subject-5207819.csv","legacy","Lentiform Loewenfeld","3.3.7","yes","yes","600bd7cfb6416f0113b04181","602110864497cf011d9c0822","0","f","NA","space","space","space","NA","f","565","NA","4467","18041","5983","NA","565","2","legacy","1024","2","48000","-16","task","5207819","odd","NA","37739","44209","39741","103640","3641","27680","21692","104143","NA","103638","104143","103585","44209","104709","35783","103085","3628","88767","Lexical Decision Task","32","28738","36","yes","1024"
"2.594027722","9.08","8","skip","word","89.1891891891892","89.1891891891892","787.9459459459459","787.9459459459459","black","no","legacy","legacy","legacy","0","uniform","1","undefined","undefined","undefined","1","j","0","0","0","0","36","0","0","0","36","NA","32","36","32","0","32","3","36","0","36","Fri Feb 19 17:49:49 2021","The main experiment item","yes","Lexical_Decision_Task.osexp","/Users/shannonbellinger","no","Andale Mono","no","18","no","white","no","yes","576","legacy","32","32","3","/Users/shannonbellinger/subject-5207819.csv","legacy","Lentiform Loewenfeld","3.3.7","yes","yes","600bd7cfb6416f0113b04181","602110864497cf011d9c0822","0","j","NA","space","space","space","NA","j","416","NA","4467","18041","5983","NA","416","2","legacy","1024","2","48000","-16","task","5207819","odd","NA","37739","44209","39741","105267","3641","27680","21692","105770","NA","105264","105770","105212","44209","106187","35783","104712","3628","88767","Lexical Decision Task","33","29154","37","yes","1024"
"3.397302518","7.01","2","knit","word","89.47368421052632","89.47368421052632","779.921052631579","779.921052631579","black","no","legacy","legacy","legacy","0","uniform","1","undefined","undefined","undefined","1","j","0","0","0","0","37","0","0","0","37","NA","33","37","33","0","33","3","37","0","37","Fri Feb 19 17:49:49 2021","The main experiment item","yes","Lexical_Decision_Task.osexp","/Users/shannonbellinger","no","Andale Mono","no","18","no","white","no","yes","576","legacy","33","33","3","/Users/shannonbellinger/subject-5207819.csv","legacy","Lentiform Loewenfeld","3.3.7","yes","yes","600bd7cfb6416f0113b04181","602110864497cf011d9c0822","0","j","NA","space","space","space","NA","j","483","NA","4467","18041","5983","NA","483","2","legacy","1024","2","48000","-16","task","5207819","odd","NA","37739","44209","39741","106746","3641","27680","21692","107250","NA","106743","107250","106691","44209","107734","35783","106191","3628","88767","Lexical Decision Task","34","29637","38","yes","1024"
"3.031408464","0","7","drow","non-word","89.74358974358974","89.74358974358974","778.0512820512821","778.0512820512821","black","no","legacy","legacy","legacy","0","uniform","1","undefined","undefined","undefined","1","f","0","0","0","0","38","0","0","0","38","NA","34","38","34","0","34","3","38","0","38","Fri Feb 19 17:49:49 2021","The main experiment item","yes","Lexical_Decision_Task.osexp","/Users/shannonbellinger","no","Andale Mono","no","18","no","white","no","yes","576","legacy","34","34","3","/Users/shannonbellinger/subject-5207819.csv","legacy","Lentiform Loewenfeld","3.3.7","yes","yes","600bd7cfb6416f0113b04181","602110864497cf011d9c0822","0","f","NA","space","space","space","NA","f","707","NA","4467","18041","5983","NA","707","2","legacy","1024","2","48000","-16","task","5207819","odd","NA","37739","44209","39741","108295","3641","27680","21692","108800","NA","108291","108800","108238","44209","109508","35783","107738","3628","88767","Lexical Decision Task","35","30344","39","yes","1024"
"2.696644658","5.78","2","yolk","word","90","90","774.6","774.6","black","no","legacy","legacy","legacy","0","uniform","1","undefined","undefined","undefined","1","j","0","0","0","0","39","0","0","0","39","NA","35","39","35","0","35","3","39","0","39","Fri Feb 19 17:49:49 2021","The main experiment item","yes","Lexical_Decision_Task.osexp","/Users/shannonbellinger","no","Andale Mono","no","18","no","white","no","yes","576","legacy","35","35","3","/Users/shannonbellinger/subject-5207819.csv","legacy","Lentiform Loewenfeld","3.3.7","yes","yes","600bd7cfb6416f0113b04181","602110864497cf011d9c0822","0","j","NA","space","space","space","NA","j","640","NA","4467","18041","5983","NA","640","2","legacy","1024","2","48000","-16","task","5207819","odd","NA","37739","44209","39741","110068","3641","27680","21692","110572","NA","110065","110572","110012","44209","111213","35783","109512","3628","88767","Lexical Decision Task","36","30984","40","yes","1024"
"2.803231716","5.26","3","kiln","word","90.2439024390244","90.2439024390244","772.3414634146342","772.3414634146342","black","no","legacy","legacy","legacy","0","uniform","1","undefined","undefined","undefined","1","j","0","0","0","0","40","0","0","0","40","NA","36","40","36","0","36","3","40","0","40","Fri Feb 19 17:49:49 2021","The main experiment item","yes","Lexical_Decision_Task.osexp","/Users/shannonbellinger","no","Andale Mono","no","18","no","white","no","yes","576","legacy","36","36","3","/Users/shannonbellinger/subject-5207819.csv","legacy","Lentiform Loewenfeld","3.3.7","yes","yes","600bd7cfb6416f0113b04181","602110864497cf011d9c0822","0","j","NA","space","space","space","NA","j","682","NA","4467","18041","5983","NA","682","2","legacy","1024","2","48000","-16","task","5207819","odd","NA","37739","44209","39741","111774","3641","27680","21692","112278","NA","111771","112279","111717","44209","112963","35783","111217","3628","88767","Lexical Decision Task","37","31666","41","yes","1024"
"3.252447662","9.67","9","boat","word","90.47619047619048","90.47619047619048","764.9285714285714","764.9285714285714","black","no","legacy","legacy","legacy","0","uniform","1","undefined","undefined","undefined","1","j","0","0","0","0","41","0","0","0","41","NA","37","41","37","0","37","3","41","0","41","Fri Feb 19 17:49:49 2021","The main experiment item","yes","Lexical_Decision_Task.osexp","/Users/shannonbellinger","no","Andale Mono","no","18","no","white","no","yes","576","legacy","37","37","3","/Users/shannonbellinger/subject-5207819.csv","legacy","Lentiform Loewenfeld","3.3.7","yes","yes","600bd7cfb6416f0113b04181","602110864497cf011d9c0822","0","j","NA","space","space","space","NA","j","461","NA","4467","18041","5983","NA","461","2","legacy","1024","2","48000","-16","task","5207819","odd","NA","37739","44209","39741","113522","3641","27680","21692","114025","NA","113519","114026","113466","44209","114488","35783","112966","3628","88767","Lexical Decision Task","38","32127","42","yes","1024"
"2.86332286","6.71","2","feud","word","90.69767441860465","90.69767441860465","764.1627906976744","764.1627906976744","black","no","legacy","legacy","legacy","0","uniform","1","undefined","undefined","undefined","1","j","0","0","0","0","42","0","0","0","42","NA","38","42","38","0","38","3","42","0","42","Fri Feb 19 17:49:49 2021","The main experiment item","yes","Lexical_Decision_Task.osexp","/Users/shannonbellinger","no","Andale Mono","no","18","no","white","no","yes","576","legacy","38","38","3","/Users/shannonbellinger/subject-5207819.csv","legacy","Lentiform Loewenfeld","3.3.7","yes","yes","600bd7cfb6416f0113b04181","602110864497cf011d9c0822","0","j","NA","space","space","space","NA","j","732","NA","4467","18041","5983","NA","732","2","legacy","1024","2","48000","-16","task","5207819","odd","NA","37739","44209","39741","115049","3641","27680","21692","115553","NA","115047","115553","114992","44209","116286","35783","114492","3628","88767","Lexical Decision Task","39","32859","43","yes","1024"
"2.69019608","9.01","2","myth","word","90.9090909090909","90.9090909090909","757.75","757.75","black","no","legacy","legacy","legacy","0","uniform","1","undefined","undefined","undefined","1","j","0","0","0","0","43","0","0","0","43","NA","39","43","39","0","39","3","43","0","43","Fri Feb 19 17:49:49 2021","The main experiment item","yes","Lexical_Decision_Task.osexp","/Users/shannonbellinger","no","Andale Mono","no","18","no","white","no","yes","576","legacy","39","39","3","/Users/shannonbellinger/subject-5207819.csv","legacy","Lentiform Loewenfeld","3.3.7","yes","yes","600bd7cfb6416f0113b04181","602110864497cf011d9c0822","0","j","NA","space","space","space","NA","j","482","NA","4467","18041","5983","NA","482","2","legacy","1024","2","48000","-16","task","5207819","odd","NA","37739","44209","39741","116846","3641","27680","21692","117349","NA","116843","117349","116790","44209","117832","35783","116290","3628","88767","Lexical Decision Task","40","33341","44","yes","1024"
"3.14849993","10.75","7","hour","word","91.11111111111111","91.11111111111111","751.6666666666666","751.6666666666666","black","no","legacy","legacy","legacy","0","uniform","1","undefined","undefined","undefined","1","j","0","0","0","0","44","0","0","0","44","NA","40","44","40","0","40","3","44","0","44","Fri Feb 19 17:49:49 2021","The main experiment item","yes","Lexical_Decision_Task.osexp","/Users/shannonbellinger","no","Andale Mono","no","18","no","white","no","yes","576","legacy","40","40","3","/Users/shannonbellinger/subject-5207819.csv","legacy","Lentiform Loewenfeld","3.3.7","yes","yes","600bd7cfb6416f0113b04181","602110864497cf011d9c0822","0","j","NA","space","space","space","NA","j","484","NA","4467","18041","5983","NA","484","2","legacy","1024","2","48000","-16","task","5207819","odd","NA","37739","44209","39741","118392","3641","27680","21692","118895","NA","118389","118895","118336","44209","119381","35783","117836","3628","88767","Lexical Decision Task","41","33825","45","yes","1024"
"2.709837904","6.85","8","skim","word","91.30434782608695","91.30434782608695","749.9782608695652","749.9782608695652","black","no","legacy","legacy","legacy","0","uniform","1","undefined","undefined","undefined","1","j","0","0","0","0","45","0","0","0","45","NA","41","45","41","0","41","3","45","0","45","Fri Feb 19 17:49:49 2021","The main experiment item","yes","Lexical_Decision_Task.osexp","/Users/shannonbellinger","no","Andale Mono","no","18","no","white","no","yes","576","legacy","41","41","3","/Users/shannonbellinger/subject-5207819.csv","legacy","Lentiform Loewenfeld","3.3.7","yes","yes","600bd7cfb6416f0113b04181","602110864497cf011d9c0822","0","j","NA","space","space","space","NA","j","674","NA","4467","18041","5983","NA","674","2","legacy","1024","2","48000","-16","task","5207819","odd","NA","37739","44209","39741","119941","3641","27680","21692","120444","NA","119937","120444","119884","44209","121119","35783","119384","3628","88767","Lexical Decision Task","42","34499","46","yes","1024"
"2.713490543","0","3","feps","non-word","91.48936170212765","91.48936170212765","746.0851063829788","746.0851063829788","black","no","legacy","legacy","legacy","0","uniform","1","undefined","undefined","undefined","1","f","0","0","0","0","46","0","0","0","46","NA","42","46","42","0","42","3","46","0","46","Fri Feb 19 17:49:49 2021","The main experiment item","yes","Lexical_Decision_Task.osexp","/Users/shannonbellinger","no","Andale Mono","no","18","no","white","no","yes","576","legacy","42","42","3","/Users/shannonbellinger/subject-5207819.csv","legacy","Lentiform Loewenfeld","3.3.7","yes","yes","600bd7cfb6416f0113b04181","602110864497cf011d9c0822","0","f","NA","space","space","space","NA","f","567","NA","4467","18041","5983","NA","567","2","legacy","1024","2","48000","-16","task","5207819","odd","NA","37739","44209","39741","121679","3641","27680","21692","122183","NA","121675","122183","121622","44209","122751","35783","121122","3628","88767","Lexical Decision Task","43","35066","47","yes","1024"
"2.664328519","0","4","plux","non-word","91.66666666666667","91.66666666666667","748.7291666666666","748.7291666666666","black","no","legacy","legacy","legacy","0","uniform","1","undefined","undefined","undefined","1","f","0","0","0","0","47","0","0","0","47","NA","43","47","43","0","43","3","47","0","47","Fri Feb 19 17:49:49 2021","The main experiment item","yes","Lexical_Decision_Task.osexp","/Users/shannonbellinger","no","Andale Mono","no","18","no","white","no","yes","576","legacy","43","43","3","/Users/shannonbellinger/subject-5207819.csv","legacy","Lentiform Loewenfeld","3.3.7","yes","yes","600bd7cfb6416f0113b04181","602110864497cf011d9c0822","0","f","NA","space","space","space","NA","f","873","NA","4467","18041","5983","NA","873","2","legacy","1024","2","48000","-16","task","5207819","odd","NA","37739","44209","39741","123312","3641","27680","21692","123816","NA","123309","123816","123255","44209","124690","35783","122755","3628","88767","Lexical Decision Task","44","35939","48","yes","1024"
"3.218535505","7.85","7","goat","word","91.83673469387755","91.83673469387755","742.8367346938776","742.8367346938776","black","no","legacy","legacy","legacy","0","uniform","1","undefined","undefined","undefined","1","j","0","0","0","0","48","0","0","0","48","NA","44","48","44","0","44","3","48","0","48","Fri Feb 19 17:49:49 2021","The main experiment item","yes","Lexical_Decision_Task.osexp","/Users/shannonbellinger","no","Andale Mono","no","18","no","white","no","yes","576","legacy","44","44","3","/Users/shannonbellinger/subject-5207819.csv","legacy","Lentiform Loewenfeld","3.3.7","yes","yes","600bd7cfb6416f0113b04181","602110864497cf011d9c0822","0","j","NA","space","space","space","NA","j","460","NA","4467","18041","5983","NA","460","2","legacy","1024","2","48000","-16","task","5207819","odd","NA","37739","44209","39741","125251","3641","27680","21692","125755","NA","125247","125755","125194","44209","126216","35783","124694","3628","88767","Lexical Decision Task","45","36399","49","yes","1024"
"2.746890964","9.67","3","plug","word","92","92","736.96","736.96","black","no","legacy","legacy","legacy","0","uniform","1","undefined","undefined","undefined","1","j","0","0","0","0","49","0","0","0","49","NA","45","49","45","0","45","3","49","0","49","Fri Feb 19 17:49:49 2021","The main experiment item","yes","Lexical_Decision_Task.osexp","/Users/shannonbellinger","no","Andale Mono","no","18","no","white","no","yes","576","legacy","45","45","3","/Users/shannonbellinger/subject-5207819.csv","legacy","Lentiform Loewenfeld","3.3.7","yes","yes","600bd7cfb6416f0113b04181","602110864497cf011d9c0822","0","j","NA","space","space","space","NA","j","449","NA","4467","18041","5983","NA","449","2","legacy","1024","2","48000","-16","task","5207819","odd","NA","37739","44209","39741","126776","3641","27680","21692","127279","NA","126772","127279","126719","44209","127729","35783","126219","3628","88767","Lexical Decision Task","46","36848","50","yes","1024"
"2.920123326","7.43","4","duel","word","92.15686274509804","92.15686274509804","734.8235294117648","734.8235294117648","black","no","legacy","legacy","legacy","0","uniform","1","undefined","undefined","undefined","1","j","0","0","0","0","50","0","0","0","50","NA","46","50","46","0","46","3","50","0","50","Fri Feb 19 17:49:49 2021","The main experiment item","yes","Lexical_Decision_Task.osexp","/Users/shannonbellinger","no","Andale Mono","no","18","no","white","no","yes","576","legacy","46","46","3","/Users/shannonbellinger/subject-5207819.csv","legacy","Lentiform Loewenfeld","3.3.7","yes","yes","600bd7cfb6416f0113b04181","602110864497cf011d9c0822","0","j","NA","space","space","space","NA","j","628","NA","4467","18041","5983","NA","628","2","legacy","1024","2","48000","-16","task","5207819","odd","NA","37739","44209","39741","128291","3641","27680","21692","128795","NA","128288","128795","128234","44209","129424","35783","127734","3628","88767","Lexical Decision Task","47","37476","51","yes","1024"
"2.714888338","0","3","brug","non-word","92.3076923076923","92.3076923076923","732.1923076923077","732.1923076923077","black","no","legacy","legacy","legacy","0","uniform","1","undefined","undefined","undefined","1","f","0","0","0","0","51","0","0","0","51","NA","47","51","47","0","47","3","51","0","51","Fri Feb 19 17:49:49 2021","The main experiment item","yes","Lexical_Decision_Task.osexp","/Users/shannonbellinger","no","Andale Mono","no","18","no","white","no","yes","576","legacy","47","47","3","/Users/shannonbellinger/subject-5207819.csv","legacy","Lentiform Loewenfeld","3.3.7","yes","yes","600bd7cfb6416f0113b04181","602110864497cf011d9c0822","0","f","NA","space","space","space","NA","f","598","NA","4467","18041","5983","NA","598","2","legacy","1024","2","48000","-16","task","5207819","odd","NA","37739","44209","39741","129985","3641","27680","21692","130489","NA","129981","130489","129928","44209","131088","35783","129428","3628","88767","Lexical Decision Task","48","38074","52","yes","1024"
"3.230789326","5.38","5","prim","word","92.45283018867924","92.45283018867924","737.9433962264151","737.9433962264151","black","no","legacy","legacy","legacy","0","uniform","1","undefined","undefined","undefined","1","j","0","0","0","0","52","0","0","0","52","NA","48","52","48","0","48","3","52","0","52","Fri Feb 19 17:49:49 2021","The main experiment item","yes","Lexical_Decision_Task.osexp","/Users/shannonbellinger","no","Andale Mono","no","18","no","white","no","yes","576","legacy","48","48","3","/Users/shannonbellinger/subject-5207819.csv","legacy","Lentiform Loewenfeld","3.3.7","yes","yes","600bd7cfb6416f0113b04181","602110864497cf011d9c0822","0","j","NA","space","space","space","NA","j","1037","NA","4467","18041","5983","NA","1037","2","legacy","1024","2","48000","-16","task","5207819","odd","NA","37739","44209","39741","131649","3641","27680","21692","132152","NA","131646","132152","131592","44209","133190","35783","131092","3628","88767","Lexical Decision Task","49","39111","53","yes","1024"
"2.782472624","10.55","2","huge","word","92.5925925925926","92.5925925925926","733.1111111111111","733.1111111111111","black","no","legacy","legacy","legacy","0","uniform","1","undefined","undefined","undefined","1","j","0","0","0","0","53","0","0","0","53","NA","49","53","49","0","49","3","53","0","53","Fri Feb 19 17:49:49 2021","The main experiment item","yes","Lexical_Decision_Task.osexp","/Users/shannonbellinger","no","Andale Mono","no","18","no","white","no","yes","576","legacy","49","49","3","/Users/shannonbellinger/subject-5207819.csv","legacy","Lentiform Loewenfeld","3.3.7","yes","yes","600bd7cfb6416f0113b04181","602110864497cf011d9c0822","0","j","NA","space","space","space","NA","j","477","NA","4467","18041","5983","NA","477","2","legacy","1024","2","48000","-16","task","5207819","odd","NA","37739","44209","39741","133750","3641","27680","21692","134255","NA","133747","134255","133694","44209","134733","35783","133194","3628","88767","Lexical Decision Task","50","39588","54","yes","1024"
"2.728085817","10.02","9","bike","word","92.72727272727273","92.72727272727273","730.4545454545455","730.4545454545455","black","no","legacy","legacy","legacy","0","uniform","1","undefined","undefined","undefined","1","j","0","0","0","0","54","0","0","0","54","0","50","54","50","0","50","3","54","0","54","Fri Feb 19 17:49:49 2021","The main experiment item","yes","Lexical_Decision_Task.osexp","/Users/shannonbellinger","no","Andale Mono","no","18","no","white","no","yes","576","legacy","50","50","3","/Users/shannonbellinger/subject-5207819.csv","legacy","Lentiform Loewenfeld","3.3.7","yes","yes","600bd7cfb6416f0113b04181","602110864497cf011d9c0822","0","j","NA","space","space","space","space","j","587","NA","4467","18041","5983","6927","587","2","legacy","1024","2","48000","-16","task","5207819","odd","NA","37739","44209","39741","142244","3641","27680","21692","142747","135265","142242","142748","135237","44209","143335","35783","134737","3628","88767","Lexical Decision Task","51","40175","55","yes","1024"
"2.990042563","6.64","9","plow","word","91.07142857142857","91.07142857142857","728.5535714285714","728.5535714285714","black","no","legacy","legacy","legacy","0","uniform","0","undefined","undefined","undefined","0","j","0","0","0","0","55","0","0","0","55","0","51","55","51","0","51","3","55","0","55","Fri Feb 19 17:49:49 2021","The main experiment item","yes","Lexical_Decision_Task.osexp","/Users/shannonbellinger","no","Andale Mono","no","18","no","white","no","yes","576","legacy","51","51","3","/Users/shannonbellinger/subject-5207819.csv","legacy","Lentiform Loewenfeld","3.3.7","yes","yes","600bd7cfb6416f0113b04181","602110864497cf011d9c0822","0","f","NA","space","space","space","space","f","624","NA","4467","18041","5983","6927","624","2","legacy","1024","2","48000","-16","task","5207819","odd","NA","37739","44209","39741","143893","3641","27680","21692","144398","135265","143891","144398","143839","44209","145023","35783","143339","3628","88767","Lexical Decision Task","51","40799","56","yes","1024"
"3.302475237","0","7","leel","non-word","91.2280701754386","91.2280701754386","725.9649122807018","725.9649122807018","black","no","legacy","legacy","legacy","0","uniform","1","undefined","undefined","undefined","1","f","0","0","0","0","56","0","0","0","56","0","52","56","52","0","52","3","56","0","56","Fri Feb 19 17:49:49 2021","The main experiment item","yes","Lexical_Decision_Task.osexp","/Users/shannonbellinger","no","Andale Mono","no","18","no","white","no","yes","576","legacy","52","52","3","/Users/shannonbellinger/subject-5207819.csv","legacy","Lentiform Loewenfeld","3.3.7","yes","yes","600bd7cfb6416f0113b04181","602110864497cf011d9c0822","0","f","NA","space","space","space","space","f","581","NA","4467","18041","5983","6927","581","2","legacy","1024","2","48000","-16","task","5207819","odd","NA","37739","44209","39741","146587","3641","27680","21692","147091","135265","146585","147091","146529","44209","147673","35783","143339","3628","145028","Lexical Decision Task","52","41380","57","yes","1024"
"2.7084209","0","8","vump","non-word","91.37931034482759","91.37931034482759","724.3448275862069","724.3448275862069","black","no","legacy","legacy","legacy","0","uniform","1","undefined","undefined","undefined","1","f","0","0","0","0","57","0","0","0","57","0","53","57","53","0","53","3","57","0","57","Fri Feb 19 17:49:49 2021","The main experiment item","yes","Lexical_Decision_Task.osexp","/Users/shannonbellinger","no","Andale Mono","no","18","no","white","no","yes","576","legacy","53","53","3","/Users/shannonbellinger/subject-5207819.csv","legacy","Lentiform Loewenfeld","3.3.7","yes","yes","600bd7cfb6416f0113b04181","602110864497cf011d9c0822","0","f","NA","space","space","space","space","f","632","NA","4467","18041","5983","6927","632","2","legacy","1024","2","48000","-16","task","5207819","odd","NA","37739","44209","39741","148232","3641","27680","21692","148735","135265","148229","148735","148177","44209","149368","35783","147677","3628","145028","Lexical Decision Task","53","42012","58","yes","1024"
"3.276537627","9.15","5","trap","word","91.52542372881356","91.52542372881356","719.8813559322034","719.8813559322034","black","no","legacy","legacy","legacy","0","uniform","1","undefined","undefined","undefined","1","j","0","0","0","0","58","0","0","0","58","0","54","58","54","0","54","3","58","0","58","Fri Feb 19 17:49:49 2021","The main experiment item","yes","Lexical_Decision_Task.osexp","/Users/shannonbellinger","no","Andale Mono","no","18","no","white","no","yes","576","legacy","54","54","3","/Users/shannonbellinger/subject-5207819.csv","legacy","Lentiform Loewenfeld","3.3.7","yes","yes","600bd7cfb6416f0113b04181","602110864497cf011d9c0822","0","j","NA","space","space","space","space","j","461","NA","4467","18041","5983","6927","461","2","legacy","1024","2","48000","-16","task","5207819","odd","NA","37739","44209","39741","149927","3641","27680","21692","150430","135265","149924","150431","149872","44209","150893","35783","149372","3628","145028","Lexical Decision Task","54","42473","59","yes","1024"
"3.1430148","7.92","8","bald","word","91.66666666666667","91.66666666666667","723.1166666666667","723.1166666666667","black","no","legacy","legacy","legacy","0","uniform","1","undefined","undefined","undefined","1","j","0","0","0","0","59","0","0","0","59","0","55","59","55","0","55","3","59","0","59","Fri Feb 19 17:49:49 2021","The main experiment item","yes","Lexical_Decision_Task.osexp","/Users/shannonbellinger","no","Andale Mono","no","18","no","white","no","yes","576","legacy","55","55","3","/Users/shannonbellinger/subject-5207819.csv","legacy","Lentiform Loewenfeld","3.3.7","yes","yes","600bd7cfb6416f0113b04181","602110864497cf011d9c0822","0","j","NA","space","space","space","space","j","914","NA","4467","18041","5983","6927","914","2","legacy","1024","2","48000","-16","task","5207819","odd","NA","37739","44209","39741","151454","3641","27680","21692","151959","135265","151450","151959","151397","44209","152874","35783","150897","3628","145028","Lexical Decision Task","55","43387","60","yes","1024"
"2.899638141","0","3","hapt","non-word","91.80327868852459","91.80327868852459","720","720","black","no","legacy","legacy","legacy","0","uniform","1","undefined","undefined","undefined","1","f","0","0","0","0","60","0","0","0","60","0","56","60","56","0","56","3","60","0","60","Fri Feb 19 17:49:49 2021","The main experiment item","yes","Lexical_Decision_Task.osexp","/Users/shannonbellinger","no","Andale Mono","no","18","no","white","no","yes","576","legacy","56","56","3","/Users/shannonbellinger/subject-5207819.csv","legacy","Lentiform Loewenfeld","3.3.7","yes","yes","600bd7cfb6416f0113b04181","602110864497cf011d9c0822","0","f","NA","space","space","space","space","f","533","NA","4467","18041","5983","6927","533","2","legacy","1024","2","48000","-16","task","5207819","odd","NA","37739","44209","39741","153436","3641","27680","21692","153939","135265","153432","153940","153378","44209","154474","35783","152878","3628","145028","Lexical Decision Task","56","43920","61","yes","1024"
"2.755364069","7.72","2","hoax","word","91.93548387096774","91.93548387096774","718.0322580645161","718.0322580645161","black","no","legacy","legacy","legacy","0","uniform","1","undefined","undefined","undefined","1","j","0","0","0","0","61","0","0","0","61","0","57","61","57","0","57","3","61","0","61","Fri Feb 19 17:49:49 2021","The main experiment item","yes","Lexical_Decision_Task.osexp","/Users/shannonbellinger","no","Andale Mono","no","18","no","white","no","yes","576","legacy","57","57","3","/Users/shannonbellinger/subject-5207819.csv","legacy","Lentiform Loewenfeld","3.3.7","yes","yes","600bd7cfb6416f0113b04181","602110864497cf011d9c0822","0","j","NA","space","space","space","space","j","598","NA","4467","18041","5983","6927","598","2","legacy","1024","2","48000","-16","task","5207819","odd","NA","37739","44209","39741","155034","3641","27680","21692","155537","135265","155032","155537","154978","44209","156136","35783","154478","3628","145028","Lexical Decision Task","57","44518","62","yes","1024"
"3.067193647","6.73","6","raft","word","92.06349206349206","92.06349206349206","715.5396825396825","715.5396825396825","black","no","legacy","legacy","legacy","0","uniform","1","undefined","undefined","undefined","1","j","0","0","0","0","62","0","0","0","62","0","58","62","58","0","58","3","62","0","62","Fri Feb 19 17:49:49 2021","The main experiment item","yes","Lexical_Decision_Task.osexp","/Users/shannonbellinger","no","Andale Mono","no","18","no","white","no","yes","576","legacy","58","58","3","/Users/shannonbellinger/subject-5207819.csv","legacy","Lentiform Loewenfeld","3.3.7","yes","yes","600bd7cfb6416f0113b04181","602110864497cf011d9c0822","0","j","NA","space","space","space","space","j","561","NA","4467","18041","5983","6927","561","2","legacy","1024","2","48000","-16","task","5207819","odd","NA","37739","44209","39741","156695","3641","27680","21692","157199","135265","156692","157199","156639","44209","157761","35783","156139","3628","145028","Lexical Decision Task","58","45079","63","yes","1024"
"2.839268497","0","8","maft","non-word","92.1875","92.1875","712.3125","712.3125","black","no","legacy","legacy","legacy","0","uniform","1","undefined","undefined","undefined","1","f","0","0","0","0","63","0","0","0","63","0","59","63","59","0","59","3","63","0","63","Fri Feb 19 17:49:49 2021","The main experiment item","yes","Lexical_Decision_Task.osexp","/Users/shannonbellinger","no","Andale Mono","no","18","no","white","no","yes","576","legacy","59","59","3","/Users/shannonbellinger/subject-5207819.csv","legacy","Lentiform Loewenfeld","3.3.7","yes","yes","600bd7cfb6416f0113b04181","602110864497cf011d9c0822","0","f","NA","space","space","space","space","f","509","NA","4467","18041","5983","6927","509","2","legacy","1024","2","48000","-16","task","5207819","odd","NA","37739","44209","39741","158321","3641","27680","21692","158825","135265","158318","158825","158265","44209","159335","35783","157765","3628","145028","Lexical Decision Task","59","45588","64","yes","1024"
"2.981215883","10.66","5","hair","word","92.3076923076923","92.3076923076923","707.8","707.8","black","no","legacy","legacy","legacy","0","uniform","1","undefined","undefined","undefined","1","j","0","0","0","0","64","0","0","0","64","0","60","64","60","0","60","3","64","0","64","Fri Feb 19 17:49:49 2021","The main experiment item","yes","Lexical_Decision_Task.osexp","/Users/shannonbellinger","no","Andale Mono","no","18","no","white","no","yes","576","legacy","60","60","3","/Users/shannonbellinger/subject-5207819.csv","legacy","Lentiform Loewenfeld","3.3.7","yes","yes","600bd7cfb6416f0113b04181","602110864497cf011d9c0822","0","j","NA","space","space","space","space","j","419","NA","4467","18041","5983","6927","419","2","legacy","1024","2","48000","-16","task","5207819","odd","NA","37739","44209","39741","159895","3641","27680","21692","160398","135265","159892","160398","159839","44209","160818","35783","159339","3628","145028","Lexical Decision Task","60","46007","65","yes","1024"
"3.140404328","10.66","9","deep","word","92.42424242424242","92.42424242424242","703.8484848484849","703.8484848484849","black","no","legacy","legacy","legacy","0","uniform","1","undefined","undefined","undefined","1","j","0","0","0","0","65","0","0","0","65","0","61","65","61","0","61","3","65","0","65","Fri Feb 19 17:49:49 2021","The main experiment item","yes","Lexical_Decision_Task.osexp","/Users/shannonbellinger","no","Andale Mono","no","18","no","white","no","yes","576","legacy","61","61","3","/Users/shannonbellinger/subject-5207819.csv","legacy","Lentiform Loewenfeld","3.3.7","yes","yes","600bd7cfb6416f0113b04181","602110864497cf011d9c0822","0","j","NA","space","space","space","space","j","447","NA","4467","18041","5983","6927","447","2","legacy","1024","2","48000","-16","task","5207819","odd","NA","37739","44209","39741","161379","3641","27680","21692","161883","135265","161375","161884","161322","44209","162332","35783","160822","3628","145028","Lexical Decision Task","61","46454","66","yes","1024"
"2.698100546","0","9","mulk","non-word","92.53731343283582","92.53731343283582","703.0895522388059","703.0895522388059","black","no","legacy","legacy","legacy","0","uniform","1","undefined","undefined","undefined","1","f","0","0","0","0","66","0","0","0","66","0","62","66","62","0","62","3","66","0","66","Fri Feb 19 17:49:49 2021","The main experiment item","yes","Lexical_Decision_Task.osexp","/Users/shannonbellinger","no","Andale Mono","no","18","no","white","no","yes","576","legacy","62","62","3","/Users/shannonbellinger/subject-5207819.csv","legacy","Lentiform Loewenfeld","3.3.7","yes","yes","600bd7cfb6416f0113b04181","602110864497cf011d9c0822","0","f","NA","space","space","space","space","f","653","NA","4467","18041","5983","6927","653","2","legacy","1024","2","48000","-16","task","5207819","odd","NA","37739","44209","39741","162890","3641","27680","21692","163396","135265","162887","163396","162835","44209","164050","35783","162335","3628","145028","Lexical Decision Task","62","47107","67","yes","1024"
"2.675164031","8.57","6","glue","word","92.6470588235294","92.6470588235294","699.0294117647059","699.0294117647059","black","no","legacy","legacy","legacy","0","uniform","1","undefined","undefined","undefined","1","j","0","0","0","0","67","0","0","0","67","0","63","67","63","0","63","3","67","0","67","Fri Feb 19 17:49:49 2021","The main experiment item","yes","Lexical_Decision_Task.osexp","/Users/shannonbellinger","no","Andale Mono","no","18","no","white","no","yes","576","legacy","63","63","3","/Users/shannonbellinger/subject-5207819.csv","legacy","Lentiform Loewenfeld","3.3.7","yes","yes","600bd7cfb6416f0113b04181","602110864497cf011d9c0822","0","j","NA","space","space","space","space","j","427","NA","4467","18041","5983","6927","427","2","legacy","1024","2","48000","-16","task","5207819","odd","NA","37739","44209","39741","164610","3641","27680","21692","165113","135265","164607","165113","164554","44209","165541","35783","164054","3628","145028","Lexical Decision Task","63","47534","68","yes","1024"
"3.082307743","9.68","8","camp","word","92.7536231884058","92.7536231884058","695.927536231884","695.927536231884","black","no","legacy","legacy","legacy","0","uniform","1","undefined","undefined","undefined","1","j","0","0","0","0","68","0","0","0","68","0","64","68","64","0","64","3","68","0","68","Fri Feb 19 17:49:49 2021","The main experiment item","yes","Lexical_Decision_Task.osexp","/Users/shannonbellinger","no","Andale Mono","no","18","no","white","no","yes","576","legacy","64","64","3","/Users/shannonbellinger/subject-5207819.csv","legacy","Lentiform Loewenfeld","3.3.7","yes","yes","600bd7cfb6416f0113b04181","602110864497cf011d9c0822","0","j","NA","space","space","space","space","j","485","NA","4467","18041","5983","6927","485","2","legacy","1024","2","48000","-16","task","5207819","odd","NA","37739","44209","39741","166100","3641","27680","21692","166604","135265","166097","166604","166044","44209","167089","35783","165544","3628","145028","Lexical Decision Task","64","48019","69","yes","1024"
"2.952953801","0","8","clax","non-word","92.85714285714286","92.85714285714286","692.8714285714286","692.8714285714286","black","no","legacy","legacy","legacy","0","uniform","1","undefined","undefined","undefined","1","f","0","0","0","0","69","0","0","0","69","0","65","69","65","0","65","3","69","0","69","Fri Feb 19 17:49:49 2021","The main experiment item","yes","Lexical_Decision_Task.osexp","/Users/shannonbellinger","no","Andale Mono","no","18","no","white","no","yes","576","legacy","65","65","3","/Users/shannonbellinger/subject-5207819.csv","legacy","Lentiform Loewenfeld","3.3.7","yes","yes","600bd7cfb6416f0113b04181","602110864497cf011d9c0822","0","f","NA","space","space","space","space","f","482","NA","4467","18041","5983","6927","482","2","legacy","1024","2","48000","-16","task","5207819","odd","NA","37739","44209","39741","167649","3641","27680","21692","168153","135265","167646","168153","167593","44209","168636","35783","167093","3628","145028","Lexical Decision Task","65","48501","70","yes","1024"
"2.767650507","0","6","yolt","non-word","91.54929577464789","91.54929577464789","690.3380281690141","690.3380281690141","black","no","legacy","legacy","legacy","0","uniform","0","undefined","undefined","undefined","0","f","0","0","0","0","70","0","0","0","70","0","66","70","66","0","66","3","70","0","70","Fri Feb 19 17:49:49 2021","The main experiment item","yes","Lexical_Decision_Task.osexp","/Users/shannonbellinger","no","Andale Mono","no","18","no","white","no","yes","576","legacy","66","66","3","/Users/shannonbellinger/subject-5207819.csv","legacy","Lentiform Loewenfeld","3.3.7","yes","yes","600bd7cfb6416f0113b04181","602110864497cf011d9c0822","0","j","NA","space","space","space","space","j","513","NA","4467","18041","5983","6927","513","2","legacy","1024","2","48000","-16","task","5207819","odd","NA","37739","44209","39741","169197","3641","27680","21692","169701","135265","169194","169702","169140","44209","170216","35783","168639","3628","145028","Lexical Decision Task","65","49014","71","yes","1024"
"3.257359335","8","6","brew","word","91.66666666666667","91.66666666666667","687.2222222222222","687.2222222222222","black","no","legacy","legacy","legacy","0","uniform","1","undefined","undefined","undefined","1","j","0","0","0","0","71","0","0","0","71","0","67","71","67","0","67","3","71","0","71","Fri Feb 19 17:49:49 2021","The main experiment item","yes","Lexical_Decision_Task.osexp","/Users/shannonbellinger","no","Andale Mono","no","18","no","white","no","yes","576","legacy","67","67","3","/Users/shannonbellinger/subject-5207819.csv","legacy","Lentiform Loewenfeld","3.3.7","yes","yes","600bd7cfb6416f0113b04181","602110864497cf011d9c0822","0","j","NA","space","space","space","space","j","466","NA","4467","18041","5983","6927","466","2","legacy","1024","2","48000","-16","task","5207819","odd","NA","37739","44209","39741","171779","3641","27680","21692","172282","135265","171775","172282","171719","44209","172749","35783","168639","3628","170219","Lexical Decision Task","66","49480","72","yes","1024"
"3.495914186","0","4","peng","non-word","90.41095890410959","90.41095890410959","684.945205479452","684.945205479452","black","no","legacy","legacy","legacy","0","uniform","0","undefined","undefined","undefined","0","f","0","0","0","0","72","0","0","0","72","0","68","72","68","0","68","3","72","0","72","Fri Feb 19 17:49:49 2021","The main experiment item","yes","Lexical_Decision_Task.osexp","/Users/shannonbellinger","no","Andale Mono","no","18","no","white","no","yes","576","legacy","68","68","3","/Users/shannonbellinger/subject-5207819.csv","legacy","Lentiform Loewenfeld","3.3.7","yes","yes","600bd7cfb6416f0113b04181","602110864497cf011d9c0822","0","j","NA","space","space","space","space","j","521","NA","4467","18041","5983","6927","521","2","legacy","1024","2","48000","-16","task","5207819","odd","NA","37739","44209","39741","173309","3641","27680","21692","173812","135265","173306","173813","173253","44209","174335","35783","172752","3628","170219","Lexical Decision Task","66","50001","73","yes","1024"
"2.884795364","0","6","flob","non-word","90.54054054054055","90.54054054054055","677.7837837837837","677.7837837837837","black","no","legacy","legacy","legacy","0","uniform","1","undefined","undefined","undefined","1","f","0","0","0","0","73","0","0","0","73","0","69","73","69","0","69","3","73","0","73","Fri Feb 19 17:49:49 2021","The main experiment item","yes","Lexical_Decision_Task.osexp","/Users/shannonbellinger","no","Andale Mono","no","18","no","white","no","yes","576","legacy","69","69","3","/Users/shannonbellinger/subject-5207819.csv","legacy","Lentiform Loewenfeld","3.3.7","yes","yes","600bd7cfb6416f0113b04181","602110864497cf011d9c0822","0","f","NA","space","space","space","space","f","155","NA","4467","18041","5983","6927","155","2","legacy","1024","2","48000","-16","task","5207819","odd","NA","37739","44209","39741","175898","3641","27680","21692","176402","135265","175894","176402","175839","44209","176559","35783","172752","3628","174339","Lexical Decision Task","67","50156","74","yes","1024"
"2.784379519","0","2","snaf","non-word","90.66666666666667","90.66666666666667","677.4266666666666","677.4266666666666","black","no","legacy","legacy","legacy","0","uniform","1","undefined","undefined","undefined","1","f","0","0","0","0","74","0","0","0","74","0","70","74","70","0","70","3","74","0","74","Fri Feb 19 17:49:49 2021","The main experiment item","yes","Lexical_Decision_Task.osexp","/Users/shannonbellinger","no","Andale Mono","no","18","no","white","no","yes","576","legacy","70","70","3","/Users/shannonbellinger/subject-5207819.csv","legacy","Lentiform Loewenfeld","3.3.7","yes","yes","600bd7cfb6416f0113b04181","602110864497cf011d9c0822","0","f","NA","space","space","space","space","f","651","NA","4467","18041","5983","6927","651","2","legacy","1024","2","48000","-16","task","5207819","odd","NA","37739","44209","39741","177117","3641","27680","21692","177621","135265","177115","177621","177062","44209","178274","35783","176562","3628","174339","Lexical Decision Task","68","50807","75","yes","1024"
"2.980306438","0","7","slun","non-word","90.78947368421052","90.78947368421052","675.8421052631579","675.8421052631579","black","no","legacy","legacy","legacy","0","uniform","1","undefined","undefined","undefined","1","f","0","0","0","0","75","0","0","0","75","0","71","75","71","0","71","3","75","0","75","Fri Feb 19 17:49:49 2021","The main experiment item","yes","Lexical_Decision_Task.osexp","/Users/shannonbellinger","no","Andale Mono","no","18","no","white","no","yes","576","legacy","71","71","3","/Users/shannonbellinger/subject-5207819.csv","legacy","Lentiform Loewenfeld","3.3.7","yes","yes","600bd7cfb6416f0113b04181","602110864497cf011d9c0822","0","f","NA","space","space","space","space","f","557","NA","4467","18041","5983","6927","557","2","legacy","1024","2","48000","-16","task","5207819","odd","NA","37739","44209","39741","178832","3641","27680","21692","179337","135265","178830","179337","178777","44209","179895","35783","178277","3628","174339","Lexical Decision Task","69","51364","76","yes","1024"
"3.066077331","0","7","vorn","non-word","90.9090909090909","90.9090909090909","674.1948051948052","674.1948051948052","black","no","legacy","legacy","legacy","0","uniform","1","undefined","undefined","undefined","1","f","0","0","0","0","76","0","0","0","76","0","72","76","72","0","72","3","76","0","76","Fri Feb 19 17:49:49 2021","The main experiment item","yes","Lexical_Decision_Task.osexp","/Users/shannonbellinger","no","Andale Mono","no","18","no","white","no","yes","576","legacy","72","72","3","/Users/shannonbellinger/subject-5207819.csv","legacy","Lentiform Loewenfeld","3.3.7","yes","yes","600bd7cfb6416f0113b04181","602110864497cf011d9c0822","0","f","NA","space","space","space","space","f","549","NA","4467","18041","5983","6927","549","2","legacy","1024","2","48000","-16","task","5207819","odd","NA","37739","44209","39741","180454","3641","27680","21692","180957","135265","180452","180957","180399","44209","181507","35783","179899","3628","174339","Lexical Decision Task","70","51913","77","yes","1024"
"2.80048796","0","8","pife","non-word","91.02564102564102","91.02564102564102","672.9230769230769","672.9230769230769","black","no","legacy","legacy","legacy","0","uniform","1","undefined","undefined","undefined","1","f","0","0","0","0","77","0","0","0","77","0","73","77","73","0","73","3","77","0","77","Fri Feb 19 17:49:49 2021","The main experiment item","yes","Lexical_Decision_Task.osexp","/Users/shannonbellinger","no","Andale Mono","no","18","no","white","no","yes","576","legacy","73","73","3","/Users/shannonbellinger/subject-5207819.csv","legacy","Lentiform Loewenfeld","3.3.7","yes","yes","600bd7cfb6416f0113b04181","602110864497cf011d9c0822","0","f","NA","space","space","space","space","f","575","NA","4467","18041","5983","6927","575","2","legacy","1024","2","48000","-16","task","5207819","odd","NA","37739","44209","39741","182067","3641","27680","21692","182570","135265","182064","182571","182011","44209","183148","35783","181511","3628","174339","Lexical Decision Task","71","52488","78","yes","1024"
"3.049218023","7.4","9","robe","word","91.13924050632912","91.13924050632912","671.7088607594936","671.7088607594936","black","no","legacy","legacy","legacy","0","uniform","1","undefined","undefined","undefined","1","j","0","0","0","0","78","0","0","0","78","0","74","78","74","0","74","3","78","0","78","Fri Feb 19 17:49:49 2021","The main experiment item","yes","Lexical_Decision_Task.osexp","/Users/shannonbellinger","no","Andale Mono","no","18","no","white","no","yes","576","legacy","74","74","3","/Users/shannonbellinger/subject-5207819.csv","legacy","Lentiform Loewenfeld","3.3.7","yes","yes","600bd7cfb6416f0113b04181","602110864497cf011d9c0822","0","j","NA","space","space","space","space","j","577","NA","4467","18041","5983","6927","577","2","legacy","1024","2","48000","-16","task","5207819","odd","NA","37739","44209","39741","183705","3641","27680","21692","184208","135265","183703","184208","183651","44209","184787","35783","183151","3628","174339","Lexical Decision Task","72","53065","79","yes","1024"
"3.153104174","10.89","6","door","word","91.25","91.25","668.325","668.325","black","no","legacy","legacy","legacy","0","uniform","1","undefined","undefined","undefined","1","j","0","0","0","0","79","0","0","0","79","0","75","79","75","0","75","3","79","0","79","Fri Feb 19 17:49:49 2021","The main experiment item","yes","Lexical_Decision_Task.osexp","/Users/shannonbellinger","no","Andale Mono","no","18","no","white","no","yes","576","legacy","75","75","3","/Users/shannonbellinger/subject-5207819.csv","legacy","Lentiform Loewenfeld","3.3.7","yes","yes","600bd7cfb6416f0113b04181","602110864497cf011d9c0822","0","j","NA","space","space","space","space","j","401","NA","4467","18041","5983","6927","401","2","legacy","1024","2","48000","-16","task","5207819","odd","NA","37739","44209","39741","185345","3641","27680","21692","185849","135265","185342","185849","185290","44209","186251","35783","184790","3628","174339","Lexical Decision Task","73","53466","80","yes","1024"
"3.105055783","0","2","norp","non-word","91.35802469135803","91.35802469135803","666.4444444444445","666.4444444444445","black","no","legacy","legacy","legacy","0","uniform","1","undefined","undefined","undefined","1","f","0","0","0","0","80","0","0","0","80","0","76","80","76","0","76","3","80","0","80","Fri Feb 19 17:49:49 2021","The main experiment item","yes","Lexical_Decision_Task.osexp","/Users/shannonbellinger","no","Andale Mono","no","18","no","white","no","yes","576","legacy","76","76","3","/Users/shannonbellinger/subject-5207819.csv","legacy","Lentiform Loewenfeld","3.3.7","yes","yes","600bd7cfb6416f0113b04181","602110864497cf011d9c0822","0","f","NA","space","space","space","space","f","516","NA","4467","18041","5983","6927","516","2","legacy","1024","2","48000","-16","task","5207819","odd","NA","37739","44209","39741","186811","3641","27680","21692","187314","135265","186807","187315","186755","44209","187832","35783","186255","3628","174339","Lexical Decision Task","74","53982","81","yes","1024"
"2.719886232","7.98","2","quiz","word","91.46341463414635","91.46341463414635","664.0121951219512","664.0121951219512","black","no","legacy","legacy","legacy","0","uniform","1","undefined","undefined","undefined","1","j","0","0","0","0","81","0","0","0","81","0","77","81","77","0","77","3","81","0","81","Fri Feb 19 17:49:49 2021","The main experiment item","yes","Lexical_Decision_Task.osexp","/Users/shannonbellinger","no","Andale Mono","no","18","no","white","no","yes","576","legacy","77","77","3","/Users/shannonbellinger/subject-5207819.csv","legacy","Lentiform Loewenfeld","3.3.7","yes","yes","600bd7cfb6416f0113b04181","602110864497cf011d9c0822","0","j","NA","space","space","space","space","j","467","NA","4467","18041","5983","6927","467","2","legacy","1024","2","48000","-16","task","5207819","odd","NA","37739","44209","39741","188391","3641","27680","21692","188895","135265","188389","188895","188336","44209","189363","35783","187836","3628","174339","Lexical Decision Task","75","54449","82","yes","1024"
"3.133964479","0","8","graw","non-word","91.56626506024097","91.56626506024097","664.6867469879518","664.6867469879518","black","no","legacy","legacy","legacy","0","uniform","1","undefined","undefined","undefined","1","f","0","0","0","0","82","0","0","0","82","0","78","82","78","0","78","3","82","0","82","Fri Feb 19 17:49:49 2021","The main experiment item","yes","Lexical_Decision_Task.osexp","/Users/shannonbellinger","no","Andale Mono","no","18","no","white","no","yes","576","legacy","78","78","3","/Users/shannonbellinger/subject-5207819.csv","legacy","Lentiform Loewenfeld","3.3.7","yes","yes","600bd7cfb6416f0113b04181","602110864497cf011d9c0822","0","f","NA","space","space","space","space","f","720","NA","4467","18041","5983","6927","720","2","legacy","1024","2","48000","-16","task","5207819","odd","NA","37739","44209","39741","189922","3641","27680","21692","190425","135265","189919","190426","189867","44209","191147","35783","189367","3628","174339","Lexical Decision Task","76","55169","83","yes","1024"
"3.261341392","5.08","8","reek","word","90.47619047619048","90.47619047619048","667.797619047619","667.797619047619","black","no","legacy","legacy","legacy","0","uniform","0","undefined","undefined","undefined","0","j","0","0","0","0","83","0","0","0","83","0","79","83","79","0","79","3","83","0","83","Fri Feb 19 17:49:49 2021","The main experiment item","yes","Lexical_Decision_Task.osexp","/Users/shannonbellinger","no","Andale Mono","no","18","no","white","no","yes","576","legacy","79","79","3","/Users/shannonbellinger/subject-5207819.csv","legacy","Lentiform Loewenfeld","3.3.7","yes","yes","600bd7cfb6416f0113b04181","602110864497cf011d9c0822","0","f","NA","space","space","space","space","f","926","NA","4467","18041","5983","6927","926","2","legacy","1024","2","48000","-16","task","5207819","odd","NA","37739","44209","39741","191706","3641","27680","21692","192210","135265","191704","192210","191651","44209","193137","35783","191151","3628","174339","Lexical Decision Task","76","56095","84","yes","1024"
"2.664011697","8.19","4","hawk","word","90.58823529411765","90.58823529411765","666.5882352941177","666.5882352941177","black","no","legacy","legacy","legacy","0","uniform","1","undefined","undefined","undefined","1","j","0","0","0","0","84","0","0","0","84","0","80","84","80","0","80","3","84","0","84","Fri Feb 19 17:49:49 2021","The main experiment item","yes","Lexical_Decision_Task.osexp","/Users/shannonbellinger","no","Andale Mono","no","18","no","white","no","yes","576","legacy","80","80","3","/Users/shannonbellinger/subject-5207819.csv","legacy","Lentiform Loewenfeld","3.3.7","yes","yes","600bd7cfb6416f0113b04181","602110864497cf011d9c0822","0","j","NA","space","space","space","space","j","565","NA","4467","18041","5983","6927","565","2","legacy","1024","2","48000","-16","task","5207819","odd","NA","37739","44209","39741","194700","3641","27680","21692","195203","135265","194698","195203","194641","44209","195769","35783","191151","3628","193140","Lexical Decision Task","77","56660","85","yes","1024"
"3.529815197","0","3","lerm","non-word","90.69767441860465","90.69767441860465","664.6860465116279","664.6860465116279","black","no","legacy","legacy","legacy","0","uniform","1","undefined","undefined","undefined","1","f","0","0","0","0","85","0","0","0","85","0","81","85","81","0","81","3","85","0","85","Fri Feb 19 17:49:49 2021","The main experiment item","yes","Lexical_Decision_Task.osexp","/Users/shannonbellinger","no","Andale Mono","no","18","no","white","no","yes","576","legacy","81","81","3","/Users/shannonbellinger/subject-5207819.csv","legacy","Lentiform Loewenfeld","3.3.7","yes","yes","600bd7cfb6416f0113b04181","602110864497cf011d9c0822","0","f","NA","space","space","space","space","f","503","NA","4467","18041","5983","6927","503","2","legacy","1024","2","48000","-16","task","5207819","odd","NA","37739","44209","39741","196328","3641","27680","21692","196831","135265","196325","196832","196273","44209","197336","35783","195773","3628","193140","Lexical Decision Task","78","57163","86","yes","1024"
"3.303771854","0","9","dath","non-word","90.80459770114942","90.80459770114942","663.080459770115","663.080459770115","black","no","legacy","legacy","legacy","0","uniform","1","undefined","undefined","undefined","1","f","0","0","0","0","86","0","0","0","86","0","82","86","82","0","82","3","86","0","86","Fri Feb 19 17:49:49 2021","The main experiment item","yes","Lexical_Decision_Task.osexp","/Users/shannonbellinger","no","Andale Mono","no","18","no","white","no","yes","576","legacy","82","82","3","/Users/shannonbellinger/subject-5207819.csv","legacy","Lentiform Loewenfeld","3.3.7","yes","yes","600bd7cfb6416f0113b04181","602110864497cf011d9c0822","0","f","NA","space","space","space","space","f","525","NA","4467","18041","5983","6927","525","2","legacy","1024","2","48000","-16","task","5207819","odd","NA","37739","44209","39741","197895","3641","27680","21692","198398","135265","197892","198398","197839","44209","198924","35783","197339","3628","193140","Lexical Decision Task","79","57688","87","yes","1024"
"3.16326079","0","5","parg","non-word","90.9090909090909","90.9090909090909","661.1818181818181","661.1818181818181","black","no","legacy","legacy","legacy","0","uniform","1","undefined","undefined","undefined","1","f","0","0","0","0","87","0","0","0","87","0","83","87","83","0","83","3","87","0","87","Fri Feb 19 17:49:49 2021","The main experiment item","yes","Lexical_Decision_Task.osexp","/Users/shannonbellinger","no","Andale Mono","no","18","no","white","no","yes","576","legacy","83","83","3","/Users/shannonbellinger/subject-5207819.csv","legacy","Lentiform Loewenfeld","3.3.7","yes","yes","600bd7cfb6416f0113b04181","602110864497cf011d9c0822","0","f","NA","space","space","space","space","f","496","NA","4467","18041","5983","6927","496","2","legacy","1024","2","48000","-16","task","5207819","odd","NA","37739","44209","39741","199484","3641","27680","21692","199987","135265","199481","199987","199428","44209","200485","35783","198928","3628","193140","Lexical Decision Task","80","58184","88","yes","1024"
"2.875447132","0","9","jelt","non-word","91.01123595505618","91.01123595505618","661.314606741573","661.314606741573","black","no","legacy","legacy","legacy","0","uniform","1","undefined","undefined","undefined","1","f","0","0","0","0","88","0","0","0","88","0","84","88","84","0","84","3","88","0","88","Fri Feb 19 17:49:49 2021","The main experiment item","yes","Lexical_Decision_Task.osexp","/Users/shannonbellinger","no","Andale Mono","no","18","no","white","no","yes","576","legacy","84","84","3","/Users/shannonbellinger/subject-5207819.csv","legacy","Lentiform Loewenfeld","3.3.7","yes","yes","600bd7cfb6416f0113b04181","602110864497cf011d9c0822","0","f","NA","space","space","space","space","f","673","NA","4467","18041","5983","6927","673","2","legacy","1024","2","48000","-16","task","5207819","odd","NA","37739","44209","39741","201043","3641","27680","21692","201546","135265","201040","201546","200988","44209","202220","35783","200488","3628","193140","Lexical Decision Task","81","58857","89","yes","1024"
"3.2757719","0","5","slea","non-word","91.11111111111111","91.11111111111111","659.2333333333333","659.2333333333333","black","no","legacy","legacy","legacy","0","uniform","1","undefined","undefined","undefined","1","f","0","0","0","0","89","0","0","0","89","0","85","89","85","0","85","3","89","0","89","Fri Feb 19 17:49:49 2021","The main experiment item","yes","Lexical_Decision_Task.osexp","/Users/shannonbellinger","no","Andale Mono","no","18","no","white","no","yes","576","legacy","85","85","3","/Users/shannonbellinger/subject-5207819.csv","legacy","Lentiform Loewenfeld","3.3.7","yes","yes","600bd7cfb6416f0113b04181","602110864497cf011d9c0822","0","f","NA","space","space","space","space","f","474","NA","4467","18041","5983","6927","474","2","legacy","1024","2","48000","-16","task","5207819","odd","NA","37739","44209","39741","202779","3641","27680","21692","203282","135265","202776","203282","202723","44209","203758","35783","202223","3628","193140","Lexical Decision Task","82","59331","90","yes","1024"
"2.838639236","0","4","furg","non-word","91.20879120879121","91.20879120879121","657.8351648351648","657.8351648351648","black","no","legacy","legacy","legacy","0","uniform","1","undefined","undefined","undefined","1","f","0","0","0","0","90","0","0","0","90","0","86","90","86","0","86","3","90","0","90","Fri Feb 19 17:49:49 2021","The main experiment item","yes","Lexical_Decision_Task.osexp","/Users/shannonbellinger","no","Andale Mono","no","18","no","white","no","yes","576","legacy","86","86","3","/Users/shannonbellinger/subject-5207819.csv","legacy","Lentiform Loewenfeld","3.3.7","yes","yes","600bd7cfb6416f0113b04181","602110864497cf011d9c0822","0","f","NA","space","space","space","space","f","532","NA","4467","18041","5983","6927","532","2","legacy","1024","2","48000","-16","task","5207819","odd","NA","37739","44209","39741","204318","3641","27680","21692","204821","135265","204315","204822","204261","44209","205356","35783","203761","3628","193140","Lexical Decision Task","83","59863","91","yes","1024"
"3.156347201","0","8","lasp","non-word","91.30434782608695","91.30434782608695","657.0869565217391","657.0869565217391","black","no","legacy","legacy","legacy","0","uniform","1","undefined","undefined","undefined","1","f","0","0","0","0","91","0","0","0","91","0","87","91","87","0","87","3","91","0","91","Fri Feb 19 17:49:49 2021","The main experiment item","yes","Lexical_Decision_Task.osexp","/Users/shannonbellinger","no","Andale Mono","no","18","no","white","no","yes","576","legacy","87","87","3","/Users/shannonbellinger/subject-5207819.csv","legacy","Lentiform Loewenfeld","3.3.7","yes","yes","600bd7cfb6416f0113b04181","602110864497cf011d9c0822","0","f","NA","space","space","space","space","f","589","NA","4467","18041","5983","6927","589","2","legacy","1024","2","48000","-16","task","5207819","odd","NA","37739","44209","39741","205915","3641","27680","21692","206418","135265","205913","206418","205859","44209","207008","35783","205359","3628","193140","Lexical Decision Task","84","60452","92","yes","1024"
"3.131833513","7.66","4","limb","word","91.39784946236558","91.39784946236558","656.3978494623656","656.3978494623656","black","no","legacy","legacy","legacy","0","uniform","1","undefined","undefined","undefined","1","j","0","0","0","0","92","0","0","0","92","0","88","92","88","0","88","3","92","0","92","Fri Feb 19 17:49:49 2021","The main experiment item","yes","Lexical_Decision_Task.osexp","/Users/shannonbellinger","no","Andale Mono","no","18","no","white","no","yes","576","legacy","88","88","3","/Users/shannonbellinger/subject-5207819.csv","legacy","Lentiform Loewenfeld","3.3.7","yes","yes","600bd7cfb6416f0113b04181","602110864497cf011d9c0822","0","j","NA","space","space","space","space","j","593","NA","4467","18041","5983","6927","593","2","legacy","1024","2","48000","-16","task","5207819","odd","NA","37739","44209","39741","207566","3641","27680","21692","208069","135265","207563","208070","207511","44209","208665","35783","207011","3628","193140","Lexical Decision Task","85","61045","93","yes","1024"
"2.845304797","0","6","buct","non-word","91.48936170212765","91.48936170212765","654.8617021276596","654.8617021276596","black","no","legacy","legacy","legacy","0","uniform","1","undefined","undefined","undefined","1","f","0","0","0","0","93","0","0","0","93","0","89","93","89","0","89","3","93","0","93","Fri Feb 19 17:49:49 2021","The main experiment item","yes","Lexical_Decision_Task.osexp","/Users/shannonbellinger","no","Andale Mono","no","18","no","white","no","yes","576","legacy","89","89","3","/Users/shannonbellinger/subject-5207819.csv","legacy","Lentiform Loewenfeld","3.3.7","yes","yes","600bd7cfb6416f0113b04181","602110864497cf011d9c0822","0","f","NA","space","space","space","space","f","512","NA","4467","18041","5983","6927","512","2","legacy","1024","2","48000","-16","task","5207819","odd","NA","37739","44209","39741","209224","3641","27680","21692","209727","135265","209221","209727","209169","44209","210240","35783","208669","3628","193140","Lexical Decision Task","86","61557","94","yes","1024"
"3.137775856","7.39","5","comb","word","91.57894736842105","91.57894736842105","656.9368421052632","656.9368421052632","black","no","legacy","legacy","legacy","0","uniform","1","undefined","undefined","undefined","1","j","0","0","0","0","94","0","0","0","94","0","90","94","90","0","90","3","94","0","94","Fri Feb 19 17:49:49 2021","The main experiment item","yes","Lexical_Decision_Task.osexp","/Users/shannonbellinger","no","Andale Mono","no","18","no","white","no","yes","576","legacy","90","90","3","/Users/shannonbellinger/subject-5207819.csv","legacy","Lentiform Loewenfeld","3.3.7","yes","yes","600bd7cfb6416f0113b04181","602110864497cf011d9c0822","0","j","NA","space","space","space","space","j","852","NA","4467","18041","5983","6927","852","2","legacy","1024","2","48000","-16","task","5207819","odd","NA","37739","44209","39741","210799","3641","27680","21692","211302","135265","210796","211302","210744","44209","212155","35783","210243","3628","193140","Lexical Decision Task","87","62409","95","yes","1024"
"2.898725182","0","7","turl","non-word","91.66666666666667","91.66666666666667","656.125","656.125","black","no","legacy","legacy","legacy","0","uniform","1","undefined","undefined","undefined","1","f","0","0","0","0","95","0","0","0","95","0","91","95","91","0","91","3","95","0","95","Fri Feb 19 17:49:49 2021","The main experiment item","yes","Lexical_Decision_Task.osexp","/Users/shannonbellinger","no","Andale Mono","no","18","no","white","no","yes","576","legacy","91","91","3","/Users/shannonbellinger/subject-5207819.csv","legacy","Lentiform Loewenfeld","3.3.7","yes","yes","600bd7cfb6416f0113b04181","602110864497cf011d9c0822","0","f","NA","space","space","space","space","f","579","NA","4467","18041","5983","6927","579","2","legacy","1024","2","48000","-16","task","5207819","odd","NA","37739","44209","39741","212716","3641","27680","21692","213219","135265","212712","213220","212659","44209","213800","35783","212159","3628","193140","Lexical Decision Task","88","62988","96","yes","1024"
"3.263399331","0","8","cour","non-word","91.75257731958763","91.75257731958763","655.8556701030927","655.8556701030927","black","no","legacy","legacy","legacy","0","uniform","1","undefined","undefined","undefined","1","f","0","0","0","0","96","0","0","0","96","0","92","96","92","0","92","3","96","0","96","Fri Feb 19 17:49:49 2021","The main experiment item","yes","Lexical_Decision_Task.osexp","/Users/shannonbellinger","no","Andale Mono","no","18","no","white","no","yes","576","legacy","92","92","3","/Users/shannonbellinger/subject-5207819.csv","legacy","Lentiform Loewenfeld","3.3.7","yes","yes","600bd7cfb6416f0113b04181","602110864497cf011d9c0822","0","f","NA","space","space","space","space","f","630","NA","4467","18041","5983","6927","630","2","legacy","1024","2","48000","-16","task","5207819","odd","NA","37739","44209","39741","214359","3641","27680","21692","214862","135265","214356","214862","214304","44209","215493","35783","213804","3628","193140","Lexical Decision Task","89","63618","97","yes","1024"
"3.153001286","8.7","5","palm","word","91.83673469387755","91.83673469387755","654.265306122449","654.265306122449","black","no","legacy","legacy","legacy","0","uniform","1","undefined","undefined","undefined","1","j","0","0","0","0","97","0","0","0","97","0","93","97","93","0","93","3","97","0","97","Fri Feb 19 17:49:49 2021","The main experiment item","yes","Lexical_Decision_Task.osexp","/Users/shannonbellinger","no","Andale Mono","no","18","no","white","no","yes","576","legacy","93","93","3","/Users/shannonbellinger/subject-5207819.csv","legacy","Lentiform Loewenfeld","3.3.7","yes","yes","600bd7cfb6416f0113b04181","602110864497cf011d9c0822","0","j","NA","space","space","space","space","j","500","NA","4467","18041","5983","6927","500","2","legacy","1024","2","48000","-16","task","5207819","odd","NA","37739","44209","39741","216052","3641","27680","21692","216555","135265","216050","216555","215997","44209","217056","35783","215497","3628","193140","Lexical Decision Task","90","64118","98","yes","1024"
"3.259832699","0","9","flar","non-word","91.91919191919192","91.91919191919192","653","653","black","no","legacy","legacy","legacy","0","uniform","1","undefined","undefined","undefined","1","f","0","0","0","0","98","0","0","0","98","0","94","98","94","0","94","3","98","0","98","Fri Feb 19 17:49:49 2021","The main experiment item","yes","Lexical_Decision_Task.osexp","/Users/shannonbellinger","no","Andale Mono","no","18","no","white","no","yes","576","legacy","94","94","3","/Users/shannonbellinger/subject-5207819.csv","legacy","Lentiform Loewenfeld","3.3.7","yes","yes","600bd7cfb6416f0113b04181","602110864497cf011d9c0822","0","f","NA","space","space","space","space","f","529","NA","4467","18041","5983","6927","529","2","legacy","1024","2","48000","-16","task","5207819","odd","NA","37739","44209","39741","217615","3641","27680","21692","218119","135265","217612","218119","217560","44209","218649","35783","217059","3628","193140","Lexical Decision Task","91","64647","99","yes","1024"
"2.986323777","10.85","8","ship","word","92","92","651.02","651.02","black","no","legacy","legacy","legacy","0","uniform","1","undefined","undefined","undefined","1","j","0","0","0","0","99","0","0","0","99","0","95","99","95","0","95","3","99","0","99","Fri Feb 19 17:49:49 2021","The main experiment item","yes","Lexical_Decision_Task.osexp","/Users/shannonbellinger","no","Andale Mono","no","18","no","white","no","yes","576","legacy","95","95","3","/Users/shannonbellinger/subject-5207819.csv","legacy","Lentiform Loewenfeld","3.3.7","yes","yes","600bd7cfb6416f0113b04181","602110864497cf011d9c0822","0","j","NA","space","space","space","space","j","455","NA","4467","18041","5983","6927","455","2","legacy","1024","2","48000","-16","task","5207819","odd","NA","37739","44209","39741","219208","3641","27680","21692","219711","135265","219205","219711","219153","44209","220167","35783","218653","3628","193140","Lexical Decision Task","92","65102","100","yes","1024"
"2.819763221","0","2","durp","non-word","92.07920792079207","92.07920792079207","650.5049504950495","650.5049504950495","black","no","legacy","legacy","legacy","0","uniform","1","undefined","undefined","undefined","1","f","0","0","0","0","100","0","0","0","100","0","96","100","96","0","96","3","100","0","100","Fri Feb 19 17:49:49 2021","The main experiment item","yes","Lexical_Decision_Task.osexp","/Users/shannonbellinger","no","Andale Mono","no","18","no","white","no","yes","576","legacy","96","96","3","/Users/shannonbellinger/subject-5207819.csv","legacy","Lentiform Loewenfeld","3.3.7","yes","yes","600bd7cfb6416f0113b04181","602110864497cf011d9c0822","0","f","NA","space","space","space","space","f","599","NA","4467","18041","5983","6927","599","2","legacy","1024","2","48000","-16","task","5207819","odd","NA","37739","44209","39741","220727","3641","27680","21692","221230","135265","220724","221230","220671","44209","221830","35783","220171","3628","193140","Lexical Decision Task","93","65701","101","yes","1024"
