"Log_BG","Log_Freq_HAL","Ortho_N","Stimulus","Type","acc","accuracy","average_response_time","avg_rt","background","bidi","canvas_backend","clock_backend","color_backend","compensation","coordinates","correct","correct_Experimental_intro","correct_Introduction","correct_Practice_intro","correct_experimenter_kb","correct_response","count_End_Of_Experiment","count_End_Of_Practice","count_Experimental_Loop","count_Experimental_intro","count_Fixation","count_Introduction","count_Practice_Loop","count_Practice_intro","count_Stimulus","count_block_break_feedback","count_experimental_sequence","count_experimenter_kb","count_increment_trial_count","count_init_trial_count","count_logger","count_practice_sequence","count_right","count_task","count_wrong","datetime","description","disable_garbage_collection","experiment_file","experiment_path","font_bold","font_family","font_italic","font_size","font_underline","foreground","form_clicks","fullscreen","height","keyboard_backend","live_row","live_row_Experimental_Loop","live_row_Practice_Loop","logfile","mouse_backend","opensesame_codename","opensesame_version","osf_always_upload_data","osf_always_upload_experiment","osf_datanode_id","osf_id","repeat_cycle","response","response_End_Of_Experiment","response_Experimental_intro","response_Introduction","response_Practice_intro","response_block_break_feedback","response_experimenter_kb","response_time","response_time_End_Of_Experiment","response_time_Experimental_intro","response_time_Introduction","response_time_Practice_intro","response_time_block_break_feedback","response_time_experimenter_kb","round_decimals","sampler_backend","sound_buf_size","sound_channels","sound_freq","sound_sample_size","start","subject_nr","subject_parity","time_End_Of_Experiment","time_End_Of_Practice","time_Experimental_Loop","time_Experimental_intro","time_Fixation","time_Introduction","time_Practice_Loop","time_Practice_intro","time_Stimulus","time_block_break_feedback","time_experimental_sequence","time_experimenter_kb","time_increment_trial_count","time_init_trial_count","time_logger","time_practice_sequence","time_right","time_task","time_wrong","title","total_correct","total_response_time","total_responses","uniform_coordinates","width"
"3.443783828","7.65","3","verb","word","100","100","1041.4","1041.4","black","no","legacy","legacy","legacy","0","uniform","1","undefined","undefined","undefined","1","j","0","0","0","0","4","0","0","0","4","NA","0","4","0","0","0","3","4","0","4","Tue Feb 16 13:49:27 2021","The main experiment item","yes","Lexical_Decision_Task.osexp","C:/Users/Alina/Documents","no","Andale Mono","no","18","no","white","no","yes","576","legacy","0","0","3","C:/Users/Alina/Documents/subject-5211591.csv","legacy","Lentiform Loewenfeld","3.3.7","yes","yes","600bd7cfb6416f0113b04181","602110864497cf011d9c0822","0","j","NA","space","space","space","NA","j","999","NA","1742","12595","6179","NA","999","2","legacy","1024","2","48000","-16","task","5211591","odd","NA","32993","36740","34997","36820","5387","24166","17986","37323","NA","36817","37323","NA","36740","38322","31169","32446","5381","NA","Lexical Decision Task","5","5207","5","yes","1024"
"3.037294994","8.64","7","roof","word","100","100","1027.3333333333333","1027.3333333333333","black","no","legacy","legacy","legacy","0","uniform","1","undefined","undefined","undefined","1","j","0","0","0","0","5","0","0","0","5","NA","1","5","1","0","1","3","5","0","5","Tue Feb 16 13:49:27 2021","The main experiment item","yes","Lexical_Decision_Task.osexp","C:/Users/Alina/Documents","no","Andale Mono","no","18","no","white","no","yes","576","legacy","1","1","3","C:/Users/Alina/Documents/subject-5211591.csv","legacy","Lentiform Loewenfeld","3.3.7","yes","yes","600bd7cfb6416f0113b04181","602110864497cf011d9c0822","0","j","NA","space","space","space","NA","j","957","NA","1742","12595","6179","NA","957","2","legacy","1024","2","48000","-16","task","5211591","odd","NA","32993","36740","34997","38977","5387","24166","17986","39480","NA","38974","39480","38838","36740","40438","31169","38337","5381","NA","Lexical Decision Task","6","6164","6","yes","1024"
"3.197740804","6.74","3","ache","word","100","100","990.4285714285714","990.4285714285714","black","no","legacy","legacy","legacy","0","uniform","1","undefined","undefined","undefined","1","j","0","0","0","0","6","0","0","0","6","NA","2","6","2","0","2","3","6","0","6","Tue Feb 16 13:49:27 2021","The main experiment item","yes","Lexical_Decision_Task.osexp","C:/Users/Alina/Documents","no","Andale Mono","no","18","no","white","no","yes","576","legacy","2","2","3","C:/Users/Alina/Documents/subject-5211591.csv","legacy","Lentiform Loewenfeld","3.3.7","yes","yes","600bd7cfb6416f0113b04181","602110864497cf011d9c0822","0","j","NA","space","space","space","NA","j","769","NA","1742","12595","6179","NA","769","2","legacy","1024","2","48000","-16","task","5211591","odd","NA","32993","36740","34997","41068","5387","24166","17986","41571","NA","41064","41571","40946","36740","42341","31169","40446","5381","NA","Lexical Decision Task","7","6933","7","yes","1024"
"3.218535505","7.85","7","goat","word","100","100","948.125","948.125","black","no","legacy","legacy","legacy","0","uniform","1","undefined","undefined","undefined","1","j","0","0","0","0","7","0","0","0","7","NA","3","7","3","0","3","3","7","0","7","Tue Feb 16 13:49:27 2021","The main experiment item","yes","Lexical_Decision_Task.osexp","C:/Users/Alina/Documents","no","Andale Mono","no","18","no","white","no","yes","576","legacy","3","3","3","C:/Users/Alina/Documents/subject-5211591.csv","legacy","Lentiform Loewenfeld","3.3.7","yes","yes","600bd7cfb6416f0113b04181","602110864497cf011d9c0822","0","j","NA","space","space","space","NA","j","652","NA","1742","12595","6179","NA","652","2","legacy","1024","2","48000","-16","task","5211591","odd","NA","32993","36740","34997","42969","5387","24166","17986","43472","NA","42966","43472","42849","36740","44125","31169","42349","5381","NA","Lexical Decision Task","8","7585","8","yes","1024"
"2.696644658","5.78","2","yolk","word","100","100","913.8888888888889","913.8888888888889","black","no","legacy","legacy","legacy","0","uniform","1","undefined","undefined","undefined","1","j","0","0","0","0","8","0","0","0","8","NA","4","8","4","0","4","3","8","0","8","Tue Feb 16 13:49:27 2021","The main experiment item","yes","Lexical_Decision_Task.osexp","C:/Users/Alina/Documents","no","Andale Mono","no","18","no","white","no","yes","576","legacy","4","4","3","C:/Users/Alina/Documents/subject-5211591.csv","legacy","Lentiform Loewenfeld","3.3.7","yes","yes","600bd7cfb6416f0113b04181","602110864497cf011d9c0822","0","j","NA","space","space","space","NA","j","640","NA","1742","12595","6179","NA","640","2","legacy","1024","2","48000","-16","task","5211591","odd","NA","32993","36740","34997","44752","5387","24166","17986","45255","NA","44749","45255","44632","36740","45896","31169","44132","5381","NA","Lexical Decision Task","9","8225","9","yes","1024"
"2.884795364","0","6","flob","non-word","100","100","925.4","925.4","black","no","legacy","legacy","legacy","0","uniform","1","undefined","undefined","undefined","1","f","0","0","0","0","9","0","0","0","9","NA","5","9","5","0","5","3","9","0","9","Tue Feb 16 13:49:27 2021","The main experiment item","yes","Lexical_Decision_Task.osexp","C:/Users/Alina/Documents","no","Andale Mono","no","18","no","white","no","yes","576","legacy","5","5","3","C:/Users/Alina/Documents/subject-5211591.csv","legacy","Lentiform Loewenfeld","3.3.7","yes","yes","600bd7cfb6416f0113b04181","602110864497cf011d9c0822","0","f","NA","space","space","space","NA","f","1029","NA","1742","12595","6179","NA","1029","2","legacy","1024","2","48000","-16","task","5211591","odd","NA","32993","36740","34997","46522","5387","24166","17986","47025","NA","46518","47025","46403","36740","48054","31169","45903","5381","NA","Lexical Decision Task","10","9254","10","yes","1024"
"2.771097306","0","9","jold","non-word","100","100","953.9090909090909","953.9090909090909","black","no","legacy","legacy","legacy","0","uniform","1","undefined","undefined","undefined","1","f","0","0","0","0","10","0","0","0","10","NA","6","10","6","0","6","3","10","0","10","Tue Feb 16 13:49:27 2021","The main experiment item","yes","Lexical_Decision_Task.osexp","C:/Users/Alina/Documents","no","Andale Mono","no","18","no","white","no","yes","576","legacy","6","6","3","C:/Users/Alina/Documents/subject-5211591.csv","legacy","Lentiform Loewenfeld","3.3.7","yes","yes","600bd7cfb6416f0113b04181","602110864497cf011d9c0822","0","f","NA","space","space","space","NA","f","1239","NA","1742","12595","6179","NA","1239","2","legacy","1024","2","48000","-16","task","5211591","odd","NA","32993","36740","34997","48683","5387","24166","17986","49186","NA","48680","49186","48563","36740","50426","31169","48063","5381","NA","Lexical Decision Task","11","10493","11","yes","1024"
"3.705778213","0","6","stin","non-word","100","100","954.3333333333334","954.3333333333334","black","no","legacy","legacy","legacy","0","uniform","1","undefined","undefined","undefined","1","f","0","0","0","0","11","0","0","0","11","NA","7","11","7","0","7","3","11","0","11","Tue Feb 16 13:49:27 2021","The main experiment item","yes","Lexical_Decision_Task.osexp","C:/Users/Alina/Documents","no","Andale Mono","no","18","no","white","no","yes","576","legacy","7","7","3","C:/Users/Alina/Documents/subject-5211591.csv","legacy","Lentiform Loewenfeld","3.3.7","yes","yes","600bd7cfb6416f0113b04181","602110864497cf011d9c0822","0","f","NA","space","space","space","NA","f","959","NA","1742","12595","6179","NA","959","2","legacy","1024","2","48000","-16","task","5211591","odd","NA","32993","36740","34997","51055","5387","24166","17986","51559","NA","51052","51559","50934","36740","52519","31169","50434","5381","NA","Lexical Decision Task","12","11452","12","yes","1024"
"2.966923697","5.4","2","fume","word","100","100","944.1538461538462","944.1538461538462","black","no","legacy","legacy","legacy","0","uniform","1","undefined","undefined","undefined","1","j","0","0","0","0","12","0","0","0","12","NA","8","12","8","0","8","3","12","0","12","Tue Feb 16 13:49:27 2021","The main experiment item","yes","Lexical_Decision_Task.osexp","C:/Users/Alina/Documents","no","Andale Mono","no","18","no","white","no","yes","576","legacy","8","8","3","C:/Users/Alina/Documents/subject-5211591.csv","legacy","Lentiform Loewenfeld","3.3.7","yes","yes","600bd7cfb6416f0113b04181","602110864497cf011d9c0822","0","j","NA","space","space","space","NA","j","822","NA","1742","12595","6179","NA","822","2","legacy","1024","2","48000","-16","task","5211591","odd","NA","32993","36740","34997","53145","5387","24166","17986","53648","NA","53142","53648","53026","36740","54470","31169","52526","5381","NA","Lexical Decision Task","13","12274","13","yes","1024"
"3.081107167","0","6","chot","non-word","100","100","936.7857142857143","936.7857142857143","black","no","legacy","legacy","legacy","0","uniform","1","undefined","undefined","undefined","1","f","0","0","0","0","13","0","0","0","13","NA","9","13","9","0","9","3","13","0","13","Tue Feb 16 13:49:27 2021","The main experiment item","yes","Lexical_Decision_Task.osexp","C:/Users/Alina/Documents","no","Andale Mono","no","18","no","white","no","yes","576","legacy","9","9","3","C:/Users/Alina/Documents/subject-5211591.csv","legacy","Lentiform Loewenfeld","3.3.7","yes","yes","600bd7cfb6416f0113b04181","602110864497cf011d9c0822","0","f","NA","space","space","space","NA","f","841","NA","1742","12595","6179","NA","841","2","legacy","1024","2","48000","-16","task","5211591","odd","NA","32993","36740","34997","55096","5387","24166","17986","55600","NA","55093","55600","54978","36740","56442","31169","54478","5381","NA","Lexical Decision Task","14","13115","14","yes","1024"
"3.282244367","0","6","fute","non-word","100","100","949.4","949.4","black","no","legacy","legacy","legacy","0","uniform","1","undefined","undefined","undefined","1","f","0","0","0","0","14","0","0","0","14","NA","10","14","10","0","10","3","14","0","14","Tue Feb 16 13:49:27 2021","The main experiment item","yes","Lexical_Decision_Task.osexp","C:/Users/Alina/Documents","no","Andale Mono","no","18","no","white","no","yes","576","legacy","10","10","3","C:/Users/Alina/Documents/subject-5211591.csv","legacy","Lentiform Loewenfeld","3.3.7","yes","yes","600bd7cfb6416f0113b04181","602110864497cf011d9c0822","0","f","NA","space","space","space","NA","f","1126","NA","1742","12595","6179","NA","1126","2","legacy","1024","2","48000","-16","task","5211591","odd","NA","32993","36740","34997","57068","5387","24166","17986","57571","NA","57065","57572","56950","36740","58699","31169","56450","5381","NA","Lexical Decision Task","15","14241","15","yes","1024"
"2.803231716","5.26","3","kiln","word","100","100","953.875","953.875","black","no","legacy","legacy","legacy","0","uniform","1","undefined","undefined","undefined","1","j","0","0","0","0","15","0","0","0","15","NA","11","15","11","0","11","3","15","0","15","Tue Feb 16 13:49:27 2021","The main experiment item","yes","Lexical_Decision_Task.osexp","C:/Users/Alina/Documents","no","Andale Mono","no","18","no","white","no","yes","576","legacy","11","11","3","C:/Users/Alina/Documents/subject-5211591.csv","legacy","Lentiform Loewenfeld","3.3.7","yes","yes","600bd7cfb6416f0113b04181","602110864497cf011d9c0822","0","j","NA","space","space","space","NA","j","1021","NA","1742","12595","6179","NA","1021","2","legacy","1024","2","48000","-16","task","5211591","odd","NA","32993","36740","34997","59328","5387","24166","17986","59830","NA","59324","59831","59206","36740","60853","31169","58706","5381","NA","Lexical Decision Task","16","15262","16","yes","1024"
"2.695770526","7.34","6","pawn","word","100","100","948","948","black","no","legacy","legacy","legacy","0","uniform","1","undefined","undefined","undefined","1","j","0","0","0","0","16","0","0","0","16","NA","12","16","12","0","12","3","16","0","16","Tue Feb 16 13:49:27 2021","The main experiment item","yes","Lexical_Decision_Task.osexp","C:/Users/Alina/Documents","no","Andale Mono","no","18","no","white","no","yes","576","legacy","12","12","3","C:/Users/Alina/Documents/subject-5211591.csv","legacy","Lentiform Loewenfeld","3.3.7","yes","yes","600bd7cfb6416f0113b04181","602110864497cf011d9c0822","0","j","NA","space","space","space","NA","j","854","NA","1742","12595","6179","NA","854","2","legacy","1024","2","48000","-16","task","5211591","odd","NA","32993","36740","34997","61480","5387","24166","17986","61982","NA","61476","61983","61361","36740","62838","31169","60861","5381","NA","Lexical Decision Task","17","16116","17","yes","1024"
"2.69019608","9.01","2","myth","word","100","100","943.6111111111111","943.6111111111111","black","no","legacy","legacy","legacy","0","uniform","1","undefined","undefined","undefined","1","j","0","0","0","0","17","0","0","0","17","NA","13","17","13","0","13","3","17","0","17","Tue Feb 16 13:49:27 2021","The main experiment item","yes","Lexical_Decision_Task.osexp","C:/Users/Alina/Documents","no","Andale Mono","no","18","no","white","no","yes","576","legacy","13","13","3","C:/Users/Alina/Documents/subject-5211591.csv","legacy","Lentiform Loewenfeld","3.3.7","yes","yes","600bd7cfb6416f0113b04181","602110864497cf011d9c0822","0","j","NA","space","space","space","NA","j","869","NA","1742","12595","6179","NA","869","2","legacy","1024","2","48000","-16","task","5211591","odd","NA","32993","36740","34997","63465","5387","24166","17986","63969","NA","63462","63969","63347","36740","64839","31169","62847","5381","NA","Lexical Decision Task","18","16985","18","yes","1024"
"2.972357144","0","5","dasp","non-word","100","100","933.3684210526316","933.3684210526316","black","no","legacy","legacy","legacy","0","uniform","1","undefined","undefined","undefined","1","f","0","0","0","0","18","0","0","0","18","NA","14","18","14","0","14","3","18","0","18","Tue Feb 16 13:49:27 2021","The main experiment item","yes","Lexical_Decision_Task.osexp","C:/Users/Alina/Documents","no","Andale Mono","no","18","no","white","no","yes","576","legacy","14","14","3","C:/Users/Alina/Documents/subject-5211591.csv","legacy","Lentiform Loewenfeld","3.3.7","yes","yes","600bd7cfb6416f0113b04181","602110864497cf011d9c0822","0","f","NA","space","space","space","NA","f","749","NA","1742","12595","6179","NA","749","2","legacy","1024","2","48000","-16","task","5211591","odd","NA","32993","36740","34997","65467","5387","24166","17986","65970","NA","65463","65970","65347","36740","66720","31169","64847","5381","NA","Lexical Decision Task","19","17734","19","yes","1024"
"3.303771854","0","9","dath","non-word","100","100","935.4","935.4","black","no","legacy","legacy","legacy","0","uniform","1","undefined","undefined","undefined","1","f","0","0","0","0","19","0","0","0","19","NA","15","19","15","0","15","3","19","0","19","Tue Feb 16 13:49:27 2021","The main experiment item","yes","Lexical_Decision_Task.osexp","C:/Users/Alina/Documents","no","Andale Mono","no","18","no","white","no","yes","576","legacy","15","15","3","C:/Users/Alina/Documents/subject-5211591.csv","legacy","Lentiform Loewenfeld","3.3.7","yes","yes","600bd7cfb6416f0113b04181","602110864497cf011d9c0822","0","f","NA","space","space","space","NA","f","974","NA","1742","12595","6179","NA","974","2","legacy","1024","2","48000","-16","task","5211591","odd","NA","32993","36740","34997","67346","5387","24166","17986","67849","NA","67343","67849","67227","36740","68824","31169","66727","5381","NA","Lexical Decision Task","20","18708","20","yes","1024"
"2.698100546","0","9","mulk","non-word","100","100","949.047619047619","949.047619047619","black","no","legacy","legacy","legacy","0","uniform","1","undefined","undefined","undefined","1","f","0","0","0","0","20","0","0","0","20","NA","16","20","16","0","16","3","20","0","20","Tue Feb 16 13:49:27 2021","The main experiment item","yes","Lexical_Decision_Task.osexp","C:/Users/Alina/Documents","no","Andale Mono","no","18","no","white","no","yes","576","legacy","16","16","3","C:/Users/Alina/Documents/subject-5211591.csv","legacy","Lentiform Loewenfeld","3.3.7","yes","yes","600bd7cfb6416f0113b04181","602110864497cf011d9c0822","0","f","NA","space","space","space","NA","f","1222","NA","1742","12595","6179","NA","1222","2","legacy","1024","2","48000","-16","task","5211591","odd","NA","32993","36740","34997","69450","5387","24166","17986","69953","NA","69447","69953","69332","36740","71175","31169","68832","5381","NA","Lexical Decision Task","21","19930","21","yes","1024"
"3.067070856","9.39","3","loud","word","100","100","936.4090909090909","936.4090909090909","black","no","legacy","legacy","legacy","0","uniform","1","undefined","undefined","undefined","1","j","0","0","0","0","21","0","0","0","21","NA","17","21","17","0","17","3","21","0","21","Tue Feb 16 13:49:27 2021","The main experiment item","yes","Lexical_Decision_Task.osexp","C:/Users/Alina/Documents","no","Andale Mono","no","18","no","white","no","yes","576","legacy","17","17","3","C:/Users/Alina/Documents/subject-5211591.csv","legacy","Lentiform Loewenfeld","3.3.7","yes","yes","600bd7cfb6416f0113b04181","602110864497cf011d9c0822","0","j","NA","space","space","space","NA","j","671","NA","1742","12595","6179","NA","671","2","legacy","1024","2","48000","-16","task","5211591","odd","NA","32993","36740","34997","71802","5387","24166","17986","72305","NA","71799","72305","71683","36740","72978","31169","71183","5381","NA","Lexical Decision Task","22","20601","22","yes","1024"
"2.698387659","6.66","7","skid","word","100","100","936.5652173913044","936.5652173913044","black","no","legacy","legacy","legacy","0","uniform","1","undefined","undefined","undefined","1","j","0","0","0","0","22","0","0","0","22","NA","18","22","18","0","18","3","22","0","22","Tue Feb 16 13:49:27 2021","The main experiment item","yes","Lexical_Decision_Task.osexp","C:/Users/Alina/Documents","no","Andale Mono","no","18","no","white","no","yes","576","legacy","18","18","3","C:/Users/Alina/Documents/subject-5211591.csv","legacy","Lentiform Loewenfeld","3.3.7","yes","yes","600bd7cfb6416f0113b04181","602110864497cf011d9c0822","0","j","NA","space","space","space","NA","j","940","NA","1742","12595","6179","NA","940","2","legacy","1024","2","48000","-16","task","5211591","odd","NA","32993","36740","34997","73603","5387","24166","17986","74107","NA","73600","74107","73485","36740","75048","31169","72985","5381","NA","Lexical Decision Task","23","21541","23","yes","1024"
"2.986323777","10.85","8","ship","word","100","100","931.0833333333334","931.0833333333334","black","no","legacy","legacy","legacy","0","uniform","1","undefined","undefined","undefined","1","j","0","0","0","0","23","0","0","0","23","NA","19","23","19","0","19","3","23","0","23","Tue Feb 16 13:49:27 2021","The main experiment item","yes","Lexical_Decision_Task.osexp","C:/Users/Alina/Documents","no","Andale Mono","no","18","no","white","no","yes","576","legacy","19","19","3","C:/Users/Alina/Documents/subject-5211591.csv","legacy","Lentiform Loewenfeld","3.3.7","yes","yes","600bd7cfb6416f0113b04181","602110864497cf011d9c0822","0","j","NA","space","space","space","NA","j","805","NA","1742","12595","6179","NA","805","2","legacy","1024","2","48000","-16","task","5211591","odd","NA","32993","36740","34997","75674","5387","24166","17986","76178","NA","75671","76178","75556","36740","76984","31169","75056","5381","NA","Lexical Decision Task","24","22346","24","yes","1024"
"3.492014979","0","9","yine","non-word","100","100","929.16","929.16","black","no","legacy","legacy","legacy","0","uniform","1","undefined","undefined","undefined","1","f","0","0","0","0","24","0","0","0","24","NA","20","24","20","0","20","3","24","0","24","Tue Feb 16 13:49:27 2021","The main experiment item","yes","Lexical_Decision_Task.osexp","C:/Users/Alina/Documents","no","Andale Mono","no","18","no","white","no","yes","576","legacy","20","20","3","C:/Users/Alina/Documents/subject-5211591.csv","legacy","Lentiform Loewenfeld","3.3.7","yes","yes","600bd7cfb6416f0113b04181","602110864497cf011d9c0822","0","f","NA","space","space","space","NA","f","883","NA","1742","12595","6179","NA","883","2","legacy","1024","2","48000","-16","task","5211591","odd","NA","32993","36740","34997","77610","5387","24166","17986","78113","NA","77606","78113","77492","36740","78997","31169","76992","5381","NA","Lexical Decision Task","25","23229","25","yes","1024"
"3.062080345","0","6","tomp","non-word","100","100","923.0769230769231","923.0769230769231","black","no","legacy","legacy","legacy","0","uniform","1","undefined","undefined","undefined","1","f","0","0","0","0","25","0","0","0","25","NA","21","25","21","0","21","3","25","0","25","Tue Feb 16 13:49:27 2021","The main experiment item","yes","Lexical_Decision_Task.osexp","C:/Users/Alina/Documents","no","Andale Mono","no","18","no","white","no","yes","576","legacy","21","21","3","C:/Users/Alina/Documents/subject-5211591.csv","legacy","Lentiform Loewenfeld","3.3.7","yes","yes","600bd7cfb6416f0113b04181","602110864497cf011d9c0822","0","f","NA","space","space","space","NA","f","771","NA","1742","12595","6179","NA","771","2","legacy","1024","2","48000","-16","task","5211591","odd","NA","32993","36740","34997","79623","5387","24166","17986","80126","NA","79620","80126","79505","36740","80898","31169","79005","5381","NA","Lexical Decision Task","26","24000","26","yes","1024"
"2.703007489","8.37","3","pulp","word","100","100","915.3703703703703","915.3703703703703","black","no","legacy","legacy","legacy","0","uniform","1","undefined","undefined","undefined","1","j","0","0","0","0","26","0","0","0","26","NA","22","26","22","0","22","3","26","0","26","Tue Feb 16 13:49:27 2021","The main experiment item","yes","Lexical_Decision_Task.osexp","C:/Users/Alina/Documents","no","Andale Mono","no","18","no","white","no","yes","576","legacy","22","22","3","C:/Users/Alina/Documents/subject-5211591.csv","legacy","Lentiform Loewenfeld","3.3.7","yes","yes","600bd7cfb6416f0113b04181","602110864497cf011d9c0822","0","j","NA","space","space","space","NA","j","715","NA","1742","12595","6179","NA","715","2","legacy","1024","2","48000","-16","task","5211591","odd","NA","32993","36740","34997","81524","5387","24166","17986","82028","NA","81521","82028","81406","36740","82744","31169","80906","5381","NA","Lexical Decision Task","27","24715","27","yes","1024"
"3.529815197","0","3","lerm","non-word","100","100","913.7857142857143","913.7857142857143","black","no","legacy","legacy","legacy","0","uniform","1","undefined","undefined","undefined","1","f","0","0","0","0","27","0","0","0","27","NA","23","27","23","0","23","3","27","0","27","Tue Feb 16 13:49:27 2021","The main experiment item","yes","Lexical_Decision_Task.osexp","C:/Users/Alina/Documents","no","Andale Mono","no","18","no","white","no","yes","576","legacy","23","23","3","C:/Users/Alina/Documents/subject-5211591.csv","legacy","Lentiform Loewenfeld","3.3.7","yes","yes","600bd7cfb6416f0113b04181","602110864497cf011d9c0822","0","f","NA","space","space","space","NA","f","871","NA","1742","12595","6179","NA","871","2","legacy","1024","2","48000","-16","task","5211591","odd","NA","32993","36740","34997","83370","5387","24166","17986","83873","NA","83367","83873","83252","36740","84745","31169","82752","5381","NA","Lexical Decision Task","28","25586","28","yes","1024"
"2.868644438","10.52","4","town","word","100","100","908.7586206896551","908.7586206896551","black","no","legacy","legacy","legacy","0","uniform","1","undefined","undefined","undefined","1","j","0","0","0","0","28","0","0","0","28","NA","24","28","24","0","24","3","28","0","28","Tue Feb 16 13:49:27 2021","The main experiment item","yes","Lexical_Decision_Task.osexp","C:/Users/Alina/Documents","no","Andale Mono","no","18","no","white","no","yes","576","legacy","24","24","3","C:/Users/Alina/Documents/subject-5211591.csv","legacy","Lentiform Loewenfeld","3.3.7","yes","yes","600bd7cfb6416f0113b04181","602110864497cf011d9c0822","0","j","NA","space","space","space","NA","j","768","NA","1742","12595","6179","NA","768","2","legacy","1024","2","48000","-16","task","5211591","odd","NA","32993","36740","34997","85372","5387","24166","17986","85874","NA","85369","85875","85253","36740","86643","31169","84753","5381","NA","Lexical Decision Task","29","26354","29","yes","1024"
"2.979548375","8.71","4","soup","word","100","100","903","903","black","no","legacy","legacy","legacy","0","uniform","1","undefined","undefined","undefined","1","j","0","0","0","0","29","0","0","0","29","NA","25","29","25","0","25","3","29","0","29","Tue Feb 16 13:49:27 2021","The main experiment item","yes","Lexical_Decision_Task.osexp","C:/Users/Alina/Documents","no","Andale Mono","no","18","no","white","no","yes","576","legacy","25","25","3","C:/Users/Alina/Documents/subject-5211591.csv","legacy","Lentiform Loewenfeld","3.3.7","yes","yes","600bd7cfb6416f0113b04181","602110864497cf011d9c0822","0","j","NA","space","space","space","NA","j","736","NA","1742","12595","6179","NA","736","2","legacy","1024","2","48000","-16","task","5211591","odd","NA","32993","36740","34997","87270","5387","24166","17986","87773","NA","87266","87773","87151","36740","88510","31169","86651","5381","NA","Lexical Decision Task","30","27090","30","yes","1024"
"2.980306438","0","7","slun","non-word","100","100","895.6129032258065","895.6129032258065","black","no","legacy","legacy","legacy","0","uniform","1","undefined","undefined","undefined","1","f","0","0","0","0","30","0","0","0","30","NA","26","30","26","0","26","3","30","0","30","Tue Feb 16 13:49:27 2021","The main experiment item","yes","Lexical_Decision_Task.osexp","C:/Users/Alina/Documents","no","Andale Mono","no","18","no","white","no","yes","576","legacy","26","26","3","C:/Users/Alina/Documents/subject-5211591.csv","legacy","Lentiform Loewenfeld","3.3.7","yes","yes","600bd7cfb6416f0113b04181","602110864497cf011d9c0822","0","f","NA","space","space","space","NA","f","674","NA","1742","12595","6179","NA","674","2","legacy","1024","2","48000","-16","task","5211591","odd","NA","32993","36740","34997","89137","5387","24166","17986","89640","NA","89134","89640","89017","36740","90315","31169","88517","5381","NA","Lexical Decision Task","31","27764","31","yes","1024"
"2.839268497","0","8","maft","non-word","100","100","893.125","893.125","black","no","legacy","legacy","legacy","0","uniform","1","undefined","undefined","undefined","1","f","0","0","0","0","31","0","0","0","31","NA","27","31","27","0","27","3","31","0","31","Tue Feb 16 13:49:27 2021","The main experiment item","yes","Lexical_Decision_Task.osexp","C:/Users/Alina/Documents","no","Andale Mono","no","18","no","white","no","yes","576","legacy","27","27","3","C:/Users/Alina/Documents/subject-5211591.csv","legacy","Lentiform Loewenfeld","3.3.7","yes","yes","600bd7cfb6416f0113b04181","602110864497cf011d9c0822","0","f","NA","space","space","space","NA","f","816","NA","1742","12595","6179","NA","816","2","legacy","1024","2","48000","-16","task","5211591","odd","NA","32993","36740","34997","90940","5387","24166","17986","91444","NA","90937","91444","90822","36740","92261","31169","90322","5381","NA","Lexical Decision Task","32","28580","32","yes","1024"
"3.368162872","0","4","ferk","non-word","100","100","891","891","black","no","legacy","legacy","legacy","0","uniform","1","undefined","undefined","undefined","1","f","0","0","0","0","32","0","0","0","32","NA","28","32","28","0","28","3","32","0","32","Tue Feb 16 13:49:27 2021","The main experiment item","yes","Lexical_Decision_Task.osexp","C:/Users/Alina/Documents","no","Andale Mono","no","18","no","white","no","yes","576","legacy","28","28","3","C:/Users/Alina/Documents/subject-5211591.csv","legacy","Lentiform Loewenfeld","3.3.7","yes","yes","600bd7cfb6416f0113b04181","602110864497cf011d9c0822","0","f","NA","space","space","space","NA","f","823","NA","1742","12595","6179","NA","823","2","legacy","1024","2","48000","-16","task","5211591","odd","NA","32993","36740","34997","92886","5387","24166","17986","93389","NA","92883","93390","92768","36740","94214","31169","92268","5381","NA","Lexical Decision Task","33","29403","33","yes","1024"
"2.845304797","0","6","buct","non-word","100","100","887","887","black","no","legacy","legacy","legacy","0","uniform","1","undefined","undefined","undefined","1","f","0","0","0","0","33","0","0","0","33","NA","29","33","29","0","29","3","33","0","33","Tue Feb 16 13:49:27 2021","The main experiment item","yes","Lexical_Decision_Task.osexp","C:/Users/Alina/Documents","no","Andale Mono","no","18","no","white","no","yes","576","legacy","29","29","3","C:/Users/Alina/Documents/subject-5211591.csv","legacy","Lentiform Loewenfeld","3.3.7","yes","yes","600bd7cfb6416f0113b04181","602110864497cf011d9c0822","0","f","NA","space","space","space","NA","f","755","NA","1742","12595","6179","NA","755","2","legacy","1024","2","48000","-16","task","5211591","odd","NA","32993","36740","34997","94841","5387","24166","17986","95344","NA","94837","95344","94722","36740","96100","31169","94222","5381","NA","Lexical Decision Task","34","30158","34","yes","1024"
"3.299579929","0","2","flis","non-word","100","100","884.1142857142858","884.1142857142858","black","no","legacy","legacy","legacy","0","uniform","1","undefined","undefined","undefined","1","f","0","0","0","0","34","0","0","0","34","NA","30","34","30","0","30","3","34","0","34","Tue Feb 16 13:49:27 2021","The main experiment item","yes","Lexical_Decision_Task.osexp","C:/Users/Alina/Documents","no","Andale Mono","no","18","no","white","no","yes","576","legacy","30","30","3","C:/Users/Alina/Documents/subject-5211591.csv","legacy","Lentiform Loewenfeld","3.3.7","yes","yes","600bd7cfb6416f0113b04181","602110864497cf011d9c0822","0","f","NA","space","space","space","NA","f","786","NA","1742","12595","6179","NA","786","2","legacy","1024","2","48000","-16","task","5211591","odd","NA","32993","36740","34997","96726","5387","24166","17986","97229","NA","96723","97229","96608","36740","98016","31169","96107","5381","NA","Lexical Decision Task","35","30944","35","yes","1024"
"2.809559715","8.44","4","volt","word","100","100","895.9722222222222","895.9722222222222","black","no","legacy","legacy","legacy","0","uniform","1","undefined","undefined","undefined","1","j","0","0","0","0","35","0","0","0","35","NA","31","35","31","0","31","3","35","0","35","Tue Feb 16 13:49:27 2021","The main experiment item","yes","Lexical_Decision_Task.osexp","C:/Users/Alina/Documents","no","Andale Mono","no","18","no","white","no","yes","576","legacy","31","31","3","C:/Users/Alina/Documents/subject-5211591.csv","legacy","Lentiform Loewenfeld","3.3.7","yes","yes","600bd7cfb6416f0113b04181","602110864497cf011d9c0822","0","j","NA","space","space","space","NA","j","1311","NA","1742","12595","6179","NA","1311","2","legacy","1024","2","48000","-16","task","5211591","odd","NA","32993","36740","34997","98643","5387","24166","17986","99145","NA","98640","99146","98524","36740","100458","31169","98024","5381","NA","Lexical Decision Task","36","32255","36","yes","1024"
"3.495914186","0","4","peng","non-word","100","100","900.918918918919","900.918918918919","black","no","legacy","legacy","legacy","0","uniform","1","undefined","undefined","undefined","1","f","0","0","0","0","36","0","0","0","36","NA","32","36","32","0","32","3","36","0","36","Tue Feb 16 13:49:27 2021","The main experiment item","yes","Lexical_Decision_Task.osexp","C:/Users/Alina/Documents","no","Andale Mono","no","18","no","white","no","yes","576","legacy","32","32","3","C:/Users/Alina/Documents/subject-5211591.csv","legacy","Lentiform Loewenfeld","3.3.7","yes","yes","600bd7cfb6416f0113b04181","602110864497cf011d9c0822","0","f","NA","space","space","space","NA","f","1079","NA","1742","12595","6179","NA","1079","2","legacy","1024","2","48000","-16","task","5211591","odd","NA","32993","36740","34997","101083","5387","24166","17986","101587","NA","101080","101587","100965","36740","102667","31169","100465","5381","NA","Lexical Decision Task","37","33334","37","yes","1024"
"3.363486562","6.93","9","lush","word","97.36842105263158","97.36842105263158","904.5526315789474","904.5526315789474","black","no","legacy","legacy","legacy","0","uniform","0","undefined","undefined","undefined","0","j","0","0","0","0","37","0","0","0","37","NA","33","37","33","0","33","3","37","0","37","Tue Feb 16 13:49:27 2021","The main experiment item","yes","Lexical_Decision_Task.osexp","C:/Users/Alina/Documents","no","Andale Mono","no","18","no","white","no","yes","576","legacy","33","33","3","C:/Users/Alina/Documents/subject-5211591.csv","legacy","Lentiform Loewenfeld","3.3.7","yes","yes","600bd7cfb6416f0113b04181","602110864497cf011d9c0822","0","f","NA","space","space","space","NA","f","1039","NA","1742","12595","6179","NA","1039","2","legacy","1024","2","48000","-16","task","5211591","odd","NA","32993","36740","34997","103293","5387","24166","17986","103797","NA","103290","103797","103175","36740","104837","31169","102675","5381","NA","Lexical Decision Task","37","34373","38","yes","1024"
"3.22685757","9.99","7","roll","word","97.43589743589743","97.43589743589743","905.3333333333334","905.3333333333334","black","no","legacy","legacy","legacy","0","uniform","1","undefined","undefined","undefined","1","j","0","0","0","0","38","0","0","0","38","NA","34","38","34","0","34","3","38","0","38","Tue Feb 16 13:49:27 2021","The main experiment item","yes","Lexical_Decision_Task.osexp","C:/Users/Alina/Documents","no","Andale Mono","no","18","no","white","no","yes","576","legacy","34","34","3","C:/Users/Alina/Documents/subject-5211591.csv","legacy","Lentiform Loewenfeld","3.3.7","yes","yes","600bd7cfb6416f0113b04181","602110864497cf011d9c0822","0","j","NA","space","space","space","NA","j","935","NA","1742","12595","6179","NA","935","2","legacy","1024","2","48000","-16","task","5211591","odd","NA","32993","36740","34997","106463","5387","24166","17986","106965","NA","106460","106966","106345","36740","107902","31169","102675","5381","104845","Lexical Decision Task","38","35308","39","yes","1024"
"2.64476673","0","5","moft","non-word","97.5","97.5","903.95","903.95","black","no","legacy","legacy","legacy","0","uniform","1","undefined","undefined","undefined","1","f","0","0","0","0","39","0","0","0","39","NA","35","39","35","0","35","3","39","0","39","Tue Feb 16 13:49:27 2021","The main experiment item","yes","Lexical_Decision_Task.osexp","C:/Users/Alina/Documents","no","Andale Mono","no","18","no","white","no","yes","576","legacy","35","35","3","C:/Users/Alina/Documents/subject-5211591.csv","legacy","Lentiform Loewenfeld","3.3.7","yes","yes","600bd7cfb6416f0113b04181","602110864497cf011d9c0822","0","f","NA","space","space","space","NA","f","850","NA","1742","12595","6179","NA","850","2","legacy","1024","2","48000","-16","task","5211591","odd","NA","32993","36740","34997","108528","5387","24166","17986","109031","NA","108524","109031","108409","36740","109882","31169","107909","5381","104845","Lexical Decision Task","39","36158","40","yes","1024"
"3.276537627","9.15","5","trap","word","97.5609756097561","97.5609756097561","900.9024390243902","900.9024390243902","black","no","legacy","legacy","legacy","0","uniform","1","undefined","undefined","undefined","1","j","0","0","0","0","40","0","0","0","40","NA","36","40","36","0","36","3","40","0","40","Tue Feb 16 13:49:27 2021","The main experiment item","yes","Lexical_Decision_Task.osexp","C:/Users/Alina/Documents","no","Andale Mono","no","18","no","white","no","yes","576","legacy","36","36","3","C:/Users/Alina/Documents/subject-5211591.csv","legacy","Lentiform Loewenfeld","3.3.7","yes","yes","600bd7cfb6416f0113b04181","602110864497cf011d9c0822","0","j","NA","space","space","space","NA","j","779","NA","1742","12595","6179","NA","779","2","legacy","1024","2","48000","-16","task","5211591","odd","NA","32993","36740","34997","110509","5387","24166","17986","111011","NA","110505","111012","110390","36740","111792","31169","109890","5381","104845","Lexical Decision Task","40","36937","41","yes","1024"
"2.705007959","6.01","4","wept","word","97.61904761904762","97.61904761904762","901.6190476190476","901.6190476190476","black","no","legacy","legacy","legacy","0","uniform","1","undefined","undefined","undefined","1","j","0","0","0","0","41","0","0","0","41","NA","37","41","37","0","37","3","41","0","41","Tue Feb 16 13:49:27 2021","The main experiment item","yes","Lexical_Decision_Task.osexp","C:/Users/Alina/Documents","no","Andale Mono","no","18","no","white","no","yes","576","legacy","37","37","3","C:/Users/Alina/Documents/subject-5211591.csv","legacy","Lentiform Loewenfeld","3.3.7","yes","yes","600bd7cfb6416f0113b04181","602110864497cf011d9c0822","0","j","NA","space","space","space","NA","j","931","NA","1742","12595","6179","NA","931","2","legacy","1024","2","48000","-16","task","5211591","odd","NA","32993","36740","34997","112419","5387","24166","17986","112921","NA","112415","112922","112300","36740","113854","31169","111800","5381","104845","Lexical Decision Task","41","37868","42","yes","1024"
"2.899638141","0","3","hapt","non-word","95.34883720930233","95.34883720930233","903.4651162790698","903.4651162790698","black","no","legacy","legacy","legacy","0","uniform","0","undefined","undefined","undefined","0","f","0","0","0","0","42","0","0","0","42","NA","38","42","38","0","38","3","42","0","42","Tue Feb 16 13:49:27 2021","The main experiment item","yes","Lexical_Decision_Task.osexp","C:/Users/Alina/Documents","no","Andale Mono","no","18","no","white","no","yes","576","legacy","38","38","3","C:/Users/Alina/Documents/subject-5211591.csv","legacy","Lentiform Loewenfeld","3.3.7","yes","yes","600bd7cfb6416f0113b04181","602110864497cf011d9c0822","0","j","NA","space","space","space","NA","j","981","NA","1742","12595","6179","NA","981","2","legacy","1024","2","48000","-16","task","5211591","odd","NA","32993","36740","34997","114482","5387","24166","17986","114984","NA","114479","114985","114363","36740","115967","31169","113862","5381","104845","Lexical Decision Task","41","38849","43","yes","1024"
"3.257359335","8","6","brew","word","95.45454545454545","95.45454545454545","904.3636363636364","904.3636363636364","black","no","legacy","legacy","legacy","0","uniform","1","undefined","undefined","undefined","1","j","0","0","0","0","43","0","0","0","43","NA","39","43","39","0","39","3","43","0","43","Tue Feb 16 13:49:27 2021","The main experiment item","yes","Lexical_Decision_Task.osexp","C:/Users/Alina/Documents","no","Andale Mono","no","18","no","white","no","yes","576","legacy","39","39","3","C:/Users/Alina/Documents/subject-5211591.csv","legacy","Lentiform Loewenfeld","3.3.7","yes","yes","600bd7cfb6416f0113b04181","602110864497cf011d9c0822","0","j","NA","space","space","space","NA","j","943","NA","1742","12595","6179","NA","943","2","legacy","1024","2","48000","-16","task","5211591","odd","NA","32993","36740","34997","117593","5387","24166","17986","118096","NA","117590","118096","117474","36740","119040","31169","113862","5381","115974","Lexical Decision Task","42","39792","44","yes","1024"
"3.165936429","0","7","leps","non-word","95.55555555555556","95.55555555555556","903.9111111111112","903.9111111111112","black","no","legacy","legacy","legacy","0","uniform","1","undefined","undefined","undefined","1","f","0","0","0","0","44","0","0","0","44","NA","40","44","40","0","40","3","44","0","44","Tue Feb 16 13:49:27 2021","The main experiment item","yes","Lexical_Decision_Task.osexp","C:/Users/Alina/Documents","no","Andale Mono","no","18","no","white","no","yes","576","legacy","40","40","3","C:/Users/Alina/Documents/subject-5211591.csv","legacy","Lentiform Loewenfeld","3.3.7","yes","yes","600bd7cfb6416f0113b04181","602110864497cf011d9c0822","0","f","NA","space","space","space","NA","f","884","NA","1742","12595","6179","NA","884","2","legacy","1024","2","48000","-16","task","5211591","odd","NA","32993","36740","34997","119668","5387","24166","17986","120170","NA","119665","120171","119548","36740","121057","31169","119048","5381","115974","Lexical Decision Task","43","40676","45","yes","1024"
"3.311895072","0","9","gung","non-word","95.65217391304348","95.65217391304348","904.5","904.5","black","no","legacy","legacy","legacy","0","uniform","1","undefined","undefined","undefined","1","f","0","0","0","0","45","0","0","0","45","NA","41","45","41","0","41","3","45","0","45","Tue Feb 16 13:49:27 2021","The main experiment item","yes","Lexical_Decision_Task.osexp","C:/Users/Alina/Documents","no","Andale Mono","no","18","no","white","no","yes","576","legacy","41","41","3","C:/Users/Alina/Documents/subject-5211591.csv","legacy","Lentiform Loewenfeld","3.3.7","yes","yes","600bd7cfb6416f0113b04181","602110864497cf011d9c0822","0","f","NA","space","space","space","NA","f","931","NA","1742","12595","6179","NA","931","2","legacy","1024","2","48000","-16","task","5211591","odd","NA","32993","36740","34997","121682","5387","24166","17986","122184","NA","121679","122185","121564","36740","123118","31169","121064","5381","115974","Lexical Decision Task","44","41607","46","yes","1024"
"2.675164031","8.57","6","glue","word","95.74468085106383","95.74468085106383","897.7659574468086","897.7659574468086","black","no","legacy","legacy","legacy","0","uniform","1","undefined","undefined","undefined","1","j","0","0","0","0","46","0","0","0","46","NA","42","46","42","0","42","3","46","0","46","Tue Feb 16 13:49:27 2021","The main experiment item","yes","Lexical_Decision_Task.osexp","C:/Users/Alina/Documents","no","Andale Mono","no","18","no","white","no","yes","576","legacy","42","42","3","C:/Users/Alina/Documents/subject-5211591.csv","legacy","Lentiform Loewenfeld","3.3.7","yes","yes","600bd7cfb6416f0113b04181","602110864497cf011d9c0822","0","j","NA","space","space","space","NA","j","588","NA","1742","12595","6179","NA","588","2","legacy","1024","2","48000","-16","task","5211591","odd","NA","32993","36740","34997","123746","5387","24166","17986","124249","NA","123743","124249","123626","36740","124838","31169","123126","5381","115974","Lexical Decision Task","45","42195","47","yes","1024"
"2.728085817","10.02","9","bike","word","95.83333333333333","95.83333333333333","892.75","892.75","black","no","legacy","legacy","legacy","0","uniform","1","undefined","undefined","undefined","1","j","0","0","0","0","47","0","0","0","47","NA","43","47","43","0","43","3","47","0","47","Tue Feb 16 13:49:27 2021","The main experiment item","yes","Lexical_Decision_Task.osexp","C:/Users/Alina/Documents","no","Andale Mono","no","18","no","white","no","yes","576","legacy","43","43","3","C:/Users/Alina/Documents/subject-5211591.csv","legacy","Lentiform Loewenfeld","3.3.7","yes","yes","600bd7cfb6416f0113b04181","602110864497cf011d9c0822","0","j","NA","space","space","space","NA","j","657","NA","1742","12595","6179","NA","657","2","legacy","1024","2","48000","-16","task","5211591","odd","NA","32993","36740","34997","125464","5387","24166","17986","125967","NA","125461","125967","125346","36740","126625","31169","124846","5381","115974","Lexical Decision Task","46","42852","48","yes","1024"
"2.897810299","0","5","glur","non-word","95.91836734693878","95.91836734693878","887.5918367346939","887.5918367346939","black","no","legacy","legacy","legacy","0","uniform","1","undefined","undefined","undefined","1","f","0","0","0","0","48","0","0","0","48","NA","44","48","44","0","44","3","48","0","48","Tue Feb 16 13:49:27 2021","The main experiment item","yes","Lexical_Decision_Task.osexp","C:/Users/Alina/Documents","no","Andale Mono","no","18","no","white","no","yes","576","legacy","44","44","3","C:/Users/Alina/Documents/subject-5211591.csv","legacy","Lentiform Loewenfeld","3.3.7","yes","yes","600bd7cfb6416f0113b04181","602110864497cf011d9c0822","0","f","NA","space","space","space","NA","f","640","NA","1742","12595","6179","NA","640","2","legacy","1024","2","48000","-16","task","5211591","odd","NA","32993","36740","34997","127251","5387","24166","17986","127753","NA","127248","127754","127133","36740","128395","31169","126633","5381","115974","Lexical Decision Task","47","43492","49","yes","1024"
"3.010582609","0","2","drod","non-word","96","96","886.28","886.28","black","no","legacy","legacy","legacy","0","uniform","1","undefined","undefined","undefined","1","f","0","0","0","0","49","0","0","0","49","NA","45","49","45","0","45","3","49","0","49","Tue Feb 16 13:49:27 2021","The main experiment item","yes","Lexical_Decision_Task.osexp","C:/Users/Alina/Documents","no","Andale Mono","no","18","no","white","no","yes","576","legacy","45","45","3","C:/Users/Alina/Documents/subject-5211591.csv","legacy","Lentiform Loewenfeld","3.3.7","yes","yes","600bd7cfb6416f0113b04181","602110864497cf011d9c0822","0","f","NA","space","space","space","NA","f","822","NA","1742","12595","6179","NA","822","2","legacy","1024","2","48000","-16","task","5211591","odd","NA","32993","36740","34997","129022","5387","24166","17986","129526","NA","129019","129526","128904","36740","130350","31169","128403","5381","115974","Lexical Decision Task","48","44314","50","yes","1024"
"2.755364069","7.72","2","hoax","word","96.07843137254902","96.07843137254902","884.0588235294117","884.0588235294117","black","no","legacy","legacy","legacy","0","uniform","1","undefined","undefined","undefined","1","j","0","0","0","0","50","0","0","0","50","NA","46","50","46","0","46","3","50","0","50","Tue Feb 16 13:49:27 2021","The main experiment item","yes","Lexical_Decision_Task.osexp","C:/Users/Alina/Documents","no","Andale Mono","no","18","no","white","no","yes","576","legacy","46","46","3","C:/Users/Alina/Documents/subject-5211591.csv","legacy","Lentiform Loewenfeld","3.3.7","yes","yes","600bd7cfb6416f0113b04181","602110864497cf011d9c0822","0","j","NA","space","space","space","NA","j","773","NA","1742","12595","6179","NA","773","2","legacy","1024","2","48000","-16","task","5211591","odd","NA","32993","36740","34997","130977","5387","24166","17986","131480","NA","130974","131480","130857","36740","132254","31169","130357","5381","115974","Lexical Decision Task","49","45087","51","yes","1024"
"2.68604012","0","4","pumb","non-word","96.15384615384616","96.15384615384616","891.4807692307693","891.4807692307693","black","no","legacy","legacy","legacy","0","uniform","1","undefined","undefined","undefined","1","f","0","0","0","0","51","0","0","0","51","NA","47","51","47","0","47","3","51","0","51","Tue Feb 16 13:49:27 2021","The main experiment item","yes","Lexical_Decision_Task.osexp","C:/Users/Alina/Documents","no","Andale Mono","no","18","no","white","no","yes","576","legacy","47","47","3","C:/Users/Alina/Documents/subject-5211591.csv","legacy","Lentiform Loewenfeld","3.3.7","yes","yes","600bd7cfb6416f0113b04181","602110864497cf011d9c0822","0","f","NA","space","space","space","NA","f","1270","NA","1742","12595","6179","NA","1270","2","legacy","1024","2","48000","-16","task","5211591","odd","NA","32993","36740","34997","132881","5387","24166","17986","133384","NA","132878","133384","132762","36740","134655","31169","132262","5381","115974","Lexical Decision Task","50","46357","52","yes","1024"
"3.159867847","5.98","5","brim","word","94.33962264150944","94.33962264150944","902.8867924528302","902.8867924528302","black","no","legacy","legacy","legacy","0","uniform","0","undefined","undefined","undefined","0","j","0","0","0","0","52","0","0","0","52","NA","48","52","48","0","48","3","52","0","52","Tue Feb 16 13:49:27 2021","The main experiment item","yes","Lexical_Decision_Task.osexp","C:/Users/Alina/Documents","no","Andale Mono","no","18","no","white","no","yes","576","legacy","48","48","3","C:/Users/Alina/Documents/subject-5211591.csv","legacy","Lentiform Loewenfeld","3.3.7","yes","yes","600bd7cfb6416f0113b04181","602110864497cf011d9c0822","0","f","NA","space","space","space","NA","f","1496","NA","1742","12595","6179","NA","1496","2","legacy","1024","2","48000","-16","task","5211591","odd","NA","32993","36740","34997","135281","5387","24166","17986","135784","NA","135278","135784","135163","36740","137281","31169","134663","5381","115974","Lexical Decision Task","50","47853","53","yes","1024"
"3.440331212","7.35","6","stew","word","94.44444444444444","94.44444444444444","907.5370370370371","907.5370370370371","black","no","legacy","legacy","legacy","0","uniform","1","undefined","undefined","undefined","1","j","0","0","0","0","53","0","0","0","53","NA","49","53","49","0","49","3","53","0","53","Tue Feb 16 13:49:27 2021","The main experiment item","yes","Lexical_Decision_Task.osexp","C:/Users/Alina/Documents","no","Andale Mono","no","18","no","white","no","yes","576","legacy","49","49","3","C:/Users/Alina/Documents/subject-5211591.csv","legacy","Lentiform Loewenfeld","3.3.7","yes","yes","600bd7cfb6416f0113b04181","602110864497cf011d9c0822","0","j","NA","space","space","space","NA","j","1154","NA","1742","12595","6179","NA","1154","2","legacy","1024","2","48000","-16","task","5211591","odd","NA","32993","36740","34997","138907","5387","24166","17986","139410","NA","138904","139410","138789","36740","140566","31169","134663","5381","137289","Lexical Decision Task","51","49007","54","yes","1024"
"2.819763221","0","2","durp","non-word","94.54545454545455","94.54545454545455","905.5818181818182","905.5818181818182","black","no","legacy","legacy","legacy","0","uniform","1","undefined","undefined","undefined","1","f","0","0","0","0","54","0","0","0","54","0","50","54","50","0","50","3","54","0","54","Tue Feb 16 13:49:27 2021","The main experiment item","yes","Lexical_Decision_Task.osexp","C:/Users/Alina/Documents","no","Andale Mono","no","18","no","white","no","yes","576","legacy","50","50","3","C:/Users/Alina/Documents/subject-5211591.csv","legacy","Lentiform Loewenfeld","3.3.7","yes","yes","600bd7cfb6416f0113b04181","602110864497cf011d9c0822","0","f","NA","space","space","space","space","f","800","NA","1742","12595","6179","47246","800","2","legacy","1024","2","48000","-16","task","5211591","odd","NA","32993","36740","34997","188504","5387","24166","17986","189007","141133","188501","189007","141073","36740","189808","31169","140573","5381","137289","Lexical Decision Task","52","49807","55","yes","1024"
"2.843025032","0","9","pusk","non-word","94.64285714285714","94.64285714285714","901.1428571428571","901.1428571428571","black","no","legacy","legacy","legacy","0","uniform","1","undefined","undefined","undefined","1","f","0","0","0","0","55","0","0","0","55","0","51","55","51","0","51","3","55","0","55","Tue Feb 16 13:49:27 2021","The main experiment item","yes","Lexical_Decision_Task.osexp","C:/Users/Alina/Documents","no","Andale Mono","no","18","no","white","no","yes","576","legacy","51","51","3","C:/Users/Alina/Documents/subject-5211591.csv","legacy","Lentiform Loewenfeld","3.3.7","yes","yes","600bd7cfb6416f0113b04181","602110864497cf011d9c0822","0","f","NA","space","space","space","space","f","657","NA","1742","12595","6179","47246","657","2","legacy","1024","2","48000","-16","task","5211591","odd","NA","32993","36740","34997","190437","5387","24166","17986","190941","141133","190434","190941","190316","36740","191600","31169","189815","5381","137289","Lexical Decision Task","53","50464","56","yes","1024"
"3.252447662","9.67","9","boat","word","94.73684210526316","94.73684210526316","896.3859649122807","896.3859649122807","black","no","legacy","legacy","legacy","0","uniform","1","undefined","undefined","undefined","1","j","0","0","0","0","56","0","0","0","56","0","52","56","52","0","52","3","56","0","56","Tue Feb 16 13:49:27 2021","The main experiment item","yes","Lexical_Decision_Task.osexp","C:/Users/Alina/Documents","no","Andale Mono","no","18","no","white","no","yes","576","legacy","52","52","3","C:/Users/Alina/Documents/subject-5211591.csv","legacy","Lentiform Loewenfeld","3.3.7","yes","yes","600bd7cfb6416f0113b04181","602110864497cf011d9c0822","0","j","NA","space","space","space","space","j","630","NA","1742","12595","6179","47246","630","2","legacy","1024","2","48000","-16","task","5211591","odd","NA","32993","36740","34997","192230","5387","24166","17986","192733","141133","192227","192733","192107","36740","193364","31169","191607","5381","137289","Lexical Decision Task","54","51094","57","yes","1024"
"3.153001286","8.7","5","palm","word","94.82758620689656","94.82758620689656","895.6034482758621","895.6034482758621","black","no","legacy","legacy","legacy","0","uniform","1","undefined","undefined","undefined","1","j","0","0","0","0","57","0","0","0","57","0","53","57","53","0","53","3","57","0","57","Tue Feb 16 13:49:27 2021","The main experiment item","yes","Lexical_Decision_Task.osexp","C:/Users/Alina/Documents","no","Andale Mono","no","18","no","white","no","yes","576","legacy","53","53","3","C:/Users/Alina/Documents/subject-5211591.csv","legacy","Lentiform Loewenfeld","3.3.7","yes","yes","600bd7cfb6416f0113b04181","602110864497cf011d9c0822","0","j","NA","space","space","space","space","j","851","NA","1742","12595","6179","47246","851","2","legacy","1024","2","48000","-16","task","5211591","odd","NA","32993","36740","34997","193994","5387","24166","17986","194498","141133","193991","194498","193872","36740","195350","31169","193371","5381","137289","Lexical Decision Task","55","51945","58","yes","1024"
"2.799799878","0","4","ciff","non-word","94.91525423728814","94.91525423728814","892.4237288135594","892.4237288135594","black","no","legacy","legacy","legacy","0","uniform","1","undefined","undefined","undefined","1","f","0","0","0","0","58","0","0","0","58","0","54","58","54","0","54","3","58","0","58","Tue Feb 16 13:49:27 2021","The main experiment item","yes","Lexical_Decision_Task.osexp","C:/Users/Alina/Documents","no","Andale Mono","no","18","no","white","no","yes","576","legacy","54","54","3","C:/Users/Alina/Documents/subject-5211591.csv","legacy","Lentiform Loewenfeld","3.3.7","yes","yes","600bd7cfb6416f0113b04181","602110864497cf011d9c0822","0","f","NA","space","space","space","space","f","708","NA","1742","12595","6179","47246","708","2","legacy","1024","2","48000","-16","task","5211591","odd","NA","32993","36740","34997","195980","5387","24166","17986","196483","141133","195977","196484","195858","36740","197193","31169","195358","5381","137289","Lexical Decision Task","56","52653","59","yes","1024"
"2.794720352","0","9","koot","non-word","95","95","889.6333333333333","889.6333333333333","black","no","legacy","legacy","legacy","0","uniform","1","undefined","undefined","undefined","1","f","0","0","0","0","59","0","0","0","59","0","55","59","55","0","55","3","59","0","59","Tue Feb 16 13:49:27 2021","The main experiment item","yes","Lexical_Decision_Task.osexp","C:/Users/Alina/Documents","no","Andale Mono","no","18","no","white","no","yes","576","legacy","55","55","3","C:/Users/Alina/Documents/subject-5211591.csv","legacy","Lentiform Loewenfeld","3.3.7","yes","yes","600bd7cfb6416f0113b04181","602110864497cf011d9c0822","0","f","NA","space","space","space","space","f","725","NA","1742","12595","6179","47246","725","2","legacy","1024","2","48000","-16","task","5211591","odd","NA","32993","36740","34997","197822","5387","24166","17986","198325","141133","197818","198325","197701","36740","199051","31169","197201","5381","137289","Lexical Decision Task","57","53378","60","yes","1024"
"3.121778632","0","9","sark","non-word","95.08196721311475","95.08196721311475","886.2622950819672","886.2622950819672","black","no","legacy","legacy","legacy","0","uniform","1","undefined","undefined","undefined","1","f","0","0","0","0","60","0","0","0","60","0","56","60","56","0","56","3","60","0","60","Tue Feb 16 13:49:27 2021","The main experiment item","yes","Lexical_Decision_Task.osexp","C:/Users/Alina/Documents","no","Andale Mono","no","18","no","white","no","yes","576","legacy","56","56","3","C:/Users/Alina/Documents/subject-5211591.csv","legacy","Lentiform Loewenfeld","3.3.7","yes","yes","600bd7cfb6416f0113b04181","602110864497cf011d9c0822","0","f","NA","space","space","space","space","f","684","NA","1742","12595","6179","47246","684","2","legacy","1024","2","48000","-16","task","5211591","odd","NA","32993","36740","34997","199678","5387","24166","17986","200181","141133","199675","200181","199558","36740","200867","31169","199058","5381","137289","Lexical Decision Task","58","54062","61","yes","1024"
"3.2757719","0","5","slea","non-word","95.16129032258064","95.16129032258064","884.758064516129","884.758064516129","black","no","legacy","legacy","legacy","0","uniform","1","undefined","undefined","undefined","1","f","0","0","0","0","61","0","0","0","61","0","57","61","57","0","57","3","61","0","61","Tue Feb 16 13:49:27 2021","The main experiment item","yes","Lexical_Decision_Task.osexp","C:/Users/Alina/Documents","no","Andale Mono","no","18","no","white","no","yes","576","legacy","57","57","3","C:/Users/Alina/Documents/subject-5211591.csv","legacy","Lentiform Loewenfeld","3.3.7","yes","yes","600bd7cfb6416f0113b04181","602110864497cf011d9c0822","0","f","NA","space","space","space","space","f","793","NA","1742","12595","6179","47246","793","2","legacy","1024","2","48000","-16","task","5211591","odd","NA","32993","36740","34997","201498","5387","24166","17986","202001","141133","201494","202001","201375","36740","202796","31169","200875","5381","137289","Lexical Decision Task","59","54855","62","yes","1024"
"3.132473155","0","4","glim","non-word","95.23809523809524","95.23809523809524","886.6825396825396","886.6825396825396","black","no","legacy","legacy","legacy","0","uniform","1","undefined","undefined","undefined","1","f","0","0","0","0","62","0","0","0","62","0","58","62","58","0","58","3","62","0","62","Tue Feb 16 13:49:27 2021","The main experiment item","yes","Lexical_Decision_Task.osexp","C:/Users/Alina/Documents","no","Andale Mono","no","18","no","white","no","yes","576","legacy","58","58","3","C:/Users/Alina/Documents/subject-5211591.csv","legacy","Lentiform Loewenfeld","3.3.7","yes","yes","600bd7cfb6416f0113b04181","602110864497cf011d9c0822","0","f","NA","space","space","space","space","f","1006","NA","1742","12595","6179","47246","1006","2","legacy","1024","2","48000","-16","task","5211591","odd","NA","32993","36740","34997","203424","5387","24166","17986","203927","141133","203421","203927","203304","36740","204935","31169","202803","5381","137289","Lexical Decision Task","60","55861","63","yes","1024"
"2.744553742","0","2","nawk","non-word","95.3125","95.3125","885.890625","885.890625","black","no","legacy","legacy","legacy","0","uniform","1","undefined","undefined","undefined","1","f","0","0","0","0","63","0","0","0","63","0","59","63","59","0","59","3","63","0","63","Tue Feb 16 13:49:27 2021","The main experiment item","yes","Lexical_Decision_Task.osexp","C:/Users/Alina/Documents","no","Andale Mono","no","18","no","white","no","yes","576","legacy","59","59","3","C:/Users/Alina/Documents/subject-5211591.csv","legacy","Lentiform Loewenfeld","3.3.7","yes","yes","600bd7cfb6416f0113b04181","602110864497cf011d9c0822","0","f","NA","space","space","space","space","f","836","NA","1742","12595","6179","47246","836","2","legacy","1024","2","48000","-16","task","5211591","odd","NA","32993","36740","34997","205565","5387","24166","17986","206068","141133","205562","206068","205443","36740","206906","31169","204943","5381","137289","Lexical Decision Task","61","56697","64","yes","1024"
"2.713490543","0","3","feps","non-word","95.38461538461539","95.38461538461539","883.4","883.4","black","no","legacy","legacy","legacy","0","uniform","1","undefined","undefined","undefined","1","f","0","0","0","0","64","0","0","0","64","0","60","64","60","0","60","3","64","0","64","Tue Feb 16 13:49:27 2021","The main experiment item","yes","Lexical_Decision_Task.osexp","C:/Users/Alina/Documents","no","Andale Mono","no","18","no","white","no","yes","576","legacy","60","60","3","C:/Users/Alina/Documents/subject-5211591.csv","legacy","Lentiform Loewenfeld","3.3.7","yes","yes","600bd7cfb6416f0113b04181","602110864497cf011d9c0822","0","f","NA","space","space","space","space","f","724","NA","1742","12595","6179","47246","724","2","legacy","1024","2","48000","-16","task","5211591","odd","NA","32993","36740","34997","207535","5387","24166","17986","208038","141133","207532","208038","207415","36740","208764","31169","206915","5381","137289","Lexical Decision Task","62","57421","65","yes","1024"
"3.481012421","8.34","5","teen","word","95.45454545454545","95.45454545454545","880.1969696969697","880.1969696969697","black","no","legacy","legacy","legacy","0","uniform","1","undefined","undefined","undefined","1","j","0","0","0","0","65","0","0","0","65","0","61","65","61","0","61","3","65","0","65","Tue Feb 16 13:49:27 2021","The main experiment item","yes","Lexical_Decision_Task.osexp","C:/Users/Alina/Documents","no","Andale Mono","no","18","no","white","no","yes","576","legacy","61","61","3","C:/Users/Alina/Documents/subject-5211591.csv","legacy","Lentiform Loewenfeld","3.3.7","yes","yes","600bd7cfb6416f0113b04181","602110864497cf011d9c0822","0","j","NA","space","space","space","space","j","672","NA","1742","12595","6179","47246","672","2","legacy","1024","2","48000","-16","task","5211591","odd","NA","32993","36740","34997","209390","5387","24166","17986","209893","141133","209387","209893","209271","36740","210566","31169","208771","5381","137289","Lexical Decision Task","63","58093","66","yes","1024"
"2.875447132","0","9","jelt","non-word","95.5223880597015","95.5223880597015","881.179104477612","881.179104477612","black","no","legacy","legacy","legacy","0","uniform","1","undefined","undefined","undefined","1","f","0","0","0","0","66","0","0","0","66","0","62","66","62","0","62","3","66","0","66","Tue Feb 16 13:49:27 2021","The main experiment item","yes","Lexical_Decision_Task.osexp","C:/Users/Alina/Documents","no","Andale Mono","no","18","no","white","no","yes","576","legacy","62","62","3","C:/Users/Alina/Documents/subject-5211591.csv","legacy","Lentiform Loewenfeld","3.3.7","yes","yes","600bd7cfb6416f0113b04181","602110864497cf011d9c0822","0","f","NA","space","space","space","space","f","946","NA","1742","12595","6179","47246","946","2","legacy","1024","2","48000","-16","task","5211591","odd","NA","32993","36740","34997","211194","5387","24166","17986","211697","141133","211190","211697","211073","36740","212645","31169","210573","5381","137289","Lexical Decision Task","64","59039","67","yes","1024"
"3.100255637","0","6","brax","non-word","95.58823529411765","95.58823529411765","881.3529411764706","881.3529411764706","black","no","legacy","legacy","legacy","0","uniform","1","undefined","undefined","undefined","1","f","0","0","0","0","67","0","0","0","67","0","63","67","63","0","63","3","67","0","67","Tue Feb 16 13:49:27 2021","The main experiment item","yes","Lexical_Decision_Task.osexp","C:/Users/Alina/Documents","no","Andale Mono","no","18","no","white","no","yes","576","legacy","63","63","3","C:/Users/Alina/Documents/subject-5211591.csv","legacy","Lentiform Loewenfeld","3.3.7","yes","yes","600bd7cfb6416f0113b04181","602110864497cf011d9c0822","0","f","NA","space","space","space","space","f","893","NA","1742","12595","6179","47246","893","2","legacy","1024","2","48000","-16","task","5211591","odd","NA","32993","36740","34997","213272","5387","24166","17986","213776","141133","213269","213776","213153","36740","214671","31169","212653","5381","137289","Lexical Decision Task","65","59932","68","yes","1024"
"2.898725182","0","7","turl","non-word","95.65217391304348","95.65217391304348","879.8550724637681","879.8550724637681","black","no","legacy","legacy","legacy","0","uniform","1","undefined","undefined","undefined","1","f","0","0","0","0","68","0","0","0","68","0","64","68","64","0","64","3","68","0","68","Tue Feb 16 13:49:27 2021","The main experiment item","yes","Lexical_Decision_Task.osexp","C:/Users/Alina/Documents","no","Andale Mono","no","18","no","white","no","yes","576","legacy","64","64","3","C:/Users/Alina/Documents/subject-5211591.csv","legacy","Lentiform Loewenfeld","3.3.7","yes","yes","600bd7cfb6416f0113b04181","602110864497cf011d9c0822","0","f","NA","space","space","space","space","f","778","NA","1742","12595","6179","47246","778","2","legacy","1024","2","48000","-16","task","5211591","odd","NA","32993","36740","34997","215297","5387","24166","17986","215801","141133","215294","215801","215179","36740","216581","31169","214679","5381","137289","Lexical Decision Task","66","60710","69","yes","1024"
"2.9737419","7.69","7","claw","word","95.71428571428571","95.71428571428571","877.9","877.9","black","no","legacy","legacy","legacy","0","uniform","1","undefined","undefined","undefined","1","j","0","0","0","0","69","0","0","0","69","0","65","69","65","0","65","3","69","0","69","Tue Feb 16 13:49:27 2021","The main experiment item","yes","Lexical_Decision_Task.osexp","C:/Users/Alina/Documents","no","Andale Mono","no","18","no","white","no","yes","576","legacy","65","65","3","C:/Users/Alina/Documents/subject-5211591.csv","legacy","Lentiform Loewenfeld","3.3.7","yes","yes","600bd7cfb6416f0113b04181","602110864497cf011d9c0822","0","j","NA","space","space","space","space","j","743","NA","1742","12595","6179","47246","743","2","legacy","1024","2","48000","-16","task","5211591","odd","NA","32993","36740","34997","217208","5387","24166","17986","217711","141133","217205","217711","217089","36740","218455","31169","216589","5381","137289","Lexical Decision Task","67","61453","70","yes","1024"
"3.077974404","10.41","8","tool","word","95.77464788732394","95.77464788732394","875.1267605633802","875.1267605633802","black","no","legacy","legacy","legacy","0","uniform","1","undefined","undefined","undefined","1","j","0","0","0","0","70","0","0","0","70","0","66","70","66","0","66","3","70","0","70","Tue Feb 16 13:49:27 2021","The main experiment item","yes","Lexical_Decision_Task.osexp","C:/Users/Alina/Documents","no","Andale Mono","no","18","no","white","no","yes","576","legacy","66","66","3","C:/Users/Alina/Documents/subject-5211591.csv","legacy","Lentiform Loewenfeld","3.3.7","yes","yes","600bd7cfb6416f0113b04181","602110864497cf011d9c0822","0","j","NA","space","space","space","space","j","681","NA","1742","12595","6179","47246","681","2","legacy","1024","2","48000","-16","task","5211591","odd","NA","32993","36740","34997","219081","5387","24166","17986","219583","141133","219078","219584","218963","36740","220267","31169","218463","5381","137289","Lexical Decision Task","68","62134","71","yes","1024"
"2.899092422","7.27","6","snag","word","95.83333333333333","95.83333333333333","873.2638888888889","873.2638888888889","black","no","legacy","legacy","legacy","0","uniform","1","undefined","undefined","undefined","1","j","0","0","0","0","71","0","0","0","71","0","67","71","67","0","67","3","71","0","71","Tue Feb 16 13:49:27 2021","The main experiment item","yes","Lexical_Decision_Task.osexp","C:/Users/Alina/Documents","no","Andale Mono","no","18","no","white","no","yes","576","legacy","67","67","3","C:/Users/Alina/Documents/subject-5211591.csv","legacy","Lentiform Loewenfeld","3.3.7","yes","yes","600bd7cfb6416f0113b04181","602110864497cf011d9c0822","0","j","NA","space","space","space","space","j","741","NA","1742","12595","6179","47246","741","2","legacy","1024","2","48000","-16","task","5211591","odd","NA","32993","36740","34997","220894","5387","24166","17986","221397","141133","220890","221397","220775","36740","222140","31169","220274","5381","137289","Lexical Decision Task","69","62875","72","yes","1024"
"2.782472624","10.55","2","huge","word","95.89041095890411","95.89041095890411","870.5890410958904","870.5890410958904","black","no","legacy","legacy","legacy","0","uniform","1","undefined","undefined","undefined","1","j","0","0","0","0","72","0","0","0","72","0","68","72","68","0","68","3","72","0","72","Tue Feb 16 13:49:27 2021","The main experiment item","yes","Lexical_Decision_Task.osexp","C:/Users/Alina/Documents","no","Andale Mono","no","18","no","white","no","yes","576","legacy","68","68","3","C:/Users/Alina/Documents/subject-5211591.csv","legacy","Lentiform Loewenfeld","3.3.7","yes","yes","600bd7cfb6416f0113b04181","602110864497cf011d9c0822","0","j","NA","space","space","space","space","j","678","NA","1742","12595","6179","47246","678","2","legacy","1024","2","48000","-16","task","5211591","odd","NA","32993","36740","34997","222768","5387","24166","17986","223271","141133","222764","223271","222648","36740","223951","31169","222147","5381","137289","Lexical Decision Task","70","63553","73","yes","1024"
"2.793790385","5.67","9","swab","word","95.94594594594595","95.94594594594595","869.7837837837837","869.7837837837837","black","no","legacy","legacy","legacy","0","uniform","1","undefined","undefined","undefined","1","j","0","0","0","0","73","0","0","0","73","0","69","73","69","0","69","3","73","0","73","Tue Feb 16 13:49:27 2021","The main experiment item","yes","Lexical_Decision_Task.osexp","C:/Users/Alina/Documents","no","Andale Mono","no","18","no","white","no","yes","576","legacy","69","69","3","C:/Users/Alina/Documents/subject-5211591.csv","legacy","Lentiform Loewenfeld","3.3.7","yes","yes","600bd7cfb6416f0113b04181","602110864497cf011d9c0822","0","j","NA","space","space","space","space","j","811","NA","1742","12595","6179","47246","811","2","legacy","1024","2","48000","-16","task","5211591","odd","NA","32993","36740","34997","224577","5387","24166","17986","225081","141133","224574","225081","224458","36740","225893","31169","223958","5381","137289","Lexical Decision Task","71","64364","74","yes","1024"
"3.209246849","0","7","slem","non-word","96","96","870.2666666666667","870.2666666666667","black","no","legacy","legacy","legacy","0","uniform","1","undefined","undefined","undefined","1","f","0","0","0","0","74","0","0","0","74","0","70","74","70","0","70","3","74","0","74","Tue Feb 16 13:49:27 2021","The main experiment item","yes","Lexical_Decision_Task.osexp","C:/Users/Alina/Documents","no","Andale Mono","no","18","no","white","no","yes","576","legacy","70","70","3","C:/Users/Alina/Documents/subject-5211591.csv","legacy","Lentiform Loewenfeld","3.3.7","yes","yes","600bd7cfb6416f0113b04181","602110864497cf011d9c0822","0","f","NA","space","space","space","space","f","906","NA","1742","12595","6179","47246","906","2","legacy","1024","2","48000","-16","task","5211591","odd","NA","32993","36740","34997","226519","5387","24166","17986","227022","141133","226516","227022","226401","36740","227930","31169","225901","5381","137289","Lexical Decision Task","72","65270","75","yes","1024"
"2.664328519","0","4","plux","non-word","96.05263157894737","96.05263157894737","870.1842105263158","870.1842105263158","black","no","legacy","legacy","legacy","0","uniform","1","undefined","undefined","undefined","1","f","0","0","0","0","75","0","0","0","75","0","71","75","71","0","71","3","75","0","75","Tue Feb 16 13:49:27 2021","The main experiment item","yes","Lexical_Decision_Task.osexp","C:/Users/Alina/Documents","no","Andale Mono","no","18","no","white","no","yes","576","legacy","71","71","3","C:/Users/Alina/Documents/subject-5211591.csv","legacy","Lentiform Loewenfeld","3.3.7","yes","yes","600bd7cfb6416f0113b04181","602110864497cf011d9c0822","0","f","NA","space","space","space","space","f","864","NA","1742","12595","6179","47246","864","2","legacy","1024","2","48000","-16","task","5211591","odd","NA","32993","36740","34997","228556","5387","24166","17986","229059","141133","228553","229059","228437","36740","229925","31169","227937","5381","137289","Lexical Decision Task","73","66134","76","yes","1024"
"3.316948329","0","1","besc","non-word","96.1038961038961","96.1038961038961","868.8701298701299","868.8701298701299","black","no","legacy","legacy","legacy","0","uniform","1","undefined","undefined","undefined","1","f","0","0","0","0","76","0","0","0","76","0","72","76","72","0","72","3","76","0","76","Tue Feb 16 13:49:27 2021","The main experiment item","yes","Lexical_Decision_Task.osexp","C:/Users/Alina/Documents","no","Andale Mono","no","18","no","white","no","yes","576","legacy","72","72","3","C:/Users/Alina/Documents/subject-5211591.csv","legacy","Lentiform Loewenfeld","3.3.7","yes","yes","600bd7cfb6416f0113b04181","602110864497cf011d9c0822","0","f","NA","space","space","space","space","f","769","NA","1742","12595","6179","47246","769","2","legacy","1024","2","48000","-16","task","5211591","odd","NA","32993","36740","34997","230551","5387","24166","17986","231054","141133","230547","231054","230432","36740","231824","31169","229932","5381","137289","Lexical Decision Task","74","66903","77","yes","1024"
"2.86332286","6.71","2","feud","word","96.15384615384616","96.15384615384616","867.5","867.5","black","no","legacy","legacy","legacy","0","uniform","1","undefined","undefined","undefined","1","j","0","0","0","0","77","0","0","0","77","0","73","77","73","0","73","3","77","0","77","Tue Feb 16 13:49:27 2021","The main experiment item","yes","Lexical_Decision_Task.osexp","C:/Users/Alina/Documents","no","Andale Mono","no","18","no","white","no","yes","576","legacy","73","73","3","C:/Users/Alina/Documents/subject-5211591.csv","legacy","Lentiform Loewenfeld","3.3.7","yes","yes","600bd7cfb6416f0113b04181","602110864497cf011d9c0822","0","j","NA","space","space","space","space","j","762","NA","1742","12595","6179","47246","762","2","legacy","1024","2","48000","-16","task","5211591","odd","NA","32993","36740","34997","232451","5387","24166","17986","232953","141133","232448","232954","232332","36740","233717","31169","231832","5381","137289","Lexical Decision Task","75","67665","78","yes","1024"
"2.990042563","6.64","9","plow","word","96.20253164556962","96.20253164556962","870.4683544303797","870.4683544303797","black","no","legacy","legacy","legacy","0","uniform","1","undefined","undefined","undefined","1","j","0","0","0","0","78","0","0","0","78","0","74","78","74","0","74","3","78","0","78","Tue Feb 16 13:49:27 2021","The main experiment item","yes","Lexical_Decision_Task.osexp","C:/Users/Alina/Documents","no","Andale Mono","no","18","no","white","no","yes","576","legacy","74","74","3","C:/Users/Alina/Documents/subject-5211591.csv","legacy","Lentiform Loewenfeld","3.3.7","yes","yes","600bd7cfb6416f0113b04181","602110864497cf011d9c0822","0","j","NA","space","space","space","space","j","1102","NA","1742","12595","6179","47246","1102","2","legacy","1024","2","48000","-16","task","5211591","odd","NA","32993","36740","34997","234345","5387","24166","17986","234848","141133","234341","234848","234226","36740","235951","31169","233726","5381","137289","Lexical Decision Task","76","68767","79","yes","1024"
"2.693726949","5.08","3","swig","word","96.25","96.25","871.1125","871.1125","black","no","legacy","legacy","legacy","0","uniform","1","undefined","undefined","undefined","1","j","0","0","0","0","79","0","0","0","79","0","75","79","75","0","75","3","79","0","79","Tue Feb 16 13:49:27 2021","The main experiment item","yes","Lexical_Decision_Task.osexp","C:/Users/Alina/Documents","no","Andale Mono","no","18","no","white","no","yes","576","legacy","75","75","3","C:/Users/Alina/Documents/subject-5211591.csv","legacy","Lentiform Loewenfeld","3.3.7","yes","yes","600bd7cfb6416f0113b04181","602110864497cf011d9c0822","0","j","NA","space","space","space","space","j","922","NA","1742","12595","6179","47246","922","2","legacy","1024","2","48000","-16","task","5211591","odd","NA","32993","36740","34997","236578","5387","24166","17986","237081","141133","236574","237081","236459","36740","238005","31169","235959","5381","137289","Lexical Decision Task","77","69689","80","yes","1024"
"2.953276337","6.32","4","thaw","word","96.29629629629629","96.29629629629629","869.9629629629629","869.9629629629629","black","no","legacy","legacy","legacy","0","uniform","1","undefined","undefined","undefined","1","j","0","0","0","0","80","0","0","0","80","0","76","80","76","0","76","3","80","0","80","Tue Feb 16 13:49:27 2021","The main experiment item","yes","Lexical_Decision_Task.osexp","C:/Users/Alina/Documents","no","Andale Mono","no","18","no","white","no","yes","576","legacy","76","76","3","C:/Users/Alina/Documents/subject-5211591.csv","legacy","Lentiform Loewenfeld","3.3.7","yes","yes","600bd7cfb6416f0113b04181","602110864497cf011d9c0822","0","j","NA","space","space","space","space","j","778","NA","1742","12595","6179","47246","778","2","legacy","1024","2","48000","-16","task","5211591","odd","NA","32993","36740","34997","238632","5387","24166","17986","239135","141133","238628","239135","238512","36740","239914","31169","238012","5381","137289","Lexical Decision Task","78","70467","81","yes","1024"
"2.996511672","0","7","hoil","non-word","95.1219512195122","95.1219512195122","870.6585365853658","870.6585365853658","black","no","legacy","legacy","legacy","0","uniform","0","undefined","undefined","undefined","0","f","0","0","0","0","81","0","0","0","81","0","77","81","77","0","77","3","81","0","81","Tue Feb 16 13:49:27 2021","The main experiment item","yes","Lexical_Decision_Task.osexp","C:/Users/Alina/Documents","no","Andale Mono","no","18","no","white","no","yes","576","legacy","77","77","3","C:/Users/Alina/Documents/subject-5211591.csv","legacy","Lentiform Loewenfeld","3.3.7","yes","yes","600bd7cfb6416f0113b04181","602110864497cf011d9c0822","0","j","NA","space","space","space","space","j","927","NA","1742","12595","6179","47246","927","2","legacy","1024","2","48000","-16","task","5211591","odd","NA","32993","36740","34997","240540","5387","24166","17986","241043","141133","240537","241043","240422","36740","241972","31169","239922","5381","137289","Lexical Decision Task","78","71394","82","yes","1024"
"3.039414119","0","9","meep","non-word","95.18072289156626","95.18072289156626","870.5180722891566","870.5180722891566","black","no","legacy","legacy","legacy","0","uniform","1","undefined","undefined","undefined","1","f","0","0","0","0","82","0","0","0","82","0","78","82","78","0","78","3","82","0","82","Tue Feb 16 13:49:27 2021","The main experiment item","yes","Lexical_Decision_Task.osexp","C:/Users/Alina/Documents","no","Andale Mono","no","18","no","white","no","yes","576","legacy","78","78","3","C:/Users/Alina/Documents/subject-5211591.csv","legacy","Lentiform Loewenfeld","3.3.7","yes","yes","600bd7cfb6416f0113b04181","602110864497cf011d9c0822","0","f","NA","space","space","space","space","f","859","NA","1742","12595","6179","47246","859","2","legacy","1024","2","48000","-16","task","5211591","odd","NA","32993","36740","34997","243599","5387","24166","17986","244101","141133","243596","244101","243480","36740","244962","31169","239922","5381","241979","Lexical Decision Task","79","72253","83","yes","1024"
"3.15462682","0","6","noal","non-word","95.23809523809524","95.23809523809524","871","871","black","no","legacy","legacy","legacy","0","uniform","1","undefined","undefined","undefined","1","f","0","0","0","0","83","0","0","0","83","0","79","83","79","0","79","3","83","0","83","Tue Feb 16 13:49:27 2021","The main experiment item","yes","Lexical_Decision_Task.osexp","C:/Users/Alina/Documents","no","Andale Mono","no","18","no","white","no","yes","576","legacy","79","79","3","C:/Users/Alina/Documents/subject-5211591.csv","legacy","Lentiform Loewenfeld","3.3.7","yes","yes","600bd7cfb6416f0113b04181","602110864497cf011d9c0822","0","f","NA","space","space","space","space","f","911","NA","1742","12595","6179","47246","911","2","legacy","1024","2","48000","-16","task","5211591","odd","NA","32993","36740","34997","245590","5387","24166","17986","246093","141133","245586","246093","245470","36740","247006","31169","244969","5381","241979","Lexical Decision Task","80","73164","84","yes","1024"
"3.274543461","7.46","7","scar","word","95.29411764705883","95.29411764705883","874.435294117647","874.435294117647","black","no","legacy","legacy","legacy","0","uniform","1","undefined","undefined","undefined","1","j","0","0","0","0","84","0","0","0","84","0","80","84","80","0","80","3","84","0","84","Tue Feb 16 13:49:27 2021","The main experiment item","yes","Lexical_Decision_Task.osexp","C:/Users/Alina/Documents","no","Andale Mono","no","18","no","white","no","yes","576","legacy","80","80","3","C:/Users/Alina/Documents/subject-5211591.csv","legacy","Lentiform Loewenfeld","3.3.7","yes","yes","600bd7cfb6416f0113b04181","602110864497cf011d9c0822","0","j","NA","space","space","space","space","j","1163","NA","1742","12595","6179","47246","1163","2","legacy","1024","2","48000","-16","task","5211591","odd","NA","32993","36740","34997","247632","5387","24166","17986","248135","141133","247629","248135","247513","36740","249301","31169","247013","5381","241979","Lexical Decision Task","81","74327","85","yes","1024"
"3.145920145","8.51","8","flew","word","95.34883720930233","95.34883720930233","879.2441860465116","879.2441860465116","black","no","legacy","legacy","legacy","0","uniform","1","undefined","undefined","undefined","1","j","0","0","0","0","85","0","0","0","85","0","81","85","81","0","81","3","85","0","85","Tue Feb 16 13:49:27 2021","The main experiment item","yes","Lexical_Decision_Task.osexp","C:/Users/Alina/Documents","no","Andale Mono","no","18","no","white","no","yes","576","legacy","81","81","3","C:/Users/Alina/Documents/subject-5211591.csv","legacy","Lentiform Loewenfeld","3.3.7","yes","yes","600bd7cfb6416f0113b04181","602110864497cf011d9c0822","0","j","NA","space","space","space","space","j","1288","NA","1742","12595","6179","47246","1288","2","legacy","1024","2","48000","-16","task","5211591","odd","NA","32993","36740","34997","249928","5387","24166","17986","250431","141133","249924","250431","249809","36740","251721","31169","249309","5381","241979","Lexical Decision Task","82","75615","86","yes","1024"
"3.20871002","7.15","8","cram","word","95.40229885057471","95.40229885057471","882.6551724137931","882.6551724137931","black","no","legacy","legacy","legacy","0","uniform","1","undefined","undefined","undefined","1","j","0","0","0","0","86","0","0","0","86","0","82","86","82","0","82","3","86","0","86","Tue Feb 16 13:49:27 2021","The main experiment item","yes","Lexical_Decision_Task.osexp","C:/Users/Alina/Documents","no","Andale Mono","no","18","no","white","no","yes","576","legacy","82","82","3","C:/Users/Alina/Documents/subject-5211591.csv","legacy","Lentiform Loewenfeld","3.3.7","yes","yes","600bd7cfb6416f0113b04181","602110864497cf011d9c0822","0","j","NA","space","space","space","space","j","1176","NA","1742","12595","6179","47246","1176","2","legacy","1024","2","48000","-16","task","5211591","odd","NA","32993","36740","34997","252349","5387","24166","17986","252853","141133","252346","252853","252229","36740","254031","31169","251729","5381","241979","Lexical Decision Task","83","76791","87","yes","1024"
"3.374137706","10.21","4","tree","word","95.45454545454545","95.45454545454545","882","882","black","no","legacy","legacy","legacy","0","uniform","1","undefined","undefined","undefined","1","j","0","0","0","0","87","0","0","0","87","0","83","87","83","0","83","3","87","0","87","Tue Feb 16 13:49:27 2021","The main experiment item","yes","Lexical_Decision_Task.osexp","C:/Users/Alina/Documents","no","Andale Mono","no","18","no","white","no","yes","576","legacy","83","83","3","C:/Users/Alina/Documents/subject-5211591.csv","legacy","Lentiform Loewenfeld","3.3.7","yes","yes","600bd7cfb6416f0113b04181","602110864497cf011d9c0822","0","j","NA","space","space","space","space","j","825","NA","1742","12595","6179","47246","825","2","legacy","1024","2","48000","-16","task","5211591","odd","NA","32993","36740","34997","254658","5387","24166","17986","255161","141133","254655","255161","254539","36740","255988","31169","254039","5381","241979","Lexical Decision Task","84","77616","88","yes","1024"
"3.225825991","0","7","talm","non-word","95.50561797752809","95.50561797752809","885.438202247191","885.438202247191","black","no","legacy","legacy","legacy","0","uniform","1","undefined","undefined","undefined","1","f","0","0","0","0","88","0","0","0","88","0","84","88","84","0","84","3","88","0","88","Tue Feb 16 13:49:27 2021","The main experiment item","yes","Lexical_Decision_Task.osexp","C:/Users/Alina/Documents","no","Andale Mono","no","18","no","white","no","yes","576","legacy","84","84","3","C:/Users/Alina/Documents/subject-5211591.csv","legacy","Lentiform Loewenfeld","3.3.7","yes","yes","600bd7cfb6416f0113b04181","602110864497cf011d9c0822","0","f","NA","space","space","space","space","f","1188","NA","1742","12595","6179","47246","1188","2","legacy","1024","2","48000","-16","task","5211591","odd","NA","32993","36740","34997","256614","5387","24166","17986","257117","141133","256610","257117","256495","36740","258307","31169","255995","5381","241979","Lexical Decision Task","85","78804","89","yes","1024"
"2.8162413","0","5","nusk","non-word","94.44444444444444","94.44444444444444","886.0777777777778","886.0777777777778","black","no","legacy","legacy","legacy","0","uniform","0","undefined","undefined","undefined","0","f","0","0","0","0","89","0","0","0","89","0","85","89","85","0","85","3","89","0","89","Tue Feb 16 13:49:27 2021","The main experiment item","yes","Lexical_Decision_Task.osexp","C:/Users/Alina/Documents","no","Andale Mono","no","18","no","white","no","yes","576","legacy","85","85","3","C:/Users/Alina/Documents/subject-5211591.csv","legacy","Lentiform Loewenfeld","3.3.7","yes","yes","600bd7cfb6416f0113b04181","602110864497cf011d9c0822","0","j","NA","space","space","space","space","j","943","NA","1742","12595","6179","47246","943","2","legacy","1024","2","48000","-16","task","5211591","odd","NA","32993","36740","34997","258938","5387","24166","17986","259441","141133","258934","259441","258815","36740","260386","31169","258315","5381","241979","Lexical Decision Task","85","79747","90","yes","1024"
"3.208978517","10.33","4","fish","word","94.50549450549451","94.50549450549451","884.989010989011","884.989010989011","black","no","legacy","legacy","legacy","0","uniform","1","undefined","undefined","undefined","1","j","0","0","0","0","90","0","0","0","90","0","86","90","86","0","86","3","90","0","90","Tue Feb 16 13:49:27 2021","The main experiment item","yes","Lexical_Decision_Task.osexp","C:/Users/Alina/Documents","no","Andale Mono","no","18","no","white","no","yes","576","legacy","86","86","3","C:/Users/Alina/Documents/subject-5211591.csv","legacy","Lentiform Loewenfeld","3.3.7","yes","yes","600bd7cfb6416f0113b04181","602110864497cf011d9c0822","0","j","NA","space","space","space","space","j","787","NA","1742","12595","6179","47246","787","2","legacy","1024","2","48000","-16","task","5211591","odd","NA","32993","36740","34997","262012","5387","24166","17986","262515","141133","262008","262515","261893","36740","263304","31169","258315","5381","260393","Lexical Decision Task","86","80534","91","yes","1024"
"3.149629599","0","2","cleb","non-word","94.56521739130434","94.56521739130434","883.4565217391304","883.4565217391304","black","no","legacy","legacy","legacy","0","uniform","1","undefined","undefined","undefined","1","f","0","0","0","0","91","0","0","0","91","0","87","91","87","0","87","3","91","0","91","Tue Feb 16 13:49:27 2021","The main experiment item","yes","Lexical_Decision_Task.osexp","C:/Users/Alina/Documents","no","Andale Mono","no","18","no","white","no","yes","576","legacy","87","87","3","C:/Users/Alina/Documents/subject-5211591.csv","legacy","Lentiform Loewenfeld","3.3.7","yes","yes","600bd7cfb6416f0113b04181","602110864497cf011d9c0822","0","f","NA","space","space","space","space","f","744","NA","1742","12595","6179","47246","744","2","legacy","1024","2","48000","-16","task","5211591","odd","NA","32993","36740","34997","263931","5387","24166","17986","264433","141133","263927","264434","263812","36740","265180","31169","263312","5381","260393","Lexical Decision Task","87","81278","92","yes","1024"
"3.307211407","6.07","7","honk","word","94.6236559139785","94.6236559139785","885.7204301075269","885.7204301075269","black","no","legacy","legacy","legacy","0","uniform","1","undefined","undefined","undefined","1","j","0","0","0","0","92","0","0","0","92","0","88","92","88","0","88","3","92","0","92","Tue Feb 16 13:49:27 2021","The main experiment item","yes","Lexical_Decision_Task.osexp","C:/Users/Alina/Documents","no","Andale Mono","no","18","no","white","no","yes","576","legacy","88","88","3","C:/Users/Alina/Documents/subject-5211591.csv","legacy","Lentiform Loewenfeld","3.3.7","yes","yes","600bd7cfb6416f0113b04181","602110864497cf011d9c0822","0","j","NA","space","space","space","space","j","1094","NA","1742","12595","6179","47246","1094","2","legacy","1024","2","48000","-16","task","5211591","odd","NA","32993","36740","34997","265807","5387","24166","17986","266309","141133","265804","266310","265687","36740","267406","31169","265187","5381","260393","Lexical Decision Task","88","82372","93","yes","1024"
"3.174641193","0","3","ramb","non-word","94.68085106382979","94.68085106382979","885.7127659574468","885.7127659574468","black","no","legacy","legacy","legacy","0","uniform","1","undefined","undefined","undefined","1","f","0","0","0","0","93","0","0","0","93","0","89","93","89","0","89","3","93","0","93","Tue Feb 16 13:49:27 2021","The main experiment item","yes","Lexical_Decision_Task.osexp","C:/Users/Alina/Documents","no","Andale Mono","no","18","no","white","no","yes","576","legacy","89","89","3","C:/Users/Alina/Documents/subject-5211591.csv","legacy","Lentiform Loewenfeld","3.3.7","yes","yes","600bd7cfb6416f0113b04181","602110864497cf011d9c0822","0","f","NA","space","space","space","space","f","885","NA","1742","12595","6179","47246","885","2","legacy","1024","2","48000","-16","task","5211591","odd","NA","32993","36740","34997","268031","5387","24166","17986","268535","141133","268028","268535","267913","36740","269422","31169","267413","5381","260393","Lexical Decision Task","89","83257","94","yes","1024"
"2.75025376","10.2","6","jump","word","94.73684210526316","94.73684210526316","883.021052631579","883.021052631579","black","no","legacy","legacy","legacy","0","uniform","1","undefined","undefined","undefined","1","j","0","0","0","0","94","0","0","0","94","0","90","94","90","0","90","3","94","0","94","Tue Feb 16 13:49:27 2021","The main experiment item","yes","Lexical_Decision_Task.osexp","C:/Users/Alina/Documents","no","Andale Mono","no","18","no","white","no","yes","576","legacy","90","90","3","C:/Users/Alina/Documents/subject-5211591.csv","legacy","Lentiform Loewenfeld","3.3.7","yes","yes","600bd7cfb6416f0113b04181","602110864497cf011d9c0822","0","j","NA","space","space","space","space","j","630","NA","1742","12595","6179","47246","630","2","legacy","1024","2","48000","-16","task","5211591","odd","NA","32993","36740","34997","270048","5387","24166","17986","270551","141133","270045","270551","269929","36740","271183","31169","269429","5381","260393","Lexical Decision Task","90","83887","95","yes","1024"
"2.858136002","0","4","phip","non-word","94.79166666666667","94.79166666666667","882.75","882.75","black","no","legacy","legacy","legacy","0","uniform","1","undefined","undefined","undefined","1","f","0","0","0","0","95","0","0","0","95","0","91","95","91","0","91","3","95","0","95","Tue Feb 16 13:49:27 2021","The main experiment item","yes","Lexical_Decision_Task.osexp","C:/Users/Alina/Documents","no","Andale Mono","no","18","no","white","no","yes","576","legacy","91","91","3","C:/Users/Alina/Documents/subject-5211591.csv","legacy","Lentiform Loewenfeld","3.3.7","yes","yes","600bd7cfb6416f0113b04181","602110864497cf011d9c0822","0","f","NA","space","space","space","space","f","857","NA","1742","12595","6179","47246","857","2","legacy","1024","2","48000","-16","task","5211591","odd","NA","32993","36740","34997","271811","5387","24166","17986","272314","141133","271807","272314","271691","36740","273173","31169","271191","5381","260393","Lexical Decision Task","91","84744","96","yes","1024"
"2.746890964","9.67","3","plug","word","94.84536082474227","94.84536082474227","880.7010309278351","880.7010309278351","black","no","legacy","legacy","legacy","0","uniform","1","undefined","undefined","undefined","1","j","0","0","0","0","96","0","0","0","96","0","92","96","92","0","92","3","96","0","96","Tue Feb 16 13:49:27 2021","The main experiment item","yes","Lexical_Decision_Task.osexp","C:/Users/Alina/Documents","no","Andale Mono","no","18","no","white","no","yes","576","legacy","92","92","3","C:/Users/Alina/Documents/subject-5211591.csv","legacy","Lentiform Loewenfeld","3.3.7","yes","yes","600bd7cfb6416f0113b04181","602110864497cf011d9c0822","0","j","NA","space","space","space","space","j","684","NA","1742","12595","6179","47246","684","2","legacy","1024","2","48000","-16","task","5211591","odd","NA","32993","36740","34997","273802","5387","24166","17986","274305","141133","273798","274305","273681","36740","274991","31169","273180","5381","260393","Lexical Decision Task","92","85428","97","yes","1024"
"3.194328374","9.42","6","harm","word","94.89795918367346","94.89795918367346","879.4795918367347","879.4795918367347","black","no","legacy","legacy","legacy","0","uniform","1","undefined","undefined","undefined","1","j","0","0","0","0","97","0","0","0","97","0","93","97","93","0","93","3","97","0","97","Tue Feb 16 13:49:27 2021","The main experiment item","yes","Lexical_Decision_Task.osexp","C:/Users/Alina/Documents","no","Andale Mono","no","18","no","white","no","yes","576","legacy","93","93","3","C:/Users/Alina/Documents/subject-5211591.csv","legacy","Lentiform Loewenfeld","3.3.7","yes","yes","600bd7cfb6416f0113b04181","602110864497cf011d9c0822","0","j","NA","space","space","space","space","j","761","NA","1742","12595","6179","47246","761","2","legacy","1024","2","48000","-16","task","5211591","odd","NA","32993","36740","34997","275618","5387","24166","17986","276121","141133","275615","276121","275499","36740","276883","31169","274999","5381","260393","Lexical Decision Task","93","86189","98","yes","1024"
"3.105055783","0","2","norp","non-word","94.94949494949495","94.94949494949495","879.070707070707","879.070707070707","black","no","legacy","legacy","legacy","0","uniform","1","undefined","undefined","undefined","1","f","0","0","0","0","98","0","0","0","98","0","94","98","94","0","94","3","98","0","98","Tue Feb 16 13:49:27 2021","The main experiment item","yes","Lexical_Decision_Task.osexp","C:/Users/Alina/Documents","no","Andale Mono","no","18","no","white","no","yes","576","legacy","94","94","3","C:/Users/Alina/Documents/subject-5211591.csv","legacy","Lentiform Loewenfeld","3.3.7","yes","yes","600bd7cfb6416f0113b04181","602110864497cf011d9c0822","0","f","NA","space","space","space","space","f","839","NA","1742","12595","6179","47246","839","2","legacy","1024","2","48000","-16","task","5211591","odd","NA","32993","36740","34997","277512","5387","24166","17986","278015","141133","277508","278015","277391","36740","278856","31169","276891","5381","260393","Lexical Decision Task","94","87028","99","yes","1024"
"3.378276681","6.39","8","bran","word","94","94","877.65","877.65","black","no","legacy","legacy","legacy","0","uniform","0","undefined","undefined","undefined","0","j","0","0","0","0","99","0","0","0","99","0","95","99","95","0","95","3","99","0","99","Tue Feb 16 13:49:27 2021","The main experiment item","yes","Lexical_Decision_Task.osexp","C:/Users/Alina/Documents","no","Andale Mono","no","18","no","white","no","yes","576","legacy","95","95","3","C:/Users/Alina/Documents/subject-5211591.csv","legacy","Lentiform Loewenfeld","3.3.7","yes","yes","600bd7cfb6416f0113b04181","602110864497cf011d9c0822","0","f","NA","space","space","space","space","f","737","NA","1742","12595","6179","47246","737","2","legacy","1024","2","48000","-16","task","5211591","odd","NA","32993","36740","34997","279483","5387","24166","17986","279986","141133","279480","279986","279364","36740","280726","31169","278864","5381","260393","Lexical Decision Task","94","87765","100","yes","1024"
"2.82129731","6.72","5","plum","word","94.05940594059406","94.05940594059406","876.7425742574258","876.7425742574258","black","no","legacy","legacy","legacy","0","uniform","1","undefined","undefined","undefined","1","j","0","0","0","0","100","0","0","0","100","0","96","100","96","0","96","3","100","0","100","Tue Feb 16 13:49:27 2021","The main experiment item","yes","Lexical_Decision_Task.osexp","C:/Users/Alina/Documents","no","Andale Mono","no","18","no","white","no","yes","576","legacy","96","96","3","C:/Users/Alina/Documents/subject-5211591.csv","legacy","Lentiform Loewenfeld","3.3.7","yes","yes","600bd7cfb6416f0113b04181","602110864497cf011d9c0822","0","j","NA","space","space","space","space","j","786","NA","1742","12595","6179","47246","786","2","legacy","1024","2","48000","-16","task","5211591","odd","NA","32993","36740","34997","282353","5387","24166","17986","282856","141133","282350","282856","282234","36740","283644","31169","278864","5381","280734","Lexical Decision Task","95","88551","101","yes","1024"
