"Log_BG","Log_Freq_HAL","Ortho_N","Stimulus","Type","acc","accuracy","average_response_time","avg_rt","background","bidi","canvas_backend","clock_backend","color_backend","compensation","coordinates","correct","correct_Experimental_intro","correct_Introduction","correct_Practice_intro","correct_experimenter_kb","correct_response","count_End_Of_Experiment","count_End_Of_Practice","count_Experimental_Loop","count_Experimental_intro","count_Fixation","count_Introduction","count_Practice_Loop","count_Practice_intro","count_Stimulus","count_block_break_feedback","count_experimental_sequence","count_experimenter_kb","count_increment_trial_count","count_init_trial_count","count_logger","count_practice_sequence","count_right","count_task","count_wrong","datetime","description","disable_garbage_collection","experiment_file","experiment_path","font_bold","font_family","font_italic","font_size","font_underline","foreground","form_clicks","fullscreen","height","keyboard_backend","live_row","live_row_Experimental_Loop","live_row_Practice_Loop","logfile","mouse_backend","opensesame_codename","opensesame_version","osf_always_upload_data","osf_always_upload_experiment","osf_datanode_id","osf_id","repeat_cycle","response","response_End_Of_Experiment","response_Experimental_intro","response_Introduction","response_Practice_intro","response_block_break_feedback","response_experimenter_kb","response_time","response_time_End_Of_Experiment","response_time_Experimental_intro","response_time_Introduction","response_time_Practice_intro","response_time_block_break_feedback","response_time_experimenter_kb","round_decimals","sampler_backend","sound_buf_size","sound_channels","sound_freq","sound_sample_size","start","subject_nr","subject_parity","time_End_Of_Experiment","time_End_Of_Practice","time_Experimental_Loop","time_Experimental_intro","time_Fixation","time_Introduction","time_Practice_Loop","time_Practice_intro","time_Stimulus","time_block_break_feedback","time_experimental_sequence","time_experimenter_kb","time_increment_trial_count","time_init_trial_count","time_logger","time_practice_sequence","time_right","time_task","time_wrong","title","total_correct","total_response_time","total_responses","uniform_coordinates","width"
"2.953276337","6.32","4","thaw","word","80","80","1343.4","1343.4","black","no","legacy","legacy","legacy","0","uniform","1","undefined","undefined","undefined","1","j","0","0","0","0","4","0","0","0","4","NA","0","4","0","0","0","3","4","0","4","Thu Feb 18 19:01:37 2021","The main experiment item","yes","Lexical_Decision_Task.osexp","C:/Users/yasmi/Documents","no","Andale Mono","no","18","no","white","no","yes","576","legacy","0","0","3","C:/Users/yasmi/Documents/subject-5207464.2.csv","legacy","Lentiform Loewenfeld","3.3.7","yes","yes","600bd7cfb6416f0113b04181","602110864497cf011d9c0822","0","j","NA","space","space","space","NA","j","1094","NA","3927","9599","5036","NA","1094","2","legacy","1024","2","48000","-16","task","5207464","even","NA","30755","36687","32759","36787","4607","19249","14212","37291","NA","36783","37292","NA","36686","38387","28727","30184","4600","21858","Lexical Decision Task","4","6717","5","yes","1024"
"2.668385917","5.48","4","twig","word","83.33333333333333","83.33333333333333","1223.8333333333333","1223.8333333333333","black","no","legacy","legacy","legacy","0","uniform","1","undefined","undefined","undefined","1","j","0","0","0","0","5","0","0","0","5","NA","1","5","1","0","1","3","5","0","5","Thu Feb 18 19:01:37 2021","The main experiment item","yes","Lexical_Decision_Task.osexp","C:/Users/yasmi/Documents","no","Andale Mono","no","18","no","white","no","yes","576","legacy","1","1","3","C:/Users/yasmi/Documents/subject-5207464.2.csv","legacy","Lentiform Loewenfeld","3.3.7","yes","yes","600bd7cfb6416f0113b04181","602110864497cf011d9c0822","0","j","NA","space","space","space","NA","j","626","NA","3927","9599","5036","NA","626","2","legacy","1024","2","48000","-16","task","5207464","even","NA","30755","36687","32759","39145","4607","19249","14212","39649","NA","39141","39650","38923","36686","40277","28727","38423","4600","21858","Lexical Decision Task","5","7343","6","yes","1024"
"2.814027728","8.2","4","foam","word","85.71428571428571","85.71428571428571","1157.4285714285713","1157.4285714285713","black","no","legacy","legacy","legacy","0","uniform","1","undefined","undefined","undefined","1","j","0","0","0","0","6","0","0","0","6","NA","2","6","2","0","2","3","6","0","6","Thu Feb 18 19:01:37 2021","The main experiment item","yes","Lexical_Decision_Task.osexp","C:/Users/yasmi/Documents","no","Andale Mono","no","18","no","white","no","yes","576","legacy","2","2","3","C:/Users/yasmi/Documents/subject-5207464.2.csv","legacy","Lentiform Loewenfeld","3.3.7","yes","yes","600bd7cfb6416f0113b04181","602110864497cf011d9c0822","0","j","NA","space","space","space","NA","j","759","NA","3927","9599","5036","NA","759","2","legacy","1024","2","48000","-16","task","5207464","even","NA","30755","36687","32759","40964","4607","19249","14212","41468","NA","40960","41469","40802","36686","42229","28727","40302","4600","21858","Lexical Decision Task","6","8102","7","yes","1024"
"2.893578687","8.69","3","surf","word","87.5","87.5","1090.625","1090.625","black","no","legacy","legacy","legacy","0","uniform","1","undefined","undefined","undefined","1","j","0","0","0","0","7","0","0","0","7","NA","3","7","3","0","3","3","7","0","7","Thu Feb 18 19:01:37 2021","The main experiment item","yes","Lexical_Decision_Task.osexp","C:/Users/yasmi/Documents","no","Andale Mono","no","18","no","white","no","yes","576","legacy","3","3","3","C:/Users/yasmi/Documents/subject-5207464.2.csv","legacy","Lentiform Loewenfeld","3.3.7","yes","yes","600bd7cfb6416f0113b04181","602110864497cf011d9c0822","0","j","NA","space","space","space","NA","j","623","NA","3927","9599","5036","NA","623","2","legacy","1024","2","48000","-16","task","5207464","even","NA","30755","36687","32759","42938","4607","19249","14212","43442","NA","42934","43442","42754","36686","44067","28727","42254","4600","21858","Lexical Decision Task","7","8725","8","yes","1024"
"2.594027722","9.08","8","skip","word","88.88888888888889","88.88888888888889","1036.7777777777778","1036.7777777777778","black","no","legacy","legacy","legacy","0","uniform","1","undefined","undefined","undefined","1","j","0","0","0","0","8","0","0","0","8","NA","4","8","4","0","4","3","8","0","8","Thu Feb 18 19:01:37 2021","The main experiment item","yes","Lexical_Decision_Task.osexp","C:/Users/yasmi/Documents","no","Andale Mono","no","18","no","white","no","yes","576","legacy","4","4","3","C:/Users/yasmi/Documents/subject-5207464.2.csv","legacy","Lentiform Loewenfeld","3.3.7","yes","yes","600bd7cfb6416f0113b04181","602110864497cf011d9c0822","0","j","NA","space","space","space","NA","j","606","NA","3927","9599","5036","NA","606","2","legacy","1024","2","48000","-16","task","5207464","even","NA","30755","36687","32759","44733","4607","19249","14212","45237","NA","44729","45238","44580","36686","45845","28727","44080","4600","21858","Lexical Decision Task","8","9331","9","yes","1024"
"2.767650507","0","6","yolt","non-word","80","80","1070.5","1070.5","black","no","legacy","legacy","legacy","0","uniform","0","undefined","undefined","undefined","0","f","0","0","0","0","9","0","0","0","9","NA","5","9","5","0","5","3","9","0","9","Thu Feb 18 19:01:37 2021","The main experiment item","yes","Lexical_Decision_Task.osexp","C:/Users/yasmi/Documents","no","Andale Mono","no","18","no","white","no","yes","576","legacy","5","5","3","C:/Users/yasmi/Documents/subject-5207464.2.csv","legacy","Lentiform Loewenfeld","3.3.7","yes","yes","600bd7cfb6416f0113b04181","602110864497cf011d9c0822","0","j","NA","space","space","space","NA","j","1374","NA","3927","9599","5036","NA","1374","2","legacy","1024","2","48000","-16","task","5207464","even","NA","30755","36687","32759","46530","4607","19249","14212","47035","NA","46526","47035","46370","36686","48410","28727","45870","4600","21858","Lexical Decision Task","8","10705","10","yes","1024"
"2.899638141","0","3","hapt","non-word","81.81818181818181","81.81818181818181","1026.3636363636363","1026.3636363636363","black","no","legacy","legacy","legacy","0","uniform","1","undefined","undefined","undefined","1","f","0","0","0","0","10","0","0","0","10","NA","6","10","6","0","6","3","10","0","10","Thu Feb 18 19:01:37 2021","The main experiment item","yes","Lexical_Decision_Task.osexp","C:/Users/yasmi/Documents","no","Andale Mono","no","18","no","white","no","yes","576","legacy","6","6","3","C:/Users/yasmi/Documents/subject-5207464.2.csv","legacy","Lentiform Loewenfeld","3.3.7","yes","yes","600bd7cfb6416f0113b04181","602110864497cf011d9c0822","0","f","NA","space","space","space","NA","f","585","NA","3927","9599","5036","NA","585","2","legacy","1024","2","48000","-16","task","5207464","even","NA","30755","36687","32759","50077","4607","19249","14212","50581","NA","50072","50582","49920","36686","51168","28727","45870","4600","48419","Lexical Decision Task","9","11290","11","yes","1024"
"3.153001286","8.7","5","palm","word","83.33333333333333","83.33333333333333","1010.3333333333334","1010.3333333333334","black","no","legacy","legacy","legacy","0","uniform","1","undefined","undefined","undefined","1","j","0","0","0","0","11","0","0","0","11","NA","7","11","7","0","7","3","11","0","11","Thu Feb 18 19:01:37 2021","The main experiment item","yes","Lexical_Decision_Task.osexp","C:/Users/yasmi/Documents","no","Andale Mono","no","18","no","white","no","yes","576","legacy","7","7","3","C:/Users/yasmi/Documents/subject-5207464.2.csv","legacy","Lentiform Loewenfeld","3.3.7","yes","yes","600bd7cfb6416f0113b04181","602110864497cf011d9c0822","0","j","NA","space","space","space","NA","j","834","NA","3927","9599","5036","NA","834","2","legacy","1024","2","48000","-16","task","5207464","even","NA","30755","36687","32759","51830","4607","19249","14212","52335","NA","51826","52335","51677","36686","53170","28727","51177","4600","48419","Lexical Decision Task","10","12124","12","yes","1024"
"2.693726949","5.08","3","swig","word","84.61538461538461","84.61538461538461","978.0769230769231","978.0769230769231","black","no","legacy","legacy","legacy","0","uniform","1","undefined","undefined","undefined","1","j","0","0","0","0","12","0","0","0","12","NA","8","12","8","0","8","3","12","0","12","Thu Feb 18 19:01:37 2021","The main experiment item","yes","Lexical_Decision_Task.osexp","C:/Users/yasmi/Documents","no","Andale Mono","no","18","no","white","no","yes","576","legacy","8","8","3","C:/Users/yasmi/Documents/subject-5207464.2.csv","legacy","Lentiform Loewenfeld","3.3.7","yes","yes","600bd7cfb6416f0113b04181","602110864497cf011d9c0822","0","j","NA","space","space","space","NA","j","591","NA","3927","9599","5036","NA","591","2","legacy","1024","2","48000","-16","task","5207464","even","NA","30755","36687","32759","53897","4607","19249","14212","54401","NA","53891","54402","53694","36686","54994","28727","53194","4600","48419","Lexical Decision Task","11","12715","13","yes","1024"
"2.937852093","0","7","bamp","non-word","85.71428571428571","85.71428571428571","976.0714285714286","976.0714285714286","black","no","legacy","legacy","legacy","0","uniform","1","undefined","undefined","undefined","1","f","0","0","0","0","13","0","0","0","13","NA","9","13","9","0","9","3","13","0","13","Thu Feb 18 19:01:37 2021","The main experiment item","yes","Lexical_Decision_Task.osexp","C:/Users/yasmi/Documents","no","Andale Mono","no","18","no","white","no","yes","576","legacy","9","9","3","C:/Users/yasmi/Documents/subject-5207464.2.csv","legacy","Lentiform Loewenfeld","3.3.7","yes","yes","600bd7cfb6416f0113b04181","602110864497cf011d9c0822","0","f","NA","space","space","space","NA","f","950","NA","3927","9599","5036","NA","950","2","legacy","1024","2","48000","-16","task","5207464","even","NA","30755","36687","32759","55678","4607","19249","14212","56184","NA","55674","56184","55519","36686","57135","28727","55019","4600","48419","Lexical Decision Task","12","13665","14","yes","1024"
"3.102203805","7.21","3","drip","word","86.66666666666667","86.66666666666667","968.0666666666667","968.0666666666667","black","no","legacy","legacy","legacy","0","uniform","1","undefined","undefined","undefined","1","j","0","0","0","0","14","0","0","0","14","NA","10","14","10","0","10","3","14","0","14","Thu Feb 18 19:01:37 2021","The main experiment item","yes","Lexical_Decision_Task.osexp","C:/Users/yasmi/Documents","no","Andale Mono","no","18","no","white","no","yes","576","legacy","10","10","3","C:/Users/yasmi/Documents/subject-5207464.2.csv","legacy","Lentiform Loewenfeld","3.3.7","yes","yes","600bd7cfb6416f0113b04181","602110864497cf011d9c0822","0","j","NA","space","space","space","NA","j","856","NA","3927","9599","5036","NA","856","2","legacy","1024","2","48000","-16","task","5207464","even","NA","30755","36687","32759","57861","4607","19249","14212","58366","NA","57855","58366","57659","36686","59223","28727","57159","4600","48419","Lexical Decision Task","13","14521","15","yes","1024"
"3.094121596","0","8","fode","non-word","87.5","87.5","957.0625","957.0625","black","no","legacy","legacy","legacy","0","uniform","1","undefined","undefined","undefined","1","f","0","0","0","0","15","0","0","0","15","NA","11","15","11","0","11","3","15","0","15","Thu Feb 18 19:01:37 2021","The main experiment item","yes","Lexical_Decision_Task.osexp","C:/Users/yasmi/Documents","no","Andale Mono","no","18","no","white","no","yes","576","legacy","11","11","3","C:/Users/yasmi/Documents/subject-5207464.2.csv","legacy","Lentiform Loewenfeld","3.3.7","yes","yes","600bd7cfb6416f0113b04181","602110864497cf011d9c0822","0","f","NA","space","space","space","NA","f","792","NA","3927","9599","5036","NA","792","2","legacy","1024","2","48000","-16","task","5207464","even","NA","30755","36687","32759","59886","4607","19249","14212","60391","NA","59882","60391","59732","36686","61184","28727","59232","4600","48419","Lexical Decision Task","14","15313","16","yes","1024"
"3.067193647","6.73","6","raft","word","88.23529411764706","88.23529411764706","938.2352941176471","938.2352941176471","black","no","legacy","legacy","legacy","0","uniform","1","undefined","undefined","undefined","1","j","0","0","0","0","16","0","0","0","16","NA","12","16","12","0","12","3","16","0","16","Thu Feb 18 19:01:37 2021","The main experiment item","yes","Lexical_Decision_Task.osexp","C:/Users/yasmi/Documents","no","Andale Mono","no","18","no","white","no","yes","576","legacy","12","12","3","C:/Users/yasmi/Documents/subject-5207464.2.csv","legacy","Lentiform Loewenfeld","3.3.7","yes","yes","600bd7cfb6416f0113b04181","602110864497cf011d9c0822","0","j","NA","space","space","space","NA","j","637","NA","3927","9599","5036","NA","637","2","legacy","1024","2","48000","-16","task","5207464","even","NA","30755","36687","32759","61911","4607","19249","14212","62416","NA","61905","62416","61709","36686","63054","28727","61209","4600","48419","Lexical Decision Task","15","15950","17","yes","1024"
"3.261341392","5.08","8","reek","word","88.88888888888889","88.88888888888889","940.1111111111111","940.1111111111111","black","no","legacy","legacy","legacy","0","uniform","1","undefined","undefined","undefined","1","j","0","0","0","0","17","0","0","0","17","NA","13","17","13","0","13","3","17","0","17","Thu Feb 18 19:01:37 2021","The main experiment item","yes","Lexical_Decision_Task.osexp","C:/Users/yasmi/Documents","no","Andale Mono","no","18","no","white","no","yes","576","legacy","13","13","3","C:/Users/yasmi/Documents/subject-5207464.2.csv","legacy","Lentiform Loewenfeld","3.3.7","yes","yes","600bd7cfb6416f0113b04181","602110864497cf011d9c0822","0","j","NA","space","space","space","NA","j","972","NA","3927","9599","5036","NA","972","2","legacy","1024","2","48000","-16","task","5207464","even","NA","30755","36687","32759","63735","4607","19249","14212","64238","NA","63732","64238","63580","36686","65211","28727","63080","4600","48419","Lexical Decision Task","16","16922","18","yes","1024"
"2.708989954","9.28","9","bowl","word","89.47368421052632","89.47368421052632","927.8421052631579","927.8421052631579","black","no","legacy","legacy","legacy","0","uniform","1","undefined","undefined","undefined","1","j","0","0","0","0","18","0","0","0","18","NA","14","18","14","0","14","3","18","0","18","Thu Feb 18 19:01:37 2021","The main experiment item","yes","Lexical_Decision_Task.osexp","C:/Users/yasmi/Documents","no","Andale Mono","no","18","no","white","no","yes","576","legacy","14","14","3","C:/Users/yasmi/Documents/subject-5207464.2.csv","legacy","Lentiform Loewenfeld","3.3.7","yes","yes","600bd7cfb6416f0113b04181","602110864497cf011d9c0822","0","j","NA","space","space","space","NA","j","707","NA","3927","9599","5036","NA","707","2","legacy","1024","2","48000","-16","task","5207464","even","NA","30755","36687","32759","65929","4607","19249","14212","66434","NA","65925","66434","65736","36686","67142","28727","65236","4600","48419","Lexical Decision Task","17","17629","19","yes","1024"
"2.576725172","0","8","gowl","non-word","85","85","910.45","910.45","black","no","legacy","legacy","legacy","0","uniform","0","undefined","undefined","undefined","0","f","0","0","0","0","19","0","0","0","19","NA","15","19","15","0","15","3","19","0","19","Thu Feb 18 19:01:37 2021","The main experiment item","yes","Lexical_Decision_Task.osexp","C:/Users/yasmi/Documents","no","Andale Mono","no","18","no","white","no","yes","576","legacy","15","15","3","C:/Users/yasmi/Documents/subject-5207464.2.csv","legacy","Lentiform Loewenfeld","3.3.7","yes","yes","600bd7cfb6416f0113b04181","602110864497cf011d9c0822","0","j","NA","space","space","space","NA","j","580","NA","3927","9599","5036","NA","580","2","legacy","1024","2","48000","-16","task","5207464","even","NA","30755","36687","32759","67825","4607","19249","14212","68328","NA","67821","68329","67667","36686","68910","28727","67167","4600","48419","Lexical Decision Task","17","18209","20","yes","1024"
"3.474361976","5.24","6","veer","word","80.95238095238095","80.95238095238095","906.3333333333334","906.3333333333334","black","no","legacy","legacy","legacy","0","uniform","0","undefined","undefined","undefined","0","j","0","0","0","0","20","0","0","0","20","NA","16","20","16","0","16","3","20","0","20","Thu Feb 18 19:01:37 2021","The main experiment item","yes","Lexical_Decision_Task.osexp","C:/Users/yasmi/Documents","no","Andale Mono","no","18","no","white","no","yes","576","legacy","16","16","3","C:/Users/yasmi/Documents/subject-5207464.2.csv","legacy","Lentiform Loewenfeld","3.3.7","yes","yes","600bd7cfb6416f0113b04181","602110864497cf011d9c0822","0","f","NA","space","space","space","NA","f","824","NA","3927","9599","5036","NA","824","2","legacy","1024","2","48000","-16","task","5207464","even","NA","30755","36687","32759","70589","4607","19249","14212","71093","NA","70585","71094","70435","36686","71920","28727","67167","4600","68935","Lexical Decision Task","17","19033","21","yes","1024"
"2.746890964","9.67","3","plug","word","81.81818181818181","81.81818181818181","892.1818181818181","892.1818181818181","black","no","legacy","legacy","legacy","0","uniform","1","undefined","undefined","undefined","1","j","0","0","0","0","21","0","0","0","21","NA","17","21","17","0","17","3","21","0","21","Thu Feb 18 19:01:37 2021","The main experiment item","yes","Lexical_Decision_Task.osexp","C:/Users/yasmi/Documents","no","Andale Mono","no","18","no","white","no","yes","576","legacy","17","17","3","C:/Users/yasmi/Documents/subject-5207464.2.csv","legacy","Lentiform Loewenfeld","3.3.7","yes","yes","600bd7cfb6416f0113b04181","602110864497cf011d9c0822","0","j","NA","space","space","space","NA","j","595","NA","3927","9599","5036","NA","595","2","legacy","1024","2","48000","-16","task","5207464","even","NA","30755","36687","32759","73600","4607","19249","14212","74105","NA","73596","74105","73444","36686","74701","28727","67167","4600","71944","Lexical Decision Task","18","19628","22","yes","1024"
"3.088136089","8.32","9","worm","word","82.6086956521739","82.6086956521739","906.8260869565217","906.8260869565217","black","no","legacy","legacy","legacy","0","uniform","1","undefined","undefined","undefined","1","j","0","0","0","0","22","0","0","0","22","NA","18","22","18","0","18","3","22","0","22","Thu Feb 18 19:01:37 2021","The main experiment item","yes","Lexical_Decision_Task.osexp","C:/Users/yasmi/Documents","no","Andale Mono","no","18","no","white","no","yes","576","legacy","18","18","3","C:/Users/yasmi/Documents/subject-5207464.2.csv","legacy","Lentiform Loewenfeld","3.3.7","yes","yes","600bd7cfb6416f0113b04181","602110864497cf011d9c0822","0","j","NA","space","space","space","NA","j","1229","NA","3927","9599","5036","NA","1229","2","legacy","1024","2","48000","-16","task","5207464","even","NA","30755","36687","32759","75428","4607","19249","14212","75932","NA","75423","75932","75226","36686","77163","28727","74726","4600","71944","Lexical Decision Task","19","20857","23","yes","1024"
"3.003891166","8.05","2","frog","word","83.33333333333333","83.33333333333333","891.0833333333334","891.0833333333334","black","no","legacy","legacy","legacy","0","uniform","1","undefined","undefined","undefined","1","j","0","0","0","0","23","0","0","0","23","NA","19","23","19","0","19","3","23","0","23","Thu Feb 18 19:01:37 2021","The main experiment item","yes","Lexical_Decision_Task.osexp","C:/Users/yasmi/Documents","no","Andale Mono","no","18","no","white","no","yes","576","legacy","19","19","3","C:/Users/yasmi/Documents/subject-5207464.2.csv","legacy","Lentiform Loewenfeld","3.3.7","yes","yes","600bd7cfb6416f0113b04181","602110864497cf011d9c0822","0","j","NA","space","space","space","NA","j","529","NA","3927","9599","5036","NA","529","2","legacy","1024","2","48000","-16","task","5207464","even","NA","30755","36687","32759","77847","4607","19249","14212","78350","NA","77843","78350","77688","36686","78880","28727","77188","4600","71944","Lexical Decision Task","20","21386","24","yes","1024"
"3.100255637","0","6","brax","non-word","84","84","887.72","887.72","black","no","legacy","legacy","legacy","0","uniform","1","undefined","undefined","undefined","1","f","0","0","0","0","24","0","0","0","24","NA","20","24","20","0","20","3","24","0","24","Thu Feb 18 19:01:37 2021","The main experiment item","yes","Lexical_Decision_Task.osexp","C:/Users/yasmi/Documents","no","Andale Mono","no","18","no","white","no","yes","576","legacy","20","20","3","C:/Users/yasmi/Documents/subject-5207464.2.csv","legacy","Lentiform Loewenfeld","3.3.7","yes","yes","600bd7cfb6416f0113b04181","602110864497cf011d9c0822","0","f","NA","space","space","space","NA","f","807","NA","3927","9599","5036","NA","807","2","legacy","1024","2","48000","-16","task","5207464","even","NA","30755","36687","32759","79574","4607","19249","14212","80079","NA","79570","80080","79406","36686","80888","28727","78906","4600","71944","Lexical Decision Task","21","22193","25","yes","1024"
"3.531734309","0","6","lerd","non-word","84.61538461538461","84.61538461538461","887.4230769230769","887.4230769230769","black","no","legacy","legacy","legacy","0","uniform","1","undefined","undefined","undefined","1","f","0","0","0","0","25","0","0","0","25","NA","21","25","21","0","21","3","25","0","25","Thu Feb 18 19:01:37 2021","The main experiment item","yes","Lexical_Decision_Task.osexp","C:/Users/yasmi/Documents","no","Andale Mono","no","18","no","white","no","yes","576","legacy","21","21","3","C:/Users/yasmi/Documents/subject-5207464.2.csv","legacy","Lentiform Loewenfeld","3.3.7","yes","yes","600bd7cfb6416f0113b04181","602110864497cf011d9c0822","0","f","NA","space","space","space","NA","f","880","NA","3927","9599","5036","NA","880","2","legacy","1024","2","48000","-16","task","5207464","even","NA","30755","36687","32759","81567","4607","19249","14212","82071","NA","81563","82071","81413","36686","82952","28727","80913","4600","71944","Lexical Decision Task","22","23073","26","yes","1024"
"2.709837904","6.85","8","skim","word","85.18518518518519","85.18518518518519","891.5185185185185","891.5185185185185","black","no","legacy","legacy","legacy","0","uniform","1","undefined","undefined","undefined","1","j","0","0","0","0","26","0","0","0","26","NA","22","26","22","0","22","3","26","0","26","Thu Feb 18 19:01:37 2021","The main experiment item","yes","Lexical_Decision_Task.osexp","C:/Users/yasmi/Documents","no","Andale Mono","no","18","no","white","no","yes","576","legacy","22","22","3","C:/Users/yasmi/Documents/subject-5207464.2.csv","legacy","Lentiform Loewenfeld","3.3.7","yes","yes","600bd7cfb6416f0113b04181","602110864497cf011d9c0822","0","j","NA","space","space","space","NA","j","998","NA","3927","9599","5036","NA","998","2","legacy","1024","2","48000","-16","task","5207464","even","NA","30755","36687","32759","83647","4607","19249","14212","84151","NA","83643","84151","83476","36686","85151","28727","82976","4600","71944","Lexical Decision Task","23","24071","27","yes","1024"
"2.990042563","6.64","9","plow","word","85.71428571428571","85.71428571428571","898.5714285714286","898.5714285714286","black","no","legacy","legacy","legacy","0","uniform","1","undefined","undefined","undefined","1","j","0","0","0","0","27","0","0","0","27","NA","23","27","23","0","23","3","27","0","27","Thu Feb 18 19:01:37 2021","The main experiment item","yes","Lexical_Decision_Task.osexp","C:/Users/yasmi/Documents","no","Andale Mono","no","18","no","white","no","yes","576","legacy","23","23","3","C:/Users/yasmi/Documents/subject-5207464.2.csv","legacy","Lentiform Loewenfeld","3.3.7","yes","yes","600bd7cfb6416f0113b04181","602110864497cf011d9c0822","0","j","NA","space","space","space","NA","j","1089","NA","3927","9599","5036","NA","1089","2","legacy","1024","2","48000","-16","task","5207464","even","NA","30755","36687","32759","85831","4607","19249","14212","86335","NA","85827","86335","85675","36686","87425","28727","85175","4600","71944","Lexical Decision Task","24","25160","28","yes","1024"
"3.2757719","0","5","slea","non-word","86.20689655172414","86.20689655172414","910.7931034482758","910.7931034482758","black","no","legacy","legacy","legacy","0","uniform","1","undefined","undefined","undefined","1","f","0","0","0","0","28","0","0","0","28","NA","24","28","24","0","24","3","28","0","28","Thu Feb 18 19:01:37 2021","The main experiment item","yes","Lexical_Decision_Task.osexp","C:/Users/yasmi/Documents","no","Andale Mono","no","18","no","white","no","yes","576","legacy","24","24","3","C:/Users/yasmi/Documents/subject-5207464.2.csv","legacy","Lentiform Loewenfeld","3.3.7","yes","yes","600bd7cfb6416f0113b04181","602110864497cf011d9c0822","0","f","NA","space","space","space","NA","f","1253","NA","3927","9599","5036","NA","1253","2","legacy","1024","2","48000","-16","task","5207464","even","NA","30755","36687","32759","88103","4607","19249","14212","88610","NA","88100","88610","87950","36686","89865","28727","87450","4600","71944","Lexical Decision Task","25","26413","29","yes","1024"
"3.039414119","0","9","meep","non-word","86.66666666666667","86.66666666666667","907.2333333333333","907.2333333333333","black","no","legacy","legacy","legacy","0","uniform","1","undefined","undefined","undefined","1","f","0","0","0","0","29","0","0","0","29","NA","25","29","25","0","25","3","29","0","29","Thu Feb 18 19:01:37 2021","The main experiment item","yes","Lexical_Decision_Task.osexp","C:/Users/yasmi/Documents","no","Andale Mono","no","18","no","white","no","yes","576","legacy","25","25","3","C:/Users/yasmi/Documents/subject-5207464.2.csv","legacy","Lentiform Loewenfeld","3.3.7","yes","yes","600bd7cfb6416f0113b04181","602110864497cf011d9c0822","0","f","NA","space","space","space","NA","f","804","NA","3927","9599","5036","NA","804","2","legacy","1024","2","48000","-16","task","5207464","even","NA","30755","36687","32759","90542","4607","19249","14212","91046","NA","90538","91047","90390","36686","91852","28727","89889","4600","71944","Lexical Decision Task","26","27217","30","yes","1024"
"2.907588697","8.91","9","mood","word","87.09677419354838","87.09677419354838","900","900","black","no","legacy","legacy","legacy","0","uniform","1","undefined","undefined","undefined","1","j","0","0","0","0","30","0","0","0","30","NA","26","30","26","0","26","3","30","0","30","Thu Feb 18 19:01:37 2021","The main experiment item","yes","Lexical_Decision_Task.osexp","C:/Users/yasmi/Documents","no","Andale Mono","no","18","no","white","no","yes","576","legacy","26","26","3","C:/Users/yasmi/Documents/subject-5207464.2.csv","legacy","Lentiform Loewenfeld","3.3.7","yes","yes","600bd7cfb6416f0113b04181","602110864497cf011d9c0822","0","j","NA","space","space","space","NA","j","683","NA","3927","9599","5036","NA","683","2","legacy","1024","2","48000","-16","task","5207464","even","NA","30755","36687","32759","92560","4607","19249","14212","93064","NA","92556","93064","92379","36686","93748","28727","91879","4600","71944","Lexical Decision Task","27","27900","31","yes","1024"
"3.257359335","8","6","brew","word","87.5","87.5","890.40625","890.40625","black","no","legacy","legacy","legacy","0","uniform","1","undefined","undefined","undefined","1","j","0","0","0","0","31","0","0","0","31","NA","27","31","27","0","27","3","31","0","31","Thu Feb 18 19:01:37 2021","The main experiment item","yes","Lexical_Decision_Task.osexp","C:/Users/yasmi/Documents","no","Andale Mono","no","18","no","white","no","yes","576","legacy","27","27","3","C:/Users/yasmi/Documents/subject-5207464.2.csv","legacy","Lentiform Loewenfeld","3.3.7","yes","yes","600bd7cfb6416f0113b04181","602110864497cf011d9c0822","0","j","NA","space","space","space","NA","j","593","NA","3927","9599","5036","NA","593","2","legacy","1024","2","48000","-16","task","5207464","even","NA","30755","36687","32759","94442","4607","19249","14212","94948","NA","94438","94948","94273","36686","95542","28727","93773","4600","71944","Lexical Decision Task","28","28493","32","yes","1024"
"2.664328519","0","4","plux","non-word","84.84848484848484","84.84848484848484","889.1515151515151","889.1515151515151","black","no","legacy","legacy","legacy","0","uniform","0","undefined","undefined","undefined","0","f","0","0","0","0","32","0","0","0","32","NA","28","32","28","0","28","3","32","0","32","Thu Feb 18 19:01:37 2021","The main experiment item","yes","Lexical_Decision_Task.osexp","C:/Users/yasmi/Documents","no","Andale Mono","no","18","no","white","no","yes","576","legacy","28","28","3","C:/Users/yasmi/Documents/subject-5207464.2.csv","legacy","Lentiform Loewenfeld","3.3.7","yes","yes","600bd7cfb6416f0113b04181","602110864497cf011d9c0822","0","j","NA","space","space","space","NA","j","849","NA","3927","9599","5036","NA","849","2","legacy","1024","2","48000","-16","task","5207464","even","NA","30755","36687","32759","96219","4607","19249","14212","96722","NA","96215","96723","96066","36686","97574","28727","95566","4600","71944","Lexical Decision Task","28","29342","33","yes","1024"
"2.838639236","0","4","furg","non-word","85.29411764705883","85.29411764705883","893.2352941176471","893.2352941176471","black","no","legacy","legacy","legacy","0","uniform","1","undefined","undefined","undefined","1","f","0","0","0","0","33","0","0","0","33","NA","29","33","29","0","29","3","33","0","33","Thu Feb 18 19:01:37 2021","The main experiment item","yes","Lexical_Decision_Task.osexp","C:/Users/yasmi/Documents","no","Andale Mono","no","18","no","white","no","yes","576","legacy","29","29","3","C:/Users/yasmi/Documents/subject-5207464.2.csv","legacy","Lentiform Loewenfeld","3.3.7","yes","yes","600bd7cfb6416f0113b04181","602110864497cf011d9c0822","0","f","NA","space","space","space","NA","f","1028","NA","3927","9599","5036","NA","1028","2","legacy","1024","2","48000","-16","task","5207464","even","NA","30755","36687","32759","99254","4607","19249","14212","99759","NA","99250","99759","99098","36686","100788","28727","95566","4600","97598","Lexical Decision Task","29","30370","34","yes","1024"
"3.443783828","7.65","3","verb","word","85.71428571428571","85.71428571428571","889.1714285714286","889.1714285714286","black","no","legacy","legacy","legacy","0","uniform","1","undefined","undefined","undefined","1","j","0","0","0","0","34","0","0","0","34","NA","30","34","30","0","30","3","34","0","34","Thu Feb 18 19:01:37 2021","The main experiment item","yes","Lexical_Decision_Task.osexp","C:/Users/yasmi/Documents","no","Andale Mono","no","18","no","white","no","yes","576","legacy","30","30","3","C:/Users/yasmi/Documents/subject-5207464.2.csv","legacy","Lentiform Loewenfeld","3.3.7","yes","yes","600bd7cfb6416f0113b04181","602110864497cf011d9c0822","0","j","NA","space","space","space","NA","j","751","NA","3927","9599","5036","NA","751","2","legacy","1024","2","48000","-16","task","5207464","even","NA","30755","36687","32759","101468","4607","19249","14212","101972","NA","101464","101972","101313","36686","102725","28727","100813","4600","97598","Lexical Decision Task","30","31121","35","yes","1024"
"2.7084209","0","8","vump","non-word","86.11111111111111","86.11111111111111","891.2777777777778","891.2777777777778","black","no","legacy","legacy","legacy","0","uniform","1","undefined","undefined","undefined","1","f","0","0","0","0","35","0","0","0","35","NA","31","35","31","0","31","3","35","0","35","Thu Feb 18 19:01:37 2021","The main experiment item","yes","Lexical_Decision_Task.osexp","C:/Users/yasmi/Documents","no","Andale Mono","no","18","no","white","no","yes","576","legacy","31","31","3","C:/Users/yasmi/Documents/subject-5207464.2.csv","legacy","Lentiform Loewenfeld","3.3.7","yes","yes","600bd7cfb6416f0113b04181","602110864497cf011d9c0822","0","f","NA","space","space","space","NA","f","965","NA","3927","9599","5036","NA","965","2","legacy","1024","2","48000","-16","task","5207464","even","NA","30755","36687","32759","103409","4607","19249","14212","103913","NA","103405","103914","103250","36686","104881","28727","102750","4600","97598","Lexical Decision Task","31","32086","36","yes","1024"
"3.274157849","0","8","leet","non-word","86.48648648648648","86.48648648648648","891.6486486486486","891.6486486486486","black","no","legacy","legacy","legacy","0","uniform","1","undefined","undefined","undefined","1","f","0","0","0","0","36","0","0","0","36","NA","32","36","32","0","32","3","36","0","36","Thu Feb 18 19:01:37 2021","The main experiment item","yes","Lexical_Decision_Task.osexp","C:/Users/yasmi/Documents","no","Andale Mono","no","18","no","white","no","yes","576","legacy","32","32","3","C:/Users/yasmi/Documents/subject-5207464.2.csv","legacy","Lentiform Loewenfeld","3.3.7","yes","yes","600bd7cfb6416f0113b04181","602110864497cf011d9c0822","0","f","NA","space","space","space","NA","f","905","NA","3927","9599","5036","NA","905","2","legacy","1024","2","48000","-16","task","5207464","even","NA","30755","36687","32759","105575","4607","19249","14212","106080","NA","105571","106080","105406","36686","106986","28727","104906","4600","97598","Lexical Decision Task","32","32991","37","yes","1024"
"3.132473155","0","4","glim","non-word","84.21052631578948","84.21052631578948","885.1578947368421","885.1578947368421","black","no","legacy","legacy","legacy","0","uniform","0","undefined","undefined","undefined","0","f","0","0","0","0","37","0","0","0","37","NA","33","37","33","0","33","3","37","0","37","Thu Feb 18 19:01:37 2021","The main experiment item","yes","Lexical_Decision_Task.osexp","C:/Users/yasmi/Documents","no","Andale Mono","no","18","no","white","no","yes","576","legacy","33","33","3","C:/Users/yasmi/Documents/subject-5207464.2.csv","legacy","Lentiform Loewenfeld","3.3.7","yes","yes","600bd7cfb6416f0113b04181","602110864497cf011d9c0822","0","j","NA","space","space","space","NA","j","645","NA","3927","9599","5036","NA","645","2","legacy","1024","2","48000","-16","task","5207464","even","NA","30755","36687","32759","107669","4607","19249","14212","108173","NA","107665","108173","107512","36686","108819","28727","107011","4600","97598","Lexical Decision Task","32","33636","38","yes","1024"
"3.307211407","6.07","7","honk","word","84.61538461538461","84.61538461538461","884.1282051282051","884.1282051282051","black","no","legacy","legacy","legacy","0","uniform","1","undefined","undefined","undefined","1","j","0","0","0","0","38","0","0","0","38","NA","34","38","34","0","34","3","38","0","38","Thu Feb 18 19:01:37 2021","The main experiment item","yes","Lexical_Decision_Task.osexp","C:/Users/yasmi/Documents","no","Andale Mono","no","18","no","white","no","yes","576","legacy","34","34","3","C:/Users/yasmi/Documents/subject-5207464.2.csv","legacy","Lentiform Loewenfeld","3.3.7","yes","yes","600bd7cfb6416f0113b04181","602110864497cf011d9c0822","0","j","NA","space","space","space","NA","j","845","NA","3927","9599","5036","NA","845","2","legacy","1024","2","48000","-16","task","5207464","even","NA","30755","36687","32759","110524","4607","19249","14212","111030","NA","110520","111030","110344","36686","111877","28727","107011","4600","108843","Lexical Decision Task","33","34481","39","yes","1024"
"3.440331212","7.35","6","stew","word","85","85","877.1","877.1","black","no","legacy","legacy","legacy","0","uniform","1","undefined","undefined","undefined","1","j","0","0","0","0","39","0","0","0","39","NA","35","39","35","0","35","3","39","0","39","Thu Feb 18 19:01:37 2021","The main experiment item","yes","Lexical_Decision_Task.osexp","C:/Users/yasmi/Documents","no","Andale Mono","no","18","no","white","no","yes","576","legacy","35","35","3","C:/Users/yasmi/Documents/subject-5207464.2.csv","legacy","Lentiform Loewenfeld","3.3.7","yes","yes","600bd7cfb6416f0113b04181","602110864497cf011d9c0822","0","j","NA","space","space","space","NA","j","603","NA","3927","9599","5036","NA","603","2","legacy","1024","2","48000","-16","task","5207464","even","NA","30755","36687","32759","112604","4607","19249","14212","113108","NA","112598","113108","112403","36686","113713","28727","111903","4600","108843","Lexical Decision Task","34","35084","40","yes","1024"
"3.282244367","0","6","fute","non-word","85.36585365853658","85.36585365853658","876.560975609756","876.560975609756","black","no","legacy","legacy","legacy","0","uniform","1","undefined","undefined","undefined","1","f","0","0","0","0","40","0","0","0","40","NA","36","40","36","0","36","3","40","0","40","Thu Feb 18 19:01:37 2021","The main experiment item","yes","Lexical_Decision_Task.osexp","C:/Users/yasmi/Documents","no","Andale Mono","no","18","no","white","no","yes","576","legacy","36","36","3","C:/Users/yasmi/Documents/subject-5207464.2.csv","legacy","Lentiform Loewenfeld","3.3.7","yes","yes","600bd7cfb6416f0113b04181","602110864497cf011d9c0822","0","f","NA","space","space","space","NA","f","855","NA","3927","9599","5036","NA","855","2","legacy","1024","2","48000","-16","task","5207464","even","NA","30755","36687","32759","114385","4607","19249","14212","114889","NA","114381","114890","114222","36686","115747","28727","113722","4600","108843","Lexical Decision Task","35","35939","41","yes","1024"
"3.156347201","0","8","lasp","non-word","85.71428571428571","85.71428571428571","873.9047619047619","873.9047619047619","black","no","legacy","legacy","legacy","0","uniform","1","undefined","undefined","undefined","1","f","0","0","0","0","41","0","0","0","41","NA","37","41","37","0","37","3","41","0","41","Thu Feb 18 19:01:37 2021","The main experiment item","yes","Lexical_Decision_Task.osexp","C:/Users/yasmi/Documents","no","Andale Mono","no","18","no","white","no","yes","576","legacy","37","37","3","C:/Users/yasmi/Documents/subject-5207464.2.csv","legacy","Lentiform Loewenfeld","3.3.7","yes","yes","600bd7cfb6416f0113b04181","602110864497cf011d9c0822","0","f","NA","space","space","space","NA","f","765","NA","3927","9599","5036","NA","765","2","legacy","1024","2","48000","-16","task","5207464","even","NA","30755","36687","32759","116409","4607","19249","14212","116913","NA","116404","116913","116257","36686","117680","28727","115757","4600","108843","Lexical Decision Task","36","36704","42","yes","1024"
"2.892836167","10.01","5","soft","word","86.04651162790698","86.04651162790698","869.1860465116279","869.1860465116279","black","no","legacy","legacy","legacy","0","uniform","1","undefined","undefined","undefined","1","j","0","0","0","0","42","0","0","0","42","NA","38","42","38","0","38","3","42","0","42","Thu Feb 18 19:01:37 2021","The main experiment item","yes","Lexical_Decision_Task.osexp","C:/Users/yasmi/Documents","no","Andale Mono","no","18","no","white","no","yes","576","legacy","38","38","3","C:/Users/yasmi/Documents/subject-5207464.2.csv","legacy","Lentiform Loewenfeld","3.3.7","yes","yes","600bd7cfb6416f0113b04181","602110864497cf011d9c0822","0","j","NA","space","space","space","NA","j","671","NA","3927","9599","5036","NA","671","2","legacy","1024","2","48000","-16","task","5207464","even","NA","30755","36687","32759","118358","4607","19249","14212","118861","NA","118354","118862","118204","36686","119534","28727","117704","4600","108843","Lexical Decision Task","37","37375","43","yes","1024"
"2.875447132","0","9","jelt","non-word","86.36363636363636","86.36363636363636","872.2727272727273","872.2727272727273","black","no","legacy","legacy","legacy","0","uniform","1","undefined","undefined","undefined","1","f","0","0","0","0","43","0","0","0","43","NA","39","43","39","0","39","3","43","0","43","Thu Feb 18 19:01:37 2021","The main experiment item","yes","Lexical_Decision_Task.osexp","C:/Users/yasmi/Documents","no","Andale Mono","no","18","no","white","no","yes","576","legacy","39","39","3","C:/Users/yasmi/Documents/subject-5207464.2.csv","legacy","Lentiform Loewenfeld","3.3.7","yes","yes","600bd7cfb6416f0113b04181","602110864497cf011d9c0822","0","f","NA","space","space","space","NA","f","1005","NA","3927","9599","5036","NA","1005","2","legacy","1024","2","48000","-16","task","5207464","even","NA","30755","36687","32759","120208","4607","19249","14212","120712","NA","120204","120712","120044","36686","121718","28727","119544","4600","108843","Lexical Decision Task","38","38380","44","yes","1024"
"2.880623071","0","9","curp","non-word","86.66666666666667","86.66666666666667","872.6222222222223","872.6222222222223","black","no","legacy","legacy","legacy","0","uniform","1","undefined","undefined","undefined","1","f","0","0","0","0","44","0","0","0","44","NA","40","44","40","0","40","3","44","0","44","Thu Feb 18 19:01:37 2021","The main experiment item","yes","Lexical_Decision_Task.osexp","C:/Users/yasmi/Documents","no","Andale Mono","no","18","no","white","no","yes","576","legacy","40","40","3","C:/Users/yasmi/Documents/subject-5207464.2.csv","legacy","Lentiform Loewenfeld","3.3.7","yes","yes","600bd7cfb6416f0113b04181","602110864497cf011d9c0822","0","f","NA","space","space","space","NA","f","888","NA","3927","9599","5036","NA","888","2","legacy","1024","2","48000","-16","task","5207464","even","NA","30755","36687","32759","122448","4607","19249","14212","122953","NA","122443","122953","122243","36686","123842","28727","121743","4600","108843","Lexical Decision Task","39","39268","45","yes","1024"
"3.168890155","0","6","thet","non-word","86.95652173913044","86.95652173913044","870.5217391304348","870.5217391304348","black","no","legacy","legacy","legacy","0","uniform","1","undefined","undefined","undefined","1","f","0","0","0","0","45","0","0","0","45","NA","41","45","41","0","41","3","45","0","45","Thu Feb 18 19:01:37 2021","The main experiment item","yes","Lexical_Decision_Task.osexp","C:/Users/yasmi/Documents","no","Andale Mono","no","18","no","white","no","yes","576","legacy","41","41","3","C:/Users/yasmi/Documents/subject-5207464.2.csv","legacy","Lentiform Loewenfeld","3.3.7","yes","yes","600bd7cfb6416f0113b04181","602110864497cf011d9c0822","0","f","NA","space","space","space","NA","f","776","NA","3927","9599","5036","NA","776","2","legacy","1024","2","48000","-16","task","5207464","even","NA","30755","36687","32759","124520","4607","19249","14212","125025","NA","124516","125025","124367","36686","125804","28727","123867","4600","108843","Lexical Decision Task","40","40044","46","yes","1024"
"3.208978517","10.33","4","fish","word","87.23404255319149","87.23404255319149","866.8297872340426","866.8297872340426","black","no","legacy","legacy","legacy","0","uniform","1","undefined","undefined","undefined","1","j","0","0","0","0","46","0","0","0","46","NA","42","46","42","0","42","3","46","0","46","Thu Feb 18 19:01:37 2021","The main experiment item","yes","Lexical_Decision_Task.osexp","C:/Users/yasmi/Documents","no","Andale Mono","no","18","no","white","no","yes","576","legacy","42","42","3","C:/Users/yasmi/Documents/subject-5207464.2.csv","legacy","Lentiform Loewenfeld","3.3.7","yes","yes","600bd7cfb6416f0113b04181","602110864497cf011d9c0822","0","j","NA","space","space","space","NA","j","697","NA","3927","9599","5036","NA","697","2","legacy","1024","2","48000","-16","task","5207464","even","NA","30755","36687","32759","126487","4607","19249","14212","126992","NA","126484","126992","126331","36686","127691","28727","125831","4600","108843","Lexical Decision Task","41","40741","47","yes","1024"
"3.066077331","0","7","vorn","non-word","87.5","87.5","864.5833333333334","864.5833333333334","black","no","legacy","legacy","legacy","0","uniform","1","undefined","undefined","undefined","1","f","0","0","0","0","47","0","0","0","47","NA","43","47","43","0","43","3","47","0","47","Thu Feb 18 19:01:37 2021","The main experiment item","yes","Lexical_Decision_Task.osexp","C:/Users/yasmi/Documents","no","Andale Mono","no","18","no","white","no","yes","576","legacy","43","43","3","C:/Users/yasmi/Documents/subject-5207464.2.csv","legacy","Lentiform Loewenfeld","3.3.7","yes","yes","600bd7cfb6416f0113b04181","602110864497cf011d9c0822","0","f","NA","space","space","space","NA","f","759","NA","3927","9599","5036","NA","759","2","legacy","1024","2","48000","-16","task","5207464","even","NA","30755","36687","32759","128373","4607","19249","14212","128876","NA","128369","128876","128216","36686","129636","28727","127716","4600","108843","Lexical Decision Task","42","41500","48","yes","1024"
"2.6599162","0","6","flug","non-word","87.75510204081633","87.75510204081633","881.469387755102","881.469387755102","black","no","legacy","legacy","legacy","0","uniform","1","undefined","undefined","undefined","1","f","0","0","0","0","48","0","0","0","48","NA","44","48","44","0","44","3","48","0","48","Thu Feb 18 19:01:37 2021","The main experiment item","yes","Lexical_Decision_Task.osexp","C:/Users/yasmi/Documents","no","Andale Mono","no","18","no","white","no","yes","576","legacy","44","44","3","C:/Users/yasmi/Documents/subject-5207464.2.csv","legacy","Lentiform Loewenfeld","3.3.7","yes","yes","600bd7cfb6416f0113b04181","602110864497cf011d9c0822","0","f","NA","space","space","space","NA","f","1692","NA","3927","9599","5036","NA","1692","2","legacy","1024","2","48000","-16","task","5207464","even","NA","30755","36687","32759","130349","4607","19249","14212","130855","NA","130343","130855","130146","36686","132549","28727","129646","4600","108843","Lexical Decision Task","43","43192","49","yes","1024"
"2.966923697","5.4","2","fume","word","88","88","877.58","877.58","black","no","legacy","legacy","legacy","0","uniform","1","undefined","undefined","undefined","1","j","0","0","0","0","49","0","0","0","49","NA","45","49","45","0","45","3","49","0","49","Thu Feb 18 19:01:37 2021","The main experiment item","yes","Lexical_Decision_Task.osexp","C:/Users/yasmi/Documents","no","Andale Mono","no","18","no","white","no","yes","576","legacy","45","45","3","C:/Users/yasmi/Documents/subject-5207464.2.csv","legacy","Lentiform Loewenfeld","3.3.7","yes","yes","600bd7cfb6416f0113b04181","602110864497cf011d9c0822","0","j","NA","space","space","space","NA","j","687","NA","3927","9599","5036","NA","687","2","legacy","1024","2","48000","-16","task","5207464","even","NA","30755","36687","32759","133236","4607","19249","14212","133740","NA","133231","133741","133074","36686","134430","28727","132574","4600","108843","Lexical Decision Task","44","43879","50","yes","1024"
"2.698100546","0","9","mulk","non-word","86.27450980392157","86.27450980392157","873.0980392156863","873.0980392156863","black","no","legacy","legacy","legacy","0","uniform","0","undefined","undefined","undefined","0","f","0","0","0","0","50","0","0","0","50","NA","46","50","46","0","46","3","50","0","50","Thu Feb 18 19:01:37 2021","The main experiment item","yes","Lexical_Decision_Task.osexp","C:/Users/yasmi/Documents","no","Andale Mono","no","18","no","white","no","yes","576","legacy","46","46","3","C:/Users/yasmi/Documents/subject-5207464.2.csv","legacy","Lentiform Loewenfeld","3.3.7","yes","yes","600bd7cfb6416f0113b04181","602110864497cf011d9c0822","0","j","NA","space","space","space","NA","j","649","NA","3927","9599","5036","NA","649","2","legacy","1024","2","48000","-16","task","5207464","even","NA","30755","36687","32759","135091","4607","19249","14212","135596","NA","135087","135596","134940","36686","136247","28727","134440","4600","108843","Lexical Decision Task","44","44528","51","yes","1024"
"2.972819734","0","4","scew","non-word","86.53846153846153","86.53846153846153","872.9423076923077","872.9423076923077","black","no","legacy","legacy","legacy","0","uniform","1","undefined","undefined","undefined","1","f","0","0","0","0","51","0","0","0","51","NA","47","51","47","0","47","3","51","0","51","Thu Feb 18 19:01:37 2021","The main experiment item","yes","Lexical_Decision_Task.osexp","C:/Users/yasmi/Documents","no","Andale Mono","no","18","no","white","no","yes","576","legacy","47","47","3","C:/Users/yasmi/Documents/subject-5207464.2.csv","legacy","Lentiform Loewenfeld","3.3.7","yes","yes","600bd7cfb6416f0113b04181","602110864497cf011d9c0822","0","f","NA","space","space","space","NA","f","865","NA","3927","9599","5036","NA","865","2","legacy","1024","2","48000","-16","task","5207464","even","NA","30755","36687","32759","137935","4607","19249","14212","138440","NA","137932","138440","137773","36686","139307","28727","134440","4600","136272","Lexical Decision Task","45","45393","52","yes","1024"
"2.986323777","10.85","8","ship","word","86.79245283018868","86.79245283018868","874.9622641509434","874.9622641509434","black","no","legacy","legacy","legacy","0","uniform","1","undefined","undefined","undefined","1","j","0","0","0","0","52","0","0","0","52","NA","48","52","48","0","48","3","52","0","52","Thu Feb 18 19:01:37 2021","The main experiment item","yes","Lexical_Decision_Task.osexp","C:/Users/yasmi/Documents","no","Andale Mono","no","18","no","white","no","yes","576","legacy","48","48","3","C:/Users/yasmi/Documents/subject-5207464.2.csv","legacy","Lentiform Loewenfeld","3.3.7","yes","yes","600bd7cfb6416f0113b04181","602110864497cf011d9c0822","0","j","NA","space","space","space","NA","j","980","NA","3927","9599","5036","NA","980","2","legacy","1024","2","48000","-16","task","5207464","even","NA","30755","36687","32759","140004","4607","19249","14212","140509","NA","140000","140509","139835","36686","141491","28727","139335","4600","136272","Lexical Decision Task","46","46373","53","yes","1024"
"3.145920145","8.51","8","flew","word","87.03703703703704","87.03703703703704","870.2222222222222","870.2222222222222","black","no","legacy","legacy","legacy","0","uniform","1","undefined","undefined","undefined","1","j","0","0","0","0","53","0","0","0","53","NA","49","53","49","0","49","3","53","0","53","Thu Feb 18 19:01:37 2021","The main experiment item","yes","Lexical_Decision_Task.osexp","C:/Users/yasmi/Documents","no","Andale Mono","no","18","no","white","no","yes","576","legacy","49","49","3","C:/Users/yasmi/Documents/subject-5207464.2.csv","legacy","Lentiform Loewenfeld","3.3.7","yes","yes","600bd7cfb6416f0113b04181","602110864497cf011d9c0822","0","j","NA","space","space","space","NA","j","619","NA","3927","9599","5036","NA","619","2","legacy","1024","2","48000","-16","task","5207464","even","NA","30755","36687","32759","142168","4607","19249","14212","142673","NA","142164","142673","142015","36686","143293","28727","141515","4600","136272","Lexical Decision Task","47","46992","54","yes","1024"
"2.920123326","7.43","4","duel","word","87.27272727272727","87.27272727272727","881.2545454545455","881.2545454545455","black","no","legacy","legacy","legacy","0","uniform","1","undefined","undefined","undefined","1","j","0","0","0","0","54","0","0","0","54","0","50","54","50","0","50","3","54","0","54","Thu Feb 18 19:01:37 2021","The main experiment item","yes","Lexical_Decision_Task.osexp","C:/Users/yasmi/Documents","no","Andale Mono","no","18","no","white","no","yes","576","legacy","50","50","3","C:/Users/yasmi/Documents/subject-5207464.2.csv","legacy","Lentiform Loewenfeld","3.3.7","yes","yes","600bd7cfb6416f0113b04181","602110864497cf011d9c0822","0","j","NA","space","space","space","space","j","1477","NA","3927","9599","5036","44555","1477","2","legacy","1024","2","48000","-16","task","5207464","even","NA","30755","36687","32759","188623","4607","19249","14212","189127","143941","188620","189127","143818","36686","190606","28727","143318","4600","136272","Lexical Decision Task","48","48469","55","yes","1024"
"3.248054965","7.86","5","glow","word","87.5","87.5","873.5892857142857","873.5892857142857","black","no","legacy","legacy","legacy","0","uniform","1","undefined","undefined","undefined","1","j","0","0","0","0","55","0","0","0","55","0","51","55","51","0","51","3","55","0","55","Thu Feb 18 19:01:37 2021","The main experiment item","yes","Lexical_Decision_Task.osexp","C:/Users/yasmi/Documents","no","Andale Mono","no","18","no","white","no","yes","576","legacy","51","51","3","C:/Users/yasmi/Documents/subject-5207464.2.csv","legacy","Lentiform Loewenfeld","3.3.7","yes","yes","600bd7cfb6416f0113b04181","602110864497cf011d9c0822","0","j","NA","space","space","space","space","j","452","NA","3927","9599","5036","44555","452","2","legacy","1024","2","48000","-16","task","5207464","even","NA","30755","36687","32759","191285","4607","19249","14212","191790","143941","191281","191790","191131","36686","192244","28727","190630","4600","136272","Lexical Decision Task","49","48921","56","yes","1024"
"3.431095062","5.74","9","perk","word","87.71929824561404","87.71929824561404","869.8771929824561","869.8771929824561","black","no","legacy","legacy","legacy","0","uniform","1","undefined","undefined","undefined","1","j","0","0","0","0","56","0","0","0","56","0","52","56","52","0","52","3","56","0","56","Thu Feb 18 19:01:37 2021","The main experiment item","yes","Lexical_Decision_Task.osexp","C:/Users/yasmi/Documents","no","Andale Mono","no","18","no","white","no","yes","576","legacy","52","52","3","C:/Users/yasmi/Documents/subject-5207464.2.csv","legacy","Lentiform Loewenfeld","3.3.7","yes","yes","600bd7cfb6416f0113b04181","602110864497cf011d9c0822","0","j","NA","space","space","space","space","j","662","NA","3927","9599","5036","44555","662","2","legacy","1024","2","48000","-16","task","5207464","even","NA","30755","36687","32759","192927","4607","19249","14212","193432","143941","192923","193432","192769","36686","194096","28727","192269","4600","136272","Lexical Decision Task","50","49583","57","yes","1024"
"3.209246849","0","7","slem","non-word","87.93103448275862","87.93103448275862","864.1551724137931","864.1551724137931","black","no","legacy","legacy","legacy","0","uniform","1","undefined","undefined","undefined","1","f","0","0","0","0","57","0","0","0","57","0","53","57","53","0","53","3","57","0","57","Thu Feb 18 19:01:37 2021","The main experiment item","yes","Lexical_Decision_Task.osexp","C:/Users/yasmi/Documents","no","Andale Mono","no","18","no","white","no","yes","576","legacy","53","53","3","C:/Users/yasmi/Documents/subject-5207464.2.csv","legacy","Lentiform Loewenfeld","3.3.7","yes","yes","600bd7cfb6416f0113b04181","602110864497cf011d9c0822","0","f","NA","space","space","space","space","f","538","NA","3927","9599","5036","44555","538","2","legacy","1024","2","48000","-16","task","5207464","even","NA","30755","36687","32759","194777","4607","19249","14212","195281","143941","194774","195281","194621","36686","195820","28727","194121","4600","136272","Lexical Decision Task","51","50121","58","yes","1024"
"3.397302518","7.01","2","knit","word","88.13559322033899","88.13559322033899","859.0169491525423","859.0169491525423","black","no","legacy","legacy","legacy","0","uniform","1","undefined","undefined","undefined","1","j","0","0","0","0","58","0","0","0","58","0","54","58","54","0","54","3","58","0","58","Thu Feb 18 19:01:37 2021","The main experiment item","yes","Lexical_Decision_Task.osexp","C:/Users/yasmi/Documents","no","Andale Mono","no","18","no","white","no","yes","576","legacy","54","54","3","C:/Users/yasmi/Documents/subject-5207464.2.csv","legacy","Lentiform Loewenfeld","3.3.7","yes","yes","600bd7cfb6416f0113b04181","602110864497cf011d9c0822","0","j","NA","space","space","space","space","j","561","NA","3927","9599","5036","44555","561","2","legacy","1024","2","48000","-16","task","5207464","even","NA","30755","36687","32759","196530","4607","19249","14212","197035","143941","196526","197036","196345","36686","197599","28727","195845","4600","136272","Lexical Decision Task","52","50682","59","yes","1024"
"3.149629599","0","2","cleb","non-word","88.33333333333333","88.33333333333333","852.5","852.5","black","no","legacy","legacy","legacy","0","uniform","1","undefined","undefined","undefined","1","f","0","0","0","0","59","0","0","0","59","0","55","59","55","0","55","3","59","0","59","Thu Feb 18 19:01:37 2021","The main experiment item","yes","Lexical_Decision_Task.osexp","C:/Users/yasmi/Documents","no","Andale Mono","no","18","no","white","no","yes","576","legacy","55","55","3","C:/Users/yasmi/Documents/subject-5207464.2.csv","legacy","Lentiform Loewenfeld","3.3.7","yes","yes","600bd7cfb6416f0113b04181","602110864497cf011d9c0822","0","f","NA","space","space","space","space","f","468","NA","3927","9599","5036","44555","468","2","legacy","1024","2","48000","-16","task","5207464","even","NA","30755","36687","32759","198327","4607","19249","14212","198831","143941","198322","198831","198123","36686","199300","28727","197623","4600","136272","Lexical Decision Task","53","51150","60","yes","1024"
"2.714888338","0","3","brug","non-word","88.52459016393442","88.52459016393442","851.1475409836065","851.1475409836065","black","no","legacy","legacy","legacy","0","uniform","1","undefined","undefined","undefined","1","f","0","0","0","0","60","0","0","0","60","0","56","60","56","0","56","3","60","0","60","Thu Feb 18 19:01:37 2021","The main experiment item","yes","Lexical_Decision_Task.osexp","C:/Users/yasmi/Documents","no","Andale Mono","no","18","no","white","no","yes","576","legacy","56","56","3","C:/Users/yasmi/Documents/subject-5207464.2.csv","legacy","Lentiform Loewenfeld","3.3.7","yes","yes","600bd7cfb6416f0113b04181","602110864497cf011d9c0822","0","f","NA","space","space","space","space","f","770","NA","3927","9599","5036","44555","770","2","legacy","1024","2","48000","-16","task","5207464","even","NA","30755","36687","32759","199995","4607","19249","14212","200498","143941","199991","200499","199825","36686","201271","28727","199324","4600","136272","Lexical Decision Task","54","51920","61","yes","1024"
"3.374137706","10.21","4","tree","word","88.70967741935483","88.70967741935483","845.6612903225806","845.6612903225806","black","no","legacy","legacy","legacy","0","uniform","1","undefined","undefined","undefined","1","j","0","0","0","0","61","0","0","0","61","0","57","61","57","0","57","3","61","0","61","Thu Feb 18 19:01:37 2021","The main experiment item","yes","Lexical_Decision_Task.osexp","C:/Users/yasmi/Documents","no","Andale Mono","no","18","no","white","no","yes","576","legacy","57","57","3","C:/Users/yasmi/Documents/subject-5207464.2.csv","legacy","Lentiform Loewenfeld","3.3.7","yes","yes","600bd7cfb6416f0113b04181","602110864497cf011d9c0822","0","j","NA","space","space","space","space","j","511","NA","3927","9599","5036","44555","511","2","legacy","1024","2","48000","-16","task","5207464","even","NA","30755","36687","32759","201958","4607","19249","14212","202462","143941","201954","202462","201803","36686","202975","28727","201303","4600","136272","Lexical Decision Task","55","52431","62","yes","1024"
"3.252447662","9.67","9","boat","word","88.88888888888889","88.88888888888889","842.6349206349206","842.6349206349206","black","no","legacy","legacy","legacy","0","uniform","1","undefined","undefined","undefined","1","j","0","0","0","0","62","0","0","0","62","0","58","62","58","0","58","3","62","0","62","Thu Feb 18 19:01:37 2021","The main experiment item","yes","Lexical_Decision_Task.osexp","C:/Users/yasmi/Documents","no","Andale Mono","no","18","no","white","no","yes","576","legacy","58","58","3","C:/Users/yasmi/Documents/subject-5207464.2.csv","legacy","Lentiform Loewenfeld","3.3.7","yes","yes","600bd7cfb6416f0113b04181","602110864497cf011d9c0822","0","j","NA","space","space","space","space","j","655","NA","3927","9599","5036","44555","655","2","legacy","1024","2","48000","-16","task","5207464","even","NA","30755","36687","32759","203652","4607","19249","14212","204157","143941","203648","204157","203500","36686","204813","28727","202999","4600","136272","Lexical Decision Task","56","53086","63","yes","1024"
"2.778633532","0","3","jurp","non-word","89.0625","89.0625","839.265625","839.265625","black","no","legacy","legacy","legacy","0","uniform","1","undefined","undefined","undefined","1","f","0","0","0","0","63","0","0","0","63","0","59","63","59","0","59","3","63","0","63","Thu Feb 18 19:01:37 2021","The main experiment item","yes","Lexical_Decision_Task.osexp","C:/Users/yasmi/Documents","no","Andale Mono","no","18","no","white","no","yes","576","legacy","59","59","3","C:/Users/yasmi/Documents/subject-5207464.2.csv","legacy","Lentiform Loewenfeld","3.3.7","yes","yes","600bd7cfb6416f0113b04181","602110864497cf011d9c0822","0","f","NA","space","space","space","space","f","627","NA","3927","9599","5036","44555","627","2","legacy","1024","2","48000","-16","task","5207464","even","NA","30755","36687","32759","205500","4607","19249","14212","206005","143941","205496","206005","205338","36686","206633","28727","204838","4600","136272","Lexical Decision Task","57","53713","64","yes","1024"
"3.276537627","9.15","5","trap","word","89.23076923076923","89.23076923076923","833.8153846153846","833.8153846153846","black","no","legacy","legacy","legacy","0","uniform","1","undefined","undefined","undefined","1","j","0","0","0","0","64","0","0","0","64","0","60","64","60","0","60","3","64","0","64","Thu Feb 18 19:01:37 2021","The main experiment item","yes","Lexical_Decision_Task.osexp","C:/Users/yasmi/Documents","no","Andale Mono","no","18","no","white","no","yes","576","legacy","60","60","3","C:/Users/yasmi/Documents/subject-5207464.2.csv","legacy","Lentiform Loewenfeld","3.3.7","yes","yes","600bd7cfb6416f0113b04181","602110864497cf011d9c0822","0","j","NA","space","space","space","space","j","485","NA","3927","9599","5036","44555","485","2","legacy","1024","2","48000","-16","task","5207464","even","NA","30755","36687","32759","207296","4607","19249","14212","207801","143941","207293","207801","207143","36686","208288","28727","206643","4600","136272","Lexical Decision Task","58","54198","65","yes","1024"
"3.105055783","0","2","norp","non-word","89.39393939393939","89.39393939393939","834.4545454545455","834.4545454545455","black","no","legacy","legacy","legacy","0","uniform","1","undefined","undefined","undefined","1","f","0","0","0","0","65","0","0","0","65","0","61","65","61","0","61","3","65","0","65","Thu Feb 18 19:01:37 2021","The main experiment item","yes","Lexical_Decision_Task.osexp","C:/Users/yasmi/Documents","no","Andale Mono","no","18","no","white","no","yes","576","legacy","61","61","3","C:/Users/yasmi/Documents/subject-5207464.2.csv","legacy","Lentiform Loewenfeld","3.3.7","yes","yes","600bd7cfb6416f0113b04181","602110864497cf011d9c0822","0","f","NA","space","space","space","space","f","876","NA","3927","9599","5036","44555","876","2","legacy","1024","2","48000","-16","task","5207464","even","NA","30755","36687","32759","208974","4607","19249","14212","209480","143941","208971","209480","208813","36686","210358","28727","208313","4600","136272","Lexical Decision Task","59","55074","66","yes","1024"
"2.719886232","7.98","2","quiz","word","89.55223880597015","89.55223880597015","831.5820895522388","831.5820895522388","black","no","legacy","legacy","legacy","0","uniform","1","undefined","undefined","undefined","1","j","0","0","0","0","66","0","0","0","66","0","62","66","62","0","62","3","66","0","66","Thu Feb 18 19:01:37 2021","The main experiment item","yes","Lexical_Decision_Task.osexp","C:/Users/yasmi/Documents","no","Andale Mono","no","18","no","white","no","yes","576","legacy","62","62","3","C:/Users/yasmi/Documents/subject-5207464.2.csv","legacy","Lentiform Loewenfeld","3.3.7","yes","yes","600bd7cfb6416f0113b04181","602110864497cf011d9c0822","0","j","NA","space","space","space","space","j","642","NA","3927","9599","5036","44555","642","2","legacy","1024","2","48000","-16","task","5207464","even","NA","30755","36687","32759","211043","4607","19249","14212","211548","143941","211039","211548","210883","36686","212192","28727","210383","4600","136272","Lexical Decision Task","60","55716","67","yes","1024"
"3.363486562","6.93","9","lush","word","89.70588235294117","89.70588235294117","827.6911764705883","827.6911764705883","black","no","legacy","legacy","legacy","0","uniform","1","undefined","undefined","undefined","1","j","0","0","0","0","67","0","0","0","67","0","63","67","63","0","63","3","67","0","67","Thu Feb 18 19:01:37 2021","The main experiment item","yes","Lexical_Decision_Task.osexp","C:/Users/yasmi/Documents","no","Andale Mono","no","18","no","white","no","yes","576","legacy","63","63","3","C:/Users/yasmi/Documents/subject-5207464.2.csv","legacy","Lentiform Loewenfeld","3.3.7","yes","yes","600bd7cfb6416f0113b04181","602110864497cf011d9c0822","0","j","NA","space","space","space","space","j","567","NA","3927","9599","5036","44555","567","2","legacy","1024","2","48000","-16","task","5207464","even","NA","30755","36687","32759","212871","4607","19249","14212","213375","143941","212867","213376","212717","36686","213945","28727","212217","4600","136272","Lexical Decision Task","61","56283","68","yes","1024"
"2.996511672","0","7","hoil","non-word","88.40579710144928","88.40579710144928","828.1594202898551","828.1594202898551","black","no","legacy","legacy","legacy","0","uniform","0","undefined","undefined","undefined","0","f","0","0","0","0","68","0","0","0","68","0","64","68","64","0","64","3","68","0","68","Thu Feb 18 19:01:37 2021","The main experiment item","yes","Lexical_Decision_Task.osexp","C:/Users/yasmi/Documents","no","Andale Mono","no","18","no","white","no","yes","576","legacy","64","64","3","C:/Users/yasmi/Documents/subject-5207464.2.csv","legacy","Lentiform Loewenfeld","3.3.7","yes","yes","600bd7cfb6416f0113b04181","602110864497cf011d9c0822","0","j","NA","space","space","space","space","j","860","NA","3927","9599","5036","44555","860","2","legacy","1024","2","48000","-16","task","5207464","even","NA","30755","36687","32759","214633","4607","19249","14212","215139","143941","214630","215139","214470","36686","216001","28727","213970","4600","136272","Lexical Decision Task","61","57143","69","yes","1024"
"2.980306438","0","7","slun","non-word","88.57142857142857","88.57142857142857","825.4142857142857","825.4142857142857","black","no","legacy","legacy","legacy","0","uniform","1","undefined","undefined","undefined","1","f","0","0","0","0","69","0","0","0","69","0","65","69","65","0","65","3","69","0","69","Thu Feb 18 19:01:37 2021","The main experiment item","yes","Lexical_Decision_Task.osexp","C:/Users/yasmi/Documents","no","Andale Mono","no","18","no","white","no","yes","576","legacy","65","65","3","C:/Users/yasmi/Documents/subject-5207464.2.csv","legacy","Lentiform Loewenfeld","3.3.7","yes","yes","600bd7cfb6416f0113b04181","602110864497cf011d9c0822","0","f","NA","space","space","space","space","f","636","NA","3927","9599","5036","44555","636","2","legacy","1024","2","48000","-16","task","5207464","even","NA","30755","36687","32759","217681","4607","19249","14212","218185","143941","217677","218185","217526","36686","218823","28727","213970","4600","216026","Lexical Decision Task","62","57779","70","yes","1024"
"3.028977705","0","7","frow","non-word","88.73239436619718","88.73239436619718","825.6619718309859","825.6619718309859","black","no","legacy","legacy","legacy","0","uniform","1","undefined","undefined","undefined","1","f","0","0","0","0","70","0","0","0","70","0","66","70","66","0","66","3","70","0","70","Thu Feb 18 19:01:37 2021","The main experiment item","yes","Lexical_Decision_Task.osexp","C:/Users/yasmi/Documents","no","Andale Mono","no","18","no","white","no","yes","576","legacy","66","66","3","C:/Users/yasmi/Documents/subject-5207464.2.csv","legacy","Lentiform Loewenfeld","3.3.7","yes","yes","600bd7cfb6416f0113b04181","602110864497cf011d9c0822","0","f","NA","space","space","space","space","f","843","NA","3927","9599","5036","44555","843","2","legacy","1024","2","48000","-16","task","5207464","even","NA","30755","36687","32759","219550","4607","19249","14212","220054","143941","219544","220054","219349","36686","220899","28727","218848","4600","216026","Lexical Decision Task","63","58622","71","yes","1024"
"3.368162872","0","4","ferk","non-word","88.88888888888889","88.88888888888889","822.4027777777778","822.4027777777778","black","no","legacy","legacy","legacy","0","uniform","1","undefined","undefined","undefined","1","f","0","0","0","0","71","0","0","0","71","0","67","71","67","0","67","3","71","0","71","Thu Feb 18 19:01:37 2021","The main experiment item","yes","Lexical_Decision_Task.osexp","C:/Users/yasmi/Documents","no","Andale Mono","no","18","no","white","no","yes","576","legacy","67","67","3","C:/Users/yasmi/Documents/subject-5207464.2.csv","legacy","Lentiform Loewenfeld","3.3.7","yes","yes","600bd7cfb6416f0113b04181","602110864497cf011d9c0822","0","f","NA","space","space","space","space","f","591","NA","3927","9599","5036","44555","591","2","legacy","1024","2","48000","-16","task","5207464","even","NA","30755","36687","32759","221579","4607","19249","14212","222085","143941","221576","222085","221424","36686","222678","28727","220923","4600","216026","Lexical Decision Task","64","59213","72","yes","1024"
"2.897810299","0","5","glur","non-word","89.04109589041096","89.04109589041096","824.7534246575342","824.7534246575342","black","no","legacy","legacy","legacy","0","uniform","1","undefined","undefined","undefined","1","f","0","0","0","0","72","0","0","0","72","0","68","72","68","0","68","3","72","0","72","Thu Feb 18 19:01:37 2021","The main experiment item","yes","Lexical_Decision_Task.osexp","C:/Users/yasmi/Documents","no","Andale Mono","no","18","no","white","no","yes","576","legacy","68","68","3","C:/Users/yasmi/Documents/subject-5207464.2.csv","legacy","Lentiform Loewenfeld","3.3.7","yes","yes","600bd7cfb6416f0113b04181","602110864497cf011d9c0822","0","f","NA","space","space","space","space","f","994","NA","3927","9599","5036","44555","994","2","legacy","1024","2","48000","-16","task","5207464","even","NA","30755","36687","32759","223356","4607","19249","14212","223861","143941","223352","223861","223202","36686","224857","28727","222702","4600","216026","Lexical Decision Task","65","60207","73","yes","1024"
"3.22685757","9.99","7","roll","word","89.1891891891892","89.1891891891892","822.8108108108108","822.8108108108108","black","no","legacy","legacy","legacy","0","uniform","1","undefined","undefined","undefined","1","j","0","0","0","0","73","0","0","0","73","0","69","73","69","0","69","3","73","0","73","Thu Feb 18 19:01:37 2021","The main experiment item","yes","Lexical_Decision_Task.osexp","C:/Users/yasmi/Documents","no","Andale Mono","no","18","no","white","no","yes","576","legacy","69","69","3","C:/Users/yasmi/Documents/subject-5207464.2.csv","legacy","Lentiform Loewenfeld","3.3.7","yes","yes","600bd7cfb6416f0113b04181","602110864497cf011d9c0822","0","j","NA","space","space","space","space","j","681","NA","3927","9599","5036","44555","681","2","legacy","1024","2","48000","-16","task","5207464","even","NA","30755","36687","32759","225541","4607","19249","14212","226045","143941","225537","226045","225383","36686","226729","28727","224882","4600","216026","Lexical Decision Task","66","60888","74","yes","1024"
"2.771097306","0","9","jold","non-word","89.33333333333333","89.33333333333333","825.1333333333333","825.1333333333333","black","no","legacy","legacy","legacy","0","uniform","1","undefined","undefined","undefined","1","f","0","0","0","0","74","0","0","0","74","0","70","74","70","0","70","3","74","0","74","Thu Feb 18 19:01:37 2021","The main experiment item","yes","Lexical_Decision_Task.osexp","C:/Users/yasmi/Documents","no","Andale Mono","no","18","no","white","no","yes","576","legacy","70","70","3","C:/Users/yasmi/Documents/subject-5207464.2.csv","legacy","Lentiform Loewenfeld","3.3.7","yes","yes","600bd7cfb6416f0113b04181","602110864497cf011d9c0822","0","f","NA","space","space","space","space","f","997","NA","3927","9599","5036","44555","997","2","legacy","1024","2","48000","-16","task","5207464","even","NA","30755","36687","32759","227397","4607","19249","14212","227901","143941","227393","227902","227242","36686","228901","28727","226741","4600","216026","Lexical Decision Task","67","61885","75","yes","1024"
"3.366547468","0","6","plat","non-word","88.15789473684211","88.15789473684211","827.0394736842105","827.0394736842105","black","no","legacy","legacy","legacy","0","uniform","0","undefined","undefined","undefined","0","f","0","0","0","0","75","0","0","0","75","0","71","75","71","0","71","3","75","0","75","Thu Feb 18 19:01:37 2021","The main experiment item","yes","Lexical_Decision_Task.osexp","C:/Users/yasmi/Documents","no","Andale Mono","no","18","no","white","no","yes","576","legacy","71","71","3","C:/Users/yasmi/Documents/subject-5207464.2.csv","legacy","Lentiform Loewenfeld","3.3.7","yes","yes","600bd7cfb6416f0113b04181","602110864497cf011d9c0822","0","j","NA","space","space","space","space","j","970","NA","3927","9599","5036","44555","970","2","legacy","1024","2","48000","-16","task","5207464","even","NA","30755","36687","32759","229625","4607","19249","14212","230130","143941","229620","230130","229426","36686","231102","28727","228926","4600","216026","Lexical Decision Task","67","62855","76","yes","1024"
"3.382617311","0","4","pret","non-word","87.01298701298701","87.01298701298701","829.2337662337662","829.2337662337662","black","no","legacy","legacy","legacy","0","uniform","0","undefined","undefined","undefined","0","f","0","0","0","0","76","0","0","0","76","0","72","76","72","0","72","3","76","0","76","Thu Feb 18 19:01:37 2021","The main experiment item","yes","Lexical_Decision_Task.osexp","C:/Users/yasmi/Documents","no","Andale Mono","no","18","no","white","no","yes","576","legacy","72","72","3","C:/Users/yasmi/Documents/subject-5207464.2.csv","legacy","Lentiform Loewenfeld","3.3.7","yes","yes","600bd7cfb6416f0113b04181","602110864497cf011d9c0822","0","j","NA","space","space","space","space","j","996","NA","3927","9599","5036","44555","996","2","legacy","1024","2","48000","-16","task","5207464","even","NA","30755","36687","32759","232782","4607","19249","14212","233286","143941","232778","233286","232627","36686","234284","28727","228926","4600","231127","Lexical Decision Task","67","63851","77","yes","1024"
"3.062080345","0","6","tomp","non-word","87.17948717948718","87.17948717948718","826.9358974358975","826.9358974358975","black","no","legacy","legacy","legacy","0","uniform","1","undefined","undefined","undefined","1","f","0","0","0","0","77","0","0","0","77","0","73","77","73","0","73","3","77","0","77","Thu Feb 18 19:01:37 2021","The main experiment item","yes","Lexical_Decision_Task.osexp","C:/Users/yasmi/Documents","no","Andale Mono","no","18","no","white","no","yes","576","legacy","73","73","3","C:/Users/yasmi/Documents/subject-5207464.2.csv","legacy","Lentiform Loewenfeld","3.3.7","yes","yes","600bd7cfb6416f0113b04181","602110864497cf011d9c0822","0","f","NA","space","space","space","space","f","650","NA","3927","9599","5036","44555","650","2","legacy","1024","2","48000","-16","task","5207464","even","NA","30755","36687","32759","235972","4607","19249","14212","236476","143941","235968","236476","235809","36686","237128","28727","228926","4600","234309","Lexical Decision Task","68","64501","78","yes","1024"
"3.216517684","10.87","3","film","word","87.34177215189874","87.34177215189874","829.0506329113924","829.0506329113924","black","no","legacy","legacy","legacy","0","uniform","1","undefined","undefined","undefined","1","j","0","0","0","0","78","0","0","0","78","0","74","78","74","0","74","3","78","0","78","Thu Feb 18 19:01:37 2021","The main experiment item","yes","Lexical_Decision_Task.osexp","C:/Users/yasmi/Documents","no","Andale Mono","no","18","no","white","no","yes","576","legacy","74","74","3","C:/Users/yasmi/Documents/subject-5207464.2.csv","legacy","Lentiform Loewenfeld","3.3.7","yes","yes","600bd7cfb6416f0113b04181","602110864497cf011d9c0822","0","j","NA","space","space","space","space","j","994","NA","3927","9599","5036","44555","994","2","legacy","1024","2","48000","-16","task","5207464","even","NA","30755","36687","32759","237807","4607","19249","14212","238311","143941","237803","238311","237653","36686","239307","28727","237152","4600","234309","Lexical Decision Task","69","65495","79","yes","1024"
"2.807758206","6.25","4","hurl","word","87.5","87.5","832.1","832.1","black","no","legacy","legacy","legacy","0","uniform","1","undefined","undefined","undefined","1","j","0","0","0","0","79","0","0","0","79","0","75","79","75","0","75","3","79","0","79","Thu Feb 18 19:01:37 2021","The main experiment item","yes","Lexical_Decision_Task.osexp","C:/Users/yasmi/Documents","no","Andale Mono","no","18","no","white","no","yes","576","legacy","75","75","3","C:/Users/yasmi/Documents/subject-5207464.2.csv","legacy","Lentiform Loewenfeld","3.3.7","yes","yes","600bd7cfb6416f0113b04181","602110864497cf011d9c0822","0","j","NA","space","space","space","space","j","1073","NA","3927","9599","5036","44555","1073","2","legacy","1024","2","48000","-16","task","5207464","even","NA","30755","36687","32759","240033","4607","19249","14212","240537","143941","240028","240537","239832","36686","241612","28727","239331","4600","234309","Lexical Decision Task","70","66568","80","yes","1024"
"2.981215883","10.66","5","hair","word","87.65432098765432","87.65432098765432","828.3827160493827","828.3827160493827","black","no","legacy","legacy","legacy","0","uniform","1","undefined","undefined","undefined","1","j","0","0","0","0","80","0","0","0","80","0","76","80","76","0","76","3","80","0","80","Thu Feb 18 19:01:37 2021","The main experiment item","yes","Lexical_Decision_Task.osexp","C:/Users/yasmi/Documents","no","Andale Mono","no","18","no","white","no","yes","576","legacy","76","76","3","C:/Users/yasmi/Documents/subject-5207464.2.csv","legacy","Lentiform Loewenfeld","3.3.7","yes","yes","600bd7cfb6416f0113b04181","602110864497cf011d9c0822","0","j","NA","space","space","space","space","j","531","NA","3927","9599","5036","44555","531","2","legacy","1024","2","48000","-16","task","5207464","even","NA","30755","36687","32759","242274","4607","19249","14212","242779","143941","242270","242779","242121","36686","243312","28727","241621","4600","234309","Lexical Decision Task","71","67099","81","yes","1024"
"3.218535505","7.85","7","goat","word","87.8048780487805","87.8048780487805","824.3658536585366","824.3658536585366","black","no","legacy","legacy","legacy","0","uniform","1","undefined","undefined","undefined","1","j","0","0","0","0","81","0","0","0","81","0","77","81","77","0","77","3","81","0","81","Thu Feb 18 19:01:37 2021","The main experiment item","yes","Lexical_Decision_Task.osexp","C:/Users/yasmi/Documents","no","Andale Mono","no","18","no","white","no","yes","576","legacy","77","77","3","C:/Users/yasmi/Documents/subject-5207464.2.csv","legacy","Lentiform Loewenfeld","3.3.7","yes","yes","600bd7cfb6416f0113b04181","602110864497cf011d9c0822","0","j","NA","space","space","space","space","j","499","NA","3927","9599","5036","44555","499","2","legacy","1024","2","48000","-16","task","5207464","even","NA","30755","36687","32759","243994","4607","19249","14212","244499","143941","243990","244499","243836","36686","245001","28727","243336","4600","234309","Lexical Decision Task","72","67598","82","yes","1024"
"3.159867847","5.98","5","brim","word","86.74698795180723","86.74698795180723","823.3614457831326","823.3614457831326","black","no","legacy","legacy","legacy","0","uniform","0","undefined","undefined","undefined","0","j","0","0","0","0","82","0","0","0","82","0","78","82","78","0","78","3","82","0","82","Thu Feb 18 19:01:37 2021","The main experiment item","yes","Lexical_Decision_Task.osexp","C:/Users/yasmi/Documents","no","Andale Mono","no","18","no","white","no","yes","576","legacy","78","78","3","C:/Users/yasmi/Documents/subject-5207464.2.csv","legacy","Lentiform Loewenfeld","3.3.7","yes","yes","600bd7cfb6416f0113b04181","602110864497cf011d9c0822","0","f","NA","space","space","space","space","f","741","NA","3927","9599","5036","44555","741","2","legacy","1024","2","48000","-16","task","5207464","even","NA","30755","36687","32759","245680","4607","19249","14212","246185","143941","245675","246185","245528","36686","246928","28727","245028","4600","234309","Lexical Decision Task","72","68339","83","yes","1024"
"3.010582609","0","2","drod","non-word","86.9047619047619","86.9047619047619","823.2380952380952","823.2380952380952","black","no","legacy","legacy","legacy","0","uniform","1","undefined","undefined","undefined","1","f","0","0","0","0","83","0","0","0","83","0","79","83","79","0","79","3","83","0","83","Thu Feb 18 19:01:37 2021","The main experiment item","yes","Lexical_Decision_Task.osexp","C:/Users/yasmi/Documents","no","Andale Mono","no","18","no","white","no","yes","576","legacy","79","79","3","C:/Users/yasmi/Documents/subject-5207464.2.csv","legacy","Lentiform Loewenfeld","3.3.7","yes","yes","600bd7cfb6416f0113b04181","602110864497cf011d9c0822","0","f","NA","space","space","space","space","f","813","NA","3927","9599","5036","44555","813","2","legacy","1024","2","48000","-16","task","5207464","even","NA","30755","36687","32759","248598","4607","19249","14212","249102","143941","248593","249102","248438","36686","249917","28727","245028","4600","246938","Lexical Decision Task","73","69152","84","yes","1024"
"2.980911938","7.15","7","hoop","word","87.05882352941177","87.05882352941177","823.1647058823529","823.1647058823529","black","no","legacy","legacy","legacy","0","uniform","1","undefined","undefined","undefined","1","j","0","0","0","0","84","0","0","0","84","0","80","84","80","0","80","3","84","0","84","Thu Feb 18 19:01:37 2021","The main experiment item","yes","Lexical_Decision_Task.osexp","C:/Users/yasmi/Documents","no","Andale Mono","no","18","no","white","no","yes","576","legacy","80","80","3","C:/Users/yasmi/Documents/subject-5207464.2.csv","legacy","Lentiform Loewenfeld","3.3.7","yes","yes","600bd7cfb6416f0113b04181","602110864497cf011d9c0822","0","j","NA","space","space","space","space","j","817","NA","3927","9599","5036","44555","817","2","legacy","1024","2","48000","-16","task","5207464","even","NA","30755","36687","32759","250594","4607","19249","14212","251098","143941","250590","251098","250442","36686","251917","28727","249942","4600","246938","Lexical Decision Task","74","69969","85","yes","1024"
"2.67699827","0","6","hulf","non-word","86.04651162790698","86.04651162790698","820.4418604651163","820.4418604651163","black","no","legacy","legacy","legacy","0","uniform","0","undefined","undefined","undefined","0","f","0","0","0","0","85","0","0","0","85","0","81","85","81","0","81","3","85","0","85","Thu Feb 18 19:01:37 2021","The main experiment item","yes","Lexical_Decision_Task.osexp","C:/Users/yasmi/Documents","no","Andale Mono","no","18","no","white","no","yes","576","legacy","81","81","3","C:/Users/yasmi/Documents/subject-5207464.2.csv","legacy","Lentiform Loewenfeld","3.3.7","yes","yes","600bd7cfb6416f0113b04181","602110864497cf011d9c0822","0","j","NA","space","space","space","space","j","589","NA","3927","9599","5036","44555","589","2","legacy","1024","2","48000","-16","task","5207464","even","NA","30755","36687","32759","252595","4607","19249","14212","253100","143941","252591","253100","252442","36686","253691","28727","251942","4600","246938","Lexical Decision Task","74","70558","86","yes","1024"
"2.728085817","10.02","9","bike","word","86.20689655172414","86.20689655172414","818.0574712643678","818.0574712643678","black","no","legacy","legacy","legacy","0","uniform","1","undefined","undefined","undefined","1","j","0","0","0","0","86","0","0","0","86","0","82","86","82","0","82","3","86","0","86","Thu Feb 18 19:01:37 2021","The main experiment item","yes","Lexical_Decision_Task.osexp","C:/Users/yasmi/Documents","no","Andale Mono","no","18","no","white","no","yes","576","legacy","82","82","3","C:/Users/yasmi/Documents/subject-5207464.2.csv","legacy","Lentiform Loewenfeld","3.3.7","yes","yes","600bd7cfb6416f0113b04181","602110864497cf011d9c0822","0","j","NA","space","space","space","space","j","613","NA","3927","9599","5036","44555","613","2","legacy","1024","2","48000","-16","task","5207464","even","NA","30755","36687","32759","255373","4607","19249","14212","255877","143941","255368","255879","255216","36686","256494","28727","251942","4600","253716","Lexical Decision Task","75","71171","87","yes","1024"
"2.884795364","0","6","flob","non-word","86.36363636363636","86.36363636363636","818.5454545454545","818.5454545454545","black","no","legacy","legacy","legacy","0","uniform","1","undefined","undefined","undefined","1","f","0","0","0","0","87","0","0","0","87","0","83","87","83","0","83","3","87","0","87","Thu Feb 18 19:01:37 2021","The main experiment item","yes","Lexical_Decision_Task.osexp","C:/Users/yasmi/Documents","no","Andale Mono","no","18","no","white","no","yes","576","legacy","83","83","3","C:/Users/yasmi/Documents/subject-5207464.2.csv","legacy","Lentiform Loewenfeld","3.3.7","yes","yes","600bd7cfb6416f0113b04181","602110864497cf011d9c0822","0","f","NA","space","space","space","space","f","861","NA","3927","9599","5036","44555","861","2","legacy","1024","2","48000","-16","task","5207464","even","NA","30755","36687","32759","257221","4607","19249","14212","257726","143941","257215","257726","257018","36686","258589","28727","256518","4600","253716","Lexical Decision Task","76","72032","88","yes","1024"
"3.20871002","7.15","8","cram","word","86.51685393258427","86.51685393258427","815.5730337078652","815.5730337078652","black","no","legacy","legacy","legacy","0","uniform","1","undefined","undefined","undefined","1","j","0","0","0","0","88","0","0","0","88","0","84","88","84","0","84","3","88","0","88","Thu Feb 18 19:01:37 2021","The main experiment item","yes","Lexical_Decision_Task.osexp","C:/Users/yasmi/Documents","no","Andale Mono","no","18","no","white","no","yes","576","legacy","84","84","3","C:/Users/yasmi/Documents/subject-5207464.2.csv","legacy","Lentiform Loewenfeld","3.3.7","yes","yes","600bd7cfb6416f0113b04181","602110864497cf011d9c0822","0","j","NA","space","space","space","space","j","554","NA","3927","9599","5036","44555","554","2","legacy","1024","2","48000","-16","task","5207464","even","NA","30755","36687","32759","259270","4607","19249","14212","259775","143941","259266","259775","259114","36686","260331","28727","258614","4600","253716","Lexical Decision Task","77","72586","89","yes","1024"
"2.839898939","8.99","6","soap","word","85.55555555555556","85.55555555555556","812.7777777777778","812.7777777777778","black","no","legacy","legacy","legacy","0","uniform","0","undefined","undefined","undefined","0","j","0","0","0","0","89","0","0","0","89","0","85","89","85","0","85","3","89","0","89","Thu Feb 18 19:01:37 2021","The main experiment item","yes","Lexical_Decision_Task.osexp","C:/Users/yasmi/Documents","no","Andale Mono","no","18","no","white","no","yes","576","legacy","85","85","3","C:/Users/yasmi/Documents/subject-5207464.2.csv","legacy","Lentiform Loewenfeld","3.3.7","yes","yes","600bd7cfb6416f0113b04181","602110864497cf011d9c0822","0","f","NA","space","space","space","space","f","564","NA","3927","9599","5036","44555","564","2","legacy","1024","2","48000","-16","task","5207464","even","NA","30755","36687","32759","261015","4607","19249","14212","261520","143941","261010","261520","260856","36686","262086","28727","260356","4600","253716","Lexical Decision Task","77","73150","90","yes","1024"
"3.120135028","0","3","vals","non-word","85.71428571428571","85.71428571428571","811.7252747252747","811.7252747252747","black","no","legacy","legacy","legacy","0","uniform","1","undefined","undefined","undefined","1","f","0","0","0","0","90","0","0","0","90","0","86","90","86","0","86","3","90","0","90","Thu Feb 18 19:01:37 2021","The main experiment item","yes","Lexical_Decision_Task.osexp","C:/Users/yasmi/Documents","no","Andale Mono","no","18","no","white","no","yes","576","legacy","86","86","3","C:/Users/yasmi/Documents/subject-5207464.2.csv","legacy","Lentiform Loewenfeld","3.3.7","yes","yes","600bd7cfb6416f0113b04181","602110864497cf011d9c0822","0","f","NA","space","space","space","space","f","717","NA","3927","9599","5036","44555","717","2","legacy","1024","2","48000","-16","task","5207464","even","NA","30755","36687","32759","263768","4607","19249","14212","264272","143941","263763","264272","263611","36686","264992","28727","260356","4600","262111","Lexical Decision Task","78","73867","91","yes","1024"
"3.529815197","0","3","lerm","non-word","85.8695652173913","85.8695652173913","813.0108695652174","813.0108695652174","black","no","legacy","legacy","legacy","0","uniform","1","undefined","undefined","undefined","1","f","0","0","0","0","91","0","0","0","91","0","87","91","87","0","87","3","91","0","91","Thu Feb 18 19:01:37 2021","The main experiment item","yes","Lexical_Decision_Task.osexp","C:/Users/yasmi/Documents","no","Andale Mono","no","18","no","white","no","yes","576","legacy","87","87","3","C:/Users/yasmi/Documents/subject-5207464.2.csv","legacy","Lentiform Loewenfeld","3.3.7","yes","yes","600bd7cfb6416f0113b04181","602110864497cf011d9c0822","0","f","NA","space","space","space","space","f","930","NA","3927","9599","5036","44555","930","2","legacy","1024","2","48000","-16","task","5207464","even","NA","30755","36687","32759","265670","4607","19249","14212","266175","143941","265666","266175","265516","36686","267107","28727","265016","4600","262111","Lexical Decision Task","79","74797","92","yes","1024"
"3.378276681","6.39","8","bran","word","86.02150537634408","86.02150537634408","813.763440860215","813.763440860215","black","no","legacy","legacy","legacy","0","uniform","1","undefined","undefined","undefined","1","j","0","0","0","0","92","0","0","0","92","0","88","92","88","0","88","3","92","0","92","Thu Feb 18 19:01:37 2021","The main experiment item","yes","Lexical_Decision_Task.osexp","C:/Users/yasmi/Documents","no","Andale Mono","no","18","no","white","no","yes","576","legacy","88","88","3","C:/Users/yasmi/Documents/subject-5207464.2.csv","legacy","Lentiform Loewenfeld","3.3.7","yes","yes","600bd7cfb6416f0113b04181","602110864497cf011d9c0822","0","j","NA","space","space","space","space","j","883","NA","3927","9599","5036","44555","883","2","legacy","1024","2","48000","-16","task","5207464","even","NA","30755","36687","32759","267787","4607","19249","14212","268292","143941","267784","268292","267631","36686","269177","28727","267131","4600","262111","Lexical Decision Task","80","75680","93","yes","1024"
"2.695481676","0","7","goke","non-word","86.17021276595744","86.17021276595744","812.1489361702128","812.1489361702128","black","no","legacy","legacy","legacy","0","uniform","1","undefined","undefined","undefined","1","f","0","0","0","0","93","0","0","0","93","0","89","93","89","0","89","3","93","0","93","Thu Feb 18 19:01:37 2021","The main experiment item","yes","Lexical_Decision_Task.osexp","C:/Users/yasmi/Documents","no","Andale Mono","no","18","no","white","no","yes","576","legacy","89","89","3","C:/Users/yasmi/Documents/subject-5207464.2.csv","legacy","Lentiform Loewenfeld","3.3.7","yes","yes","600bd7cfb6416f0113b04181","602110864497cf011d9c0822","0","f","NA","space","space","space","space","f","662","NA","3927","9599","5036","44555","662","2","legacy","1024","2","48000","-16","task","5207464","even","NA","30755","36687","32759","269904","4607","19249","14212","270409","143941","269898","270409","269702","36686","271074","28727","269201","4600","262111","Lexical Decision Task","81","76342","94","yes","1024"
"3.195807436","0","6","stup","non-word","86.3157894736842","86.3157894736842","812.8736842105263","812.8736842105263","black","no","legacy","legacy","legacy","0","uniform","1","undefined","undefined","undefined","1","f","0","0","0","0","94","0","0","0","94","0","90","94","90","0","90","3","94","0","94","Thu Feb 18 19:01:37 2021","The main experiment item","yes","Lexical_Decision_Task.osexp","C:/Users/yasmi/Documents","no","Andale Mono","no","18","no","white","no","yes","576","legacy","90","90","3","C:/Users/yasmi/Documents/subject-5207464.2.csv","legacy","Lentiform Loewenfeld","3.3.7","yes","yes","600bd7cfb6416f0113b04181","602110864497cf011d9c0822","0","f","NA","space","space","space","space","f","881","NA","3927","9599","5036","44555","881","2","legacy","1024","2","48000","-16","task","5207464","even","NA","30755","36687","32759","271751","4607","19249","14212","272255","143941","271747","272255","271599","36686","273139","28727","271099","4600","262111","Lexical Decision Task","82","77223","95","yes","1024"
"2.899092422","7.27","6","snag","word","86.45833333333333","86.45833333333333","812.6458333333334","812.6458333333334","black","no","legacy","legacy","legacy","0","uniform","1","undefined","undefined","undefined","1","j","0","0","0","0","95","0","0","0","95","0","91","95","91","0","91","3","95","0","95","Thu Feb 18 19:01:37 2021","The main experiment item","yes","Lexical_Decision_Task.osexp","C:/Users/yasmi/Documents","no","Andale Mono","no","18","no","white","no","yes","576","legacy","91","91","3","C:/Users/yasmi/Documents/subject-5207464.2.csv","legacy","Lentiform Loewenfeld","3.3.7","yes","yes","600bd7cfb6416f0113b04181","602110864497cf011d9c0822","0","j","NA","space","space","space","space","j","791","NA","3927","9599","5036","44555","791","2","legacy","1024","2","48000","-16","task","5207464","even","NA","30755","36687","32759","273850","4607","19249","14212","274355","143941","273844","274356","273649","36686","275150","28727","273149","4600","262111","Lexical Decision Task","83","78014","96","yes","1024"
"2.706148589","0","4","hube","non-word","86.5979381443299","86.5979381443299","810.8556701030927","810.8556701030927","black","no","legacy","legacy","legacy","0","uniform","1","undefined","undefined","undefined","1","f","0","0","0","0","96","0","0","0","96","0","92","96","92","0","92","3","96","0","96","Thu Feb 18 19:01:37 2021","The main experiment item","yes","Lexical_Decision_Task.osexp","C:/Users/yasmi/Documents","no","Andale Mono","no","18","no","white","no","yes","576","legacy","92","92","3","C:/Users/yasmi/Documents/subject-5207464.2.csv","legacy","Lentiform Loewenfeld","3.3.7","yes","yes","600bd7cfb6416f0113b04181","602110864497cf011d9c0822","0","f","NA","space","space","space","space","f","639","NA","3927","9599","5036","44555","639","2","legacy","1024","2","48000","-16","task","5207464","even","NA","30755","36687","32759","275837","4607","19249","14212","276341","143941","275833","276341","275675","36686","276982","28727","275175","4600","262111","Lexical Decision Task","84","78653","97","yes","1024"
"3.077974404","10.41","8","tool","word","86.73469387755102","86.73469387755102","814.3673469387755","814.3673469387755","black","no","legacy","legacy","legacy","0","uniform","1","undefined","undefined","undefined","1","j","0","0","0","0","97","0","0","0","97","0","93","97","93","0","93","3","97","0","97","Thu Feb 18 19:01:37 2021","The main experiment item","yes","Lexical_Decision_Task.osexp","C:/Users/yasmi/Documents","no","Andale Mono","no","18","no","white","no","yes","576","legacy","93","93","3","C:/Users/yasmi/Documents/subject-5207464.2.csv","legacy","Lentiform Loewenfeld","3.3.7","yes","yes","600bd7cfb6416f0113b04181","602110864497cf011d9c0822","0","j","NA","space","space","space","space","j","1155","NA","3927","9599","5036","44555","1155","2","legacy","1024","2","48000","-16","task","5207464","even","NA","30755","36687","32759","277658","4607","19249","14212","278162","143941","277654","278162","277492","36686","279320","28727","276992","4600","262111","Lexical Decision Task","85","79808","98","yes","1024"
"3.121778632","0","9","sark","non-word","86.86868686868686","86.86868686868686","814.3838383838383","814.3838383838383","black","no","legacy","legacy","legacy","0","uniform","1","undefined","undefined","undefined","1","f","0","0","0","0","98","0","0","0","98","0","94","98","94","0","94","3","98","0","98","Thu Feb 18 19:01:37 2021","The main experiment item","yes","Lexical_Decision_Task.osexp","C:/Users/yasmi/Documents","no","Andale Mono","no","18","no","white","no","yes","576","legacy","94","94","3","C:/Users/yasmi/Documents/subject-5207464.2.csv","legacy","Lentiform Loewenfeld","3.3.7","yes","yes","600bd7cfb6416f0113b04181","602110864497cf011d9c0822","0","f","NA","space","space","space","space","f","816","NA","3927","9599","5036","44555","816","2","legacy","1024","2","48000","-16","task","5207464","even","NA","30755","36687","32759","280018","4607","19249","14212","280522","143941","280014","280522","279844","36686","281340","28727","279344","4600","262111","Lexical Decision Task","86","80624","99","yes","1024"
"3.043885998","0","9","gome","non-word","87","87","812.77","812.77","black","no","legacy","legacy","legacy","0","uniform","1","undefined","undefined","undefined","1","f","0","0","0","0","99","0","0","0","99","0","95","99","95","0","95","3","99","0","99","Thu Feb 18 19:01:37 2021","The main experiment item","yes","Lexical_Decision_Task.osexp","C:/Users/yasmi/Documents","no","Andale Mono","no","18","no","white","no","yes","576","legacy","95","95","3","C:/Users/yasmi/Documents/subject-5207464.2.csv","legacy","Lentiform Loewenfeld","3.3.7","yes","yes","600bd7cfb6416f0113b04181","602110864497cf011d9c0822","0","f","NA","space","space","space","space","f","653","NA","3927","9599","5036","44555","653","2","legacy","1024","2","48000","-16","task","5207464","even","NA","30755","36687","32759","282045","4607","19249","14212","282548","143941","282041","282548","281865","36686","283203","28727","281365","4600","262111","Lexical Decision Task","87","81277","100","yes","1024"
