"Log_BG","Log_Freq_HAL","Ortho_N","Stimulus","Type","acc","accuracy","average_response_time","avg_rt","background","bidi","canvas_backend","clock_backend","color_backend","compensation","coordinates","correct","correct_Experimental_intro","correct_Introduction","correct_Practice_intro","correct_experimenter_kb","correct_response","count_End_Of_Experiment","count_End_Of_Practice","count_Experimental_Loop","count_Experimental_intro","count_Fixation","count_Introduction","count_Practice_Loop","count_Practice_intro","count_Stimulus","count_block_break_feedback","count_experimental_sequence","count_experimenter_kb","count_increment_trial_count","count_init_trial_count","count_logger","count_practice_sequence","count_right","count_task","count_wrong","datetime","description","disable_garbage_collection","experiment_file","experiment_path","font_bold","font_family","font_italic","font_size","font_underline","foreground","form_clicks","fullscreen","height","keyboard_backend","live_row","live_row_Experimental_Loop","live_row_Practice_Loop","logfile","mouse_backend","opensesame_codename","opensesame_version","osf_always_upload_data","osf_always_upload_experiment","osf_datanode_id","osf_id","repeat_cycle","response","response_End_Of_Experiment","response_Experimental_intro","response_Introduction","response_Practice_intro","response_block_break_feedback","response_experimenter_kb","response_time","response_time_End_Of_Experiment","response_time_Experimental_intro","response_time_Introduction","response_time_Practice_intro","response_time_block_break_feedback","response_time_experimenter_kb","round_decimals","sampler_backend","sound_buf_size","sound_channels","sound_freq","sound_sample_size","start","subject_nr","subject_parity","time_End_Of_Experiment","time_End_Of_Practice","time_Experimental_Loop","time_Experimental_intro","time_Fixation","time_Introduction","time_Practice_Loop","time_Practice_intro","time_Stimulus","time_block_break_feedback","time_experimental_sequence","time_experimenter_kb","time_increment_trial_count","time_init_trial_count","time_logger","time_practice_sequence","time_right","time_task","time_wrong","title","total_correct","total_response_time","total_responses","uniform_coordinates","width"
"2.819763221","0","2","durp","non-word","100","100","811.6","811.6","black","no","legacy","legacy","legacy","0","uniform","1","undefined","undefined","undefined","1","f","0","0","0","0","4","0","0","0","4","NA","0","4","0","0","0","3","4","0","4","Thu Feb 18 14:46:32 2021","The main experiment item","yes","Lexical_Decision_Task.osexp","/Users/test/Documents","no","Andale Mono","no","18","no","white","no","yes","576","legacy","0","0","3","/Users/test/Documents/subject-5226260.csv","legacy","Kafkaesque Koffka","3.2.8","yes","yes","600bd7cfb6416f0113b04181","602110864497cf011d9c0822","0","f","NA","space","space","space","NA","f","884","NA","2855","10965","7669","NA","884","2","legacy","1024","2","48000","-16","task","5226260","even","NA","28669","33534","30677","33604","2391","21043","13372","34114","NA","33596","34114","NA","33534","34999","26890","28138","2378","NA","Lexical Decision Task","5","4058","5","yes","1024"
"3.368162872","0","4","ferk","non-word","100","100","786.833333333","786.833333333","black","no","legacy","legacy","legacy","0","uniform","1","undefined","undefined","undefined","1","f","0","0","0","0","5","0","0","0","5","NA","1","5","1","0","1","3","5","0","5","Thu Feb 18 14:46:32 2021","The main experiment item","yes","Lexical_Decision_Task.osexp","/Users/test/Documents","no","Andale Mono","no","18","no","white","no","yes","576","legacy","1","1","3","/Users/test/Documents/subject-5226260.csv","legacy","Kafkaesque Koffka","3.2.8","yes","yes","600bd7cfb6416f0113b04181","602110864497cf011d9c0822","0","f","NA","space","space","space","NA","f","663","NA","2855","10965","7669","NA","663","2","legacy","1024","2","48000","-16","task","5226260","even","NA","28669","33534","30677","35610","2391","21043","13372","36118","NA","35602","36118","35520","33534","36782","26890","35020","2378","NA","Lexical Decision Task","6","4721","6","yes","1024"
"2.814027728","8.2","4","foam","word","100","100","761.428571429","761.428571429","black","no","legacy","legacy","legacy","0","uniform","1","undefined","undefined","undefined","1","j","0","0","0","0","6","0","0","0","6","NA","2","6","2","0","2","3","6","0","6","Thu Feb 18 14:46:32 2021","The main experiment item","yes","Lexical_Decision_Task.osexp","/Users/test/Documents","no","Andale Mono","no","18","no","white","no","yes","576","legacy","2","2","3","/Users/test/Documents/subject-5226260.csv","legacy","Kafkaesque Koffka","3.2.8","yes","yes","600bd7cfb6416f0113b04181","602110864497cf011d9c0822","0","j","NA","space","space","space","NA","j","609","NA","2855","10965","7669","NA","609","2","legacy","1024","2","48000","-16","task","5226260","even","NA","28669","33534","30677","37384","2391","21043","13372","37891","NA","37375","37891","37295","33534","38501","26890","36795","2378","NA","Lexical Decision Task","7","5330","7","yes","1024"
"3.197740804","6.74","3","ache","word","100","100","747.625","747.625","black","no","legacy","legacy","legacy","0","uniform","1","undefined","undefined","undefined","1","j","0","0","0","0","7","0","0","0","7","NA","3","7","3","0","3","3","7","0","7","Thu Feb 18 14:46:32 2021","The main experiment item","yes","Lexical_Decision_Task.osexp","/Users/test/Documents","no","Andale Mono","no","18","no","white","no","yes","576","legacy","3","3","3","/Users/test/Documents/subject-5226260.csv","legacy","Kafkaesque Koffka","3.2.8","yes","yes","600bd7cfb6416f0113b04181","602110864497cf011d9c0822","0","j","NA","space","space","space","NA","j","651","NA","2855","10965","7669","NA","651","2","legacy","1024","2","48000","-16","task","5226260","even","NA","28669","33534","30677","39099","2391","21043","13372","39608","NA","39090","39609","39013","33534","40261","26890","38513","2378","NA","Lexical Decision Task","8","5981","8","yes","1024"
"2.813801082","5.47","7","nook","word","100","100","767.444444444","767.444444444","black","no","legacy","legacy","legacy","0","uniform","1","undefined","undefined","undefined","1","j","0","0","0","0","8","0","0","0","8","NA","4","8","4","0","4","3","8","0","8","Thu Feb 18 14:46:32 2021","The main experiment item","yes","Lexical_Decision_Task.osexp","/Users/test/Documents","no","Andale Mono","no","18","no","white","no","yes","576","legacy","4","4","3","/Users/test/Documents/subject-5226260.csv","legacy","Kafkaesque Koffka","3.2.8","yes","yes","600bd7cfb6416f0113b04181","602110864497cf011d9c0822","0","j","NA","space","space","space","NA","j","926","NA","2855","10965","7669","NA","926","2","legacy","1024","2","48000","-16","task","5226260","even","NA","28669","33534","30677","40867","2391","21043","13372","41374","NA","40858","41375","40776","33534","42302","26890","40276","2378","NA","Lexical Decision Task","9","6907","9","yes","1024"
"2.892836167","10.01","5","soft","word","100","100","761.4","761.4","black","no","legacy","legacy","legacy","0","uniform","1","undefined","undefined","undefined","1","j","0","0","0","0","9","0","0","0","9","NA","5","9","5","0","5","3","9","0","9","Thu Feb 18 14:46:32 2021","The main experiment item","yes","Lexical_Decision_Task.osexp","/Users/test/Documents","no","Andale Mono","no","18","no","white","no","yes","576","legacy","5","5","3","/Users/test/Documents/subject-5226260.csv","legacy","Kafkaesque Koffka","3.2.8","yes","yes","600bd7cfb6416f0113b04181","602110864497cf011d9c0822","0","j","NA","space","space","space","NA","j","707","NA","2855","10965","7669","NA","707","2","legacy","1024","2","48000","-16","task","5226260","even","NA","28669","33534","30677","42902","2391","21043","13372","43411","NA","42894","43411","42815","33534","44120","26890","42315","2378","NA","Lexical Decision Task","10","7614","10","yes","1024"
"2.9737419","7.69","7","claw","word","100","100","742.545454545","742.545454545","black","no","legacy","legacy","legacy","0","uniform","1","undefined","undefined","undefined","1","j","0","0","0","0","10","0","0","0","10","NA","6","10","6","0","6","3","10","0","10","Thu Feb 18 14:46:32 2021","The main experiment item","yes","Lexical_Decision_Task.osexp","/Users/test/Documents","no","Andale Mono","no","18","no","white","no","yes","576","legacy","6","6","3","/Users/test/Documents/subject-5226260.csv","legacy","Kafkaesque Koffka","3.2.8","yes","yes","600bd7cfb6416f0113b04181","602110864497cf011d9c0822","0","j","NA","space","space","space","NA","j","554","NA","2855","10965","7669","NA","554","2","legacy","1024","2","48000","-16","task","5226260","even","NA","28669","33534","30677","44726","2391","21043","13372","45233","NA","44716","45234","44633","33534","45790","26890","44133","2378","NA","Lexical Decision Task","11","8168","11","yes","1024"
"3.2757719","0","5","slea","non-word","100","100","735.5","735.5","black","no","legacy","legacy","legacy","0","uniform","1","undefined","undefined","undefined","1","f","0","0","0","0","11","0","0","0","11","NA","7","11","7","0","7","3","11","0","11","Thu Feb 18 14:46:32 2021","The main experiment item","yes","Lexical_Decision_Task.osexp","/Users/test/Documents","no","Andale Mono","no","18","no","white","no","yes","576","legacy","7","7","3","/Users/test/Documents/subject-5226260.csv","legacy","Kafkaesque Koffka","3.2.8","yes","yes","600bd7cfb6416f0113b04181","602110864497cf011d9c0822","0","f","NA","space","space","space","NA","f","658","NA","2855","10965","7669","NA","658","2","legacy","1024","2","48000","-16","task","5226260","even","NA","28669","33534","30677","46394","2391","21043","13372","46902","NA","46385","46902","46304","33534","47562","26890","45804","2378","NA","Lexical Decision Task","12","8826","12","yes","1024"
"3.374137706","10.21","4","tree","word","100","100","721.384615385","721.384615385","black","no","legacy","legacy","legacy","0","uniform","1","undefined","undefined","undefined","1","j","0","0","0","0","12","0","0","0","12","NA","8","12","8","0","8","3","12","0","12","Thu Feb 18 14:46:32 2021","The main experiment item","yes","Lexical_Decision_Task.osexp","/Users/test/Documents","no","Andale Mono","no","18","no","white","no","yes","576","legacy","8","8","3","/Users/test/Documents/subject-5226260.csv","legacy","Kafkaesque Koffka","3.2.8","yes","yes","600bd7cfb6416f0113b04181","602110864497cf011d9c0822","0","j","NA","space","space","space","NA","j","552","NA","2855","10965","7669","NA","552","2","legacy","1024","2","48000","-16","task","5226260","even","NA","28669","33534","30677","48167","2391","21043","13372","48675","NA","48158","48675","48074","33534","49229","26890","47574","2378","NA","Lexical Decision Task","13","9378","13","yes","1024"
"3.307211407","6.07","7","honk","word","100","100","728.785714286","728.785714286","black","no","legacy","legacy","legacy","0","uniform","1","undefined","undefined","undefined","1","j","0","0","0","0","13","0","0","0","13","NA","9","13","9","0","9","3","13","0","13","Thu Feb 18 14:46:32 2021","The main experiment item","yes","Lexical_Decision_Task.osexp","/Users/test/Documents","no","Andale Mono","no","18","no","white","no","yes","576","legacy","9","9","3","/Users/test/Documents/subject-5226260.csv","legacy","Kafkaesque Koffka","3.2.8","yes","yes","600bd7cfb6416f0113b04181","602110864497cf011d9c0822","0","j","NA","space","space","space","NA","j","825","NA","2855","10965","7669","NA","825","2","legacy","1024","2","48000","-16","task","5226260","even","NA","28669","33534","30677","49828","2391","21043","13372","50336","NA","49820","50336","49741","33534","51163","26890","49241","2378","NA","Lexical Decision Task","14","10203","14","yes","1024"
"3.363486562","6.93","9","lush","word","100","100","718.133333333","718.133333333","black","no","legacy","legacy","legacy","0","uniform","1","undefined","undefined","undefined","1","j","0","0","0","0","14","0","0","0","14","NA","10","14","10","0","10","3","14","0","14","Thu Feb 18 14:46:32 2021","The main experiment item","yes","Lexical_Decision_Task.osexp","/Users/test/Documents","no","Andale Mono","no","18","no","white","no","yes","576","legacy","10","10","3","/Users/test/Documents/subject-5226260.csv","legacy","Kafkaesque Koffka","3.2.8","yes","yes","600bd7cfb6416f0113b04181","602110864497cf011d9c0822","0","j","NA","space","space","space","NA","j","569","NA","2855","10965","7669","NA","569","2","legacy","1024","2","48000","-16","task","5226260","even","NA","28669","33534","30677","51764","2391","21043","13372","52273","NA","51755","52273","51675","33534","52844","26890","51174","2378","NA","Lexical Decision Task","15","10772","15","yes","1024"
"3.378276681","6.39","8","bran","word","93.75","93.75","756.5625","756.5625","black","no","legacy","legacy","legacy","0","uniform","0","undefined","undefined","undefined","0","j","0","0","0","0","15","0","0","0","15","NA","11","15","11","0","11","3","15","0","15","Thu Feb 18 14:46:32 2021","The main experiment item","yes","Lexical_Decision_Task.osexp","/Users/test/Documents","no","Andale Mono","no","18","no","white","no","yes","576","legacy","11","11","3","/Users/test/Documents/subject-5226260.csv","legacy","Kafkaesque Koffka","3.2.8","yes","yes","600bd7cfb6416f0113b04181","602110864497cf011d9c0822","0","f","NA","space","space","space","NA","f","1333","NA","2855","10965","7669","NA","1333","2","legacy","1024","2","48000","-16","task","5226260","even","NA","28669","33534","30677","53444","2391","21043","13372","53953","NA","53435","53953","53356","33534","55288","26890","52856","2378","NA","Lexical Decision Task","15","12105","16","yes","1024"
"2.703007489","8.37","3","pulp","word","94.1176470588","94.1176470588","760","760","black","no","legacy","legacy","legacy","0","uniform","1","undefined","undefined","undefined","1","j","0","0","0","0","16","0","0","0","16","NA","12","16","12","0","12","3","16","0","16","Thu Feb 18 14:46:32 2021","The main experiment item","yes","Lexical_Decision_Task.osexp","/Users/test/Documents","no","Andale Mono","no","18","no","white","no","yes","576","legacy","12","12","3","/Users/test/Documents/subject-5226260.csv","legacy","Kafkaesque Koffka","3.2.8","yes","yes","600bd7cfb6416f0113b04181","602110864497cf011d9c0822","0","j","NA","space","space","space","NA","j","815","NA","2855","10965","7669","NA","815","2","legacy","1024","2","48000","-16","task","5226260","even","NA","28669","33534","30677","56894","2391","21043","13372","57402","NA","56884","57402","56801","33534","58219","26890","52856","2378","55301","Lexical Decision Task","16","12920","17","yes","1024"
"2.64476673","0","5","moft","non-word","94.4444444444","94.4444444444","772.333333333","772.333333333","black","no","legacy","legacy","legacy","0","uniform","1","undefined","undefined","undefined","1","f","0","0","0","0","17","0","0","0","17","NA","13","17","13","0","13","3","17","0","17","Thu Feb 18 14:46:32 2021","The main experiment item","yes","Lexical_Decision_Task.osexp","/Users/test/Documents","no","Andale Mono","no","18","no","white","no","yes","576","legacy","13","13","3","/Users/test/Documents/subject-5226260.csv","legacy","Kafkaesque Koffka","3.2.8","yes","yes","600bd7cfb6416f0113b04181","602110864497cf011d9c0822","0","f","NA","space","space","space","NA","f","982","NA","2855","10965","7669","NA","982","2","legacy","1024","2","48000","-16","task","5226260","even","NA","28669","33534","30677","58823","2391","21043","13372","59330","NA","58815","59330","58731","33534","60314","26890","58231","2378","55301","Lexical Decision Task","17","13902","18","yes","1024"
"2.937852093","0","7","bamp","non-word","94.7368421053","94.7368421053","813.105263158","813.105263158","black","no","legacy","legacy","legacy","0","uniform","1","undefined","undefined","undefined","1","f","0","0","0","0","18","0","0","0","18","NA","14","18","14","0","14","3","18","0","18","Thu Feb 18 14:46:32 2021","The main experiment item","yes","Lexical_Decision_Task.osexp","/Users/test/Documents","no","Andale Mono","no","18","no","white","no","yes","576","legacy","14","14","3","/Users/test/Documents/subject-5226260.csv","legacy","Kafkaesque Koffka","3.2.8","yes","yes","600bd7cfb6416f0113b04181","602110864497cf011d9c0822","0","f","NA","space","space","space","NA","f","1547","NA","2855","10965","7669","NA","1547","2","legacy","1024","2","48000","-16","task","5226260","even","NA","28669","33534","30677","60918","2391","21043","13372","61427","NA","60910","61427","60826","33534","62975","26890","60326","2378","55301","Lexical Decision Task","18","15449","19","yes","1024"
"2.842815106","7.86","8","lump","word","95","95","802.5","802.5","black","no","legacy","legacy","legacy","0","uniform","1","undefined","undefined","undefined","1","j","0","0","0","0","19","0","0","0","19","NA","15","19","15","0","15","3","19","0","19","Thu Feb 18 14:46:32 2021","The main experiment item","yes","Lexical_Decision_Task.osexp","/Users/test/Documents","no","Andale Mono","no","18","no","white","no","yes","576","legacy","15","15","3","/Users/test/Documents/subject-5226260.csv","legacy","Kafkaesque Koffka","3.2.8","yes","yes","600bd7cfb6416f0113b04181","602110864497cf011d9c0822","0","j","NA","space","space","space","NA","j","601","NA","2855","10965","7669","NA","601","2","legacy","1024","2","48000","-16","task","5226260","even","NA","28669","33534","30677","63574","2391","21043","13372","64083","NA","63565","64083","63487","33534","64686","26890","62987","2378","55301","Lexical Decision Task","19","16050","20","yes","1024"
"3.353210739","0","9","reet","non-word","95.2380952381","95.2380952381","808.142857143","808.142857143","black","no","legacy","legacy","legacy","0","uniform","1","undefined","undefined","undefined","1","f","0","0","0","0","20","0","0","0","20","NA","16","20","16","0","16","3","20","0","20","Thu Feb 18 14:46:32 2021","The main experiment item","yes","Lexical_Decision_Task.osexp","/Users/test/Documents","no","Andale Mono","no","18","no","white","no","yes","576","legacy","16","16","3","/Users/test/Documents/subject-5226260.csv","legacy","Kafkaesque Koffka","3.2.8","yes","yes","600bd7cfb6416f0113b04181","602110864497cf011d9c0822","0","f","NA","space","space","space","NA","f","921","NA","2855","10965","7669","NA","921","2","legacy","1024","2","48000","-16","task","5226260","even","NA","28669","33534","30677","65293","2391","21043","13372","65800","NA","65285","65801","65198","33534","66723","26890","64698","2378","55301","Lexical Decision Task","20","16971","21","yes","1024"
"3.102203805","7.21","3","drip","word","95.4545454545","95.4545454545","798.545454545","798.545454545","black","no","legacy","legacy","legacy","0","uniform","1","undefined","undefined","undefined","1","j","0","0","0","0","21","0","0","0","21","NA","17","21","17","0","17","3","21","0","21","Thu Feb 18 14:46:32 2021","The main experiment item","yes","Lexical_Decision_Task.osexp","/Users/test/Documents","no","Andale Mono","no","18","no","white","no","yes","576","legacy","17","17","3","/Users/test/Documents/subject-5226260.csv","legacy","Kafkaesque Koffka","3.2.8","yes","yes","600bd7cfb6416f0113b04181","602110864497cf011d9c0822","0","j","NA","space","space","space","NA","j","597","NA","2855","10965","7669","NA","597","2","legacy","1024","2","48000","-16","task","5226260","even","NA","28669","33534","30677","67325","2391","21043","13372","67833","NA","67316","67833","67236","33534","68432","26890","66736","2378","55301","Lexical Decision Task","21","17568","22","yes","1024"
"2.839268497","0","8","maft","non-word","95.652173913","95.652173913","798.434782609","798.434782609","black","no","legacy","legacy","legacy","0","uniform","1","undefined","undefined","undefined","1","f","0","0","0","0","22","0","0","0","22","NA","18","22","18","0","18","3","22","0","22","Thu Feb 18 14:46:32 2021","The main experiment item","yes","Lexical_Decision_Task.osexp","/Users/test/Documents","no","Andale Mono","no","18","no","white","no","yes","576","legacy","18","18","3","/Users/test/Documents/subject-5226260.csv","legacy","Kafkaesque Koffka","3.2.8","yes","yes","600bd7cfb6416f0113b04181","602110864497cf011d9c0822","0","f","NA","space","space","space","NA","f","796","NA","2855","10965","7669","NA","796","2","legacy","1024","2","48000","-16","task","5226260","even","NA","28669","33534","30677","69034","2391","21043","13372","69541","NA","69025","69541","68944","33534","70339","26890","68444","2378","55301","Lexical Decision Task","22","18364","23","yes","1024"
"2.719886232","7.98","2","quiz","word","95.8333333333","95.8333333333","794.208333333","794.208333333","black","no","legacy","legacy","legacy","0","uniform","1","undefined","undefined","undefined","1","j","0","0","0","0","23","0","0","0","23","NA","19","23","19","0","19","3","23","0","23","Thu Feb 18 14:46:32 2021","The main experiment item","yes","Lexical_Decision_Task.osexp","/Users/test/Documents","no","Andale Mono","no","18","no","white","no","yes","576","legacy","19","19","3","/Users/test/Documents/subject-5226260.csv","legacy","Kafkaesque Koffka","3.2.8","yes","yes","600bd7cfb6416f0113b04181","602110864497cf011d9c0822","0","j","NA","space","space","space","NA","j","697","NA","2855","10965","7669","NA","697","2","legacy","1024","2","48000","-16","task","5226260","even","NA","28669","33534","30677","70941","2391","21043","13372","71448","NA","70933","71449","70852","33534","72148","26890","70351","2378","55301","Lexical Decision Task","23","19061","24","yes","1024"
"3.488597715","0","9","nain","non-word","96","96","796.6","796.6","black","no","legacy","legacy","legacy","0","uniform","1","undefined","undefined","undefined","1","f","0","0","0","0","24","0","0","0","24","NA","20","24","20","0","20","3","24","0","24","Thu Feb 18 14:46:32 2021","The main experiment item","yes","Lexical_Decision_Task.osexp","/Users/test/Documents","no","Andale Mono","no","18","no","white","no","yes","576","legacy","20","20","3","/Users/test/Documents/subject-5226260.csv","legacy","Kafkaesque Koffka","3.2.8","yes","yes","600bd7cfb6416f0113b04181","602110864497cf011d9c0822","0","f","NA","space","space","space","NA","f","854","NA","2855","10965","7669","NA","854","2","legacy","1024","2","48000","-16","task","5226260","even","NA","28669","33534","30677","72752","2391","21043","13372","73259","NA","72744","73259","72662","33534","74115","26890","72162","2378","55301","Lexical Decision Task","24","19915","25","yes","1024"
"2.86332286","6.71","2","feud","word","96.1538461538","96.1538461538","795.615384615","795.615384615","black","no","legacy","legacy","legacy","0","uniform","1","undefined","undefined","undefined","1","j","0","0","0","0","25","0","0","0","25","NA","21","25","21","0","21","3","25","0","25","Thu Feb 18 14:46:32 2021","The main experiment item","yes","Lexical_Decision_Task.osexp","/Users/test/Documents","no","Andale Mono","no","18","no","white","no","yes","576","legacy","21","21","3","/Users/test/Documents/subject-5226260.csv","legacy","Kafkaesque Koffka","3.2.8","yes","yes","600bd7cfb6416f0113b04181","602110864497cf011d9c0822","0","j","NA","space","space","space","NA","j","771","NA","2855","10965","7669","NA","771","2","legacy","1024","2","48000","-16","task","5226260","even","NA","28669","33534","30677","74720","2391","21043","13372","75228","NA","74712","75228","74631","33534","76000","26890","74131","2378","55301","Lexical Decision Task","25","20686","26","yes","1024"
"3.20871002","7.15","8","cram","word","96.2962962963","96.2962962963","797.296296296","797.296296296","black","no","legacy","legacy","legacy","0","uniform","1","undefined","undefined","undefined","1","j","0","0","0","0","26","0","0","0","26","NA","22","26","22","0","22","3","26","0","26","Thu Feb 18 14:46:32 2021","The main experiment item","yes","Lexical_Decision_Task.osexp","/Users/test/Documents","no","Andale Mono","no","18","no","white","no","yes","576","legacy","22","22","3","/Users/test/Documents/subject-5226260.csv","legacy","Kafkaesque Koffka","3.2.8","yes","yes","600bd7cfb6416f0113b04181","602110864497cf011d9c0822","0","j","NA","space","space","space","NA","j","841","NA","2855","10965","7669","NA","841","2","legacy","1024","2","48000","-16","task","5226260","even","NA","28669","33534","30677","76606","2391","21043","13372","77113","NA","76597","77114","76516","33534","77957","26890","76016","2378","55301","Lexical Decision Task","26","21527","27","yes","1024"
"3.492014979","0","9","yine","non-word","92.8571428571","92.8571428571","798.75","798.75","black","no","legacy","legacy","legacy","0","uniform","0","undefined","undefined","undefined","0","f","0","0","0","0","27","0","0","0","27","NA","23","27","23","0","23","3","27","0","27","Thu Feb 18 14:46:32 2021","The main experiment item","yes","Lexical_Decision_Task.osexp","/Users/test/Documents","no","Andale Mono","no","18","no","white","no","yes","576","legacy","23","23","3","/Users/test/Documents/subject-5226260.csv","legacy","Kafkaesque Koffka","3.2.8","yes","yes","600bd7cfb6416f0113b04181","602110864497cf011d9c0822","0","j","NA","space","space","space","NA","j","838","NA","2855","10965","7669","NA","838","2","legacy","1024","2","48000","-16","task","5226260","even","NA","28669","33534","30677","78557","2391","21043","13372","79065","NA","78548","79065","78469","33534","79905","26890","77969","2378","55301","Lexical Decision Task","26","22365","28","yes","1024"
"3.132473155","0","4","glim","non-word","89.6551724138","89.6551724138","797.068965517","797.068965517","black","no","legacy","legacy","legacy","0","uniform","0","undefined","undefined","undefined","0","f","0","0","0","0","28","0","0","0","28","NA","24","28","24","0","24","3","28","0","28","Thu Feb 18 14:46:32 2021","The main experiment item","yes","Lexical_Decision_Task.osexp","/Users/test/Documents","no","Andale Mono","no","18","no","white","no","yes","576","legacy","24","24","3","/Users/test/Documents/subject-5226260.csv","legacy","Kafkaesque Koffka","3.2.8","yes","yes","600bd7cfb6416f0113b04181","602110864497cf011d9c0822","0","j","NA","space","space","space","NA","j","750","NA","2855","10965","7669","NA","750","2","legacy","1024","2","48000","-16","task","5226260","even","NA","28669","33534","30677","81502","2391","21043","13372","82010","NA","81494","82010","81417","33534","82763","26890","77969","2378","79917","Lexical Decision Task","26","23115","29","yes","1024"
"3.14849993","10.75","7","hour","word","90","90","792.4","792.4","black","no","legacy","legacy","legacy","0","uniform","1","undefined","undefined","undefined","1","j","0","0","0","0","29","0","0","0","29","NA","25","29","25","0","25","3","29","0","29","Thu Feb 18 14:46:32 2021","The main experiment item","yes","Lexical_Decision_Task.osexp","/Users/test/Documents","no","Andale Mono","no","18","no","white","no","yes","576","legacy","25","25","3","/Users/test/Documents/subject-5226260.csv","legacy","Kafkaesque Koffka","3.2.8","yes","yes","600bd7cfb6416f0113b04181","602110864497cf011d9c0822","0","j","NA","space","space","space","NA","j","657","NA","2855","10965","7669","NA","657","2","legacy","1024","2","48000","-16","task","5226260","even","NA","28669","33534","30677","84365","2391","21043","13372","84874","NA","84356","84874","84276","33534","85533","26890","77969","2378","82775","Lexical Decision Task","27","23772","30","yes","1024"
"2.990042563","6.64","9","plow","word","87.0967741935","87.0967741935","799.161290323","799.161290323","black","no","legacy","legacy","legacy","0","uniform","0","undefined","undefined","undefined","0","j","0","0","0","0","30","0","0","0","30","NA","26","30","26","0","26","3","30","0","30","Thu Feb 18 14:46:32 2021","The main experiment item","yes","Lexical_Decision_Task.osexp","/Users/test/Documents","no","Andale Mono","no","18","no","white","no","yes","576","legacy","26","26","3","/Users/test/Documents/subject-5226260.csv","legacy","Kafkaesque Koffka","3.2.8","yes","yes","600bd7cfb6416f0113b04181","602110864497cf011d9c0822","0","f","NA","space","space","space","NA","f","1002","NA","2855","10965","7669","NA","1002","2","legacy","1024","2","48000","-16","task","5226260","even","NA","28669","33534","30677","86129","2391","21043","13372","86636","NA","86121","86636","86045","33534","87640","26890","85545","2378","82775","Lexical Decision Task","27","24774","31","yes","1024"
"3.431095062","5.74","9","perk","word","87.5","87.5","796.15625","796.15625","black","no","legacy","legacy","legacy","0","uniform","1","undefined","undefined","undefined","1","j","0","0","0","0","31","0","0","0","31","NA","27","31","27","0","27","3","31","0","31","Thu Feb 18 14:46:32 2021","The main experiment item","yes","Lexical_Decision_Task.osexp","/Users/test/Documents","no","Andale Mono","no","18","no","white","no","yes","576","legacy","27","27","3","/Users/test/Documents/subject-5226260.csv","legacy","Kafkaesque Koffka","3.2.8","yes","yes","600bd7cfb6416f0113b04181","602110864497cf011d9c0822","0","j","NA","space","space","space","NA","j","703","NA","2855","10965","7669","NA","703","2","legacy","1024","2","48000","-16","task","5226260","even","NA","28669","33534","30677","89242","2391","21043","13372","89750","NA","89234","89750","89152","33534","90455","26890","85545","2378","87652","Lexical Decision Task","28","25477","32","yes","1024"
"2.986323777","10.85","8","ship","word","87.8787878788","87.8787878788","792.787878788","792.787878788","black","no","legacy","legacy","legacy","0","uniform","1","undefined","undefined","undefined","1","j","0","0","0","0","32","0","0","0","32","NA","28","32","28","0","28","3","32","0","32","Thu Feb 18 14:46:32 2021","The main experiment item","yes","Lexical_Decision_Task.osexp","/Users/test/Documents","no","Andale Mono","no","18","no","white","no","yes","576","legacy","28","28","3","/Users/test/Documents/subject-5226260.csv","legacy","Kafkaesque Koffka","3.2.8","yes","yes","600bd7cfb6416f0113b04181","602110864497cf011d9c0822","0","j","NA","space","space","space","NA","j","685","NA","2855","10965","7669","NA","685","2","legacy","1024","2","48000","-16","task","5226260","even","NA","28669","33534","30677","91058","2391","21043","13372","91566","NA","91050","91566","90967","33534","92253","26890","90467","2378","87652","Lexical Decision Task","29","26162","33","yes","1024"
"3.29439347","8.6","9","wand","word","88.2352941176","88.2352941176","790.176470588","790.176470588","black","no","legacy","legacy","legacy","0","uniform","1","undefined","undefined","undefined","1","j","0","0","0","0","33","0","0","0","33","NA","29","33","29","0","29","3","33","0","33","Thu Feb 18 14:46:32 2021","The main experiment item","yes","Lexical_Decision_Task.osexp","/Users/test/Documents","no","Andale Mono","no","18","no","white","no","yes","576","legacy","29","29","3","/Users/test/Documents/subject-5226260.csv","legacy","Kafkaesque Koffka","3.2.8","yes","yes","600bd7cfb6416f0113b04181","602110864497cf011d9c0822","0","j","NA","space","space","space","NA","j","704","NA","2855","10965","7669","NA","704","2","legacy","1024","2","48000","-16","task","5226260","even","NA","28669","33534","30677","92855","2391","21043","13372","93362","NA","92847","93363","92766","33534","94068","26890","92266","2378","87652","Lexical Decision Task","30","26866","34","yes","1024"
"3.091901331","0","9","nipe","non-word","88.5714285714","88.5714285714","795.457142857","795.457142857","black","no","legacy","legacy","legacy","0","uniform","1","undefined","undefined","undefined","1","f","0","0","0","0","34","0","0","0","34","NA","30","34","30","0","30","3","34","0","34","Thu Feb 18 14:46:32 2021","The main experiment item","yes","Lexical_Decision_Task.osexp","/Users/test/Documents","no","Andale Mono","no","18","no","white","no","yes","576","legacy","30","30","3","/Users/test/Documents/subject-5226260.csv","legacy","Kafkaesque Koffka","3.2.8","yes","yes","600bd7cfb6416f0113b04181","602110864497cf011d9c0822","0","f","NA","space","space","space","NA","f","975","NA","2855","10965","7669","NA","975","2","legacy","1024","2","48000","-16","task","5226260","even","NA","28669","33534","30677","94669","2391","21043","13372","95177","NA","94660","95177","94580","33534","96154","26890","94080","2378","87652","Lexical Decision Task","31","27841","35","yes","1024"
"3.119255889","6.63","2","itch","word","88.8888888889","88.8888888889","793.472222222","793.472222222","black","no","legacy","legacy","legacy","0","uniform","1","undefined","undefined","undefined","1","j","0","0","0","0","35","0","0","0","35","NA","31","35","31","0","31","3","35","0","35","Thu Feb 18 14:46:32 2021","The main experiment item","yes","Lexical_Decision_Task.osexp","/Users/test/Documents","no","Andale Mono","no","18","no","white","no","yes","576","legacy","31","31","3","/Users/test/Documents/subject-5226260.csv","legacy","Kafkaesque Koffka","3.2.8","yes","yes","600bd7cfb6416f0113b04181","602110864497cf011d9c0822","0","j","NA","space","space","space","NA","j","724","NA","2855","10965","7669","NA","724","2","legacy","1024","2","48000","-16","task","5226260","even","NA","28669","33534","30677","96756","2391","21043","13372","97265","NA","96747","97266","96668","33534","97993","26890","96167","2378","87652","Lexical Decision Task","32","28565","36","yes","1024"
"3.440331212","7.35","6","stew","word","89.1891891892","89.1891891892","795.459459459","795.459459459","black","no","legacy","legacy","legacy","0","uniform","1","undefined","undefined","undefined","1","j","0","0","0","0","36","0","0","0","36","NA","32","36","32","0","32","3","36","0","36","Thu Feb 18 14:46:32 2021","The main experiment item","yes","Lexical_Decision_Task.osexp","/Users/test/Documents","no","Andale Mono","no","18","no","white","no","yes","576","legacy","32","32","3","/Users/test/Documents/subject-5226260.csv","legacy","Kafkaesque Koffka","3.2.8","yes","yes","600bd7cfb6416f0113b04181","602110864497cf011d9c0822","0","j","NA","space","space","space","NA","j","867","NA","2855","10965","7669","NA","867","2","legacy","1024","2","48000","-16","task","5226260","even","NA","28669","33534","30677","98591","2391","21043","13372","99098","NA","98583","99099","98505","33534","99968","26890","98005","2378","87652","Lexical Decision Task","33","29432","37","yes","1024"
"3.372543801","9.24","8","coat","word","89.4736842105","89.4736842105","791.973684211","791.973684211","black","no","legacy","legacy","legacy","0","uniform","1","undefined","undefined","undefined","1","j","0","0","0","0","37","0","0","0","37","NA","33","37","33","0","33","3","37","0","37","Thu Feb 18 14:46:32 2021","The main experiment item","yes","Lexical_Decision_Task.osexp","/Users/test/Documents","no","Andale Mono","no","18","no","white","no","yes","576","legacy","33","33","3","/Users/test/Documents/subject-5226260.csv","legacy","Kafkaesque Koffka","3.2.8","yes","yes","600bd7cfb6416f0113b04181","602110864497cf011d9c0822","0","j","NA","space","space","space","NA","j","663","NA","2855","10965","7669","NA","663","2","legacy","1024","2","48000","-16","task","5226260","even","NA","28669","33534","30677","100572","2391","21043","13372","101081","NA","100564","101081","100481","33534","101746","26890","99981","2378","87652","Lexical Decision Task","34","30095","38","yes","1024"
"2.80048796","0","8","pife","non-word","89.7435897436","89.7435897436","794","794","black","no","legacy","legacy","legacy","0","uniform","1","undefined","undefined","undefined","1","f","0","0","0","0","38","0","0","0","38","NA","34","38","34","0","34","3","38","0","38","Thu Feb 18 14:46:32 2021","The main experiment item","yes","Lexical_Decision_Task.osexp","/Users/test/Documents","no","Andale Mono","no","18","no","white","no","yes","576","legacy","34","34","3","/Users/test/Documents/subject-5226260.csv","legacy","Kafkaesque Koffka","3.2.8","yes","yes","600bd7cfb6416f0113b04181","602110864497cf011d9c0822","0","f","NA","space","space","space","NA","f","871","NA","2855","10965","7669","NA","871","2","legacy","1024","2","48000","-16","task","5226260","even","NA","28669","33534","30677","102347","2391","21043","13372","102854","NA","102338","102855","102258","33534","103728","26890","101758","2378","87652","Lexical Decision Task","35","30966","39","yes","1024"
"3.165936429","0","7","leps","non-word","87.5","87.5","798.4","798.4","black","no","legacy","legacy","legacy","0","uniform","0","undefined","undefined","undefined","0","f","0","0","0","0","39","0","0","0","39","NA","35","39","35","0","35","3","39","0","39","Thu Feb 18 14:46:32 2021","The main experiment item","yes","Lexical_Decision_Task.osexp","/Users/test/Documents","no","Andale Mono","no","18","no","white","no","yes","576","legacy","35","35","3","/Users/test/Documents/subject-5226260.csv","legacy","Kafkaesque Koffka","3.2.8","yes","yes","600bd7cfb6416f0113b04181","602110864497cf011d9c0822","0","j","NA","space","space","space","NA","j","970","NA","2855","10965","7669","NA","970","2","legacy","1024","2","48000","-16","task","5226260","even","NA","28669","33534","30677","104327","2391","21043","13372","104835","NA","104319","104835","104239","33534","105807","26890","103739","2378","87652","Lexical Decision Task","35","31936","40","yes","1024"
"3.274543461","7.46","7","scar","word","87.8048780488","87.8048780488","794.292682927","794.292682927","black","no","legacy","legacy","legacy","0","uniform","1","undefined","undefined","undefined","1","j","0","0","0","0","40","0","0","0","40","NA","36","40","36","0","36","3","40","0","40","Thu Feb 18 14:46:32 2021","The main experiment item","yes","Lexical_Decision_Task.osexp","/Users/test/Documents","no","Andale Mono","no","18","no","white","no","yes","576","legacy","36","36","3","/Users/test/Documents/subject-5226260.csv","legacy","Kafkaesque Koffka","3.2.8","yes","yes","600bd7cfb6416f0113b04181","602110864497cf011d9c0822","0","j","NA","space","space","space","NA","j","630","NA","2855","10965","7669","NA","630","2","legacy","1024","2","48000","-16","task","5226260","even","NA","28669","33534","30677","107410","2391","21043","13372","107919","NA","107402","107920","107319","33534","108552","26890","103739","2378","105819","Lexical Decision Task","36","32566","41","yes","1024"
"3.495914186","0","4","peng","non-word","85.7142857143","85.7142857143","810.238095238","810.238095238","black","no","legacy","legacy","legacy","0","uniform","0","undefined","undefined","undefined","0","f","0","0","0","0","41","0","0","0","41","NA","37","41","37","0","37","3","41","0","41","Thu Feb 18 14:46:32 2021","The main experiment item","yes","Lexical_Decision_Task.osexp","/Users/test/Documents","no","Andale Mono","no","18","no","white","no","yes","576","legacy","37","37","3","/Users/test/Documents/subject-5226260.csv","legacy","Kafkaesque Koffka","3.2.8","yes","yes","600bd7cfb6416f0113b04181","602110864497cf011d9c0822","0","j","NA","space","space","space","NA","j","1464","NA","2855","10965","7669","NA","1464","2","legacy","1024","2","48000","-16","task","5226260","even","NA","28669","33534","30677","109149","2391","21043","13372","109656","NA","109141","109656","109064","33534","111122","26890","108564","2378","105819","Lexical Decision Task","36","34030","42","yes","1024"
"3.316948329","0","1","besc","non-word","86.0465116279","86.0465116279","824.093023256","824.093023256","black","no","legacy","legacy","legacy","0","uniform","1","undefined","undefined","undefined","1","f","0","0","0","0","42","0","0","0","42","NA","38","42","38","0","38","3","42","0","42","Thu Feb 18 14:46:32 2021","The main experiment item","yes","Lexical_Decision_Task.osexp","/Users/test/Documents","no","Andale Mono","no","18","no","white","no","yes","576","legacy","38","38","3","/Users/test/Documents/subject-5226260.csv","legacy","Kafkaesque Koffka","3.2.8","yes","yes","600bd7cfb6416f0113b04181","602110864497cf011d9c0822","0","f","NA","space","space","space","NA","f","1406","NA","2855","10965","7669","NA","1406","2","legacy","1024","2","48000","-16","task","5226260","even","NA","28669","33534","30677","112721","2391","21043","13372","113228","NA","112713","113229","112635","33534","114637","26890","108564","2378","111135","Lexical Decision Task","37","35436","43","yes","1024"
"2.695770526","7.34","6","pawn","word","86.3636363636","86.3636363636","828.886363636","828.886363636","black","no","legacy","legacy","legacy","0","uniform","1","undefined","undefined","undefined","1","j","0","0","0","0","43","0","0","0","43","NA","39","43","39","0","39","3","43","0","43","Thu Feb 18 14:46:32 2021","The main experiment item","yes","Lexical_Decision_Task.osexp","/Users/test/Documents","no","Andale Mono","no","18","no","white","no","yes","576","legacy","39","39","3","/Users/test/Documents/subject-5226260.csv","legacy","Kafkaesque Koffka","3.2.8","yes","yes","600bd7cfb6416f0113b04181","602110864497cf011d9c0822","0","j","NA","space","space","space","NA","j","1035","NA","2855","10965","7669","NA","1035","2","legacy","1024","2","48000","-16","task","5226260","even","NA","28669","33534","30677","115235","2391","21043","13372","115743","NA","115227","115743","115149","33534","116780","26890","114649","2378","111135","Lexical Decision Task","38","36471","44","yes","1024"
"2.799799878","0","4","ciff","non-word","86.6666666667","86.6666666667","840.155555556","840.155555556","black","no","legacy","legacy","legacy","0","uniform","1","undefined","undefined","undefined","1","f","0","0","0","0","44","0","0","0","44","NA","40","44","40","0","40","3","44","0","44","Thu Feb 18 14:46:32 2021","The main experiment item","yes","Lexical_Decision_Task.osexp","/Users/test/Documents","no","Andale Mono","no","18","no","white","no","yes","576","legacy","40","40","3","/Users/test/Documents/subject-5226260.csv","legacy","Kafkaesque Koffka","3.2.8","yes","yes","600bd7cfb6416f0113b04181","602110864497cf011d9c0822","0","f","NA","space","space","space","NA","f","1336","NA","2855","10965","7669","NA","1336","2","legacy","1024","2","48000","-16","task","5226260","even","NA","28669","33534","30677","117383","2391","21043","13372","117890","NA","117373","117890","117291","33534","119228","26890","116791","2378","111135","Lexical Decision Task","39","37807","45","yes","1024"
"3.145920145","8.51","8","flew","word","86.9565217391","86.9565217391","850.282608696","850.282608696","black","no","legacy","legacy","legacy","0","uniform","1","undefined","undefined","undefined","1","j","0","0","0","0","45","0","0","0","45","NA","41","45","41","0","41","3","45","0","45","Thu Feb 18 14:46:32 2021","The main experiment item","yes","Lexical_Decision_Task.osexp","/Users/test/Documents","no","Andale Mono","no","18","no","white","no","yes","576","legacy","41","41","3","/Users/test/Documents/subject-5226260.csv","legacy","Kafkaesque Koffka","3.2.8","yes","yes","600bd7cfb6416f0113b04181","602110864497cf011d9c0822","0","j","NA","space","space","space","NA","j","1306","NA","2855","10965","7669","NA","1306","2","legacy","1024","2","48000","-16","task","5226260","even","NA","28669","33534","30677","119827","2391","21043","13372","120335","NA","119817","120336","119740","33534","121644","26890","119240","2378","111135","Lexical Decision Task","40","39113","46","yes","1024"
"2.924968096","0","4","phim","non-word","87.2340425532","87.2340425532","876.553191489","876.553191489","black","no","legacy","legacy","legacy","0","uniform","1","undefined","undefined","undefined","1","f","0","0","0","0","46","0","0","0","46","NA","42","46","42","0","42","3","46","0","46","Thu Feb 18 14:46:32 2021","The main experiment item","yes","Lexical_Decision_Task.osexp","/Users/test/Documents","no","Andale Mono","no","18","no","white","no","yes","576","legacy","42","42","3","/Users/test/Documents/subject-5226260.csv","legacy","Kafkaesque Koffka","3.2.8","yes","yes","600bd7cfb6416f0113b04181","602110864497cf011d9c0822","0","f","NA","space","space","space","NA","f","2085","NA","2855","10965","7669","NA","2085","2","legacy","1024","2","48000","-16","task","5226260","even","NA","28669","33534","30677","122246","2391","21043","13372","122753","NA","122237","122753","122157","33534","124840","26890","121656","2378","111135","Lexical Decision Task","41","41198","47","yes","1024"
"3.067193647","6.73","6","raft","word","87.5","87.5","874.604166667","874.604166667","black","no","legacy","legacy","legacy","0","uniform","1","undefined","undefined","undefined","1","j","0","0","0","0","47","0","0","0","47","NA","43","47","43","0","43","3","47","0","47","Thu Feb 18 14:46:32 2021","The main experiment item","yes","Lexical_Decision_Task.osexp","/Users/test/Documents","no","Andale Mono","no","18","no","white","no","yes","576","legacy","43","43","3","/Users/test/Documents/subject-5226260.csv","legacy","Kafkaesque Koffka","3.2.8","yes","yes","600bd7cfb6416f0113b04181","602110864497cf011d9c0822","0","j","NA","space","space","space","NA","j","783","NA","2855","10965","7669","NA","783","2","legacy","1024","2","48000","-16","task","5226260","even","NA","28669","33534","30677","125444","2391","21043","13372","125951","NA","125436","125951","125352","33534","126736","26890","124851","2378","111135","Lexical Decision Task","42","41981","48","yes","1024"
"2.771097306","0","9","jold","non-word","87.7551020408","87.7551020408","876.530612245","876.530612245","black","no","legacy","legacy","legacy","0","uniform","1","undefined","undefined","undefined","1","f","0","0","0","0","48","0","0","0","48","NA","44","48","44","0","44","3","48","0","48","Thu Feb 18 14:46:32 2021","The main experiment item","yes","Lexical_Decision_Task.osexp","/Users/test/Documents","no","Andale Mono","no","18","no","white","no","yes","576","legacy","44","44","3","/Users/test/Documents/subject-5226260.csv","legacy","Kafkaesque Koffka","3.2.8","yes","yes","600bd7cfb6416f0113b04181","602110864497cf011d9c0822","0","f","NA","space","space","space","NA","f","969","NA","2855","10965","7669","NA","969","2","legacy","1024","2","48000","-16","task","5226260","even","NA","28669","33534","30677","127338","2391","21043","13372","127845","NA","127329","127845","127252","33534","128816","26890","126752","2378","111135","Lexical Decision Task","43","42950","49","yes","1024"
"3.384413096","10.15","3","glad","word","88","88","869.1","869.1","black","no","legacy","legacy","legacy","0","uniform","1","undefined","undefined","undefined","1","j","0","0","0","0","49","0","0","0","49","NA","45","49","45","0","45","3","49","0","49","Thu Feb 18 14:46:32 2021","The main experiment item","yes","Lexical_Decision_Task.osexp","/Users/test/Documents","no","Andale Mono","no","18","no","white","no","yes","576","legacy","45","45","3","/Users/test/Documents/subject-5226260.csv","legacy","Kafkaesque Koffka","3.2.8","yes","yes","600bd7cfb6416f0113b04181","602110864497cf011d9c0822","0","j","NA","space","space","space","NA","j","505","NA","2855","10965","7669","NA","505","2","legacy","1024","2","48000","-16","task","5226260","even","NA","28669","33534","30677","129414","2391","21043","13372","129921","NA","129406","129921","129328","33534","130428","26890","128828","2378","111135","Lexical Decision Task","44","43455","50","yes","1024"
"3.274157849","0","8","leet","non-word","88.2352941176","88.2352941176","868.039215686","868.039215686","black","no","legacy","legacy","legacy","0","uniform","1","undefined","undefined","undefined","1","f","0","0","0","0","50","0","0","0","50","NA","46","50","46","0","46","3","50","0","50","Thu Feb 18 14:46:32 2021","The main experiment item","yes","Lexical_Decision_Task.osexp","/Users/test/Documents","no","Andale Mono","no","18","no","white","no","yes","576","legacy","46","46","3","/Users/test/Documents/subject-5226260.csv","legacy","Kafkaesque Koffka","3.2.8","yes","yes","600bd7cfb6416f0113b04181","602110864497cf011d9c0822","0","f","NA","space","space","space","NA","f","815","NA","2855","10965","7669","NA","815","2","legacy","1024","2","48000","-16","task","5226260","even","NA","28669","33534","30677","131030","2391","21043","13372","131537","NA","131022","131537","130943","33534","132354","26890","130443","2378","111135","Lexical Decision Task","45","44270","51","yes","1024"
"2.668385917","5.48","4","twig","word","88.4615384615","88.4615384615","863.942307692","863.942307692","black","no","legacy","legacy","legacy","0","uniform","1","undefined","undefined","undefined","1","j","0","0","0","0","51","0","0","0","51","NA","47","51","47","0","47","3","51","0","51","Thu Feb 18 14:46:32 2021","The main experiment item","yes","Lexical_Decision_Task.osexp","/Users/test/Documents","no","Andale Mono","no","18","no","white","no","yes","576","legacy","47","47","3","/Users/test/Documents/subject-5226260.csv","legacy","Kafkaesque Koffka","3.2.8","yes","yes","600bd7cfb6416f0113b04181","602110864497cf011d9c0822","0","j","NA","space","space","space","NA","j","655","NA","2855","10965","7669","NA","655","2","legacy","1024","2","48000","-16","task","5226260","even","NA","28669","33534","30677","132954","2391","21043","13372","133461","NA","132945","133461","132867","33534","134118","26890","132367","2378","111135","Lexical Decision Task","46","44925","52","yes","1024"
"2.979548375","8.71","4","soup","word","88.679245283","88.679245283","864.830188679","864.830188679","black","no","legacy","legacy","legacy","0","uniform","1","undefined","undefined","undefined","1","j","0","0","0","0","52","0","0","0","52","NA","48","52","48","0","48","3","52","0","52","Thu Feb 18 14:46:32 2021","The main experiment item","yes","Lexical_Decision_Task.osexp","/Users/test/Documents","no","Andale Mono","no","18","no","white","no","yes","576","legacy","48","48","3","/Users/test/Documents/subject-5226260.csv","legacy","Kafkaesque Koffka","3.2.8","yes","yes","600bd7cfb6416f0113b04181","602110864497cf011d9c0822","0","j","NA","space","space","space","NA","j","911","NA","2855","10965","7669","NA","911","2","legacy","1024","2","48000","-16","task","5226260","even","NA","28669","33534","30677","134720","2391","21043","13372","135228","NA","134712","135228","134630","33534","136141","26890","134129","2378","111135","Lexical Decision Task","47","45836","53","yes","1024"
"3.137775856","7.39","5","comb","word","88.8888888889","88.8888888889","868.777777778","868.777777778","black","no","legacy","legacy","legacy","0","uniform","1","undefined","undefined","undefined","1","j","0","0","0","0","53","0","0","0","53","NA","49","53","49","0","49","3","53","0","53","Thu Feb 18 14:46:32 2021","The main experiment item","yes","Lexical_Decision_Task.osexp","/Users/test/Documents","no","Andale Mono","no","18","no","white","no","yes","576","legacy","49","49","3","/Users/test/Documents/subject-5226260.csv","legacy","Kafkaesque Koffka","3.2.8","yes","yes","600bd7cfb6416f0113b04181","602110864497cf011d9c0822","0","j","NA","space","space","space","NA","j","1078","NA","2855","10965","7669","NA","1078","2","legacy","1024","2","48000","-16","task","5226260","even","NA","28669","33534","30677","136741","2391","21043","13372","137249","NA","136732","137249","136654","33534","138329","26890","136154","2378","111135","Lexical Decision Task","48","46914","54","yes","1024"
"2.873320602","0","4","lurg","non-word","89.0909090909","89.0909090909","870.690909091","870.690909091","black","no","legacy","legacy","legacy","0","uniform","1","undefined","undefined","undefined","1","f","0","0","0","0","54","0","0","0","54","0","50","54","50","0","50","3","54","0","54","Thu Feb 18 14:46:32 2021","The main experiment item","yes","Lexical_Decision_Task.osexp","/Users/test/Documents","no","Andale Mono","no","18","no","white","no","yes","576","legacy","50","50","3","/Users/test/Documents/subject-5226260.csv","legacy","Kafkaesque Koffka","3.2.8","yes","yes","600bd7cfb6416f0113b04181","602110864497cf011d9c0822","0","f","NA","space","space","space","space","f","974","NA","2855","10965","7669","9476","974","2","legacy","1024","2","48000","-16","task","5226260","even","NA","28669","33534","30677","148468","2391","21043","13372","148976","138902","148459","148977","138842","33534","149954","26890","138342","2378","111135","Lexical Decision Task","49","47888","55","yes","1024"
"3.194328374","9.42","6","harm","word","89.2857142857","89.2857142857","866.607142857","866.607142857","black","no","legacy","legacy","legacy","0","uniform","1","undefined","undefined","undefined","1","j","0","0","0","0","55","0","0","0","55","0","51","55","51","0","51","3","55","0","55","Thu Feb 18 14:46:32 2021","The main experiment item","yes","Lexical_Decision_Task.osexp","/Users/test/Documents","no","Andale Mono","no","18","no","white","no","yes","576","legacy","51","51","3","/Users/test/Documents/subject-5226260.csv","legacy","Kafkaesque Koffka","3.2.8","yes","yes","600bd7cfb6416f0113b04181","602110864497cf011d9c0822","0","j","NA","space","space","space","space","j","642","NA","2855","10965","7669","9476","642","2","legacy","1024","2","48000","-16","task","5226260","even","NA","28669","33534","30677","150555","2391","21043","13372","151065","138902","150547","151065","150466","33534","151709","26890","149966","2378","111135","Lexical Decision Task","50","48530","56","yes","1024"
"2.899092422","7.27","6","snag","word","89.4736842105","89.4736842105","866.385964912","866.385964912","black","no","legacy","legacy","legacy","0","uniform","1","undefined","undefined","undefined","1","j","0","0","0","0","56","0","0","0","56","0","52","56","52","0","52","3","56","0","56","Thu Feb 18 14:46:32 2021","The main experiment item","yes","Lexical_Decision_Task.osexp","/Users/test/Documents","no","Andale Mono","no","18","no","white","no","yes","576","legacy","52","52","3","/Users/test/Documents/subject-5226260.csv","legacy","Kafkaesque Koffka","3.2.8","yes","yes","600bd7cfb6416f0113b04181","602110864497cf011d9c0822","0","j","NA","space","space","space","space","j","854","NA","2855","10965","7669","9476","854","2","legacy","1024","2","48000","-16","task","5226260","even","NA","28669","33534","30677","152312","2391","21043","13372","152819","138902","152302","152820","152221","33534","153676","26890","151721","2378","111135","Lexical Decision Task","51","49384","57","yes","1024"
"3.531734309","0","6","lerd","non-word","89.6551724138","89.6551724138","863.810344828","863.810344828","black","no","legacy","legacy","legacy","0","uniform","1","undefined","undefined","undefined","1","f","0","0","0","0","57","0","0","0","57","0","53","57","53","0","53","3","57","0","57","Thu Feb 18 14:46:32 2021","The main experiment item","yes","Lexical_Decision_Task.osexp","/Users/test/Documents","no","Andale Mono","no","18","no","white","no","yes","576","legacy","53","53","3","/Users/test/Documents/subject-5226260.csv","legacy","Kafkaesque Koffka","3.2.8","yes","yes","600bd7cfb6416f0113b04181","602110864497cf011d9c0822","0","f","NA","space","space","space","space","f","717","NA","2855","10965","7669","9476","717","2","legacy","1024","2","48000","-16","task","5226260","even","NA","28669","33534","30677","154276","2391","21043","13372","154784","138902","154268","154784","154188","33534","155503","26890","153688","2378","111135","Lexical Decision Task","52","50101","58","yes","1024"
"2.68604012","0","3","mulb","non-word","89.8305084746","89.8305084746","865.220338983","865.220338983","black","no","legacy","legacy","legacy","0","uniform","1","undefined","undefined","undefined","1","f","0","0","0","0","58","0","0","0","58","0","54","58","54","0","54","3","58","0","58","Thu Feb 18 14:46:32 2021","The main experiment item","yes","Lexical_Decision_Task.osexp","/Users/test/Documents","no","Andale Mono","no","18","no","white","no","yes","576","legacy","54","54","3","/Users/test/Documents/subject-5226260.csv","legacy","Kafkaesque Koffka","3.2.8","yes","yes","600bd7cfb6416f0113b04181","602110864497cf011d9c0822","0","f","NA","space","space","space","space","f","947","NA","2855","10965","7669","9476","947","2","legacy","1024","2","48000","-16","task","5226260","even","NA","28669","33534","30677","156105","2391","21043","13372","156615","138902","156095","156615","156016","33534","157564","26890","155516","2378","111135","Lexical Decision Task","53","51048","59","yes","1024"
"3.208978517","10.33","4","fish","word","90","90","861.5","861.5","black","no","legacy","legacy","legacy","0","uniform","1","undefined","undefined","undefined","1","j","0","0","0","0","59","0","0","0","59","0","55","59","55","0","55","3","59","0","59","Thu Feb 18 14:46:32 2021","The main experiment item","yes","Lexical_Decision_Task.osexp","/Users/test/Documents","no","Andale Mono","no","18","no","white","no","yes","576","legacy","55","55","3","/Users/test/Documents/subject-5226260.csv","legacy","Kafkaesque Koffka","3.2.8","yes","yes","600bd7cfb6416f0113b04181","602110864497cf011d9c0822","0","j","NA","space","space","space","space","j","642","NA","2855","10965","7669","9476","642","2","legacy","1024","2","48000","-16","task","5226260","even","NA","28669","33534","30677","158171","2391","21043","13372","158681","138902","158161","158681","158081","33534","159325","26890","157581","2378","111135","Lexical Decision Task","54","51690","60","yes","1024"
"3.282244367","0","6","fute","non-word","88.5245901639","88.5245901639","861.983606557","861.983606557","black","no","legacy","legacy","legacy","0","uniform","0","undefined","undefined","undefined","0","f","0","0","0","0","60","0","0","0","60","0","56","60","56","0","56","3","60","0","60","Thu Feb 18 14:46:32 2021","The main experiment item","yes","Lexical_Decision_Task.osexp","/Users/test/Documents","no","Andale Mono","no","18","no","white","no","yes","576","legacy","56","56","3","/Users/test/Documents/subject-5226260.csv","legacy","Kafkaesque Koffka","3.2.8","yes","yes","600bd7cfb6416f0113b04181","602110864497cf011d9c0822","0","j","NA","space","space","space","space","j","891","NA","2855","10965","7669","9476","891","2","legacy","1024","2","48000","-16","task","5226260","even","NA","28669","33534","30677","159929","2391","21043","13372","160438","138902","159920","160438","159838","33534","161331","26890","159337","2378","111135","Lexical Decision Task","54","52581","61","yes","1024"
"3.22685757","9.99","7","roll","word","88.7096774194","88.7096774194","857.306451613","857.306451613","black","no","legacy","legacy","legacy","0","uniform","1","undefined","undefined","undefined","1","j","0","0","0","0","61","0","0","0","61","0","57","61","57","0","57","3","61","0","61","Thu Feb 18 14:46:32 2021","The main experiment item","yes","Lexical_Decision_Task.osexp","/Users/test/Documents","no","Andale Mono","no","18","no","white","no","yes","576","legacy","57","57","3","/Users/test/Documents/subject-5226260.csv","legacy","Kafkaesque Koffka","3.2.8","yes","yes","600bd7cfb6416f0113b04181","602110864497cf011d9c0822","0","j","NA","space","space","space","space","j","572","NA","2855","10965","7669","9476","572","2","legacy","1024","2","48000","-16","task","5226260","even","NA","28669","33534","30677","162932","2391","21043","13372","163440","138902","162924","163440","162844","33534","164014","26890","159337","2378","161344","Lexical Decision Task","55","53153","62","yes","1024"
"3.311895072","0","9","gung","non-word","88.8888888889","88.8888888889","854.063492063","854.063492063","black","no","legacy","legacy","legacy","0","uniform","1","undefined","undefined","undefined","1","f","0","0","0","0","62","0","0","0","62","0","58","62","58","0","58","3","62","0","62","Thu Feb 18 14:46:32 2021","The main experiment item","yes","Lexical_Decision_Task.osexp","/Users/test/Documents","no","Andale Mono","no","18","no","white","no","yes","576","legacy","58","58","3","/Users/test/Documents/subject-5226260.csv","legacy","Kafkaesque Koffka","3.2.8","yes","yes","600bd7cfb6416f0113b04181","602110864497cf011d9c0822","0","f","NA","space","space","space","space","f","653","NA","2855","10965","7669","9476","653","2","legacy","1024","2","48000","-16","task","5226260","even","NA","28669","33534","30677","164618","2391","21043","13372","165127","138902","164608","165127","164526","33534","165782","26890","164026","2378","161344","Lexical Decision Task","56","53806","63","yes","1024"
"2.794720352","0","9","koot","non-word","89.0625","89.0625","850.53125","850.53125","black","no","legacy","legacy","legacy","0","uniform","1","undefined","undefined","undefined","1","f","0","0","0","0","63","0","0","0","63","0","59","63","59","0","59","3","63","0","63","Thu Feb 18 14:46:32 2021","The main experiment item","yes","Lexical_Decision_Task.osexp","/Users/test/Documents","no","Andale Mono","no","18","no","white","no","yes","576","legacy","59","59","3","/Users/test/Documents/subject-5226260.csv","legacy","Kafkaesque Koffka","3.2.8","yes","yes","600bd7cfb6416f0113b04181","602110864497cf011d9c0822","0","f","NA","space","space","space","space","f","628","NA","2855","10965","7669","9476","628","2","legacy","1024","2","48000","-16","task","5226260","even","NA","28669","33534","30677","166382","2391","21043","13372","166891","138902","166374","166891","166295","33534","167521","26890","165795","2378","161344","Lexical Decision Task","57","54434","64","yes","1024"
"3.209246849","0","7","slem","non-word","89.2307692308","89.2307692308","845.538461538","845.538461538","black","no","legacy","legacy","legacy","0","uniform","1","undefined","undefined","undefined","1","f","0","0","0","0","64","0","0","0","64","0","60","64","60","0","60","3","64","0","64","Thu Feb 18 14:46:32 2021","The main experiment item","yes","Lexical_Decision_Task.osexp","/Users/test/Documents","no","Andale Mono","no","18","no","white","no","yes","576","legacy","60","60","3","/Users/test/Documents/subject-5226260.csv","legacy","Kafkaesque Koffka","3.2.8","yes","yes","600bd7cfb6416f0113b04181","602110864497cf011d9c0822","0","f","NA","space","space","space","space","f","526","NA","2855","10965","7669","9476","526","2","legacy","1024","2","48000","-16","task","5226260","even","NA","28669","33534","30677","168122","2391","21043","13372","168629","138902","168114","168629","168033","33534","169157","26890","167533","2378","161344","Lexical Decision Task","58","54960","65","yes","1024"
"3.1430148","7.92","8","bald","word","89.3939393939","89.3939393939","840.606060606","840.606060606","black","no","legacy","legacy","legacy","0","uniform","1","undefined","undefined","undefined","1","j","0","0","0","0","65","0","0","0","65","0","61","65","61","0","61","3","65","0","65","Thu Feb 18 14:46:32 2021","The main experiment item","yes","Lexical_Decision_Task.osexp","/Users/test/Documents","no","Andale Mono","no","18","no","white","no","yes","576","legacy","61","61","3","/Users/test/Documents/subject-5226260.csv","legacy","Kafkaesque Koffka","3.2.8","yes","yes","600bd7cfb6416f0113b04181","602110864497cf011d9c0822","0","j","NA","space","space","space","space","j","520","NA","2855","10965","7669","9476","520","2","legacy","1024","2","48000","-16","task","5226260","even","NA","28669","33534","30677","169761","2391","21043","13372","170269","138902","169753","170269","169670","33534","170792","26890","169169","2378","161344","Lexical Decision Task","59","55480","66","yes","1024"
"2.69019608","9.01","2","myth","word","89.552238806","89.552238806","836.805970149","836.805970149","black","no","legacy","legacy","legacy","0","uniform","1","undefined","undefined","undefined","1","j","0","0","0","0","66","0","0","0","66","0","62","66","62","0","62","3","66","0","66","Thu Feb 18 14:46:32 2021","The main experiment item","yes","Lexical_Decision_Task.osexp","/Users/test/Documents","no","Andale Mono","no","18","no","white","no","yes","576","legacy","62","62","3","/Users/test/Documents/subject-5226260.csv","legacy","Kafkaesque Koffka","3.2.8","yes","yes","600bd7cfb6416f0113b04181","602110864497cf011d9c0822","0","j","NA","space","space","space","space","j","586","NA","2855","10965","7669","9476","586","2","legacy","1024","2","48000","-16","task","5226260","even","NA","28669","33534","30677","171394","2391","21043","13372","171901","138902","171384","171901","171304","33534","172489","26890","170804","2378","161344","Lexical Decision Task","60","56066","67","yes","1024"
"3.303771854","0","9","dath","non-word","89.7058823529","89.7058823529","835.294117647","835.294117647","black","no","legacy","legacy","legacy","0","uniform","1","undefined","undefined","undefined","1","f","0","0","0","0","67","0","0","0","67","0","63","67","63","0","63","3","67","0","67","Thu Feb 18 14:46:32 2021","The main experiment item","yes","Lexical_Decision_Task.osexp","/Users/test/Documents","no","Andale Mono","no","18","no","white","no","yes","576","legacy","63","63","3","/Users/test/Documents/subject-5226260.csv","legacy","Kafkaesque Koffka","3.2.8","yes","yes","600bd7cfb6416f0113b04181","602110864497cf011d9c0822","0","f","NA","space","space","space","space","f","734","NA","2855","10965","7669","9476","734","2","legacy","1024","2","48000","-16","task","5226260","even","NA","28669","33534","30677","173097","2391","21043","13372","173604","138902","173089","173605","173002","33534","174342","26890","172502","2378","161344","Lexical Decision Task","61","56800","68","yes","1024"
"3.120135028","0","3","vals","non-word","88.4057971014","88.4057971014","830.782608696","830.782608696","black","no","legacy","legacy","legacy","0","uniform","0","undefined","undefined","undefined","0","f","0","0","0","0","68","0","0","0","68","0","64","68","64","0","64","3","68","0","68","Thu Feb 18 14:46:32 2021","The main experiment item","yes","Lexical_Decision_Task.osexp","/Users/test/Documents","no","Andale Mono","no","18","no","white","no","yes","576","legacy","64","64","3","/Users/test/Documents/subject-5226260.csv","legacy","Kafkaesque Koffka","3.2.8","yes","yes","600bd7cfb6416f0113b04181","602110864497cf011d9c0822","0","j","NA","space","space","space","space","j","524","NA","2855","10965","7669","9476","524","2","legacy","1024","2","48000","-16","task","5226260","even","NA","28669","33534","30677","174945","2391","21043","13372","175453","138902","174936","175453","174854","33534","175980","26890","174354","2378","161344","Lexical Decision Task","61","57324","69","yes","1024"
"3.174641193","0","3","ramb","non-word","87.1428571429","87.1428571429","843.4","843.4","black","no","legacy","legacy","legacy","0","uniform","0","undefined","undefined","undefined","0","f","0","0","0","0","69","0","0","0","69","0","65","69","65","0","65","3","69","0","69","Thu Feb 18 14:46:32 2021","The main experiment item","yes","Lexical_Decision_Task.osexp","/Users/test/Documents","no","Andale Mono","no","18","no","white","no","yes","576","legacy","65","65","3","/Users/test/Documents/subject-5226260.csv","legacy","Kafkaesque Koffka","3.2.8","yes","yes","600bd7cfb6416f0113b04181","602110864497cf011d9c0822","0","j","NA","space","space","space","space","j","1714","NA","2855","10965","7669","9476","1714","2","legacy","1024","2","48000","-16","task","5226260","even","NA","28669","33534","30677","177582","2391","21043","13372","178091","138902","177573","178092","177493","33534","179809","26890","174354","2378","175993","Lexical Decision Task","61","59038","70","yes","1024"
"2.793790385","5.67","9","swab","word","87.323943662","87.323943662","841.732394366","841.732394366","black","no","legacy","legacy","legacy","0","uniform","1","undefined","undefined","undefined","1","j","0","0","0","0","70","0","0","0","70","0","66","70","66","0","66","3","70","0","70","Thu Feb 18 14:46:32 2021","The main experiment item","yes","Lexical_Decision_Task.osexp","/Users/test/Documents","no","Andale Mono","no","18","no","white","no","yes","576","legacy","66","66","3","/Users/test/Documents/subject-5226260.csv","legacy","Kafkaesque Koffka","3.2.8","yes","yes","600bd7cfb6416f0113b04181","602110864497cf011d9c0822","0","j","NA","space","space","space","space","j","725","NA","2855","10965","7669","9476","725","2","legacy","1024","2","48000","-16","task","5226260","even","NA","28669","33534","30677","181413","2391","21043","13372","181921","138902","181402","181921","181321","33534","182648","26890","174354","2378","179821","Lexical Decision Task","62","59763","71","yes","1024"
"3.15462682","0","6","noal","non-word","87.5","87.5","847.333333333","847.333333333","black","no","legacy","legacy","legacy","0","uniform","1","undefined","undefined","undefined","1","f","0","0","0","0","71","0","0","0","71","0","67","71","67","0","67","3","71","0","71","Thu Feb 18 14:46:32 2021","The main experiment item","yes","Lexical_Decision_Task.osexp","/Users/test/Documents","no","Andale Mono","no","18","no","white","no","yes","576","legacy","67","67","3","/Users/test/Documents/subject-5226260.csv","legacy","Kafkaesque Koffka","3.2.8","yes","yes","600bd7cfb6416f0113b04181","602110864497cf011d9c0822","0","f","NA","space","space","space","space","f","1245","NA","2855","10965","7669","9476","1245","2","legacy","1024","2","48000","-16","task","5226260","even","NA","28669","33534","30677","183250","2391","21043","13372","183759","138902","183241","183759","183160","33534","185007","26890","182659","2378","179821","Lexical Decision Task","63","61008","72","yes","1024"
"2.812467698","0","7","hafe","non-word","87.6712328767","87.6712328767","846.287671233","846.287671233","black","no","legacy","legacy","legacy","0","uniform","1","undefined","undefined","undefined","1","f","0","0","0","0","72","0","0","0","72","0","68","72","68","0","68","3","72","0","72","Thu Feb 18 14:46:32 2021","The main experiment item","yes","Lexical_Decision_Task.osexp","/Users/test/Documents","no","Andale Mono","no","18","no","white","no","yes","576","legacy","68","68","3","/Users/test/Documents/subject-5226260.csv","legacy","Kafkaesque Koffka","3.2.8","yes","yes","600bd7cfb6416f0113b04181","602110864497cf011d9c0822","0","f","NA","space","space","space","space","f","771","NA","2855","10965","7669","9476","771","2","legacy","1024","2","48000","-16","task","5226260","even","NA","28669","33534","30677","185609","2391","21043","13372","186116","138902","185601","186116","185519","33534","186890","26890","185019","2378","179821","Lexical Decision Task","64","61779","73","yes","1024"
"3.218535505","7.85","7","goat","word","87.8378378378","87.8378378378","842.486486486","842.486486486","black","no","legacy","legacy","legacy","0","uniform","1","undefined","undefined","undefined","1","j","0","0","0","0","73","0","0","0","73","0","69","73","69","0","69","3","73","0","73","Thu Feb 18 14:46:32 2021","The main experiment item","yes","Lexical_Decision_Task.osexp","/Users/test/Documents","no","Andale Mono","no","18","no","white","no","yes","576","legacy","69","69","3","/Users/test/Documents/subject-5226260.csv","legacy","Kafkaesque Koffka","3.2.8","yes","yes","600bd7cfb6416f0113b04181","602110864497cf011d9c0822","0","j","NA","space","space","space","space","j","565","NA","2855","10965","7669","9476","565","2","legacy","1024","2","48000","-16","task","5226260","even","NA","28669","33534","30677","187496","2391","21043","13372","188002","138902","187488","188002","187403","33534","188569","26890","186902","2378","179821","Lexical Decision Task","65","62344","74","yes","1024"
"2.778633532","0","3","jurp","non-word","88","88","839.92","839.92","black","no","legacy","legacy","legacy","0","uniform","1","undefined","undefined","undefined","1","f","0","0","0","0","74","0","0","0","74","0","70","74","70","0","70","3","74","0","74","Thu Feb 18 14:46:32 2021","The main experiment item","yes","Lexical_Decision_Task.osexp","/Users/test/Documents","no","Andale Mono","no","18","no","white","no","yes","576","legacy","70","70","3","/Users/test/Documents/subject-5226260.csv","legacy","Kafkaesque Koffka","3.2.8","yes","yes","600bd7cfb6416f0113b04181","602110864497cf011d9c0822","0","f","NA","space","space","space","space","f","650","NA","2855","10965","7669","9476","650","2","legacy","1024","2","48000","-16","task","5226260","even","NA","28669","33534","30677","189175","2391","21043","13372","189682","138902","189166","189682","189081","33534","190335","26890","188581","2378","179821","Lexical Decision Task","66","62994","75","yes","1024"
"2.953276337","6.32","4","thaw","word","88.1578947368","88.1578947368","844.736842105","844.736842105","black","no","legacy","legacy","legacy","0","uniform","1","undefined","undefined","undefined","1","j","0","0","0","0","75","0","0","0","75","0","71","75","71","0","71","3","75","0","75","Thu Feb 18 14:46:32 2021","The main experiment item","yes","Lexical_Decision_Task.osexp","/Users/test/Documents","no","Andale Mono","no","18","no","white","no","yes","576","legacy","71","71","3","/Users/test/Documents/subject-5226260.csv","legacy","Kafkaesque Koffka","3.2.8","yes","yes","600bd7cfb6416f0113b04181","602110864497cf011d9c0822","0","j","NA","space","space","space","space","j","1206","NA","2855","10965","7669","9476","1206","2","legacy","1024","2","48000","-16","task","5226260","even","NA","28669","33534","30677","190941","2391","21043","13372","191448","138902","190929","191449","190847","33534","192657","26890","190346","2378","179821","Lexical Decision Task","67","64200","76","yes","1024"
"2.868644438","10.52","4","town","word","87.012987013","87.012987013","847.584415584","847.584415584","black","no","legacy","legacy","legacy","0","uniform","0","undefined","undefined","undefined","0","j","0","0","0","0","76","0","0","0","76","0","72","76","72","0","72","3","76","0","76","Thu Feb 18 14:46:32 2021","The main experiment item","yes","Lexical_Decision_Task.osexp","/Users/test/Documents","no","Andale Mono","no","18","no","white","no","yes","576","legacy","72","72","3","/Users/test/Documents/subject-5226260.csv","legacy","Kafkaesque Koffka","3.2.8","yes","yes","600bd7cfb6416f0113b04181","602110864497cf011d9c0822","0","f","NA","space","space","space","space","f","1064","NA","2855","10965","7669","9476","1064","2","legacy","1024","2","48000","-16","task","5226260","even","NA","28669","33534","30677","193258","2391","21043","13372","193766","138902","193249","193766","193169","33534","194832","26890","192669","2378","179821","Lexical Decision Task","67","65264","77","yes","1024"
"2.971428938","9.86","7","spot","word","87.1794871795","87.1794871795","844.871794872","844.871794872","black","no","legacy","legacy","legacy","0","uniform","1","undefined","undefined","undefined","1","j","0","0","0","0","77","0","0","0","77","0","73","77","73","0","73","3","77","0","77","Thu Feb 18 14:46:32 2021","The main experiment item","yes","Lexical_Decision_Task.osexp","/Users/test/Documents","no","Andale Mono","no","18","no","white","no","yes","576","legacy","73","73","3","/Users/test/Documents/subject-5226260.csv","legacy","Kafkaesque Koffka","3.2.8","yes","yes","600bd7cfb6416f0113b04181","602110864497cf011d9c0822","0","j","NA","space","space","space","space","j","636","NA","2855","10965","7669","9476","636","2","legacy","1024","2","48000","-16","task","5226260","even","NA","28669","33534","30677","196436","2391","21043","13372","196943","138902","196427","196943","196345","33534","197581","26890","192669","2378","194845","Lexical Decision Task","68","65900","78","yes","1024"
"3.216517684","10.87","3","film","word","87.3417721519","87.3417721519","842.367088608","842.367088608","black","no","legacy","legacy","legacy","0","uniform","1","undefined","undefined","undefined","1","j","0","0","0","0","78","0","0","0","78","0","74","78","74","0","74","3","78","0","78","Thu Feb 18 14:46:32 2021","The main experiment item","yes","Lexical_Decision_Task.osexp","/Users/test/Documents","no","Andale Mono","no","18","no","white","no","yes","576","legacy","74","74","3","/Users/test/Documents/subject-5226260.csv","legacy","Kafkaesque Koffka","3.2.8","yes","yes","600bd7cfb6416f0113b04181","602110864497cf011d9c0822","0","j","NA","space","space","space","space","j","647","NA","2855","10965","7669","9476","647","2","legacy","1024","2","48000","-16","task","5226260","even","NA","28669","33534","30677","198185","2391","21043","13372","198692","138902","198177","198693","198095","33534","199342","26890","197595","2378","194845","Lexical Decision Task","69","66547","79","yes","1024"
"2.996511672","0","7","hoil","non-word","87.5","87.5","842.8375","842.8375","black","no","legacy","legacy","legacy","0","uniform","1","undefined","undefined","undefined","1","f","0","0","0","0","79","0","0","0","79","0","75","79","75","0","75","3","79","0","79","Thu Feb 18 14:46:32 2021","The main experiment item","yes","Lexical_Decision_Task.osexp","/Users/test/Documents","no","Andale Mono","no","18","no","white","no","yes","576","legacy","75","75","3","/Users/test/Documents/subject-5226260.csv","legacy","Kafkaesque Koffka","3.2.8","yes","yes","600bd7cfb6416f0113b04181","602110864497cf011d9c0822","0","f","NA","space","space","space","space","f","880","NA","2855","10965","7669","9476","880","2","legacy","1024","2","48000","-16","task","5226260","even","NA","28669","33534","30677","199947","2391","21043","13372","200455","138902","199936","200455","199854","33534","201337","26890","199354","2378","194845","Lexical Decision Task","70","67427","80","yes","1024"
"3.105055783","0","2","norp","non-word","87.6543209877","87.6543209877","841.592592593","841.592592593","black","no","legacy","legacy","legacy","0","uniform","1","undefined","undefined","undefined","1","f","0","0","0","0","80","0","0","0","80","0","76","80","76","0","76","3","80","0","80","Thu Feb 18 14:46:32 2021","The main experiment item","yes","Lexical_Decision_Task.osexp","/Users/test/Documents","no","Andale Mono","no","18","no","white","no","yes","576","legacy","76","76","3","/Users/test/Documents/subject-5226260.csv","legacy","Kafkaesque Koffka","3.2.8","yes","yes","600bd7cfb6416f0113b04181","602110864497cf011d9c0822","0","f","NA","space","space","space","space","f","742","NA","2855","10965","7669","9476","742","2","legacy","1024","2","48000","-16","task","5226260","even","NA","28669","33534","30677","201937","2391","21043","13372","202444","138902","201928","202444","201850","33534","203188","26890","201349","2378","194845","Lexical Decision Task","71","68169","81","yes","1024"
"3.076883066","0","8","mout","non-word","87.8048780488","87.8048780488","842.914634146","842.914634146","black","no","legacy","legacy","legacy","0","uniform","1","undefined","undefined","undefined","1","f","0","0","0","0","81","0","0","0","81","0","77","81","77","0","77","3","81","0","81","Thu Feb 18 14:46:32 2021","The main experiment item","yes","Lexical_Decision_Task.osexp","/Users/test/Documents","no","Andale Mono","no","18","no","white","no","yes","576","legacy","77","77","3","/Users/test/Documents/subject-5226260.csv","legacy","Kafkaesque Koffka","3.2.8","yes","yes","600bd7cfb6416f0113b04181","602110864497cf011d9c0822","0","f","NA","space","space","space","space","f","950","NA","2855","10965","7669","9476","950","2","legacy","1024","2","48000","-16","task","5226260","even","NA","28669","33534","30677","203795","2391","21043","13372","204303","138902","203787","204303","203703","33534","205255","26890","203203","2378","194845","Lexical Decision Task","72","69119","82","yes","1024"
"2.8162413","0","5","nusk","non-word","87.9518072289","87.9518072289","851.975903614","851.975903614","black","no","legacy","legacy","legacy","0","uniform","1","undefined","undefined","undefined","1","f","0","0","0","0","82","0","0","0","82","0","78","82","78","0","78","3","82","0","82","Thu Feb 18 14:46:32 2021","The main experiment item","yes","Lexical_Decision_Task.osexp","/Users/test/Documents","no","Andale Mono","no","18","no","white","no","yes","576","legacy","78","78","3","/Users/test/Documents/subject-5226260.csv","legacy","Kafkaesque Koffka","3.2.8","yes","yes","600bd7cfb6416f0113b04181","602110864497cf011d9c0822","0","f","NA","space","space","space","space","f","1595","NA","2855","10965","7669","9476","1595","2","legacy","1024","2","48000","-16","task","5226260","even","NA","28669","33534","30677","205855","2391","21043","13372","206363","138902","205847","206363","205768","33534","207960","26890","205268","2378","194845","Lexical Decision Task","73","70714","83","yes","1024"
"2.838639236","0","4","furg","non-word","88.0952380952","88.0952380952","850.226190476","850.226190476","black","no","legacy","legacy","legacy","0","uniform","1","undefined","undefined","undefined","1","f","0","0","0","0","83","0","0","0","83","0","79","83","79","0","79","3","83","0","83","Thu Feb 18 14:46:32 2021","The main experiment item","yes","Lexical_Decision_Task.osexp","/Users/test/Documents","no","Andale Mono","no","18","no","white","no","yes","576","legacy","79","79","3","/Users/test/Documents/subject-5226260.csv","legacy","Kafkaesque Koffka","3.2.8","yes","yes","600bd7cfb6416f0113b04181","602110864497cf011d9c0822","0","f","NA","space","space","space","space","f","705","NA","2855","10965","7669","9476","705","2","legacy","1024","2","48000","-16","task","5226260","even","NA","28669","33534","30677","208560","2391","21043","13372","209070","138902","208552","209070","208471","33534","209779","26890","207971","2378","194845","Lexical Decision Task","74","71419","84","yes","1024"
"3.159867847","5.98","5","brim","word","87.0588235294","87.0588235294","846.788235294","846.788235294","black","no","legacy","legacy","legacy","0","uniform","0","undefined","undefined","undefined","0","j","0","0","0","0","84","0","0","0","84","0","80","84","80","0","80","3","84","0","84","Thu Feb 18 14:46:32 2021","The main experiment item","yes","Lexical_Decision_Task.osexp","/Users/test/Documents","no","Andale Mono","no","18","no","white","no","yes","576","legacy","80","80","3","/Users/test/Documents/subject-5226260.csv","legacy","Kafkaesque Koffka","3.2.8","yes","yes","600bd7cfb6416f0113b04181","602110864497cf011d9c0822","0","f","NA","space","space","space","space","f","558","NA","2855","10965","7669","9476","558","2","legacy","1024","2","48000","-16","task","5226260","even","NA","28669","33534","30677","210378","2391","21043","13372","210885","138902","210369","210885","210291","33534","211446","26890","209791","2378","194845","Lexical Decision Task","74","71977","85","yes","1024"
"3.003891166","8.05","2","frog","word","87.2093023256","87.2093023256","843.465116279","843.465116279","black","no","legacy","legacy","legacy","0","uniform","1","undefined","undefined","undefined","1","j","0","0","0","0","85","0","0","0","85","0","81","85","81","0","81","3","85","0","85","Thu Feb 18 14:46:32 2021","The main experiment item","yes","Lexical_Decision_Task.osexp","/Users/test/Documents","no","Andale Mono","no","18","no","white","no","yes","576","legacy","81","81","3","/Users/test/Documents/subject-5226260.csv","legacy","Kafkaesque Koffka","3.2.8","yes","yes","600bd7cfb6416f0113b04181","602110864497cf011d9c0822","0","j","NA","space","space","space","space","j","561","NA","2855","10965","7669","9476","561","2","legacy","1024","2","48000","-16","task","5226260","even","NA","28669","33534","30677","213047","2391","21043","13372","213554","138902","213039","213554","212959","33534","214118","26890","209791","2378","211459","Lexical Decision Task","75","72538","86","yes","1024"
"3.037294994","8.64","7","roof","word","87.3563218391","87.3563218391","839.83908046","839.83908046","black","no","legacy","legacy","legacy","0","uniform","1","undefined","undefined","undefined","1","j","0","0","0","0","86","0","0","0","86","0","82","86","82","0","82","3","86","0","86","Thu Feb 18 14:46:32 2021","The main experiment item","yes","Lexical_Decision_Task.osexp","/Users/test/Documents","no","Andale Mono","no","18","no","white","no","yes","576","legacy","82","82","3","/Users/test/Documents/subject-5226260.csv","legacy","Kafkaesque Koffka","3.2.8","yes","yes","600bd7cfb6416f0113b04181","602110864497cf011d9c0822","0","j","NA","space","space","space","space","j","528","NA","2855","10965","7669","9476","528","2","legacy","1024","2","48000","-16","task","5226260","even","NA","28669","33534","30677","214721","2391","21043","13372","215229","138902","214713","215229","214631","33534","215760","26890","214131","2378","211459","Lexical Decision Task","76","73066","87","yes","1024"
"3.195807436","0","6","stup","non-word","87.5","87.5","842.625","842.625","black","no","legacy","legacy","legacy","0","uniform","1","undefined","undefined","undefined","1","f","0","0","0","0","87","0","0","0","87","0","83","87","83","0","83","3","87","0","87","Thu Feb 18 14:46:32 2021","The main experiment item","yes","Lexical_Decision_Task.osexp","/Users/test/Documents","no","Andale Mono","no","18","no","white","no","yes","576","legacy","83","83","3","/Users/test/Documents/subject-5226260.csv","legacy","Kafkaesque Koffka","3.2.8","yes","yes","600bd7cfb6416f0113b04181","602110864497cf011d9c0822","0","f","NA","space","space","space","space","f","1085","NA","2855","10965","7669","9476","1085","2","legacy","1024","2","48000","-16","task","5226260","even","NA","28669","33534","30677","216362","2391","21043","13372","216871","138902","216354","216871","216272","33534","217959","26890","215772","2378","211459","Lexical Decision Task","77","74151","88","yes","1024"
"2.728085817","10.02","9","bike","word","87.6404494382","87.6404494382","840.292134831","840.292134831","black","no","legacy","legacy","legacy","0","uniform","1","undefined","undefined","undefined","1","j","0","0","0","0","88","0","0","0","88","0","84","88","84","0","84","3","88","0","88","Thu Feb 18 14:46:32 2021","The main experiment item","yes","Lexical_Decision_Task.osexp","/Users/test/Documents","no","Andale Mono","no","18","no","white","no","yes","576","legacy","84","84","3","/Users/test/Documents/subject-5226260.csv","legacy","Kafkaesque Koffka","3.2.8","yes","yes","600bd7cfb6416f0113b04181","602110864497cf011d9c0822","0","j","NA","space","space","space","space","j","635","NA","2855","10965","7669","9476","635","2","legacy","1024","2","48000","-16","task","5226260","even","NA","28669","33534","30677","218567","2391","21043","13372","219075","138902","218559","219075","218474","33534","219713","26890","217974","2378","211459","Lexical Decision Task","78","74786","89","yes","1024"
"3.121778632","0","9","sark","non-word","86.6666666667","86.6666666667","844.5","844.5","black","no","legacy","legacy","legacy","0","uniform","0","undefined","undefined","undefined","0","f","0","0","0","0","89","0","0","0","89","0","85","89","85","0","85","3","89","0","89","Thu Feb 18 14:46:32 2021","The main experiment item","yes","Lexical_Decision_Task.osexp","/Users/test/Documents","no","Andale Mono","no","18","no","white","no","yes","576","legacy","85","85","3","/Users/test/Documents/subject-5226260.csv","legacy","Kafkaesque Koffka","3.2.8","yes","yes","600bd7cfb6416f0113b04181","602110864497cf011d9c0822","0","j","NA","space","space","space","space","j","1219","NA","2855","10965","7669","9476","1219","2","legacy","1024","2","48000","-16","task","5226260","even","NA","28669","33534","30677","220313","2391","21043","13372","220820","138902","220305","220820","220225","33534","222041","26890","219725","2378","211459","Lexical Decision Task","78","76005","90","yes","1024"
"2.664328519","0","4","plux","non-word","86.8131868132","86.8131868132","853.054945055","853.054945055","black","no","legacy","legacy","legacy","0","uniform","1","undefined","undefined","undefined","1","f","0","0","0","0","90","0","0","0","90","0","86","90","86","0","86","3","90","0","90","Thu Feb 18 14:46:32 2021","The main experiment item","yes","Lexical_Decision_Task.osexp","/Users/test/Documents","no","Andale Mono","no","18","no","white","no","yes","576","legacy","86","86","3","/Users/test/Documents/subject-5226260.csv","legacy","Kafkaesque Koffka","3.2.8","yes","yes","600bd7cfb6416f0113b04181","602110864497cf011d9c0822","0","f","NA","space","space","space","space","f","1623","NA","2855","10965","7669","9476","1623","2","legacy","1024","2","48000","-16","task","5226260","even","NA","28669","33534","30677","223646","2391","21043","13372","224155","138902","223637","224155","223554","33534","225780","26890","219725","2378","222054","Lexical Decision Task","79","77628","91","yes","1024"
"2.839898939","8.99","6","soap","word","86.9565217391","86.9565217391","852.163043478","852.163043478","black","no","legacy","legacy","legacy","0","uniform","1","undefined","undefined","undefined","1","j","0","0","0","0","91","0","0","0","91","0","87","91","87","0","87","3","91","0","91","Thu Feb 18 14:46:32 2021","The main experiment item","yes","Lexical_Decision_Task.osexp","/Users/test/Documents","no","Andale Mono","no","18","no","white","no","yes","576","legacy","87","87","3","/Users/test/Documents/subject-5226260.csv","legacy","Kafkaesque Koffka","3.2.8","yes","yes","600bd7cfb6416f0113b04181","602110864497cf011d9c0822","0","j","NA","space","space","space","space","j","771","NA","2855","10965","7669","9476","771","2","legacy","1024","2","48000","-16","task","5226260","even","NA","28669","33534","30677","226380","2391","21043","13372","226888","138902","226372","226889","226292","33534","227663","26890","225791","2378","222054","Lexical Decision Task","80","78399","92","yes","1024"
"3.397302518","7.01","2","knit","word","87.0967741935","87.0967741935","853.967741935","853.967741935","black","no","legacy","legacy","legacy","0","uniform","1","undefined","undefined","undefined","1","j","0","0","0","0","92","0","0","0","92","0","88","92","88","0","88","3","92","0","92","Thu Feb 18 14:46:32 2021","The main experiment item","yes","Lexical_Decision_Task.osexp","/Users/test/Documents","no","Andale Mono","no","18","no","white","no","yes","576","legacy","88","88","3","/Users/test/Documents/subject-5226260.csv","legacy","Kafkaesque Koffka","3.2.8","yes","yes","600bd7cfb6416f0113b04181","602110864497cf011d9c0822","0","j","NA","space","space","space","space","j","1020","NA","2855","10965","7669","9476","1020","2","legacy","1024","2","48000","-16","task","5226260","even","NA","28669","33534","30677","228268","2391","21043","13372","228776","138902","228259","228776","228177","33534","229798","26890","227676","2378","222054","Lexical Decision Task","81","79419","93","yes","1024"
"3.261341392","5.08","8","reek","word","87.2340425532","87.2340425532","854.106382979","854.106382979","black","no","legacy","legacy","legacy","0","uniform","1","undefined","undefined","undefined","1","j","0","0","0","0","93","0","0","0","93","0","89","93","89","0","89","3","93","0","93","Thu Feb 18 14:46:32 2021","The main experiment item","yes","Lexical_Decision_Task.osexp","/Users/test/Documents","no","Andale Mono","no","18","no","white","no","yes","576","legacy","89","89","3","/Users/test/Documents/subject-5226260.csv","legacy","Kafkaesque Koffka","3.2.8","yes","yes","600bd7cfb6416f0113b04181","602110864497cf011d9c0822","0","j","NA","space","space","space","space","j","867","NA","2855","10965","7669","9476","867","2","legacy","1024","2","48000","-16","task","5226260","even","NA","28669","33534","30677","230396","2391","21043","13372","230904","138902","230388","230904","230310","33534","231774","26890","229810","2378","222054","Lexical Decision Task","82","80286","94","yes","1024"
"2.782472624","10.55","2","huge","word","87.3684210526","87.3684210526","850.778947368","850.778947368","black","no","legacy","legacy","legacy","0","uniform","1","undefined","undefined","undefined","1","j","0","0","0","0","94","0","0","0","94","0","90","94","90","0","90","3","94","0","94","Thu Feb 18 14:46:32 2021","The main experiment item","yes","Lexical_Decision_Task.osexp","/Users/test/Documents","no","Andale Mono","no","18","no","white","no","yes","576","legacy","90","90","3","/Users/test/Documents/subject-5226260.csv","legacy","Kafkaesque Koffka","3.2.8","yes","yes","600bd7cfb6416f0113b04181","602110864497cf011d9c0822","0","j","NA","space","space","space","space","j","538","NA","2855","10965","7669","9476","538","2","legacy","1024","2","48000","-16","task","5226260","even","NA","28669","33534","30677","232380","2391","21043","13372","232887","138902","232372","232888","232288","33534","233429","26890","231788","2378","222054","Lexical Decision Task","83","80824","95","yes","1024"
"2.744553742","0","2","nawk","non-word","87.5","87.5","847.927083333","847.927083333","black","no","legacy","legacy","legacy","0","uniform","1","undefined","undefined","undefined","1","f","0","0","0","0","95","0","0","0","95","0","91","95","91","0","91","3","95","0","95","Thu Feb 18 14:46:32 2021","The main experiment item","yes","Lexical_Decision_Task.osexp","/Users/test/Documents","no","Andale Mono","no","18","no","white","no","yes","576","legacy","91","91","3","/Users/test/Documents/subject-5226260.csv","legacy","Kafkaesque Koffka","3.2.8","yes","yes","600bd7cfb6416f0113b04181","602110864497cf011d9c0822","0","f","NA","space","space","space","space","f","577","NA","2855","10965","7669","9476","577","2","legacy","1024","2","48000","-16","task","5226260","even","NA","28669","33534","30677","234029","2391","21043","13372","234537","138902","234020","234537","233941","33534","235117","26890","233441","2378","222054","Lexical Decision Task","84","81401","96","yes","1024"
"2.75025376","10.2","6","jump","word","87.6288659794","87.6288659794","844.81443299","844.81443299","black","no","legacy","legacy","legacy","0","uniform","1","undefined","undefined","undefined","1","j","0","0","0","0","96","0","0","0","96","0","92","96","92","0","92","3","96","0","96","Thu Feb 18 14:46:32 2021","The main experiment item","yes","Lexical_Decision_Task.osexp","/Users/test/Documents","no","Andale Mono","no","18","no","white","no","yes","576","legacy","92","92","3","/Users/test/Documents/subject-5226260.csv","legacy","Kafkaesque Koffka","3.2.8","yes","yes","600bd7cfb6416f0113b04181","602110864497cf011d9c0822","0","j","NA","space","space","space","space","j","546","NA","2855","10965","7669","9476","546","2","legacy","1024","2","48000","-16","task","5226260","even","NA","28669","33534","30677","235721","2391","21043","13372","236229","138902","235713","236229","235629","33534","236779","26890","235129","2378","222054","Lexical Decision Task","85","81947","97","yes","1024"
"2.952953801","0","8","clax","non-word","87.7551020408","87.7551020408","844.448979592","844.448979592","black","no","legacy","legacy","legacy","0","uniform","1","undefined","undefined","undefined","1","f","0","0","0","0","97","0","0","0","97","0","93","97","93","0","93","3","97","0","97","Thu Feb 18 14:46:32 2021","The main experiment item","yes","Lexical_Decision_Task.osexp","/Users/test/Documents","no","Andale Mono","no","18","no","white","no","yes","576","legacy","93","93","3","/Users/test/Documents/subject-5226260.csv","legacy","Kafkaesque Koffka","3.2.8","yes","yes","600bd7cfb6416f0113b04181","602110864497cf011d9c0822","0","f","NA","space","space","space","space","f","809","NA","2855","10965","7669","9476","809","2","legacy","1024","2","48000","-16","task","5226260","even","NA","28669","33534","30677","237385","2391","21043","13372","237892","138902","237376","237892","237293","33534","238704","26890","236793","2378","222054","Lexical Decision Task","86","82756","98","yes","1024"
"2.693726949","5.08","3","swig","word","87.8787878788","87.8787878788","845.141414141","845.141414141","black","no","legacy","legacy","legacy","0","uniform","1","undefined","undefined","undefined","1","j","0","0","0","0","98","0","0","0","98","0","94","98","94","0","94","3","98","0","98","Thu Feb 18 14:46:32 2021","The main experiment item","yes","Lexical_Decision_Task.osexp","/Users/test/Documents","no","Andale Mono","no","18","no","white","no","yes","576","legacy","94","94","3","/Users/test/Documents/subject-5226260.csv","legacy","Kafkaesque Koffka","3.2.8","yes","yes","600bd7cfb6416f0113b04181","602110864497cf011d9c0822","0","j","NA","space","space","space","space","j","913","NA","2855","10965","7669","9476","913","2","legacy","1024","2","48000","-16","task","5226260","even","NA","28669","33534","30677","239309","2391","21043","13372","239818","138902","239300","239819","239216","33534","240735","26890","238716","2378","222054","Lexical Decision Task","87","83669","99","yes","1024"
"3.067070856","9.39","3","loud","word","88","88","842.89","842.89","black","no","legacy","legacy","legacy","0","uniform","1","undefined","undefined","undefined","1","j","0","0","0","0","99","0","0","0","99","0","95","99","95","0","95","3","99","0","99","Thu Feb 18 14:46:32 2021","The main experiment item","yes","Lexical_Decision_Task.osexp","/Users/test/Documents","no","Andale Mono","no","18","no","white","no","yes","576","legacy","95","95","3","/Users/test/Documents/subject-5226260.csv","legacy","Kafkaesque Koffka","3.2.8","yes","yes","600bd7cfb6416f0113b04181","602110864497cf011d9c0822","0","j","NA","space","space","space","space","j","620","NA","2855","10965","7669","9476","620","2","legacy","1024","2","48000","-16","task","5226260","even","NA","28669","33534","30677","241337","2391","21043","13372","241845","138902","241329","241845","241247","33534","242468","26890","240747","2378","222054","Lexical Decision Task","88","84289","100","yes","1024"
"2.893578687","8.69","3","surf","word","88.1188118812","88.1188118812","846.108910891","846.108910891","black","no","legacy","legacy","legacy","0","uniform","1","undefined","undefined","undefined","1","j","0","0","0","0","100","0","0","0","100","0","96","100","96","0","96","3","100","0","100","Thu Feb 18 14:46:32 2021","The main experiment item","yes","Lexical_Decision_Task.osexp","/Users/test/Documents","no","Andale Mono","no","18","no","white","no","yes","576","legacy","96","96","3","/Users/test/Documents/subject-5226260.csv","legacy","Kafkaesque Koffka","3.2.8","yes","yes","600bd7cfb6416f0113b04181","602110864497cf011d9c0822","0","j","NA","space","space","space","space","j","1168","NA","2855","10965","7669","9476","1168","2","legacy","1024","2","48000","-16","task","5226260","even","NA","28669","33534","30677","243068","2391","21043","13372","243575","138902","243058","243575","242980","33534","244746","26890","242480","2378","222054","Lexical Decision Task","89","85457","101","yes","1024"
"2.713490543","0","3","feps","non-word","88.2352941176","88.2352941176","846.058823529","846.058823529","black","no","legacy","legacy","legacy","0","uniform","1","undefined","undefined","undefined","1","f","0","0","0","0","101","0","0","0","101","0","97","101","97","0","97","3","101","0","101","Thu Feb 18 14:46:32 2021","The main experiment item","yes","Lexical_Decision_Task.osexp","/Users/test/Documents","no","Andale Mono","no","18","no","white","no","yes","576","legacy","97","97","3","/Users/test/Documents/subject-5226260.csv","legacy","Kafkaesque Koffka","3.2.8","yes","yes","600bd7cfb6416f0113b04181","602110864497cf011d9c0822","0","f","NA","space","space","space","space","f","841","NA","2855","10965","7669","9476","841","2","legacy","1024","2","48000","-16","task","5226260","even","NA","28669","33534","30677","245351","2391","21043","13372","245860","138902","245342","245860","245259","33534","246704","26890","244759","2378","222054","Lexical Decision Task","90","86298","102","yes","1024"
"3.276537627","9.15","5","trap","word","88.3495145631","88.3495145631","843.747572816","843.747572816","black","no","legacy","legacy","legacy","0","uniform","1","undefined","undefined","undefined","1","j","0","0","0","0","102","0","0","0","102","0","98","102","98","0","98","3","102","0","102","Thu Feb 18 14:46:32 2021","The main experiment item","yes","Lexical_Decision_Task.osexp","/Users/test/Documents","no","Andale Mono","no","18","no","white","no","yes","576","legacy","98","98","3","/Users/test/Documents/subject-5226260.csv","legacy","Kafkaesque Koffka","3.2.8","yes","yes","600bd7cfb6416f0113b04181","602110864497cf011d9c0822","0","j","NA","space","space","space","space","j","608","NA","2855","10965","7669","9476","608","2","legacy","1024","2","48000","-16","task","5226260","even","NA","28669","33534","30677","247314","2391","21043","13372","247822","138902","247305","247822","247219","33534","248432","26890","246719","2378","222054","Lexical Decision Task","91","86906","103","yes","1024"
