"Log_BG","Log_Freq_HAL","Ortho_N","Stimulus","Type","acc","accuracy","average_response_time","avg_rt","background","bidi","canvas_backend","clock_backend","color_backend","compensation","coordinates","correct","correct_Experimental_intro","correct_Introduction","correct_Practice_intro","correct_experimenter_kb","correct_response","count_End_Of_Experiment","count_End_Of_Practice","count_Experimental_Loop","count_Experimental_intro","count_Fixation","count_Introduction","count_Practice_Loop","count_Practice_intro","count_Stimulus","count_block_break_feedback","count_experimental_sequence","count_experimenter_kb","count_increment_trial_count","count_init_trial_count","count_logger","count_practice_sequence","count_right","count_task","count_wrong","datetime","description","disable_garbage_collection","experiment_file","experiment_path","font_bold","font_family","font_italic","font_size","font_underline","foreground","form_clicks","fullscreen","height","keyboard_backend","live_row","live_row_Experimental_Loop","live_row_Practice_Loop","logfile","mouse_backend","opensesame_codename","opensesame_version","osf_always_upload_data","osf_always_upload_experiment","osf_datanode_id","osf_id","repeat_cycle","response","response_End_Of_Experiment","response_Experimental_intro","response_Introduction","response_Practice_intro","response_block_break_feedback","response_experimenter_kb","response_time","response_time_End_Of_Experiment","response_time_Experimental_intro","response_time_Introduction","response_time_Practice_intro","response_time_block_break_feedback","response_time_experimenter_kb","round_decimals","sampler_backend","sound_buf_size","sound_channels","sound_freq","sound_sample_size","start","subject_nr","subject_parity","time_End_Of_Experiment","time_End_Of_Practice","time_Experimental_Loop","time_Experimental_intro","time_Fixation","time_Introduction","time_Practice_Loop","time_Practice_intro","time_Stimulus","time_block_break_feedback","time_experimental_sequence","time_experimenter_kb","time_increment_trial_count","time_init_trial_count","time_logger","time_practice_sequence","time_right","time_task","time_wrong","title","total_correct","total_response_time","total_responses","uniform_coordinates","width"
"2.675164031","8.57","6","glue","word","100","100","1157.6","1157.6","black","no","legacy","legacy","legacy","0","uniform","1","undefined","undefined","undefined","1","j","0","0","0","0","4","0","0","0","4","NA","0","4","0","0","0","3","4","0","4","Thu Feb 18 13:13:55 2021","The main experiment item","yes","Lexical_Decision_Task.osexp","/Users/rachelrose","no","Andale Mono","no","18","no","white","no","yes","576","legacy","0","0","3","/Users/rachelrose/subject-5204804.csv","legacy","Lentiform Loewenfeld","3.3.7","yes","yes","600bd7cfb6416f0113b04181","602110864497cf011d9c0822","0","j","NA","return","return","return","NA","j","1164","NA","4148","37817","9763","NA","1164","2","legacy","1024","2","48000","-16","task","5204804","even","NA","62027","68180","64031","68206","5361","52955","43189","68708","NA","68204","68708","NA","68180","69873","60219","61495","5320","NA","Lexical Decision Task","5","5788","5","yes","1024"
"2.698387659","6.66","7","skid","word","100","100","1131.3333333333333","1131.3333333333333","black","no","legacy","legacy","legacy","0","uniform","1","undefined","undefined","undefined","1","j","0","0","0","0","5","0","0","0","5","NA","1","5","1","0","1","3","5","0","5","Thu Feb 18 13:13:55 2021","The main experiment item","yes","Lexical_Decision_Task.osexp","/Users/rachelrose","no","Andale Mono","no","18","no","white","no","yes","576","legacy","1","1","3","/Users/rachelrose/subject-5204804.csv","legacy","Lentiform Loewenfeld","3.3.7","yes","yes","600bd7cfb6416f0113b04181","602110864497cf011d9c0822","0","j","NA","return","return","return","NA","j","1000","NA","4148","37817","9763","NA","1000","2","legacy","1024","2","48000","-16","task","5204804","even","NA","62027","68180","64031","70438","5361","52955","43189","70942","NA","70435","70942","70380","68180","71942","60219","69880","5320","NA","Lexical Decision Task","6","6788","6","yes","1024"
"3.102203805","7.21","3","drip","word","100","100","1067.5714285714287","1067.5714285714287","black","no","legacy","legacy","legacy","0","uniform","1","undefined","undefined","undefined","1","j","0","0","0","0","6","0","0","0","6","NA","2","6","2","0","2","3","6","0","6","Thu Feb 18 13:13:55 2021","The main experiment item","yes","Lexical_Decision_Task.osexp","/Users/rachelrose","no","Andale Mono","no","18","no","white","no","yes","576","legacy","2","2","3","/Users/rachelrose/subject-5204804.csv","legacy","Lentiform Loewenfeld","3.3.7","yes","yes","600bd7cfb6416f0113b04181","602110864497cf011d9c0822","0","j","NA","return","return","return","NA","j","685","NA","4148","37817","9763","NA","685","2","legacy","1024","2","48000","-16","task","5204804","even","NA","62027","68180","64031","72509","5361","52955","43189","73012","NA","72506","73012","72445","68180","73697","60219","71945","5320","NA","Lexical Decision Task","7","7473","7","yes","1024"
"2.937852093","0","7","bamp","non-word","100","100","1122.25","1122.25","black","no","legacy","legacy","legacy","0","uniform","1","undefined","undefined","undefined","1","f","0","0","0","0","7","0","0","0","7","NA","3","7","3","0","3","3","7","0","7","Thu Feb 18 13:13:55 2021","The main experiment item","yes","Lexical_Decision_Task.osexp","/Users/rachelrose","no","Andale Mono","no","18","no","white","no","yes","576","legacy","3","3","3","/Users/rachelrose/subject-5204804.csv","legacy","Lentiform Loewenfeld","3.3.7","yes","yes","600bd7cfb6416f0113b04181","602110864497cf011d9c0822","0","f","NA","return","return","return","NA","f","1505","NA","4148","37817","9763","NA","1505","2","legacy","1024","2","48000","-16","task","5204804","even","NA","62027","68180","64031","74264","5361","52955","43189","74767","NA","74261","74767","74201","68180","76272","60219","73701","5320","NA","Lexical Decision Task","8","8978","8","yes","1024"
"2.755364069","7.72","2","hoax","word","100","100","1130.6666666666667","1130.6666666666667","black","no","legacy","legacy","legacy","0","uniform","1","undefined","undefined","undefined","1","j","0","0","0","0","8","0","0","0","8","NA","4","8","4","0","4","3","8","0","8","Thu Feb 18 13:13:55 2021","The main experiment item","yes","Lexical_Decision_Task.osexp","/Users/rachelrose","no","Andale Mono","no","18","no","white","no","yes","576","legacy","4","4","3","/Users/rachelrose/subject-5204804.csv","legacy","Lentiform Loewenfeld","3.3.7","yes","yes","600bd7cfb6416f0113b04181","602110864497cf011d9c0822","0","j","NA","return","return","return","NA","j","1198","NA","4148","37817","9763","NA","1198","2","legacy","1024","2","48000","-16","task","5204804","even","NA","62027","68180","64031","76839","5361","52955","43189","77342","NA","76836","77342","76776","68180","78540","60219","76276","5320","NA","Lexical Decision Task","9","10176","9","yes","1024"
"3.090140555","5.81","8","pout","word","100","100","1112.8","1112.8","black","no","legacy","legacy","legacy","0","uniform","1","undefined","undefined","undefined","1","j","0","0","0","0","9","0","0","0","9","NA","5","9","5","0","5","3","9","0","9","Thu Feb 18 13:13:55 2021","The main experiment item","yes","Lexical_Decision_Task.osexp","/Users/rachelrose","no","Andale Mono","no","18","no","white","no","yes","576","legacy","5","5","3","/Users/rachelrose/subject-5204804.csv","legacy","Lentiform Loewenfeld","3.3.7","yes","yes","600bd7cfb6416f0113b04181","602110864497cf011d9c0822","0","j","NA","return","return","return","NA","j","952","NA","4148","37817","9763","NA","952","2","legacy","1024","2","48000","-16","task","5204804","even","NA","62027","68180","64031","79108","5361","52955","43189","79611","NA","79105","79611","79043","68180","80563","60219","78543","5320","NA","Lexical Decision Task","10","11128","10","yes","1024"
"3.382617311","0","4","pret","non-word","100","100","1096.090909090909","1096.090909090909","black","no","legacy","legacy","legacy","0","uniform","1","undefined","undefined","undefined","1","f","0","0","0","0","10","0","0","0","10","NA","6","10","6","0","6","3","10","0","10","Thu Feb 18 13:13:55 2021","The main experiment item","yes","Lexical_Decision_Task.osexp","/Users/rachelrose","no","Andale Mono","no","18","no","white","no","yes","576","legacy","6","6","3","/Users/rachelrose/subject-5204804.csv","legacy","Lentiform Loewenfeld","3.3.7","yes","yes","600bd7cfb6416f0113b04181","602110864497cf011d9c0822","0","f","NA","return","return","return","NA","f","929","NA","4148","37817","9763","NA","929","2","legacy","1024","2","48000","-16","task","5204804","even","NA","62027","68180","64031","81129","5361","52955","43189","81632","NA","81126","81632","81066","68180","82561","60219","80566","5320","NA","Lexical Decision Task","11","12057","11","yes","1024"
"3.168400243","9.12","6","horn","word","100","100","1062.75","1062.75","black","no","legacy","legacy","legacy","0","uniform","1","undefined","undefined","undefined","1","j","0","0","0","0","11","0","0","0","11","NA","7","11","7","0","7","3","11","0","11","Thu Feb 18 13:13:55 2021","The main experiment item","yes","Lexical_Decision_Task.osexp","/Users/rachelrose","no","Andale Mono","no","18","no","white","no","yes","576","legacy","7","7","3","/Users/rachelrose/subject-5204804.csv","legacy","Lentiform Loewenfeld","3.3.7","yes","yes","600bd7cfb6416f0113b04181","602110864497cf011d9c0822","0","j","NA","return","return","return","NA","j","696","NA","4148","37817","9763","NA","696","2","legacy","1024","2","48000","-16","task","5204804","even","NA","62027","68180","64031","83128","5361","52955","43189","83631","NA","83125","83631","83064","68180","84328","60219","82564","5320","NA","Lexical Decision Task","12","12753","12","yes","1024"
"3.216517684","10.87","3","film","word","100","100","1026.6923076923076","1026.6923076923076","black","no","legacy","legacy","legacy","0","uniform","1","undefined","undefined","undefined","1","j","0","0","0","0","12","0","0","0","12","NA","8","12","8","0","8","3","12","0","12","Thu Feb 18 13:13:55 2021","The main experiment item","yes","Lexical_Decision_Task.osexp","/Users/rachelrose","no","Andale Mono","no","18","no","white","no","yes","576","legacy","8","8","3","/Users/rachelrose/subject-5204804.csv","legacy","Lentiform Loewenfeld","3.3.7","yes","yes","600bd7cfb6416f0113b04181","602110864497cf011d9c0822","0","j","NA","return","return","return","NA","j","594","NA","4148","37817","9763","NA","594","2","legacy","1024","2","48000","-16","task","5204804","even","NA","62027","68180","64031","84894","5361","52955","43189","85397","NA","84891","85397","84831","68180","85992","60219","84331","5320","NA","Lexical Decision Task","13","13347","13","yes","1024"
"2.746890964","9.67","3","plug","word","100","100","998.7857142857143","998.7857142857143","black","no","legacy","legacy","legacy","0","uniform","1","undefined","undefined","undefined","1","j","0","0","0","0","13","0","0","0","13","NA","9","13","9","0","9","3","13","0","13","Thu Feb 18 13:13:55 2021","The main experiment item","yes","Lexical_Decision_Task.osexp","/Users/rachelrose","no","Andale Mono","no","18","no","white","no","yes","576","legacy","9","9","3","/Users/rachelrose/subject-5204804.csv","legacy","Lentiform Loewenfeld","3.3.7","yes","yes","600bd7cfb6416f0113b04181","602110864497cf011d9c0822","0","j","NA","return","return","return","NA","j","636","NA","4148","37817","9763","NA","636","2","legacy","1024","2","48000","-16","task","5204804","even","NA","62027","68180","64031","86560","5361","52955","43189","87064","NA","86556","87064","86495","68180","87701","60219","85995","5320","NA","Lexical Decision Task","14","13983","14","yes","1024"
"3.165936429","0","7","leps","non-word","100","100","1013.5333333333333","1013.5333333333333","black","no","legacy","legacy","legacy","0","uniform","1","undefined","undefined","undefined","1","f","0","0","0","0","14","0","0","0","14","NA","10","14","10","0","10","3","14","0","14","Thu Feb 18 13:13:55 2021","The main experiment item","yes","Lexical_Decision_Task.osexp","/Users/rachelrose","no","Andale Mono","no","18","no","white","no","yes","576","legacy","10","10","3","/Users/rachelrose/subject-5204804.csv","legacy","Lentiform Loewenfeld","3.3.7","yes","yes","600bd7cfb6416f0113b04181","602110864497cf011d9c0822","0","f","NA","return","return","return","NA","f","1220","NA","4148","37817","9763","NA","1220","2","legacy","1024","2","48000","-16","task","5204804","even","NA","62027","68180","64031","88269","5361","52955","43189","88773","NA","88265","88774","88204","68180","89995","60219","87704","5320","NA","Lexical Decision Task","15","15203","15","yes","1024"
"2.703007489","8.37","3","pulp","word","93.75","93.75","1025.125","1025.125","black","no","legacy","legacy","legacy","0","uniform","0","undefined","undefined","undefined","0","j","0","0","0","0","15","0","0","0","15","NA","11","15","11","0","11","3","15","0","15","Thu Feb 18 13:13:55 2021","The main experiment item","yes","Lexical_Decision_Task.osexp","/Users/rachelrose","no","Andale Mono","no","18","no","white","no","yes","576","legacy","11","11","3","/Users/rachelrose/subject-5204804.csv","legacy","Lentiform Loewenfeld","3.3.7","yes","yes","600bd7cfb6416f0113b04181","602110864497cf011d9c0822","0","f","NA","return","return","return","NA","f","1199","NA","4148","37817","9763","NA","1199","2","legacy","1024","2","48000","-16","task","5204804","even","NA","62027","68180","64031","90563","5361","52955","43189","91066","NA","90560","91067","90498","68180","92267","60219","89998","5320","NA","Lexical Decision Task","15","16402","16","yes","1024"
"2.576725172","0","8","gowl","non-word","94.11764705882354","94.11764705882354","1069.764705882353","1069.764705882353","black","no","legacy","legacy","legacy","0","uniform","1","undefined","undefined","undefined","1","f","0","0","0","0","16","0","0","0","16","NA","12","16","12","0","12","3","16","0","16","Thu Feb 18 13:13:55 2021","The main experiment item","yes","Lexical_Decision_Task.osexp","/Users/rachelrose","no","Andale Mono","no","18","no","white","no","yes","576","legacy","12","12","3","/Users/rachelrose/subject-5204804.csv","legacy","Lentiform Loewenfeld","3.3.7","yes","yes","600bd7cfb6416f0113b04181","602110864497cf011d9c0822","0","f","NA","return","return","return","NA","f","1784","NA","4148","37817","9763","NA","1784","2","legacy","1024","2","48000","-16","task","5204804","even","NA","62027","68180","64031","93838","5361","52955","43189","94341","NA","93834","94341","93770","68180","96126","60219","89998","5320","92270","Lexical Decision Task","16","18186","17","yes","1024"
"2.668385917","5.48","4","twig","word","94.44444444444444","94.44444444444444","1052.9444444444443","1052.9444444444443","black","no","legacy","legacy","legacy","0","uniform","1","undefined","undefined","undefined","1","j","0","0","0","0","17","0","0","0","17","NA","13","17","13","0","13","3","17","0","17","Thu Feb 18 13:13:55 2021","The main experiment item","yes","Lexical_Decision_Task.osexp","/Users/rachelrose","no","Andale Mono","no","18","no","white","no","yes","576","legacy","13","13","3","/Users/rachelrose/subject-5204804.csv","legacy","Lentiform Loewenfeld","3.3.7","yes","yes","600bd7cfb6416f0113b04181","602110864497cf011d9c0822","0","j","NA","return","return","return","NA","j","767","NA","4148","37817","9763","NA","767","2","legacy","1024","2","48000","-16","task","5204804","even","NA","62027","68180","64031","96693","5361","52955","43189","97197","NA","96690","97197","96629","68180","97965","60219","96129","5320","92270","Lexical Decision Task","17","18953","18","yes","1024"
"2.880623071","0","9","curp","non-word","94.73684210526316","94.73684210526316","1065.7368421052631","1065.7368421052631","black","no","legacy","legacy","legacy","0","uniform","1","undefined","undefined","undefined","1","f","0","0","0","0","18","0","0","0","18","NA","14","18","14","0","14","3","18","0","18","Thu Feb 18 13:13:55 2021","The main experiment item","yes","Lexical_Decision_Task.osexp","/Users/rachelrose","no","Andale Mono","no","18","no","white","no","yes","576","legacy","14","14","3","/Users/rachelrose/subject-5204804.csv","legacy","Lentiform Loewenfeld","3.3.7","yes","yes","600bd7cfb6416f0113b04181","602110864497cf011d9c0822","0","f","NA","return","return","return","NA","f","1296","NA","4148","37817","9763","NA","1296","2","legacy","1024","2","48000","-16","task","5204804","even","NA","62027","68180","64031","98532","5361","52955","43189","99039","NA","98529","99039","98469","68180","100336","60219","97969","5320","92270","Lexical Decision Task","18","20249","19","yes","1024"
"3.397302518","7.01","2","knit","word","95","95","1042.1","1042.1","black","no","legacy","legacy","legacy","0","uniform","1","undefined","undefined","undefined","1","j","0","0","0","0","19","0","0","0","19","NA","15","19","15","0","15","3","19","0","19","Thu Feb 18 13:13:55 2021","The main experiment item","yes","Lexical_Decision_Task.osexp","/Users/rachelrose","no","Andale Mono","no","18","no","white","no","yes","576","legacy","15","15","3","/Users/rachelrose/subject-5204804.csv","legacy","Lentiform Loewenfeld","3.3.7","yes","yes","600bd7cfb6416f0113b04181","602110864497cf011d9c0822","0","j","NA","return","return","return","NA","j","593","NA","4148","37817","9763","NA","593","2","legacy","1024","2","48000","-16","task","5204804","even","NA","62027","68180","64031","100903","5361","52955","43189","101407","NA","100900","101407","100839","68180","102000","60219","100339","5320","92270","Lexical Decision Task","19","20842","20","yes","1024"
"3.149629599","0","2","cleb","non-word","95.23809523809524","95.23809523809524","1065.2380952380952","1065.2380952380952","black","no","legacy","legacy","legacy","0","uniform","1","undefined","undefined","undefined","1","f","0","0","0","0","20","0","0","0","20","NA","16","20","16","0","16","3","20","0","20","Thu Feb 18 13:13:55 2021","The main experiment item","yes","Lexical_Decision_Task.osexp","/Users/rachelrose","no","Andale Mono","no","18","no","white","no","yes","576","legacy","16","16","3","/Users/rachelrose/subject-5204804.csv","legacy","Lentiform Loewenfeld","3.3.7","yes","yes","600bd7cfb6416f0113b04181","602110864497cf011d9c0822","0","f","NA","return","return","return","NA","f","1528","NA","4148","37817","9763","NA","1528","2","legacy","1024","2","48000","-16","task","5204804","even","NA","62027","68180","64031","102568","5361","52955","43189","103071","NA","102565","103071","102504","68180","104599","60219","102004","5320","92270","Lexical Decision Task","20","22370","21","yes","1024"
"3.209246849","0","7","slem","non-word","95.45454545454545","95.45454545454545","1072.6363636363637","1072.6363636363637","black","no","legacy","legacy","legacy","0","uniform","1","undefined","undefined","undefined","1","f","0","0","0","0","21","0","0","0","21","NA","17","21","17","0","17","3","21","0","21","Thu Feb 18 13:13:55 2021","The main experiment item","yes","Lexical_Decision_Task.osexp","/Users/rachelrose","no","Andale Mono","no","18","no","white","no","yes","576","legacy","17","17","3","/Users/rachelrose/subject-5204804.csv","legacy","Lentiform Loewenfeld","3.3.7","yes","yes","600bd7cfb6416f0113b04181","602110864497cf011d9c0822","0","f","NA","return","return","return","NA","f","1228","NA","4148","37817","9763","NA","1228","2","legacy","1024","2","48000","-16","task","5204804","even","NA","62027","68180","64031","105168","5361","52955","43189","105671","NA","105165","105671","105102","68180","106899","60219","104602","5320","92270","Lexical Decision Task","21","23598","22","yes","1024"
"2.82129731","6.72","5","plum","word","95.65217391304348","95.65217391304348","1054.2173913043478","1054.2173913043478","black","no","legacy","legacy","legacy","0","uniform","1","undefined","undefined","undefined","1","j","0","0","0","0","22","0","0","0","22","NA","18","22","18","0","18","3","22","0","22","Thu Feb 18 13:13:55 2021","The main experiment item","yes","Lexical_Decision_Task.osexp","/Users/rachelrose","no","Andale Mono","no","18","no","white","no","yes","576","legacy","18","18","3","/Users/rachelrose/subject-5204804.csv","legacy","Lentiform Loewenfeld","3.3.7","yes","yes","600bd7cfb6416f0113b04181","602110864497cf011d9c0822","0","j","NA","return","return","return","NA","j","649","NA","4148","37817","9763","NA","649","2","legacy","1024","2","48000","-16","task","5204804","even","NA","62027","68180","64031","107466","5361","52955","43189","107969","NA","107463","107969","107402","68180","108619","60219","106902","5320","92270","Lexical Decision Task","22","24247","23","yes","1024"
"3.481012421","8.34","5","teen","word","95.83333333333333","95.83333333333333","1047","1047","black","no","legacy","legacy","legacy","0","uniform","1","undefined","undefined","undefined","1","j","0","0","0","0","23","0","0","0","23","NA","19","23","19","0","19","3","23","0","23","Thu Feb 18 13:13:55 2021","The main experiment item","yes","Lexical_Decision_Task.osexp","/Users/rachelrose","no","Andale Mono","no","18","no","white","no","yes","576","legacy","19","19","3","/Users/rachelrose/subject-5204804.csv","legacy","Lentiform Loewenfeld","3.3.7","yes","yes","600bd7cfb6416f0113b04181","602110864497cf011d9c0822","0","j","NA","return","return","return","NA","j","881","NA","4148","37817","9763","NA","881","2","legacy","1024","2","48000","-16","task","5204804","even","NA","62027","68180","64031","109187","5361","52955","43189","109690","NA","109184","109691","109122","68180","110573","60219","108622","5320","92270","Lexical Decision Task","23","25128","24","yes","1024"
"3.252447662","9.67","9","boat","word","96","96","1028","1028","black","no","legacy","legacy","legacy","0","uniform","1","undefined","undefined","undefined","1","j","0","0","0","0","24","0","0","0","24","NA","20","24","20","0","20","3","24","0","24","Thu Feb 18 13:13:55 2021","The main experiment item","yes","Lexical_Decision_Task.osexp","/Users/rachelrose","no","Andale Mono","no","18","no","white","no","yes","576","legacy","20","20","3","/Users/rachelrose/subject-5204804.csv","legacy","Lentiform Loewenfeld","3.3.7","yes","yes","600bd7cfb6416f0113b04181","602110864497cf011d9c0822","0","j","NA","return","return","return","NA","j","572","NA","4148","37817","9763","NA","572","2","legacy","1024","2","48000","-16","task","5204804","even","NA","62027","68180","64031","111139","5361","52955","43189","111642","NA","111137","111642","111076","68180","112214","60219","110576","5320","92270","Lexical Decision Task","24","25700","25","yes","1024"
"3.134602053","0","8","jart","non-word","96.15384615384616","96.15384615384616","1029.423076923077","1029.423076923077","black","no","legacy","legacy","legacy","0","uniform","1","undefined","undefined","undefined","1","f","0","0","0","0","25","0","0","0","25","NA","21","25","21","0","21","3","25","0","25","Thu Feb 18 13:13:55 2021","The main experiment item","yes","Lexical_Decision_Task.osexp","/Users/rachelrose","no","Andale Mono","no","18","no","white","no","yes","576","legacy","21","21","3","/Users/rachelrose/subject-5204804.csv","legacy","Lentiform Loewenfeld","3.3.7","yes","yes","600bd7cfb6416f0113b04181","602110864497cf011d9c0822","0","f","NA","return","return","return","NA","f","1065","NA","4148","37817","9763","NA","1065","2","legacy","1024","2","48000","-16","task","5204804","even","NA","62027","68180","64031","112780","5361","52955","43189","113284","NA","112778","113284","112717","68180","114350","60219","112217","5320","92270","Lexical Decision Task","25","26765","26","yes","1024"
"3.153001286","8.7","5","palm","word","96.29629629629629","96.29629629629629","1015.1111111111111","1015.1111111111111","black","no","legacy","legacy","legacy","0","uniform","1","undefined","undefined","undefined","1","j","0","0","0","0","26","0","0","0","26","NA","22","26","22","0","22","3","26","0","26","Thu Feb 18 13:13:55 2021","The main experiment item","yes","Lexical_Decision_Task.osexp","/Users/rachelrose","no","Andale Mono","no","18","no","white","no","yes","576","legacy","22","22","3","/Users/rachelrose/subject-5204804.csv","legacy","Lentiform Loewenfeld","3.3.7","yes","yes","600bd7cfb6416f0113b04181","602110864497cf011d9c0822","0","j","NA","return","return","return","NA","j","643","NA","4148","37817","9763","NA","643","2","legacy","1024","2","48000","-16","task","5204804","even","NA","62027","68180","64031","114917","5361","52955","43189","115421","NA","114914","115421","114853","68180","116065","60219","114353","5320","92270","Lexical Decision Task","26","27408","27","yes","1024"
"3.20871002","7.15","8","cram","word","96.42857142857143","96.42857142857143","1013.3571428571429","1013.3571428571429","black","no","legacy","legacy","legacy","0","uniform","1","undefined","undefined","undefined","1","j","0","0","0","0","27","0","0","0","27","NA","23","27","23","0","23","3","27","0","27","Thu Feb 18 13:13:55 2021","The main experiment item","yes","Lexical_Decision_Task.osexp","/Users/rachelrose","no","Andale Mono","no","18","no","white","no","yes","576","legacy","23","23","3","/Users/rachelrose/subject-5204804.csv","legacy","Lentiform Loewenfeld","3.3.7","yes","yes","600bd7cfb6416f0113b04181","602110864497cf011d9c0822","0","j","NA","return","return","return","NA","j","966","NA","4148","37817","9763","NA","966","2","legacy","1024","2","48000","-16","task","5204804","even","NA","62027","68180","64031","116631","5361","52955","43189","117135","NA","116628","117135","116568","68180","118102","60219","116068","5320","92270","Lexical Decision Task","27","28374","28","yes","1024"
"3.140404328","10.66","9","deep","word","96.55172413793103","96.55172413793103","1001.1034482758621","1001.1034482758621","black","no","legacy","legacy","legacy","0","uniform","1","undefined","undefined","undefined","1","j","0","0","0","0","28","0","0","0","28","NA","24","28","24","0","24","3","28","0","28","Thu Feb 18 13:13:55 2021","The main experiment item","yes","Lexical_Decision_Task.osexp","/Users/rachelrose","no","Andale Mono","no","18","no","white","no","yes","576","legacy","24","24","3","/Users/rachelrose/subject-5204804.csv","legacy","Lentiform Loewenfeld","3.3.7","yes","yes","600bd7cfb6416f0113b04181","602110864497cf011d9c0822","0","j","NA","return","return","return","NA","j","658","NA","4148","37817","9763","NA","658","2","legacy","1024","2","48000","-16","task","5204804","even","NA","62027","68180","64031","118669","5361","52955","43189","119175","NA","118666","119175","118605","68180","119834","60219","118105","5320","92270","Lexical Decision Task","28","29032","29","yes","1024"
"3.094121596","0","8","fode","non-word","96.66666666666667","96.66666666666667","997.9333333333333","997.9333333333333","black","no","legacy","legacy","legacy","0","uniform","1","undefined","undefined","undefined","1","f","0","0","0","0","29","0","0","0","29","NA","25","29","25","0","25","3","29","0","29","Thu Feb 18 13:13:55 2021","The main experiment item","yes","Lexical_Decision_Task.osexp","/Users/rachelrose","no","Andale Mono","no","18","no","white","no","yes","576","legacy","25","25","3","/Users/rachelrose/subject-5204804.csv","legacy","Lentiform Loewenfeld","3.3.7","yes","yes","600bd7cfb6416f0113b04181","602110864497cf011d9c0822","0","f","NA","return","return","return","NA","f","906","NA","4148","37817","9763","NA","906","2","legacy","1024","2","48000","-16","task","5204804","even","NA","62027","68180","64031","120401","5361","52955","43189","120905","NA","120398","120905","120337","68180","121812","60219","119837","5320","92270","Lexical Decision Task","29","29938","30","yes","1024"
"3.003891166","8.05","2","frog","word","96.7741935483871","96.7741935483871","986.0322580645161","986.0322580645161","black","no","legacy","legacy","legacy","0","uniform","1","undefined","undefined","undefined","1","j","0","0","0","0","30","0","0","0","30","NA","26","30","26","0","26","3","30","0","30","Thu Feb 18 13:13:55 2021","The main experiment item","yes","Lexical_Decision_Task.osexp","/Users/rachelrose","no","Andale Mono","no","18","no","white","no","yes","576","legacy","26","26","3","/Users/rachelrose/subject-5204804.csv","legacy","Lentiform Loewenfeld","3.3.7","yes","yes","600bd7cfb6416f0113b04181","602110864497cf011d9c0822","0","j","NA","return","return","return","NA","j","629","NA","4148","37817","9763","NA","629","2","legacy","1024","2","48000","-16","task","5204804","even","NA","62027","68180","64031","122380","5361","52955","43189","122889","NA","122376","122889","122315","68180","123519","60219","121815","5320","92270","Lexical Decision Task","30","30567","31","yes","1024"
"2.69019608","9.01","2","myth","word","96.875","96.875","978.09375","978.09375","black","no","legacy","legacy","legacy","0","uniform","1","undefined","undefined","undefined","1","j","0","0","0","0","31","0","0","0","31","NA","27","31","27","0","27","3","31","0","31","Thu Feb 18 13:13:55 2021","The main experiment item","yes","Lexical_Decision_Task.osexp","/Users/rachelrose","no","Andale Mono","no","18","no","white","no","yes","576","legacy","27","27","3","/Users/rachelrose/subject-5204804.csv","legacy","Lentiform Loewenfeld","3.3.7","yes","yes","600bd7cfb6416f0113b04181","602110864497cf011d9c0822","0","j","NA","return","return","return","NA","j","732","NA","4148","37817","9763","NA","732","2","legacy","1024","2","48000","-16","task","5204804","even","NA","62027","68180","64031","124087","5361","52955","43189","124590","NA","124084","124591","124022","68180","125324","60219","123522","5320","92270","Lexical Decision Task","31","31299","32","yes","1024"
"3.302475237","0","7","leel","non-word","96.96969696969697","96.96969696969697","972.4242424242424","972.4242424242424","black","no","legacy","legacy","legacy","0","uniform","1","undefined","undefined","undefined","1","f","0","0","0","0","32","0","0","0","32","NA","28","32","28","0","28","3","32","0","32","Thu Feb 18 13:13:55 2021","The main experiment item","yes","Lexical_Decision_Task.osexp","/Users/rachelrose","no","Andale Mono","no","18","no","white","no","yes","576","legacy","28","28","3","/Users/rachelrose/subject-5204804.csv","legacy","Lentiform Loewenfeld","3.3.7","yes","yes","600bd7cfb6416f0113b04181","602110864497cf011d9c0822","0","f","NA","return","return","return","NA","f","791","NA","4148","37817","9763","NA","791","2","legacy","1024","2","48000","-16","task","5204804","even","NA","62027","68180","64031","125891","5361","52955","43189","126395","NA","125888","126395","125827","68180","127187","60219","125327","5320","92270","Lexical Decision Task","32","32090","33","yes","1024"
"2.616654026","9.37","5","gift","word","97.05882352941177","97.05882352941177","960.5882352941177","960.5882352941177","black","no","legacy","legacy","legacy","0","uniform","1","undefined","undefined","undefined","1","j","0","0","0","0","33","0","0","0","33","NA","29","33","29","0","29","3","33","0","33","Thu Feb 18 13:13:55 2021","The main experiment item","yes","Lexical_Decision_Task.osexp","/Users/rachelrose","no","Andale Mono","no","18","no","white","no","yes","576","legacy","29","29","3","/Users/rachelrose/subject-5204804.csv","legacy","Lentiform Loewenfeld","3.3.7","yes","yes","600bd7cfb6416f0113b04181","602110864497cf011d9c0822","0","j","NA","return","return","return","NA","j","570","NA","4148","37817","9763","NA","570","2","legacy","1024","2","48000","-16","task","5204804","even","NA","62027","68180","64031","127752","5361","52955","43189","128256","NA","127750","128256","127690","68180","128826","60219","127190","5320","92270","Lexical Decision Task","33","32660","34","yes","1024"
"2.897810299","0","5","glur","non-word","97.14285714285714","97.14285714285714","954.1714285714286","954.1714285714286","black","no","legacy","legacy","legacy","0","uniform","1","undefined","undefined","undefined","1","f","0","0","0","0","34","0","0","0","34","NA","30","34","30","0","30","3","34","0","34","Thu Feb 18 13:13:55 2021","The main experiment item","yes","Lexical_Decision_Task.osexp","/Users/rachelrose","no","Andale Mono","no","18","no","white","no","yes","576","legacy","30","30","3","/Users/rachelrose/subject-5204804.csv","legacy","Lentiform Loewenfeld","3.3.7","yes","yes","600bd7cfb6416f0113b04181","602110864497cf011d9c0822","0","f","NA","return","return","return","NA","f","736","NA","4148","37817","9763","NA","736","2","legacy","1024","2","48000","-16","task","5204804","even","NA","62027","68180","64031","129393","5361","52955","43189","129897","NA","129390","129898","129329","68180","130634","60219","128829","5320","92270","Lexical Decision Task","34","33396","35","yes","1024"
"3.091901331","0","9","nipe","non-word","97.22222222222223","97.22222222222223","969.1111111111111","969.1111111111111","black","no","legacy","legacy","legacy","0","uniform","1","undefined","undefined","undefined","1","f","0","0","0","0","35","0","0","0","35","NA","31","35","31","0","31","3","35","0","35","Thu Feb 18 13:13:55 2021","The main experiment item","yes","Lexical_Decision_Task.osexp","/Users/rachelrose","no","Andale Mono","no","18","no","white","no","yes","576","legacy","31","31","3","/Users/rachelrose/subject-5204804.csv","legacy","Lentiform Loewenfeld","3.3.7","yes","yes","600bd7cfb6416f0113b04181","602110864497cf011d9c0822","0","f","NA","return","return","return","NA","f","1492","NA","4148","37817","9763","NA","1492","2","legacy","1024","2","48000","-16","task","5204804","even","NA","62027","68180","64031","131202","5361","52955","43189","131708","NA","131198","131708","131137","68180","133201","60219","130637","5320","92270","Lexical Decision Task","35","34888","36","yes","1024"
"3.082307743","9.68","8","camp","word","97.29729729729729","97.29729729729729","960.8918918918919","960.8918918918919","black","no","legacy","legacy","legacy","0","uniform","1","undefined","undefined","undefined","1","j","0","0","0","0","36","0","0","0","36","NA","32","36","32","0","32","3","36","0","36","Thu Feb 18 13:13:55 2021","The main experiment item","yes","Lexical_Decision_Task.osexp","/Users/rachelrose","no","Andale Mono","no","18","no","white","no","yes","576","legacy","32","32","3","/Users/rachelrose/subject-5204804.csv","legacy","Lentiform Loewenfeld","3.3.7","yes","yes","600bd7cfb6416f0113b04181","602110864497cf011d9c0822","0","j","NA","return","return","return","NA","j","665","NA","4148","37817","9763","NA","665","2","legacy","1024","2","48000","-16","task","5204804","even","NA","62027","68180","64031","133768","5361","52955","43189","134271","NA","133765","134271","133704","68180","134937","60219","133204","5320","92270","Lexical Decision Task","36","35553","37","yes","1024"
"2.990042563","6.64","9","plow","word","94.73684210526316","94.73684210526316","957.5526315789474","957.5526315789474","black","no","legacy","legacy","legacy","0","uniform","0","undefined","undefined","undefined","0","j","0","0","0","0","37","0","0","0","37","NA","33","37","33","0","33","3","37","0","37","Thu Feb 18 13:13:55 2021","The main experiment item","yes","Lexical_Decision_Task.osexp","/Users/rachelrose","no","Andale Mono","no","18","no","white","no","yes","576","legacy","33","33","3","/Users/rachelrose/subject-5204804.csv","legacy","Lentiform Loewenfeld","3.3.7","yes","yes","600bd7cfb6416f0113b04181","602110864497cf011d9c0822","0","f","NA","return","return","return","NA","f","834","NA","4148","37817","9763","NA","834","2","legacy","1024","2","48000","-16","task","5204804","even","NA","62027","68180","64031","135503","5361","52955","43189","136011","NA","135500","136011","135439","68180","136846","60219","134939","5320","92270","Lexical Decision Task","36","36387","38","yes","1024"
"2.980306438","0","7","slun","non-word","94.87179487179488","94.87179487179488","959.7179487179487","959.7179487179487","black","no","legacy","legacy","legacy","0","uniform","1","undefined","undefined","undefined","1","f","0","0","0","0","38","0","0","0","38","NA","34","38","34","0","34","3","38","0","38","Thu Feb 18 13:13:55 2021","The main experiment item","yes","Lexical_Decision_Task.osexp","/Users/rachelrose","no","Andale Mono","no","18","no","white","no","yes","576","legacy","34","34","3","/Users/rachelrose/subject-5204804.csv","legacy","Lentiform Loewenfeld","3.3.7","yes","yes","600bd7cfb6416f0113b04181","602110864497cf011d9c0822","0","f","NA","return","return","return","NA","f","1042","NA","4148","37817","9763","NA","1042","2","legacy","1024","2","48000","-16","task","5204804","even","NA","62027","68180","64031","138422","5361","52955","43189","138925","NA","138414","138925","138349","68180","139968","60219","134939","5320","136849","Lexical Decision Task","37","37429","39","yes","1024"
"3.037294994","8.64","7","roof","word","95","95","951.8","951.8","black","no","legacy","legacy","legacy","0","uniform","1","undefined","undefined","undefined","1","j","0","0","0","0","39","0","0","0","39","NA","35","39","35","0","35","3","39","0","39","Thu Feb 18 13:13:55 2021","The main experiment item","yes","Lexical_Decision_Task.osexp","/Users/rachelrose","no","Andale Mono","no","18","no","white","no","yes","576","legacy","35","35","3","/Users/rachelrose/subject-5204804.csv","legacy","Lentiform Loewenfeld","3.3.7","yes","yes","600bd7cfb6416f0113b04181","602110864497cf011d9c0822","0","j","NA","return","return","return","NA","j","643","NA","4148","37817","9763","NA","643","2","legacy","1024","2","48000","-16","task","5204804","even","NA","62027","68180","64031","140534","5361","52955","43189","141038","NA","140531","141038","140471","68180","141681","60219","139971","5320","136849","Lexical Decision Task","38","38072","40","yes","1024"
"2.839268497","0","8","maft","non-word","95.1219512195122","95.1219512195122","947.9024390243902","947.9024390243902","black","no","legacy","legacy","legacy","0","uniform","1","undefined","undefined","undefined","1","f","0","0","0","0","40","0","0","0","40","NA","36","40","36","0","36","3","40","0","40","Thu Feb 18 13:13:55 2021","The main experiment item","yes","Lexical_Decision_Task.osexp","/Users/rachelrose","no","Andale Mono","no","18","no","white","no","yes","576","legacy","36","36","3","/Users/rachelrose/subject-5204804.csv","legacy","Lentiform Loewenfeld","3.3.7","yes","yes","600bd7cfb6416f0113b04181","602110864497cf011d9c0822","0","f","NA","return","return","return","NA","f","792","NA","4148","37817","9763","NA","792","2","legacy","1024","2","48000","-16","task","5204804","even","NA","62027","68180","64031","142248","5361","52955","43189","142751","NA","142245","142751","142184","68180","143544","60219","141684","5320","136849","Lexical Decision Task","39","38864","41","yes","1024"
"3.495914186","0","4","peng","non-word","92.85714285714286","92.85714285714286","963.8571428571429","963.8571428571429","black","no","legacy","legacy","legacy","0","uniform","0","undefined","undefined","undefined","0","f","0","0","0","0","41","0","0","0","41","NA","37","41","37","0","37","3","41","0","41","Thu Feb 18 13:13:55 2021","The main experiment item","yes","Lexical_Decision_Task.osexp","/Users/rachelrose","no","Andale Mono","no","18","no","white","no","yes","576","legacy","37","37","3","/Users/rachelrose/subject-5204804.csv","legacy","Lentiform Loewenfeld","3.3.7","yes","yes","600bd7cfb6416f0113b04181","602110864497cf011d9c0822","0","j","NA","return","return","return","NA","j","1618","NA","4148","37817","9763","NA","1618","2","legacy","1024","2","48000","-16","task","5204804","even","NA","62027","68180","64031","144111","5361","52955","43189","144614","NA","144108","144614","144047","68180","146233","60219","143547","5320","136849","Lexical Decision Task","39","40482","42","yes","1024"
"2.972819734","0","4","scew","non-word","90.69767441860465","90.69767441860465","965.8604651162791","965.8604651162791","black","no","legacy","legacy","legacy","0","uniform","0","undefined","undefined","undefined","0","f","0","0","0","0","42","0","0","0","42","NA","38","42","38","0","38","3","42","0","42","Thu Feb 18 13:13:55 2021","The main experiment item","yes","Lexical_Decision_Task.osexp","/Users/rachelrose","no","Andale Mono","no","18","no","white","no","yes","576","legacy","38","38","3","/Users/rachelrose/subject-5204804.csv","legacy","Lentiform Loewenfeld","3.3.7","yes","yes","600bd7cfb6416f0113b04181","602110864497cf011d9c0822","0","j","NA","return","return","return","NA","j","1050","NA","4148","37817","9763","NA","1050","2","legacy","1024","2","48000","-16","task","5204804","even","NA","62027","68180","64031","147804","5361","52955","43189","148307","NA","147800","148307","147737","68180","149358","60219","143547","5320","146237","Lexical Decision Task","39","41532","43","yes","1024"
"3.156347201","0","8","lasp","non-word","88.63636363636364","88.63636363636364","1012.0909090909091","1012.0909090909091","black","no","legacy","legacy","legacy","0","uniform","0","undefined","undefined","undefined","0","f","0","0","0","0","43","0","0","0","43","NA","39","43","39","0","39","3","43","0","43","Thu Feb 18 13:13:55 2021","The main experiment item","yes","Lexical_Decision_Task.osexp","/Users/rachelrose","no","Andale Mono","no","18","no","white","no","yes","576","legacy","39","39","3","/Users/rachelrose/subject-5204804.csv","legacy","Lentiform Loewenfeld","3.3.7","yes","yes","600bd7cfb6416f0113b04181","602110864497cf011d9c0822","0","None","NA","return","return","return","NA","None","3000","NA","4148","37817","9763","NA","3000","2","legacy","1024","2","48000","-16","task","5204804","even","NA","62027","68180","64031","150930","5361","52955","43189","151434","NA","150926","151435","150861","68180","154435","60219","143547","5320","149361","Lexical Decision Task","39","44532","44","yes","1024"
"3.488597715","0","9","nain","non-word","88.88888888888889","88.88888888888889","1010.5111111111111","1010.5111111111111","black","no","legacy","legacy","legacy","0","uniform","1","undefined","undefined","undefined","1","f","0","0","0","0","44","0","0","0","44","NA","40","44","40","0","40","3","44","0","44","Thu Feb 18 13:13:55 2021","The main experiment item","yes","Lexical_Decision_Task.osexp","/Users/rachelrose","no","Andale Mono","no","18","no","white","no","yes","576","legacy","40","40","3","/Users/rachelrose/subject-5204804.csv","legacy","Lentiform Loewenfeld","3.3.7","yes","yes","600bd7cfb6416f0113b04181","602110864497cf011d9c0822","0","f","NA","return","return","return","NA","f","941","NA","4148","37817","9763","NA","941","2","legacy","1024","2","48000","-16","task","5204804","even","NA","62027","68180","64031","156005","5361","52955","43189","156509","NA","156002","156509","155938","68180","157451","60219","143547","5320","154438","Lexical Decision Task","40","45473","45","yes","1024"
"3.282244367","0","6","fute","non-word","89.1304347826087","89.1304347826087","1009.5","1009.5","black","no","legacy","legacy","legacy","0","uniform","1","undefined","undefined","undefined","1","f","0","0","0","0","45","0","0","0","45","NA","41","45","41","0","41","3","45","0","45","Thu Feb 18 13:13:55 2021","The main experiment item","yes","Lexical_Decision_Task.osexp","/Users/rachelrose","no","Andale Mono","no","18","no","white","no","yes","576","legacy","41","41","3","/Users/rachelrose/subject-5204804.csv","legacy","Lentiform Loewenfeld","3.3.7","yes","yes","600bd7cfb6416f0113b04181","602110864497cf011d9c0822","0","f","NA","return","return","return","NA","f","964","NA","4148","37817","9763","NA","964","2","legacy","1024","2","48000","-16","task","5204804","even","NA","62027","68180","64031","158017","5361","52955","43189","158521","NA","158014","158521","157954","68180","159486","60219","157454","5320","154438","Lexical Decision Task","41","46437","46","yes","1024"
"2.803231716","5.26","3","kiln","word","87.23404255319149","87.23404255319149","1014.8723404255319","1014.8723404255319","black","no","legacy","legacy","legacy","0","uniform","0","undefined","undefined","undefined","0","j","0","0","0","0","46","0","0","0","46","NA","42","46","42","0","42","3","46","0","46","Thu Feb 18 13:13:55 2021","The main experiment item","yes","Lexical_Decision_Task.osexp","/Users/rachelrose","no","Andale Mono","no","18","no","white","no","yes","576","legacy","42","42","3","/Users/rachelrose/subject-5204804.csv","legacy","Lentiform Loewenfeld","3.3.7","yes","yes","600bd7cfb6416f0113b04181","602110864497cf011d9c0822","0","f","NA","return","return","return","NA","f","1262","NA","4148","37817","9763","NA","1262","2","legacy","1024","2","48000","-16","task","5204804","even","NA","62027","68180","64031","160051","5361","52955","43189","160554","NA","160049","160555","159989","68180","161818","60219","159488","5320","154438","Lexical Decision Task","41","47699","47","yes","1024"
"2.924968096","0","4","phim","non-word","87.5","87.5","1021.6666666666666","1021.6666666666666","black","no","legacy","legacy","legacy","0","uniform","1","undefined","undefined","undefined","1","f","0","0","0","0","47","0","0","0","47","NA","43","47","43","0","43","3","47","0","47","Thu Feb 18 13:13:55 2021","The main experiment item","yes","Lexical_Decision_Task.osexp","/Users/rachelrose","no","Andale Mono","no","18","no","white","no","yes","576","legacy","43","43","3","/Users/rachelrose/subject-5204804.csv","legacy","Lentiform Loewenfeld","3.3.7","yes","yes","600bd7cfb6416f0113b04181","602110864497cf011d9c0822","0","f","NA","return","return","return","NA","f","1341","NA","4148","37817","9763","NA","1341","2","legacy","1024","2","48000","-16","task","5204804","even","NA","62027","68180","64031","163386","5361","52955","43189","163889","NA","163383","163889","163321","68180","165231","60219","159488","5320","161821","Lexical Decision Task","42","49040","48","yes","1024"
"3.460446784","0","5","dess","non-word","87.75510204081633","87.75510204081633","1020.2857142857143","1020.2857142857143","black","no","legacy","legacy","legacy","0","uniform","1","undefined","undefined","undefined","1","f","0","0","0","0","48","0","0","0","48","NA","44","48","44","0","44","3","48","0","48","Thu Feb 18 13:13:55 2021","The main experiment item","yes","Lexical_Decision_Task.osexp","/Users/rachelrose","no","Andale Mono","no","18","no","white","no","yes","576","legacy","44","44","3","/Users/rachelrose/subject-5204804.csv","legacy","Lentiform Loewenfeld","3.3.7","yes","yes","600bd7cfb6416f0113b04181","602110864497cf011d9c0822","0","f","NA","return","return","return","NA","f","954","NA","4148","37817","9763","NA","954","2","legacy","1024","2","48000","-16","task","5204804","even","NA","62027","68180","64031","165796","5361","52955","43189","166299","NA","165793","166300","165734","68180","167255","60219","165234","5320","161821","Lexical Decision Task","43","49994","49","yes","1024"
"3.15462682","0","6","noal","non-word","88","88","1033.8","1033.8","black","no","legacy","legacy","legacy","0","uniform","1","undefined","undefined","undefined","1","f","0","0","0","0","49","0","0","0","49","NA","45","49","45","0","45","3","49","0","49","Thu Feb 18 13:13:55 2021","The main experiment item","yes","Lexical_Decision_Task.osexp","/Users/rachelrose","no","Andale Mono","no","18","no","white","no","yes","576","legacy","45","45","3","/Users/rachelrose/subject-5204804.csv","legacy","Lentiform Loewenfeld","3.3.7","yes","yes","600bd7cfb6416f0113b04181","602110864497cf011d9c0822","0","f","NA","return","return","return","NA","f","1696","NA","4148","37817","9763","NA","1696","2","legacy","1024","2","48000","-16","task","5204804","even","NA","62027","68180","64031","167821","5361","52955","43189","168325","NA","167819","168326","167758","68180","170023","60219","167258","5320","161821","Lexical Decision Task","44","51690","50","yes","1024"
"3.168890155","0","6","thet","non-word","88.23529411764706","88.23529411764706","1036.2549019607843","1036.2549019607843","black","no","legacy","legacy","legacy","0","uniform","1","undefined","undefined","undefined","1","f","0","0","0","0","50","0","0","0","50","NA","46","50","46","0","46","3","50","0","50","Thu Feb 18 13:13:55 2021","The main experiment item","yes","Lexical_Decision_Task.osexp","/Users/rachelrose","no","Andale Mono","no","18","no","white","no","yes","576","legacy","46","46","3","/Users/rachelrose/subject-5204804.csv","legacy","Lentiform Loewenfeld","3.3.7","yes","yes","600bd7cfb6416f0113b04181","602110864497cf011d9c0822","0","f","NA","return","return","return","NA","f","1159","NA","4148","37817","9763","NA","1159","2","legacy","1024","2","48000","-16","task","5204804","even","NA","62027","68180","64031","170589","5361","52955","43189","171092","NA","170586","171092","170526","68180","172252","60219","170026","5320","161821","Lexical Decision Task","45","52849","51","yes","1024"
"2.819763221","0","2","durp","non-word","88.46153846153847","88.46153846153847","1032.8846153846155","1032.8846153846155","black","no","legacy","legacy","legacy","0","uniform","1","undefined","undefined","undefined","1","f","0","0","0","0","51","0","0","0","51","NA","47","51","47","0","47","3","51","0","51","Thu Feb 18 13:13:55 2021","The main experiment item","yes","Lexical_Decision_Task.osexp","/Users/rachelrose","no","Andale Mono","no","18","no","white","no","yes","576","legacy","47","47","3","/Users/rachelrose/subject-5204804.csv","legacy","Lentiform Loewenfeld","3.3.7","yes","yes","600bd7cfb6416f0113b04181","602110864497cf011d9c0822","0","f","NA","return","return","return","NA","f","861","NA","4148","37817","9763","NA","861","2","legacy","1024","2","48000","-16","task","5204804","even","NA","62027","68180","64031","172818","5361","52955","43189","173321","NA","172816","173322","172755","68180","174183","60219","172255","5320","161821","Lexical Decision Task","46","53710","52","yes","1024"
"2.812467698","0","7","hafe","non-word","88.67924528301887","88.67924528301887","1025.8490566037735","1025.8490566037735","black","no","legacy","legacy","legacy","0","uniform","1","undefined","undefined","undefined","1","f","0","0","0","0","52","0","0","0","52","NA","48","52","48","0","48","3","52","0","52","Thu Feb 18 13:13:55 2021","The main experiment item","yes","Lexical_Decision_Task.osexp","/Users/rachelrose","no","Andale Mono","no","18","no","white","no","yes","576","legacy","48","48","3","/Users/rachelrose/subject-5204804.csv","legacy","Lentiform Loewenfeld","3.3.7","yes","yes","600bd7cfb6416f0113b04181","602110864497cf011d9c0822","0","f","NA","return","return","return","NA","f","660","NA","4148","37817","9763","NA","660","2","legacy","1024","2","48000","-16","task","5204804","even","NA","62027","68180","64031","174749","5361","52955","43189","175252","NA","174746","175252","174686","68180","175913","60219","174186","5320","161821","Lexical Decision Task","47","54370","53","yes","1024"
"2.696356389","0","1","pizz","non-word","88.88888888888889","88.88888888888889","1020.9444444444445","1020.9444444444445","black","no","legacy","legacy","legacy","0","uniform","1","undefined","undefined","undefined","1","f","0","0","0","0","53","0","0","0","53","NA","49","53","49","0","49","3","53","0","53","Thu Feb 18 13:13:55 2021","The main experiment item","yes","Lexical_Decision_Task.osexp","/Users/rachelrose","no","Andale Mono","no","18","no","white","no","yes","576","legacy","49","49","3","/Users/rachelrose/subject-5204804.csv","legacy","Lentiform Loewenfeld","3.3.7","yes","yes","600bd7cfb6416f0113b04181","602110864497cf011d9c0822","0","f","NA","return","return","return","NA","f","761","NA","4148","37817","9763","NA","761","2","legacy","1024","2","48000","-16","task","5204804","even","NA","62027","68180","64031","176479","5361","52955","43189","176982","NA","176476","176982","176416","68180","177744","60219","175916","5320","161821","Lexical Decision Task","48","55131","54","yes","1024"
"3.132473155","0","4","glim","non-word","87.27272727272727","87.27272727272727","1029.2","1029.2","black","no","legacy","legacy","legacy","0","uniform","0","undefined","undefined","undefined","0","f","0","0","0","0","54","0","0","0","54","0","50","54","50","0","50","3","54","0","54","Thu Feb 18 13:13:55 2021","The main experiment item","yes","Lexical_Decision_Task.osexp","/Users/rachelrose","no","Andale Mono","no","18","no","white","no","yes","576","legacy","50","50","3","/Users/rachelrose/subject-5204804.csv","legacy","Lentiform Loewenfeld","3.3.7","yes","yes","600bd7cfb6416f0113b04181","602110864497cf011d9c0822","0","j","NA","return","return","return","space","j","1475","NA","4148","37817","9763","5437","1475","2","legacy","1024","2","48000","-16","task","5204804","even","NA","62027","68180","64031","183766","5361","52955","43189","184270","178287","183764","184270","178247","68180","185746","60219","177747","5320","161821","Lexical Decision Task","48","56606","55","yes","1024"
"3.368162872","0","4","ferk","non-word","87.5","87.5","1028.4285714285713","1028.4285714285713","black","no","legacy","legacy","legacy","0","uniform","1","undefined","undefined","undefined","1","f","0","0","0","0","55","0","0","0","55","0","51","55","51","0","51","3","55","0","55","Thu Feb 18 13:13:55 2021","The main experiment item","yes","Lexical_Decision_Task.osexp","/Users/rachelrose","no","Andale Mono","no","18","no","white","no","yes","576","legacy","51","51","3","/Users/rachelrose/subject-5204804.csv","legacy","Lentiform Loewenfeld","3.3.7","yes","yes","600bd7cfb6416f0113b04181","602110864497cf011d9c0822","0","f","NA","return","return","return","space","f","986","NA","4148","37817","9763","5437","986","2","legacy","1024","2","48000","-16","task","5204804","even","NA","62027","68180","64031","187317","5361","52955","43189","187820","178287","187314","187820","187250","68180","188807","60219","177747","5320","185750","Lexical Decision Task","49","57592","56","yes","1024"
"2.664011697","8.19","4","hawk","word","87.71929824561404","87.71929824561404","1023.438596491228","1023.438596491228","black","no","legacy","legacy","legacy","0","uniform","1","undefined","undefined","undefined","1","j","0","0","0","0","56","0","0","0","56","0","52","56","52","0","52","3","56","0","56","Thu Feb 18 13:13:55 2021","The main experiment item","yes","Lexical_Decision_Task.osexp","/Users/rachelrose","no","Andale Mono","no","18","no","white","no","yes","576","legacy","52","52","3","/Users/rachelrose/subject-5204804.csv","legacy","Lentiform Loewenfeld","3.3.7","yes","yes","600bd7cfb6416f0113b04181","602110864497cf011d9c0822","0","j","NA","return","return","return","space","j","744","NA","4148","37817","9763","5437","744","2","legacy","1024","2","48000","-16","task","5204804","even","NA","62027","68180","64031","189374","5361","52955","43189","189878","178287","189371","189878","189312","68180","190623","60219","188812","5320","185750","Lexical Decision Task","50","58336","57","yes","1024"
"2.809559715","8.44","4","volt","word","87.93103448275862","87.93103448275862","1020.6551724137931","1020.6551724137931","black","no","legacy","legacy","legacy","0","uniform","1","undefined","undefined","undefined","1","j","0","0","0","0","57","0","0","0","57","0","53","57","53","0","53","3","57","0","57","Thu Feb 18 13:13:55 2021","The main experiment item","yes","Lexical_Decision_Task.osexp","/Users/rachelrose","no","Andale Mono","no","18","no","white","no","yes","576","legacy","53","53","3","/Users/rachelrose/subject-5204804.csv","legacy","Lentiform Loewenfeld","3.3.7","yes","yes","600bd7cfb6416f0113b04181","602110864497cf011d9c0822","0","j","NA","return","return","return","space","j","862","NA","4148","37817","9763","5437","862","2","legacy","1024","2","48000","-16","task","5204804","even","NA","62027","68180","64031","191189","5361","52955","43189","191692","178287","191186","191692","191126","68180","192555","60219","190626","5320","185750","Lexical Decision Task","51","59198","58","yes","1024"
"2.838639236","0","4","furg","non-word","88.13559322033899","88.13559322033899","1016.7796610169491","1016.7796610169491","black","no","legacy","legacy","legacy","0","uniform","1","undefined","undefined","undefined","1","f","0","0","0","0","58","0","0","0","58","0","54","58","54","0","54","3","58","0","58","Thu Feb 18 13:13:55 2021","The main experiment item","yes","Lexical_Decision_Task.osexp","/Users/rachelrose","no","Andale Mono","no","18","no","white","no","yes","576","legacy","54","54","3","/Users/rachelrose/subject-5204804.csv","legacy","Lentiform Loewenfeld","3.3.7","yes","yes","600bd7cfb6416f0113b04181","602110864497cf011d9c0822","0","f","NA","return","return","return","space","f","792","NA","4148","37817","9763","5437","792","2","legacy","1024","2","48000","-16","task","5204804","even","NA","62027","68180","64031","193122","5361","52955","43189","193625","178287","193120","193625","193059","68180","194418","60219","192559","5320","185750","Lexical Decision Task","52","59990","59","yes","1024"
"2.821076612","0","4","lult","non-word","88.33333333333333","88.33333333333333","1013.7333333333333","1013.7333333333333","black","no","legacy","legacy","legacy","0","uniform","1","undefined","undefined","undefined","1","f","0","0","0","0","59","0","0","0","59","0","55","59","55","0","55","3","59","0","59","Thu Feb 18 13:13:55 2021","The main experiment item","yes","Lexical_Decision_Task.osexp","/Users/rachelrose","no","Andale Mono","no","18","no","white","no","yes","576","legacy","55","55","3","/Users/rachelrose/subject-5204804.csv","legacy","Lentiform Loewenfeld","3.3.7","yes","yes","600bd7cfb6416f0113b04181","602110864497cf011d9c0822","0","f","NA","return","return","return","space","f","834","NA","4148","37817","9763","5437","834","2","legacy","1024","2","48000","-16","task","5204804","even","NA","62027","68180","64031","194986","5361","52955","43189","195489","178287","194984","195489","194921","68180","196324","60219","194421","5320","185750","Lexical Decision Task","53","60824","60","yes","1024"
"3.121778632","0","9","sark","non-word","88.52459016393442","88.52459016393442","1008.9016393442623","1008.9016393442623","black","no","legacy","legacy","legacy","0","uniform","1","undefined","undefined","undefined","1","f","0","0","0","0","60","0","0","0","60","0","56","60","56","0","56","3","60","0","60","Thu Feb 18 13:13:55 2021","The main experiment item","yes","Lexical_Decision_Task.osexp","/Users/rachelrose","no","Andale Mono","no","18","no","white","no","yes","576","legacy","56","56","3","/Users/rachelrose/subject-5204804.csv","legacy","Lentiform Loewenfeld","3.3.7","yes","yes","600bd7cfb6416f0113b04181","602110864497cf011d9c0822","0","f","NA","return","return","return","space","f","719","NA","4148","37817","9763","5437","719","2","legacy","1024","2","48000","-16","task","5204804","even","NA","62027","68180","64031","196889","5361","52955","43189","197392","178287","196886","197392","196827","68180","198112","60219","196327","5320","185750","Lexical Decision Task","54","61543","61","yes","1024"
"2.980911938","7.15","7","hoop","word","88.70967741935483","88.70967741935483","1000.983870967742","1000.983870967742","black","no","legacy","legacy","legacy","0","uniform","1","undefined","undefined","undefined","1","j","0","0","0","0","61","0","0","0","61","0","57","61","57","0","57","3","61","0","61","Thu Feb 18 13:13:55 2021","The main experiment item","yes","Lexical_Decision_Task.osexp","/Users/rachelrose","no","Andale Mono","no","18","no","white","no","yes","576","legacy","57","57","3","/Users/rachelrose/subject-5204804.csv","legacy","Lentiform Loewenfeld","3.3.7","yes","yes","600bd7cfb6416f0113b04181","602110864497cf011d9c0822","0","j","NA","return","return","return","space","j","518","NA","4148","37817","9763","5437","518","2","legacy","1024","2","48000","-16","task","5204804","even","NA","62027","68180","64031","198678","5361","52955","43189","199181","178287","198675","199181","198615","68180","199700","60219","198115","5320","185750","Lexical Decision Task","55","62061","62","yes","1024"
"2.814027728","8.2","4","foam","word","88.88888888888889","88.88888888888889","993.6984126984127","993.6984126984127","black","no","legacy","legacy","legacy","0","uniform","1","undefined","undefined","undefined","1","j","0","0","0","0","62","0","0","0","62","0","58","62","58","0","58","3","62","0","62","Thu Feb 18 13:13:55 2021","The main experiment item","yes","Lexical_Decision_Task.osexp","/Users/rachelrose","no","Andale Mono","no","18","no","white","no","yes","576","legacy","58","58","3","/Users/rachelrose/subject-5204804.csv","legacy","Lentiform Loewenfeld","3.3.7","yes","yes","600bd7cfb6416f0113b04181","602110864497cf011d9c0822","0","j","NA","return","return","return","space","j","542","NA","4148","37817","9763","5437","542","2","legacy","1024","2","48000","-16","task","5204804","even","NA","62027","68180","64031","200266","5361","52955","43189","200769","178287","200264","200769","200203","68180","201312","60219","199703","5320","185750","Lexical Decision Task","56","62603","63","yes","1024"
"2.693726949","5.08","3","swig","word","89.0625","89.0625","995.625","995.625","black","no","legacy","legacy","legacy","0","uniform","1","undefined","undefined","undefined","1","j","0","0","0","0","63","0","0","0","63","0","59","63","59","0","59","3","63","0","63","Thu Feb 18 13:13:55 2021","The main experiment item","yes","Lexical_Decision_Task.osexp","/Users/rachelrose","no","Andale Mono","no","18","no","white","no","yes","576","legacy","59","59","3","/Users/rachelrose/subject-5204804.csv","legacy","Lentiform Loewenfeld","3.3.7","yes","yes","600bd7cfb6416f0113b04181","602110864497cf011d9c0822","0","j","NA","return","return","return","space","j","1117","NA","4148","37817","9763","5437","1117","2","legacy","1024","2","48000","-16","task","5204804","even","NA","62027","68180","64031","201878","5361","52955","43189","202381","178287","201875","202382","201815","68180","203500","60219","201315","5320","185750","Lexical Decision Task","57","63720","64","yes","1024"
"3.031812271","6.52","3","gulp","word","89.23076923076923","89.23076923076923","993.8307692307692","993.8307692307692","black","no","legacy","legacy","legacy","0","uniform","1","undefined","undefined","undefined","1","j","0","0","0","0","64","0","0","0","64","0","60","64","60","0","60","3","64","0","64","Thu Feb 18 13:13:55 2021","The main experiment item","yes","Lexical_Decision_Task.osexp","/Users/rachelrose","no","Andale Mono","no","18","no","white","no","yes","576","legacy","60","60","3","/Users/rachelrose/subject-5204804.csv","legacy","Lentiform Loewenfeld","3.3.7","yes","yes","600bd7cfb6416f0113b04181","602110864497cf011d9c0822","0","j","NA","return","return","return","space","j","879","NA","4148","37817","9763","5437","879","2","legacy","1024","2","48000","-16","task","5204804","even","NA","62027","68180","64031","204067","5361","52955","43189","204570","178287","204064","204570","204003","68180","205450","60219","203503","5320","185750","Lexical Decision Task","58","64599","65","yes","1024"
"2.64476673","0","5","moft","non-word","89.39393939393939","89.39393939393939","990.5757575757576","990.5757575757576","black","no","legacy","legacy","legacy","0","uniform","1","undefined","undefined","undefined","1","f","0","0","0","0","65","0","0","0","65","0","61","65","61","0","61","3","65","0","65","Thu Feb 18 13:13:55 2021","The main experiment item","yes","Lexical_Decision_Task.osexp","/Users/rachelrose","no","Andale Mono","no","18","no","white","no","yes","576","legacy","61","61","3","/Users/rachelrose/subject-5204804.csv","legacy","Lentiform Loewenfeld","3.3.7","yes","yes","600bd7cfb6416f0113b04181","602110864497cf011d9c0822","0","f","NA","return","return","return","space","f","779","NA","4148","37817","9763","5437","779","2","legacy","1024","2","48000","-16","task","5204804","even","NA","62027","68180","64031","206016","5361","52955","43189","206519","178287","206013","206520","205953","68180","207300","60219","205453","5320","185750","Lexical Decision Task","59","65378","66","yes","1024"
"2.996511672","0","7","hoil","non-word","89.55223880597015","89.55223880597015","988.1343283582089","988.1343283582089","black","no","legacy","legacy","legacy","0","uniform","1","undefined","undefined","undefined","1","f","0","0","0","0","66","0","0","0","66","0","62","66","62","0","62","3","66","0","66","Thu Feb 18 13:13:55 2021","The main experiment item","yes","Lexical_Decision_Task.osexp","/Users/rachelrose","no","Andale Mono","no","18","no","white","no","yes","576","legacy","62","62","3","/Users/rachelrose/subject-5204804.csv","legacy","Lentiform Loewenfeld","3.3.7","yes","yes","600bd7cfb6416f0113b04181","602110864497cf011d9c0822","0","f","NA","return","return","return","space","f","827","NA","4148","37817","9763","5437","827","2","legacy","1024","2","48000","-16","task","5204804","even","NA","62027","68180","64031","207866","5361","52955","43189","208369","178287","207864","208369","207803","68180","209197","60219","207303","5320","185750","Lexical Decision Task","60","66205","67","yes","1024"
"2.813801082","5.47","7","nook","word","88.23529411764706","88.23529411764706","1001.0735294117648","1001.0735294117648","black","no","legacy","legacy","legacy","0","uniform","0","undefined","undefined","undefined","0","j","0","0","0","0","67","0","0","0","67","0","63","67","63","0","63","3","67","0","67","Thu Feb 18 13:13:55 2021","The main experiment item","yes","Lexical_Decision_Task.osexp","/Users/rachelrose","no","Andale Mono","no","18","no","white","no","yes","576","legacy","63","63","3","/Users/rachelrose/subject-5204804.csv","legacy","Lentiform Loewenfeld","3.3.7","yes","yes","600bd7cfb6416f0113b04181","602110864497cf011d9c0822","0","f","NA","return","return","return","space","f","1868","NA","4148","37817","9763","5437","1868","2","legacy","1024","2","48000","-16","task","5204804","even","NA","62027","68180","64031","209762","5361","52955","43189","210266","178287","209760","210266","209699","68180","212134","60219","209199","5320","185750","Lexical Decision Task","60","68073","68","yes","1024"
"2.907588697","8.91","9","mood","word","88.40579710144928","88.40579710144928","995.1304347826087","995.1304347826087","black","no","legacy","legacy","legacy","0","uniform","1","undefined","undefined","undefined","1","j","0","0","0","0","68","0","0","0","68","0","64","68","64","0","64","3","68","0","68","Thu Feb 18 13:13:55 2021","The main experiment item","yes","Lexical_Decision_Task.osexp","/Users/rachelrose","no","Andale Mono","no","18","no","white","no","yes","576","legacy","64","64","3","/Users/rachelrose/subject-5204804.csv","legacy","Lentiform Loewenfeld","3.3.7","yes","yes","600bd7cfb6416f0113b04181","602110864497cf011d9c0822","0","j","NA","return","return","return","space","j","591","NA","4148","37817","9763","5437","591","2","legacy","1024","2","48000","-16","task","5204804","even","NA","62027","68180","64031","213702","5361","52955","43189","214205","178287","213699","214206","213638","68180","214798","60219","209199","5320","212138","Lexical Decision Task","61","68664","69","yes","1024"
"3.208978517","10.33","4","fish","word","88.57142857142857","88.57142857142857","988.8714285714286","988.8714285714286","black","no","legacy","legacy","legacy","0","uniform","1","undefined","undefined","undefined","1","j","0","0","0","0","69","0","0","0","69","0","65","69","65","0","65","3","69","0","69","Thu Feb 18 13:13:55 2021","The main experiment item","yes","Lexical_Decision_Task.osexp","/Users/rachelrose","no","Andale Mono","no","18","no","white","no","yes","576","legacy","65","65","3","/Users/rachelrose/subject-5204804.csv","legacy","Lentiform Loewenfeld","3.3.7","yes","yes","600bd7cfb6416f0113b04181","602110864497cf011d9c0822","0","j","NA","return","return","return","space","j","557","NA","4148","37817","9763","5437","557","2","legacy","1024","2","48000","-16","task","5204804","even","NA","62027","68180","64031","215363","5361","52955","43189","215867","178287","215361","215867","215300","68180","216425","60219","214800","5320","212138","Lexical Decision Task","62","69221","70","yes","1024"
"2.95456409","0","4","taud","non-word","88.73239436619718","88.73239436619718","989.6056338028169","989.6056338028169","black","no","legacy","legacy","legacy","0","uniform","1","undefined","undefined","undefined","1","f","0","0","0","0","70","0","0","0","70","0","66","70","66","0","66","3","70","0","70","Thu Feb 18 13:13:55 2021","The main experiment item","yes","Lexical_Decision_Task.osexp","/Users/rachelrose","no","Andale Mono","no","18","no","white","no","yes","576","legacy","66","66","3","/Users/rachelrose/subject-5204804.csv","legacy","Lentiform Loewenfeld","3.3.7","yes","yes","600bd7cfb6416f0113b04181","602110864497cf011d9c0822","0","f","NA","return","return","return","space","f","1041","NA","4148","37817","9763","5437","1041","2","legacy","1024","2","48000","-16","task","5204804","even","NA","62027","68180","64031","216992","5361","52955","43189","217495","178287","216989","217496","216928","68180","218538","60219","216428","5320","212138","Lexical Decision Task","63","70262","71","yes","1024"
"2.892836167","10.01","5","soft","word","88.88888888888889","88.88888888888889","984.0833333333334","984.0833333333334","black","no","legacy","legacy","legacy","0","uniform","1","undefined","undefined","undefined","1","j","0","0","0","0","71","0","0","0","71","0","67","71","67","0","67","3","71","0","71","Thu Feb 18 13:13:55 2021","The main experiment item","yes","Lexical_Decision_Task.osexp","/Users/rachelrose","no","Andale Mono","no","18","no","white","no","yes","576","legacy","67","67","3","/Users/rachelrose/subject-5204804.csv","legacy","Lentiform Loewenfeld","3.3.7","yes","yes","600bd7cfb6416f0113b04181","602110864497cf011d9c0822","0","j","NA","return","return","return","space","j","592","NA","4148","37817","9763","5437","592","2","legacy","1024","2","48000","-16","task","5204804","even","NA","62027","68180","64031","219104","5361","52955","43189","219607","178287","219101","219608","219041","68180","220201","60219","218541","5320","212138","Lexical Decision Task","64","70854","72","yes","1024"
"2.843025032","0","9","pusk","non-word","89.04109589041096","89.04109589041096","982.4931506849315","982.4931506849315","black","no","legacy","legacy","legacy","0","uniform","1","undefined","undefined","undefined","1","f","0","0","0","0","72","0","0","0","72","0","68","72","68","0","68","3","72","0","72","Thu Feb 18 13:13:55 2021","The main experiment item","yes","Lexical_Decision_Task.osexp","/Users/rachelrose","no","Andale Mono","no","18","no","white","no","yes","576","legacy","68","68","3","/Users/rachelrose/subject-5204804.csv","legacy","Lentiform Loewenfeld","3.3.7","yes","yes","600bd7cfb6416f0113b04181","602110864497cf011d9c0822","0","f","NA","return","return","return","space","f","868","NA","4148","37817","9763","5437","868","2","legacy","1024","2","48000","-16","task","5204804","even","NA","62027","68180","64031","220767","5361","52955","43189","221270","178287","220764","221270","220704","68180","222139","60219","220204","5320","212138","Lexical Decision Task","65","71722","73","yes","1024"
"3.307211407","6.07","7","honk","word","89.1891891891892","89.1891891891892","978.7432432432432","978.7432432432432","black","no","legacy","legacy","legacy","0","uniform","1","undefined","undefined","undefined","1","j","0","0","0","0","73","0","0","0","73","0","69","73","69","0","69","3","73","0","73","Thu Feb 18 13:13:55 2021","The main experiment item","yes","Lexical_Decision_Task.osexp","/Users/rachelrose","no","Andale Mono","no","18","no","white","no","yes","576","legacy","69","69","3","/Users/rachelrose/subject-5204804.csv","legacy","Lentiform Loewenfeld","3.3.7","yes","yes","600bd7cfb6416f0113b04181","602110864497cf011d9c0822","0","j","NA","return","return","return","space","j","705","NA","4148","37817","9763","5437","705","2","legacy","1024","2","48000","-16","task","5204804","even","NA","62027","68180","64031","222705","5361","52955","43189","223208","178287","222702","223208","222642","68180","223914","60219","222142","5320","212138","Lexical Decision Task","66","72427","74","yes","1024"
"2.698100546","0","9","mulk","non-word","89.33333333333333","89.33333333333333","976.8533333333334","976.8533333333334","black","no","legacy","legacy","legacy","0","uniform","1","undefined","undefined","undefined","1","f","0","0","0","0","74","0","0","0","74","0","70","74","70","0","70","3","74","0","74","Thu Feb 18 13:13:55 2021","The main experiment item","yes","Lexical_Decision_Task.osexp","/Users/rachelrose","no","Andale Mono","no","18","no","white","no","yes","576","legacy","70","70","3","/Users/rachelrose/subject-5204804.csv","legacy","Lentiform Loewenfeld","3.3.7","yes","yes","600bd7cfb6416f0113b04181","602110864497cf011d9c0822","0","f","NA","return","return","return","space","f","837","NA","4148","37817","9763","5437","837","2","legacy","1024","2","48000","-16","task","5204804","even","NA","62027","68180","64031","224480","5361","52955","43189","224983","178287","224477","224983","224417","68180","225821","60219","223917","5320","212138","Lexical Decision Task","67","73264","75","yes","1024"
"2.80048796","0","8","pife","non-word","89.47368421052632","89.47368421052632","996.9473684210526","996.9473684210526","black","no","legacy","legacy","legacy","0","uniform","1","undefined","undefined","undefined","1","f","0","0","0","0","75","0","0","0","75","0","71","75","71","0","71","3","75","0","75","Thu Feb 18 13:13:55 2021","The main experiment item","yes","Lexical_Decision_Task.osexp","/Users/rachelrose","no","Andale Mono","no","18","no","white","no","yes","576","legacy","71","71","3","/Users/rachelrose/subject-5204804.csv","legacy","Lentiform Loewenfeld","3.3.7","yes","yes","600bd7cfb6416f0113b04181","602110864497cf011d9c0822","0","f","NA","return","return","return","space","f","2504","NA","4148","37817","9763","5437","2504","2","legacy","1024","2","48000","-16","task","5204804","even","NA","62027","68180","64031","226387","5361","52955","43189","226890","178287","226384","226890","226324","68180","229395","60219","225824","5320","212138","Lexical Decision Task","68","75768","76","yes","1024"
"3.705778213","0","6","stin","non-word","89.6103896103896","89.6103896103896","998.3636363636364","998.3636363636364","black","no","legacy","legacy","legacy","0","uniform","1","undefined","undefined","undefined","1","f","0","0","0","0","76","0","0","0","76","0","72","76","72","0","72","3","76","0","76","Thu Feb 18 13:13:55 2021","The main experiment item","yes","Lexical_Decision_Task.osexp","/Users/rachelrose","no","Andale Mono","no","18","no","white","no","yes","576","legacy","72","72","3","/Users/rachelrose/subject-5204804.csv","legacy","Lentiform Loewenfeld","3.3.7","yes","yes","600bd7cfb6416f0113b04181","602110864497cf011d9c0822","0","f","NA","return","return","return","space","f","1106","NA","4148","37817","9763","5437","1106","2","legacy","1024","2","48000","-16","task","5204804","even","NA","62027","68180","64031","229962","5361","52955","43189","230465","178287","229959","230465","229898","68180","231572","60219","229398","5320","212138","Lexical Decision Task","69","76874","77","yes","1024"
"3.062080345","0","6","tomp","non-word","89.74358974358974","89.74358974358974","997.5769230769231","997.5769230769231","black","no","legacy","legacy","legacy","0","uniform","1","undefined","undefined","undefined","1","f","0","0","0","0","77","0","0","0","77","0","73","77","73","0","73","3","77","0","77","Thu Feb 18 13:13:55 2021","The main experiment item","yes","Lexical_Decision_Task.osexp","/Users/rachelrose","no","Andale Mono","no","18","no","white","no","yes","576","legacy","73","73","3","/Users/rachelrose/subject-5204804.csv","legacy","Lentiform Loewenfeld","3.3.7","yes","yes","600bd7cfb6416f0113b04181","602110864497cf011d9c0822","0","f","NA","return","return","return","space","f","937","NA","4148","37817","9763","5437","937","2","legacy","1024","2","48000","-16","task","5204804","even","NA","62027","68180","64031","232138","5361","52955","43189","232641","178287","232135","232641","232075","68180","233579","60219","231575","5320","212138","Lexical Decision Task","70","77811","78","yes","1024"
"2.839898939","8.99","6","soap","word","89.87341772151899","89.87341772151899","993.0379746835443","993.0379746835443","black","no","legacy","legacy","legacy","0","uniform","1","undefined","undefined","undefined","1","j","0","0","0","0","78","0","0","0","78","0","74","78","74","0","74","3","78","0","78","Thu Feb 18 13:13:55 2021","The main experiment item","yes","Lexical_Decision_Task.osexp","/Users/rachelrose","no","Andale Mono","no","18","no","white","no","yes","576","legacy","74","74","3","/Users/rachelrose/subject-5204804.csv","legacy","Lentiform Loewenfeld","3.3.7","yes","yes","600bd7cfb6416f0113b04181","602110864497cf011d9c0822","0","j","NA","return","return","return","space","j","639","NA","4148","37817","9763","5437","639","2","legacy","1024","2","48000","-16","task","5204804","even","NA","62027","68180","64031","234146","5361","52955","43189","234649","178287","234143","234649","234082","68180","235289","60219","233582","5320","212138","Lexical Decision Task","71","78450","79","yes","1024"
"3.492014979","0","9","yine","non-word","90","90","991.2625","991.2625","black","no","legacy","legacy","legacy","0","uniform","1","undefined","undefined","undefined","1","f","0","0","0","0","79","0","0","0","79","0","75","79","75","0","75","3","79","0","79","Thu Feb 18 13:13:55 2021","The main experiment item","yes","Lexical_Decision_Task.osexp","/Users/rachelrose","no","Andale Mono","no","18","no","white","no","yes","576","legacy","75","75","3","/Users/rachelrose/subject-5204804.csv","legacy","Lentiform Loewenfeld","3.3.7","yes","yes","600bd7cfb6416f0113b04181","602110864497cf011d9c0822","0","f","NA","return","return","return","space","f","851","NA","4148","37817","9763","5437","851","2","legacy","1024","2","48000","-16","task","5204804","even","NA","62027","68180","64031","235855","5361","52955","43189","236358","178287","235852","236358","235792","68180","237210","60219","235292","5320","212138","Lexical Decision Task","72","79301","80","yes","1024"
"2.594027722","9.08","8","skip","word","90.12345679012346","90.12345679012346","986.5432098765432","986.5432098765432","black","no","legacy","legacy","legacy","0","uniform","1","undefined","undefined","undefined","1","j","0","0","0","0","80","0","0","0","80","0","76","80","76","0","76","3","80","0","80","Thu Feb 18 13:13:55 2021","The main experiment item","yes","Lexical_Decision_Task.osexp","/Users/rachelrose","no","Andale Mono","no","18","no","white","no","yes","576","legacy","76","76","3","/Users/rachelrose/subject-5204804.csv","legacy","Lentiform Loewenfeld","3.3.7","yes","yes","600bd7cfb6416f0113b04181","602110864497cf011d9c0822","0","j","NA","return","return","return","space","j","609","NA","4148","37817","9763","5437","609","2","legacy","1024","2","48000","-16","task","5204804","even","NA","62027","68180","64031","237776","5361","52955","43189","238279","178287","237773","238280","237713","68180","238890","60219","237213","5320","212138","Lexical Decision Task","73","79910","81","yes","1024"
"2.875447132","0","9","jelt","non-word","90.2439024390244","90.2439024390244","983.7317073170732","983.7317073170732","black","no","legacy","legacy","legacy","0","uniform","1","undefined","undefined","undefined","1","f","0","0","0","0","81","0","0","0","81","0","77","81","77","0","77","3","81","0","81","Thu Feb 18 13:13:55 2021","The main experiment item","yes","Lexical_Decision_Task.osexp","/Users/rachelrose","no","Andale Mono","no","18","no","white","no","yes","576","legacy","77","77","3","/Users/rachelrose/subject-5204804.csv","legacy","Lentiform Loewenfeld","3.3.7","yes","yes","600bd7cfb6416f0113b04181","602110864497cf011d9c0822","0","f","NA","return","return","return","space","f","756","NA","4148","37817","9763","5437","756","2","legacy","1024","2","48000","-16","task","5204804","even","NA","62027","68180","64031","239456","5361","52955","43189","239959","178287","239453","239959","239393","68180","240716","60219","238893","5320","212138","Lexical Decision Task","74","80666","82","yes","1024"
"2.842815106","7.86","8","lump","word","90.36144578313252","90.36144578313252","979.6987951807229","979.6987951807229","black","no","legacy","legacy","legacy","0","uniform","1","undefined","undefined","undefined","1","j","0","0","0","0","82","0","0","0","82","0","78","82","78","0","78","3","82","0","82","Thu Feb 18 13:13:55 2021","The main experiment item","yes","Lexical_Decision_Task.osexp","/Users/rachelrose","no","Andale Mono","no","18","no","white","no","yes","576","legacy","78","78","3","/Users/rachelrose/subject-5204804.csv","legacy","Lentiform Loewenfeld","3.3.7","yes","yes","600bd7cfb6416f0113b04181","602110864497cf011d9c0822","0","j","NA","return","return","return","space","j","649","NA","4148","37817","9763","5437","649","2","legacy","1024","2","48000","-16","task","5204804","even","NA","62027","68180","64031","241282","5361","52955","43189","241785","178287","241279","241785","241219","68180","242435","60219","240719","5320","212138","Lexical Decision Task","75","81315","83","yes","1024"
"2.706148589","0","4","hube","non-word","90.47619047619048","90.47619047619048","977.4761904761905","977.4761904761905","black","no","legacy","legacy","legacy","0","uniform","1","undefined","undefined","undefined","1","f","0","0","0","0","83","0","0","0","83","0","79","83","79","0","79","3","83","0","83","Thu Feb 18 13:13:55 2021","The main experiment item","yes","Lexical_Decision_Task.osexp","/Users/rachelrose","no","Andale Mono","no","18","no","white","no","yes","576","legacy","79","79","3","/Users/rachelrose/subject-5204804.csv","legacy","Lentiform Loewenfeld","3.3.7","yes","yes","600bd7cfb6416f0113b04181","602110864497cf011d9c0822","0","f","NA","return","return","return","space","f","793","NA","4148","37817","9763","5437","793","2","legacy","1024","2","48000","-16","task","5204804","even","NA","62027","68180","64031","243001","5361","52955","43189","243504","178287","242998","243505","242938","68180","244299","60219","242438","5320","212138","Lexical Decision Task","76","82108","84","yes","1024"
"2.920123326","7.43","4","duel","word","90.58823529411765","90.58823529411765","974.6470588235294","974.6470588235294","black","no","legacy","legacy","legacy","0","uniform","1","undefined","undefined","undefined","1","j","0","0","0","0","84","0","0","0","84","0","80","84","80","0","80","3","84","0","84","Thu Feb 18 13:13:55 2021","The main experiment item","yes","Lexical_Decision_Task.osexp","/Users/rachelrose","no","Andale Mono","no","18","no","white","no","yes","576","legacy","80","80","3","/Users/rachelrose/subject-5204804.csv","legacy","Lentiform Loewenfeld","3.3.7","yes","yes","600bd7cfb6416f0113b04181","602110864497cf011d9c0822","0","j","NA","return","return","return","space","j","737","NA","4148","37817","9763","5437","737","2","legacy","1024","2","48000","-16","task","5204804","even","NA","62027","68180","64031","244866","5361","52955","43189","245369","178287","244863","245369","244802","68180","246107","60219","244302","5320","212138","Lexical Decision Task","77","82845","85","yes","1024"
"3.133964479","0","8","graw","non-word","90.69767441860465","90.69767441860465","972.6162790697674","972.6162790697674","black","no","legacy","legacy","legacy","0","uniform","1","undefined","undefined","undefined","1","f","0","0","0","0","85","0","0","0","85","0","81","85","81","0","81","3","85","0","85","Thu Feb 18 13:13:55 2021","The main experiment item","yes","Lexical_Decision_Task.osexp","/Users/rachelrose","no","Andale Mono","no","18","no","white","no","yes","576","legacy","81","81","3","/Users/rachelrose/subject-5204804.csv","legacy","Lentiform Loewenfeld","3.3.7","yes","yes","600bd7cfb6416f0113b04181","602110864497cf011d9c0822","0","f","NA","return","return","return","space","f","800","NA","4148","37817","9763","5437","800","2","legacy","1024","2","48000","-16","task","5204804","even","NA","62027","68180","64031","246673","5361","52955","43189","247176","178287","246670","247176","246610","68180","247977","60219","246109","5320","212138","Lexical Decision Task","78","83645","86","yes","1024"
"2.728085817","10.02","9","bike","word","90.80459770114942","90.80459770114942","977.6896551724138","977.6896551724138","black","no","legacy","legacy","legacy","0","uniform","1","undefined","undefined","undefined","1","j","0","0","0","0","86","0","0","0","86","0","82","86","82","0","82","3","86","0","86","Thu Feb 18 13:13:55 2021","The main experiment item","yes","Lexical_Decision_Task.osexp","/Users/rachelrose","no","Andale Mono","no","18","no","white","no","yes","576","legacy","82","82","3","/Users/rachelrose/subject-5204804.csv","legacy","Lentiform Loewenfeld","3.3.7","yes","yes","600bd7cfb6416f0113b04181","602110864497cf011d9c0822","0","j","NA","return","return","return","space","j","1414","NA","4148","37817","9763","5437","1414","2","legacy","1024","2","48000","-16","task","5204804","even","NA","62027","68180","64031","248544","5361","52955","43189","249047","178287","248541","249047","248481","68180","250462","60219","247981","5320","212138","Lexical Decision Task","79","85059","87","yes","1024"
"3.259832699","0","9","flar","non-word","90.9090909090909","90.9090909090909","974.0454545454545","974.0454545454545","black","no","legacy","legacy","legacy","0","uniform","1","undefined","undefined","undefined","1","f","0","0","0","0","87","0","0","0","87","0","83","87","83","0","83","3","87","0","87","Thu Feb 18 13:13:55 2021","The main experiment item","yes","Lexical_Decision_Task.osexp","/Users/rachelrose","no","Andale Mono","no","18","no","white","no","yes","576","legacy","83","83","3","/Users/rachelrose/subject-5204804.csv","legacy","Lentiform Loewenfeld","3.3.7","yes","yes","600bd7cfb6416f0113b04181","602110864497cf011d9c0822","0","f","NA","return","return","return","space","f","657","NA","4148","37817","9763","5437","657","2","legacy","1024","2","48000","-16","task","5204804","even","NA","62027","68180","64031","251027","5361","52955","43189","251529","178287","251025","251530","250965","68180","252188","60219","250465","5320","212138","Lexical Decision Task","80","85716","88","yes","1024"
"2.893578687","8.69","3","surf","word","91.01123595505618","91.01123595505618","971.8426966292135","971.8426966292135","black","no","legacy","legacy","legacy","0","uniform","1","undefined","undefined","undefined","1","j","0","0","0","0","88","0","0","0","88","0","84","88","84","0","84","3","88","0","88","Thu Feb 18 13:13:55 2021","The main experiment item","yes","Lexical_Decision_Task.osexp","/Users/rachelrose","no","Andale Mono","no","18","no","white","no","yes","576","legacy","84","84","3","/Users/rachelrose/subject-5204804.csv","legacy","Lentiform Loewenfeld","3.3.7","yes","yes","600bd7cfb6416f0113b04181","602110864497cf011d9c0822","0","j","NA","return","return","return","space","j","778","NA","4148","37817","9763","5437","778","2","legacy","1024","2","48000","-16","task","5204804","even","NA","62027","68180","64031","252755","5361","52955","43189","253257","178287","252752","253258","252691","68180","254037","60219","252191","5320","212138","Lexical Decision Task","81","86494","89","yes","1024"
"2.972357144","0","5","dasp","non-word","91.11111111111111","91.11111111111111","978.1222222222223","978.1222222222223","black","no","legacy","legacy","legacy","0","uniform","1","undefined","undefined","undefined","1","f","0","0","0","0","89","0","0","0","89","0","85","89","85","0","85","3","89","0","89","Thu Feb 18 13:13:55 2021","The main experiment item","yes","Lexical_Decision_Task.osexp","/Users/rachelrose","no","Andale Mono","no","18","no","white","no","yes","576","legacy","85","85","3","/Users/rachelrose/subject-5204804.csv","legacy","Lentiform Loewenfeld","3.3.7","yes","yes","600bd7cfb6416f0113b04181","602110864497cf011d9c0822","0","f","NA","return","return","return","space","f","1537","NA","4148","37817","9763","5437","1537","2","legacy","1024","2","48000","-16","task","5204804","even","NA","62027","68180","64031","254600","5361","52955","43189","255104","178287","254598","255104","254540","68180","256642","60219","254040","5320","212138","Lexical Decision Task","82","88031","90","yes","1024"
"3.066077331","0","7","vorn","non-word","91.20879120879121","91.20879120879121","975.978021978022","975.978021978022","black","no","legacy","legacy","legacy","0","uniform","1","undefined","undefined","undefined","1","f","0","0","0","0","90","0","0","0","90","0","86","90","86","0","86","3","90","0","90","Thu Feb 18 13:13:55 2021","The main experiment item","yes","Lexical_Decision_Task.osexp","/Users/rachelrose","no","Andale Mono","no","18","no","white","no","yes","576","legacy","86","86","3","/Users/rachelrose/subject-5204804.csv","legacy","Lentiform Loewenfeld","3.3.7","yes","yes","600bd7cfb6416f0113b04181","602110864497cf011d9c0822","0","f","NA","return","return","return","space","f","783","NA","4148","37817","9763","5437","783","2","legacy","1024","2","48000","-16","task","5204804","even","NA","62027","68180","64031","257207","5361","52955","43189","257711","178287","257205","257711","257145","68180","258495","60219","256645","5320","212138","Lexical Decision Task","83","88814","91","yes","1024"
"3.137775856","7.39","5","comb","word","91.30434782608695","91.30434782608695","974.5326086956521","974.5326086956521","black","no","legacy","legacy","legacy","0","uniform","1","undefined","undefined","undefined","1","j","0","0","0","0","91","0","0","0","91","0","87","91","87","0","87","3","91","0","91","Thu Feb 18 13:13:55 2021","The main experiment item","yes","Lexical_Decision_Task.osexp","/Users/rachelrose","no","Andale Mono","no","18","no","white","no","yes","576","legacy","87","87","3","/Users/rachelrose/subject-5204804.csv","legacy","Lentiform Loewenfeld","3.3.7","yes","yes","600bd7cfb6416f0113b04181","602110864497cf011d9c0822","0","j","NA","return","return","return","space","j","843","NA","4148","37817","9763","5437","843","2","legacy","1024","2","48000","-16","task","5204804","even","NA","62027","68180","64031","259065","5361","52955","43189","259568","178287","259062","259568","258998","68180","260412","60219","258498","5320","212138","Lexical Decision Task","84","89657","92","yes","1024"
"2.784379519","0","2","snaf","non-word","91.39784946236558","91.39784946236558","971.8817204301075","971.8817204301075","black","no","legacy","legacy","legacy","0","uniform","1","undefined","undefined","undefined","1","f","0","0","0","0","92","0","0","0","92","0","88","92","88","0","88","3","92","0","92","Thu Feb 18 13:13:55 2021","The main experiment item","yes","Lexical_Decision_Task.osexp","/Users/rachelrose","no","Andale Mono","no","18","no","white","no","yes","576","legacy","88","88","3","/Users/rachelrose/subject-5204804.csv","legacy","Lentiform Loewenfeld","3.3.7","yes","yes","600bd7cfb6416f0113b04181","602110864497cf011d9c0822","0","f","NA","return","return","return","space","f","728","NA","4148","37817","9763","5437","728","2","legacy","1024","2","48000","-16","task","5204804","even","NA","62027","68180","64031","260978","5361","52955","43189","261481","178287","260975","261481","260915","68180","262210","60219","260415","5320","212138","Lexical Decision Task","85","90385","93","yes","1024"
"2.971428938","9.86","7","spot","word","91.48936170212765","91.48936170212765","967.5531914893617","967.5531914893617","black","no","legacy","legacy","legacy","0","uniform","1","undefined","undefined","undefined","1","j","0","0","0","0","93","0","0","0","93","0","89","93","89","0","89","3","93","0","93","Thu Feb 18 13:13:55 2021","The main experiment item","yes","Lexical_Decision_Task.osexp","/Users/rachelrose","no","Andale Mono","no","18","no","white","no","yes","576","legacy","89","89","3","/Users/rachelrose/subject-5204804.csv","legacy","Lentiform Loewenfeld","3.3.7","yes","yes","600bd7cfb6416f0113b04181","602110864497cf011d9c0822","0","j","NA","return","return","return","space","j","565","NA","4148","37817","9763","5437","565","2","legacy","1024","2","48000","-16","task","5204804","even","NA","62027","68180","64031","262776","5361","52955","43189","263279","178287","262773","263280","262713","68180","263846","60219","262213","5320","212138","Lexical Decision Task","86","90950","94","yes","1024"
"3.384413096","10.15","3","glad","word","91.57894736842105","91.57894736842105","966.4842105263158","966.4842105263158","black","no","legacy","legacy","legacy","0","uniform","1","undefined","undefined","undefined","1","j","0","0","0","0","94","0","0","0","94","0","90","94","90","0","90","3","94","0","94","Thu Feb 18 13:13:55 2021","The main experiment item","yes","Lexical_Decision_Task.osexp","/Users/rachelrose","no","Andale Mono","no","18","no","white","no","yes","576","legacy","90","90","3","/Users/rachelrose/subject-5204804.csv","legacy","Lentiform Loewenfeld","3.3.7","yes","yes","600bd7cfb6416f0113b04181","602110864497cf011d9c0822","0","j","NA","return","return","return","space","j","866","NA","4148","37817","9763","5437","866","2","legacy","1024","2","48000","-16","task","5204804","even","NA","62027","68180","64031","264411","5361","52955","43189","264914","178287","264409","264914","264349","68180","265781","60219","263849","5320","212138","Lexical Decision Task","87","91816","95","yes","1024"
"2.68604012","0","3","mulb","non-word","91.66666666666667","91.66666666666667","962.5625","962.5625","black","no","legacy","legacy","legacy","0","uniform","1","undefined","undefined","undefined","1","f","0","0","0","0","95","0","0","0","95","0","91","95","91","0","91","3","95","0","95","Thu Feb 18 13:13:55 2021","The main experiment item","yes","Lexical_Decision_Task.osexp","/Users/rachelrose","no","Andale Mono","no","18","no","white","no","yes","576","legacy","91","91","3","/Users/rachelrose/subject-5204804.csv","legacy","Lentiform Loewenfeld","3.3.7","yes","yes","600bd7cfb6416f0113b04181","602110864497cf011d9c0822","0","f","NA","return","return","return","space","f","590","NA","4148","37817","9763","5437","590","2","legacy","1024","2","48000","-16","task","5204804","even","NA","62027","68180","64031","266347","5361","52955","43189","266850","178287","266344","266850","266284","68180","267441","60219","265784","5320","212138","Lexical Decision Task","88","92406","96","yes","1024"
"3.174641193","0","3","ramb","non-word","91.75257731958763","91.75257731958763","963.7731958762887","963.7731958762887","black","no","legacy","legacy","legacy","0","uniform","1","undefined","undefined","undefined","1","f","0","0","0","0","96","0","0","0","96","0","92","96","92","0","92","3","96","0","96","Thu Feb 18 13:13:55 2021","The main experiment item","yes","Lexical_Decision_Task.osexp","/Users/rachelrose","no","Andale Mono","no","18","no","white","no","yes","576","legacy","92","92","3","/Users/rachelrose/subject-5204804.csv","legacy","Lentiform Loewenfeld","3.3.7","yes","yes","600bd7cfb6416f0113b04181","602110864497cf011d9c0822","0","f","NA","return","return","return","space","f","1080","NA","4148","37817","9763","5437","1080","2","legacy","1024","2","48000","-16","task","5204804","even","NA","62027","68180","64031","268007","5361","52955","43189","268510","178287","268004","268510","267944","68180","269591","60219","267444","5320","212138","Lexical Decision Task","89","93486","97","yes","1024"
"3.218535505","7.85","7","goat","word","91.83673469387755","91.83673469387755","960.4489795918367","960.4489795918367","black","no","legacy","legacy","legacy","0","uniform","1","undefined","undefined","undefined","1","j","0","0","0","0","97","0","0","0","97","0","93","97","93","0","93","3","97","0","97","Thu Feb 18 13:13:55 2021","The main experiment item","yes","Lexical_Decision_Task.osexp","/Users/rachelrose","no","Andale Mono","no","18","no","white","no","yes","576","legacy","93","93","3","/Users/rachelrose/subject-5204804.csv","legacy","Lentiform Loewenfeld","3.3.7","yes","yes","600bd7cfb6416f0113b04181","602110864497cf011d9c0822","0","j","NA","return","return","return","space","j","638","NA","4148","37817","9763","5437","638","2","legacy","1024","2","48000","-16","task","5204804","even","NA","62027","68180","64031","270159","5361","52955","43189","270662","178287","270156","270663","270095","68180","271302","60219","269595","5320","212138","Lexical Decision Task","90","94124","98","yes","1024"
"2.986323777","10.85","8","ship","word","91.91919191919192","91.91919191919192","965.3232323232323","965.3232323232323","black","no","legacy","legacy","legacy","0","uniform","1","undefined","undefined","undefined","1","j","0","0","0","0","98","0","0","0","98","0","94","98","94","0","94","3","98","0","98","Thu Feb 18 13:13:55 2021","The main experiment item","yes","Lexical_Decision_Task.osexp","/Users/rachelrose","no","Andale Mono","no","18","no","white","no","yes","576","legacy","94","94","3","/Users/rachelrose/subject-5204804.csv","legacy","Lentiform Loewenfeld","3.3.7","yes","yes","600bd7cfb6416f0113b04181","602110864497cf011d9c0822","0","j","NA","return","return","return","space","j","1443","NA","4148","37817","9763","5437","1443","2","legacy","1024","2","48000","-16","task","5204804","even","NA","62027","68180","64031","271867","5361","52955","43189","272370","178287","271865","272371","271805","68180","273815","60219","271305","5320","212138","Lexical Decision Task","91","95567","99","yes","1024"
"3.230789326","5.38","5","prim","word","91","91","962.31","962.31","black","no","legacy","legacy","legacy","0","uniform","0","undefined","undefined","undefined","0","j","0","0","0","0","99","0","0","0","99","0","95","99","95","0","95","3","99","0","99","Thu Feb 18 13:13:55 2021","The main experiment item","yes","Lexical_Decision_Task.osexp","/Users/rachelrose","no","Andale Mono","no","18","no","white","no","yes","576","legacy","95","95","3","/Users/rachelrose/subject-5204804.csv","legacy","Lentiform Loewenfeld","3.3.7","yes","yes","600bd7cfb6416f0113b04181","602110864497cf011d9c0822","0","f","NA","return","return","return","space","f","664","NA","4148","37817","9763","5437","664","2","legacy","1024","2","48000","-16","task","5204804","even","NA","62027","68180","64031","274383","5361","52955","43189","274886","178287","274380","274886","274318","68180","275551","60219","273818","5320","212138","Lexical Decision Task","91","96231","100","yes","1024"
"2.778633532","0","3","jurp","non-word","91.08910891089108","91.08910891089108","966.7326732673267","966.7326732673267","black","no","legacy","legacy","legacy","0","uniform","1","undefined","undefined","undefined","1","f","0","0","0","0","100","0","0","0","100","0","96","100","96","0","96","3","100","0","100","Thu Feb 18 13:13:55 2021","The main experiment item","yes","Lexical_Decision_Task.osexp","/Users/rachelrose","no","Andale Mono","no","18","no","white","no","yes","576","legacy","96","96","3","/Users/rachelrose/subject-5204804.csv","legacy","Lentiform Loewenfeld","3.3.7","yes","yes","600bd7cfb6416f0113b04181","602110864497cf011d9c0822","0","f","NA","return","return","return","space","f","1409","NA","4148","37817","9763","5437","1409","2","legacy","1024","2","48000","-16","task","5204804","even","NA","62027","68180","64031","277121","5361","52955","43189","277624","178287","277117","277624","277054","68180","279034","60219","273818","5320","275554","Lexical Decision Task","92","97640","101","yes","1024"
