"Log_BG","Log_Freq_HAL","Ortho_N","Stimulus","Type","acc","accuracy","average_response_time","avg_rt","background","bidi","canvas_backend","clock_backend","color_backend","compensation","coordinates","correct","correct_Experimental_intro","correct_Introduction","correct_Practice_intro","correct_experimenter_kb","correct_response","count_End_Of_Experiment","count_End_Of_Practice","count_Experimental_Loop","count_Experimental_intro","count_Fixation","count_Introduction","count_Practice_Loop","count_Practice_intro","count_Stimulus","count_block_break_feedback","count_experimental_sequence","count_experimenter_kb","count_increment_trial_count","count_init_trial_count","count_logger","count_practice_sequence","count_right","count_task","count_wrong","datetime","description","disable_garbage_collection","experiment_file","experiment_path","font_bold","font_family","font_italic","font_size","font_underline","foreground","form_clicks","fullscreen","height","keyboard_backend","live_row","live_row_Experimental_Loop","live_row_Practice_Loop","logfile","mouse_backend","opensesame_codename","opensesame_version","osf_always_upload_data","osf_always_upload_experiment","osf_datanode_id","osf_id","repeat_cycle","response","response_End_Of_Experiment","response_Experimental_intro","response_Introduction","response_Practice_intro","response_block_break_feedback","response_experimenter_kb","response_time","response_time_End_Of_Experiment","response_time_Experimental_intro","response_time_Introduction","response_time_Practice_intro","response_time_block_break_feedback","response_time_experimenter_kb","round_decimals","sampler_backend","sound_buf_size","sound_channels","sound_freq","sound_sample_size","start","subject_nr","subject_parity","time_End_Of_Experiment","time_End_Of_Practice","time_Experimental_Loop","time_Experimental_intro","time_Fixation","time_Introduction","time_Practice_Loop","time_Practice_intro","time_Stimulus","time_block_break_feedback","time_experimental_sequence","time_experimenter_kb","time_increment_trial_count","time_init_trial_count","time_logger","time_practice_sequence","time_right","time_task","time_wrong","title","total_correct","total_response_time","total_responses","uniform_coordinates","width"
"2.7084209","0","8","vump","non-word","60","60","921.2","921.2","black","no","legacy","legacy","legacy","0","uniform","1","undefined","undefined","undefined","1","f","0","0","0","0","4","0","0","0","4","NA","0","4","0","0","0","3","4","0","4","Fri Feb 19 15:15:52 2021","The main experiment item","yes","Lexical_Decision_Task.osexp","/Users/arianerouget","no","Andale Mono","no","18","no","white","no","yes","576","legacy","0","0","3","/Users/arianerouget/subject-5225750.csv","legacy","Lentiform Loewenfeld","3.3.7","yes","yes","600bd7cfb6416f0113b04181","602110864497cf011d9c0822","0","f","NA","space","space","space","NA","f","1100","NA","133","8977","10375","NA","1100","2","legacy","1024","2","48000","-16","task","5225750","even","NA","36021","38159","38026","38182","6790","26155","15779","38686","NA","38180","38687","NA","38159","39787","34435","35490","6777","32872","Lexical Decision Task","3","4606","5","yes","1024"
"3.105055783","0","2","norp","non-word","66.66666666666667","66.66666666666667","897.5","897.5","black","no","legacy","legacy","legacy","0","uniform","1","undefined","undefined","undefined","1","f","0","0","0","0","5","0","0","0","5","NA","1","5","1","0","1","3","5","0","5","Fri Feb 19 15:15:52 2021","The main experiment item","yes","Lexical_Decision_Task.osexp","/Users/arianerouget","no","Andale Mono","no","18","no","white","no","yes","576","legacy","1","1","3","/Users/arianerouget/subject-5225750.csv","legacy","Lentiform Loewenfeld","3.3.7","yes","yes","600bd7cfb6416f0113b04181","602110864497cf011d9c0822","0","f","NA","space","space","space","NA","f","779","NA","133","8977","10375","NA","779","2","legacy","1024","2","48000","-16","task","5225750","even","NA","36021","38159","38026","40362","6790","26155","15779","40865","NA","40359","40866","40294","38159","41646","34435","39794","6777","32872","Lexical Decision Task","4","5385","6","yes","1024"
"2.843025032","0","9","pusk","non-word","71.42857142857143","71.42857142857143","885.7142857142857","885.7142857142857","black","no","legacy","legacy","legacy","0","uniform","1","undefined","undefined","undefined","1","f","0","0","0","0","6","0","0","0","6","NA","2","6","2","0","2","3","6","0","6","Fri Feb 19 15:15:52 2021","The main experiment item","yes","Lexical_Decision_Task.osexp","/Users/arianerouget","no","Andale Mono","no","18","no","white","no","yes","576","legacy","2","2","3","/Users/arianerouget/subject-5225750.csv","legacy","Lentiform Loewenfeld","3.3.7","yes","yes","600bd7cfb6416f0113b04181","602110864497cf011d9c0822","0","f","NA","space","space","space","NA","f","815","NA","133","8977","10375","NA","815","2","legacy","1024","2","48000","-16","task","5225750","even","NA","36021","38159","38026","42211","6790","26155","15779","42714","NA","42208","42715","42149","38159","43530","34435","41649","6777","32872","Lexical Decision Task","5","6200","7","yes","1024"
"2.981215883","10.66","5","hair","word","75","75","837.875","837.875","black","no","legacy","legacy","legacy","0","uniform","1","undefined","undefined","undefined","1","j","0","0","0","0","7","0","0","0","7","NA","3","7","3","0","3","3","7","0","7","Fri Feb 19 15:15:52 2021","The main experiment item","yes","Lexical_Decision_Task.osexp","/Users/arianerouget","no","Andale Mono","no","18","no","white","no","yes","576","legacy","3","3","3","/Users/arianerouget/subject-5225750.csv","legacy","Lentiform Loewenfeld","3.3.7","yes","yes","600bd7cfb6416f0113b04181","602110864497cf011d9c0822","0","j","NA","space","space","space","NA","j","503","NA","133","8977","10375","NA","503","2","legacy","1024","2","48000","-16","task","5225750","even","NA","36021","38159","38026","44098","6790","26155","15779","44601","NA","44095","44602","44034","38159","45105","34435","43534","6777","32872","Lexical Decision Task","6","6703","8","yes","1024"
"2.880623071","0","9","curp","non-word","77.77777777777777","77.77777777777777","849.3333333333334","849.3333333333334","black","no","legacy","legacy","legacy","0","uniform","1","undefined","undefined","undefined","1","f","0","0","0","0","8","0","0","0","8","NA","4","8","4","0","4","3","8","0","8","Fri Feb 19 15:15:52 2021","The main experiment item","yes","Lexical_Decision_Task.osexp","/Users/arianerouget","no","Andale Mono","no","18","no","white","no","yes","576","legacy","4","4","3","/Users/arianerouget/subject-5225750.csv","legacy","Lentiform Loewenfeld","3.3.7","yes","yes","600bd7cfb6416f0113b04181","602110864497cf011d9c0822","0","f","NA","space","space","space","NA","f","941","NA","133","8977","10375","NA","941","2","legacy","1024","2","48000","-16","task","5225750","even","NA","36021","38159","38026","45672","6790","26155","15779","46174","NA","45670","46174","45609","38159","47115","34435","45108","6777","32872","Lexical Decision Task","7","7644","9","yes","1024"
"2.594027722","9.08","8","skip","word","80","80","818.2","818.2","black","no","legacy","legacy","legacy","0","uniform","1","undefined","undefined","undefined","1","j","0","0","0","0","9","0","0","0","9","NA","5","9","5","0","5","3","9","0","9","Fri Feb 19 15:15:52 2021","The main experiment item","yes","Lexical_Decision_Task.osexp","/Users/arianerouget","no","Andale Mono","no","18","no","white","no","yes","576","legacy","5","5","3","/Users/arianerouget/subject-5225750.csv","legacy","Lentiform Loewenfeld","3.3.7","yes","yes","600bd7cfb6416f0113b04181","602110864497cf011d9c0822","0","j","NA","space","space","space","NA","j","538","NA","133","8977","10375","NA","538","2","legacy","1024","2","48000","-16","task","5225750","even","NA","36021","38159","38026","47681","6790","26155","15779","48184","NA","47678","48185","47618","38159","48724","34435","47118","6777","32872","Lexical Decision Task","8","8182","10","yes","1024"
"3.031812271","6.52","3","gulp","word","81.81818181818181","81.81818181818181","796.8181818181819","796.8181818181819","black","no","legacy","legacy","legacy","0","uniform","1","undefined","undefined","undefined","1","j","0","0","0","0","10","0","0","0","10","NA","6","10","6","0","6","3","10","0","10","Fri Feb 19 15:15:52 2021","The main experiment item","yes","Lexical_Decision_Task.osexp","/Users/arianerouget","no","Andale Mono","no","18","no","white","no","yes","576","legacy","6","6","3","/Users/arianerouget/subject-5225750.csv","legacy","Lentiform Loewenfeld","3.3.7","yes","yes","600bd7cfb6416f0113b04181","602110864497cf011d9c0822","0","j","NA","space","space","space","NA","j","583","NA","133","8977","10375","NA","583","2","legacy","1024","2","48000","-16","task","5225750","even","NA","36021","38159","38026","49290","6790","26155","15779","49794","NA","49288","49795","49228","38159","50379","34435","48727","6777","32872","Lexical Decision Task","9","8765","11","yes","1024"
"3.248054965","7.86","5","glow","word","83.33333333333333","83.33333333333333","772.0833333333334","772.0833333333334","black","no","legacy","legacy","legacy","0","uniform","1","undefined","undefined","undefined","1","j","0","0","0","0","11","0","0","0","11","NA","7","11","7","0","7","3","11","0","11","Fri Feb 19 15:15:52 2021","The main experiment item","yes","Lexical_Decision_Task.osexp","/Users/arianerouget","no","Andale Mono","no","18","no","white","no","yes","576","legacy","7","7","3","/Users/arianerouget/subject-5225750.csv","legacy","Lentiform Loewenfeld","3.3.7","yes","yes","600bd7cfb6416f0113b04181","602110864497cf011d9c0822","0","j","NA","space","space","space","NA","j","500","NA","133","8977","10375","NA","500","2","legacy","1024","2","48000","-16","task","5225750","even","NA","36021","38159","38026","50946","6790","26155","15779","51450","NA","50943","51450","50882","38159","51951","34435","50382","6777","32872","Lexical Decision Task","10","9265","12","yes","1024"
"3.299579929","0","2","flis","non-word","84.61538461538461","84.61538461538461","772.5384615384615","772.5384615384615","black","no","legacy","legacy","legacy","0","uniform","1","undefined","undefined","undefined","1","f","0","0","0","0","12","0","0","0","12","NA","8","12","8","0","8","3","12","0","12","Fri Feb 19 15:15:52 2021","The main experiment item","yes","Lexical_Decision_Task.osexp","/Users/arianerouget","no","Andale Mono","no","18","no","white","no","yes","576","legacy","8","8","3","/Users/arianerouget/subject-5225750.csv","legacy","Lentiform Loewenfeld","3.3.7","yes","yes","600bd7cfb6416f0113b04181","602110864497cf011d9c0822","0","f","NA","space","space","space","NA","f","778","NA","133","8977","10375","NA","778","2","legacy","1024","2","48000","-16","task","5225750","even","NA","36021","38159","38026","52501","6790","26155","15779","53004","NA","52499","53005","52454","38159","53784","34435","51954","6777","32872","Lexical Decision Task","11","10043","13","yes","1024"
"3.303771854","0","9","dath","non-word","78.57142857142857","78.57142857142857","764.4285714285714","764.4285714285714","black","no","legacy","legacy","legacy","0","uniform","0","undefined","undefined","undefined","0","f","0","0","0","0","13","0","0","0","13","NA","9","13","9","0","9","3","13","0","13","Fri Feb 19 15:15:52 2021","The main experiment item","yes","Lexical_Decision_Task.osexp","/Users/arianerouget","no","Andale Mono","no","18","no","white","no","yes","576","legacy","9","9","3","/Users/arianerouget/subject-5225750.csv","legacy","Lentiform Loewenfeld","3.3.7","yes","yes","600bd7cfb6416f0113b04181","602110864497cf011d9c0822","0","j","NA","space","space","space","NA","j","659","NA","133","8977","10375","NA","659","2","legacy","1024","2","48000","-16","task","5225750","even","NA","36021","38159","38026","54350","6790","26155","15779","54854","NA","54348","54855","54287","38159","55515","34435","53787","6777","32872","Lexical Decision Task","11","10702","14","yes","1024"
"2.668385917","5.48","4","twig","word","80","80","745.9333333333333","745.9333333333333","black","no","legacy","legacy","legacy","0","uniform","1","undefined","undefined","undefined","1","j","0","0","0","0","14","0","0","0","14","NA","10","14","10","0","10","3","14","0","14","Fri Feb 19 15:15:52 2021","The main experiment item","yes","Lexical_Decision_Task.osexp","/Users/arianerouget","no","Andale Mono","no","18","no","white","no","yes","576","legacy","10","10","3","/Users/arianerouget/subject-5225750.csv","legacy","Lentiform Loewenfeld","3.3.7","yes","yes","600bd7cfb6416f0113b04181","602110864497cf011d9c0822","0","j","NA","space","space","space","NA","j","487","NA","133","8977","10375","NA","487","2","legacy","1024","2","48000","-16","task","5225750","even","NA","36021","38159","38026","57085","6790","26155","15779","57588","NA","57082","57588","57018","38159","58076","34435","53787","6777","55518","Lexical Decision Task","12","11189","15","yes","1024"
"3.263399331","0","8","cour","non-word","81.25","81.25","743.125","743.125","black","no","legacy","legacy","legacy","0","uniform","1","undefined","undefined","undefined","1","f","0","0","0","0","15","0","0","0","15","NA","11","15","11","0","11","3","15","0","15","Fri Feb 19 15:15:52 2021","The main experiment item","yes","Lexical_Decision_Task.osexp","/Users/arianerouget","no","Andale Mono","no","18","no","white","no","yes","576","legacy","11","11","3","/Users/arianerouget/subject-5225750.csv","legacy","Lentiform Loewenfeld","3.3.7","yes","yes","600bd7cfb6416f0113b04181","602110864497cf011d9c0822","0","f","NA","space","space","space","NA","f","701","NA","133","8977","10375","NA","701","2","legacy","1024","2","48000","-16","task","5225750","even","NA","36021","38159","38026","58642","6790","26155","15779","59145","NA","58639","59146","58579","38159","59848","34435","58079","6777","55518","Lexical Decision Task","13","11890","16","yes","1024"
"3.028977705","0","7","frow","non-word","82.3529411764706","82.3529411764706","752.2941176470588","752.2941176470588","black","no","legacy","legacy","legacy","0","uniform","1","undefined","undefined","undefined","1","f","0","0","0","0","16","0","0","0","16","NA","12","16","12","0","12","3","16","0","16","Fri Feb 19 15:15:52 2021","The main experiment item","yes","Lexical_Decision_Task.osexp","/Users/arianerouget","no","Andale Mono","no","18","no","white","no","yes","576","legacy","12","12","3","/Users/arianerouget/subject-5225750.csv","legacy","Lentiform Loewenfeld","3.3.7","yes","yes","600bd7cfb6416f0113b04181","602110864497cf011d9c0822","0","f","NA","space","space","space","NA","f","899","NA","133","8977","10375","NA","899","2","legacy","1024","2","48000","-16","task","5225750","even","NA","36021","38159","38026","60413","6790","26155","15779","60917","NA","60411","60917","60350","38159","61817","34435","59850","6777","55518","Lexical Decision Task","14","12789","17","yes","1024"
"2.714888338","0","3","brug","non-word","83.33333333333333","83.33333333333333","746.8333333333334","746.8333333333334","black","no","legacy","legacy","legacy","0","uniform","1","undefined","undefined","undefined","1","f","0","0","0","0","17","0","0","0","17","NA","13","17","13","0","13","3","17","0","17","Fri Feb 19 15:15:52 2021","The main experiment item","yes","Lexical_Decision_Task.osexp","/Users/arianerouget","no","Andale Mono","no","18","no","white","no","yes","576","legacy","13","13","3","/Users/arianerouget/subject-5225750.csv","legacy","Lentiform Loewenfeld","3.3.7","yes","yes","600bd7cfb6416f0113b04181","602110864497cf011d9c0822","0","f","NA","space","space","space","NA","f","654","NA","133","8977","10375","NA","654","2","legacy","1024","2","48000","-16","task","5225750","even","NA","36021","38159","38026","62372","6790","26155","15779","62875","NA","62369","62876","62320","38159","63531","34435","61820","6777","55518","Lexical Decision Task","15","13443","18","yes","1024"
"3.066077331","0","7","vorn","non-word","84.21052631578948","84.21052631578948","747.9473684210526","747.9473684210526","black","no","legacy","legacy","legacy","0","uniform","1","undefined","undefined","undefined","1","f","0","0","0","0","18","0","0","0","18","NA","14","18","14","0","14","3","18","0","18","Fri Feb 19 15:15:52 2021","The main experiment item","yes","Lexical_Decision_Task.osexp","/Users/arianerouget","no","Andale Mono","no","18","no","white","no","yes","576","legacy","14","14","3","/Users/arianerouget/subject-5225750.csv","legacy","Lentiform Loewenfeld","3.3.7","yes","yes","600bd7cfb6416f0113b04181","602110864497cf011d9c0822","0","f","NA","space","space","space","NA","f","768","NA","133","8977","10375","NA","768","2","legacy","1024","2","48000","-16","task","5225750","even","NA","36021","38159","38026","64097","6790","26155","15779","64600","NA","64094","64601","64034","38159","65369","34435","63534","6777","55518","Lexical Decision Task","16","14211","19","yes","1024"
"3.208172527","10.27","7","deck","word","85","85","738.55","738.55","black","no","legacy","legacy","legacy","0","uniform","1","undefined","undefined","undefined","1","j","0","0","0","0","19","0","0","0","19","NA","15","19","15","0","15","3","19","0","19","Fri Feb 19 15:15:52 2021","The main experiment item","yes","Lexical_Decision_Task.osexp","/Users/arianerouget","no","Andale Mono","no","18","no","white","no","yes","576","legacy","15","15","3","/Users/arianerouget/subject-5225750.csv","legacy","Lentiform Loewenfeld","3.3.7","yes","yes","600bd7cfb6416f0113b04181","602110864497cf011d9c0822","0","j","NA","space","space","space","NA","j","560","NA","133","8977","10375","NA","560","2","legacy","1024","2","48000","-16","task","5225750","even","NA","36021","38159","38026","65937","6790","26155","15779","66440","NA","65934","66441","65873","38159","67001","34435","65373","6777","55518","Lexical Decision Task","17","14771","20","yes","1024"
"3.091901331","0","9","nipe","non-word","80.95238095238095","80.95238095238095","723.8095238095239","723.8095238095239","black","no","legacy","legacy","legacy","0","uniform","0","undefined","undefined","undefined","0","f","0","0","0","0","20","0","0","0","20","NA","16","20","16","0","16","3","20","0","20","Fri Feb 19 15:15:52 2021","The main experiment item","yes","Lexical_Decision_Task.osexp","/Users/arianerouget","no","Andale Mono","no","18","no","white","no","yes","576","legacy","16","16","3","/Users/arianerouget/subject-5225750.csv","legacy","Lentiform Loewenfeld","3.3.7","yes","yes","600bd7cfb6416f0113b04181","602110864497cf011d9c0822","0","j","NA","space","space","space","NA","j","429","NA","133","8977","10375","NA","429","2","legacy","1024","2","48000","-16","task","5225750","even","NA","36021","38159","38026","67568","6790","26155","15779","68072","NA","67565","68072","67504","38159","68502","34435","67004","6777","55518","Lexical Decision Task","17","15200","21","yes","1024"
"2.698100546","0","9","mulk","non-word","81.81818181818181","81.81818181818181","724.0454545454545","724.0454545454545","black","no","legacy","legacy","legacy","0","uniform","1","undefined","undefined","undefined","1","f","0","0","0","0","21","0","0","0","21","NA","17","21","17","0","17","3","21","0","21","Fri Feb 19 15:15:52 2021","The main experiment item","yes","Lexical_Decision_Task.osexp","/Users/arianerouget","no","Andale Mono","no","18","no","white","no","yes","576","legacy","17","17","3","/Users/arianerouget/subject-5225750.csv","legacy","Lentiform Loewenfeld","3.3.7","yes","yes","600bd7cfb6416f0113b04181","602110864497cf011d9c0822","0","f","NA","space","space","space","NA","f","729","NA","133","8977","10375","NA","729","2","legacy","1024","2","48000","-16","task","5225750","even","NA","36021","38159","38026","70074","6790","26155","15779","70577","NA","70070","70578","70005","38159","71308","34435","67004","6777","68505","Lexical Decision Task","18","15929","22","yes","1024"
"3.003891166","8.05","2","frog","word","82.6086956521739","82.6086956521739","713.4782608695652","713.4782608695652","black","no","legacy","legacy","legacy","0","uniform","1","undefined","undefined","undefined","1","j","0","0","0","0","22","0","0","0","22","NA","18","22","18","0","18","3","22","0","22","Fri Feb 19 15:15:52 2021","The main experiment item","yes","Lexical_Decision_Task.osexp","/Users/arianerouget","no","Andale Mono","no","18","no","white","no","yes","576","legacy","18","18","3","/Users/arianerouget/subject-5225750.csv","legacy","Lentiform Loewenfeld","3.3.7","yes","yes","600bd7cfb6416f0113b04181","602110864497cf011d9c0822","0","j","NA","space","space","space","NA","j","481","NA","133","8977","10375","NA","481","2","legacy","1024","2","48000","-16","task","5225750","even","NA","36021","38159","38026","71875","6790","26155","15779","72379","NA","71873","72379","71812","38159","72860","34435","71312","6777","68505","Lexical Decision Task","19","16410","23","yes","1024"
"3.121778632","0","9","sark","non-word","79.16666666666667","79.16666666666667","708.6666666666666","708.6666666666666","black","no","legacy","legacy","legacy","0","uniform","0","undefined","undefined","undefined","0","f","0","0","0","0","23","0","0","0","23","NA","19","23","19","0","19","3","23","0","23","Fri Feb 19 15:15:52 2021","The main experiment item","yes","Lexical_Decision_Task.osexp","/Users/arianerouget","no","Andale Mono","no","18","no","white","no","yes","576","legacy","19","19","3","/Users/arianerouget/subject-5225750.csv","legacy","Lentiform Loewenfeld","3.3.7","yes","yes","600bd7cfb6416f0113b04181","602110864497cf011d9c0822","0","j","NA","space","space","space","NA","j","598","NA","133","8977","10375","NA","598","2","legacy","1024","2","48000","-16","task","5225750","even","NA","36021","38159","38026","73426","6790","26155","15779","73930","NA","73424","73931","73363","38159","74529","34435","72863","6777","68505","Lexical Decision Task","19","17008","24","yes","1024"
"2.68604012","0","3","mulb","non-word","80","80","706.28","706.28","black","no","legacy","legacy","legacy","0","uniform","1","undefined","undefined","undefined","1","f","0","0","0","0","24","0","0","0","24","NA","20","24","20","0","20","3","24","0","24","Fri Feb 19 15:15:52 2021","The main experiment item","yes","Lexical_Decision_Task.osexp","/Users/arianerouget","no","Andale Mono","no","18","no","white","no","yes","576","legacy","20","20","3","/Users/arianerouget/subject-5225750.csv","legacy","Lentiform Loewenfeld","3.3.7","yes","yes","600bd7cfb6416f0113b04181","602110864497cf011d9c0822","0","f","NA","space","space","space","NA","f","649","NA","133","8977","10375","NA","649","2","legacy","1024","2","48000","-16","task","5225750","even","NA","36021","38159","38026","76100","6790","26155","15779","76605","NA","76096","76605","76033","38159","77255","34435","72863","6777","74533","Lexical Decision Task","20","17657","25","yes","1024"
"3.15462682","0","6","noal","non-word","80.76923076923077","80.76923076923077","705.6538461538462","705.6538461538462","black","no","legacy","legacy","legacy","0","uniform","1","undefined","undefined","undefined","1","f","0","0","0","0","25","0","0","0","25","NA","21","25","21","0","21","3","25","0","25","Fri Feb 19 15:15:52 2021","The main experiment item","yes","Lexical_Decision_Task.osexp","/Users/arianerouget","no","Andale Mono","no","18","no","white","no","yes","576","legacy","21","21","3","/Users/arianerouget/subject-5225750.csv","legacy","Lentiform Loewenfeld","3.3.7","yes","yes","600bd7cfb6416f0113b04181","602110864497cf011d9c0822","0","f","NA","space","space","space","NA","f","690","NA","133","8977","10375","NA","690","2","legacy","1024","2","48000","-16","task","5225750","even","NA","36021","38159","38026","77821","6790","26155","15779","78326","NA","77818","78327","77758","38159","79018","34435","77258","6777","74533","Lexical Decision Task","21","18347","26","yes","1024"
"3.174641193","0","3","ramb","non-word","81.48148148148148","81.48148148148148","707.7407407407408","707.7407407407408","black","no","legacy","legacy","legacy","0","uniform","1","undefined","undefined","undefined","1","f","0","0","0","0","26","0","0","0","26","NA","22","26","22","0","22","3","26","0","26","Fri Feb 19 15:15:52 2021","The main experiment item","yes","Lexical_Decision_Task.osexp","/Users/arianerouget","no","Andale Mono","no","18","no","white","no","yes","576","legacy","22","22","3","/Users/arianerouget/subject-5225750.csv","legacy","Lentiform Loewenfeld","3.3.7","yes","yes","600bd7cfb6416f0113b04181","602110864497cf011d9c0822","0","f","NA","space","space","space","NA","f","762","NA","133","8977","10375","NA","762","2","legacy","1024","2","48000","-16","task","5225750","even","NA","36021","38159","38026","79585","6790","26155","15779","80089","NA","79582","80089","79521","38159","80852","34435","79021","6777","74533","Lexical Decision Task","22","19109","27","yes","1024"
"3.197740804","6.74","3","ache","word","82.14285714285714","82.14285714285714","702.8928571428571","702.8928571428571","black","no","legacy","legacy","legacy","0","uniform","1","undefined","undefined","undefined","1","j","0","0","0","0","27","0","0","0","27","NA","23","27","23","0","23","3","27","0","27","Fri Feb 19 15:15:52 2021","The main experiment item","yes","Lexical_Decision_Task.osexp","/Users/arianerouget","no","Andale Mono","no","18","no","white","no","yes","576","legacy","23","23","3","/Users/arianerouget/subject-5225750.csv","legacy","Lentiform Loewenfeld","3.3.7","yes","yes","600bd7cfb6416f0113b04181","602110864497cf011d9c0822","0","j","NA","space","space","space","NA","j","572","NA","133","8977","10375","NA","572","2","legacy","1024","2","48000","-16","task","5225750","even","NA","36021","38159","38026","81419","6790","26155","15779","81923","NA","81416","81923","81356","38159","82496","34435","80855","6777","74533","Lexical Decision Task","23","19681","28","yes","1024"
"3.010582609","0","2","drod","non-word","82.75862068965517","82.75862068965517","697.8965517241379","697.8965517241379","black","no","legacy","legacy","legacy","0","uniform","1","undefined","undefined","undefined","1","f","0","0","0","0","28","0","0","0","28","NA","24","28","24","0","24","3","28","0","28","Fri Feb 19 15:15:52 2021","The main experiment item","yes","Lexical_Decision_Task.osexp","/Users/arianerouget","no","Andale Mono","no","18","no","white","no","yes","576","legacy","24","24","3","/Users/arianerouget/subject-5225750.csv","legacy","Lentiform Loewenfeld","3.3.7","yes","yes","600bd7cfb6416f0113b04181","602110864497cf011d9c0822","0","f","NA","space","space","space","NA","f","558","NA","133","8977","10375","NA","558","2","legacy","1024","2","48000","-16","task","5225750","even","NA","36021","38159","38026","83063","6790","26155","15779","83566","NA","83060","83567","82999","38159","84126","34435","82499","6777","74533","Lexical Decision Task","24","20239","29","yes","1024"
"3.366547468","0","6","plat","non-word","80","80","697.5","697.5","black","no","legacy","legacy","legacy","0","uniform","0","undefined","undefined","undefined","0","f","0","0","0","0","29","0","0","0","29","NA","25","29","25","0","25","3","29","0","29","Fri Feb 19 15:15:52 2021","The main experiment item","yes","Lexical_Decision_Task.osexp","/Users/arianerouget","no","Andale Mono","no","18","no","white","no","yes","576","legacy","25","25","3","/Users/arianerouget/subject-5225750.csv","legacy","Lentiform Loewenfeld","3.3.7","yes","yes","600bd7cfb6416f0113b04181","602110864497cf011d9c0822","0","j","NA","space","space","space","NA","j","686","NA","133","8977","10375","NA","686","2","legacy","1024","2","48000","-16","task","5225750","even","NA","36021","38159","38026","84693","6790","26155","15779","85196","NA","84690","85197","84629","38159","85884","34435","84129","6777","74533","Lexical Decision Task","24","20925","30","yes","1024"
"3.168890155","0","6","thet","non-word","80.64516129032258","80.64516129032258","696.0967741935484","696.0967741935484","black","no","legacy","legacy","legacy","0","uniform","1","undefined","undefined","undefined","1","f","0","0","0","0","30","0","0","0","30","NA","26","30","26","0","26","3","30","0","30","Fri Feb 19 15:15:52 2021","The main experiment item","yes","Lexical_Decision_Task.osexp","/Users/arianerouget","no","Andale Mono","no","18","no","white","no","yes","576","legacy","26","26","3","/Users/arianerouget/subject-5225750.csv","legacy","Lentiform Loewenfeld","3.3.7","yes","yes","600bd7cfb6416f0113b04181","602110864497cf011d9c0822","0","f","NA","space","space","space","NA","f","654","NA","133","8977","10375","NA","654","2","legacy","1024","2","48000","-16","task","5225750","even","NA","36021","38159","38026","87453","6790","26155","15779","87957","NA","87449","87958","87387","38159","88613","34435","84129","6777","85887","Lexical Decision Task","25","21579","31","yes","1024"
"3.068433376","8.09","2","bulb","word","81.25","81.25","693.28125","693.28125","black","no","legacy","legacy","legacy","0","uniform","1","undefined","undefined","undefined","1","j","0","0","0","0","31","0","0","0","31","NA","27","31","27","0","27","3","31","0","31","Fri Feb 19 15:15:52 2021","The main experiment item","yes","Lexical_Decision_Task.osexp","/Users/arianerouget","no","Andale Mono","no","18","no","white","no","yes","576","legacy","27","27","3","/Users/arianerouget/subject-5225750.csv","legacy","Lentiform Loewenfeld","3.3.7","yes","yes","600bd7cfb6416f0113b04181","602110864497cf011d9c0822","0","j","NA","space","space","space","NA","j","606","NA","133","8977","10375","NA","606","2","legacy","1024","2","48000","-16","task","5225750","even","NA","36021","38159","38026","89180","6790","26155","15779","89683","NA","89177","89684","89115","38159","90291","34435","88615","6777","85887","Lexical Decision Task","26","22185","32","yes","1024"
"3.230789326","5.38","5","prim","word","78.78787878787878","78.78787878787878","693.8787878787879","693.8787878787879","black","no","legacy","legacy","legacy","0","uniform","0","undefined","undefined","undefined","0","j","0","0","0","0","32","0","0","0","32","NA","28","32","28","0","28","3","32","0","32","Fri Feb 19 15:15:52 2021","The main experiment item","yes","Lexical_Decision_Task.osexp","/Users/arianerouget","no","Andale Mono","no","18","no","white","no","yes","576","legacy","28","28","3","/Users/arianerouget/subject-5225750.csv","legacy","Lentiform Loewenfeld","3.3.7","yes","yes","600bd7cfb6416f0113b04181","602110864497cf011d9c0822","0","f","NA","space","space","space","NA","f","713","NA","133","8977","10375","NA","713","2","legacy","1024","2","48000","-16","task","5225750","even","NA","36021","38159","38026","90857","6790","26155","15779","91360","NA","90854","91361","90794","38159","92074","34435","90294","6777","85887","Lexical Decision Task","26","22898","33","yes","1024"
"2.576725172","0","8","gowl","non-word","79.41176470588235","79.41176470588235","697.2352941176471","697.2352941176471","black","no","legacy","legacy","legacy","0","uniform","1","undefined","undefined","undefined","1","f","0","0","0","0","33","0","0","0","33","NA","29","33","29","0","29","3","33","0","33","Fri Feb 19 15:15:52 2021","The main experiment item","yes","Lexical_Decision_Task.osexp","/Users/arianerouget","no","Andale Mono","no","18","no","white","no","yes","576","legacy","29","29","3","/Users/arianerouget/subject-5225750.csv","legacy","Lentiform Loewenfeld","3.3.7","yes","yes","600bd7cfb6416f0113b04181","602110864497cf011d9c0822","0","f","NA","space","space","space","NA","f","808","NA","133","8977","10375","NA","808","2","legacy","1024","2","48000","-16","task","5225750","even","NA","36021","38159","38026","93645","6790","26155","15779","94149","NA","93641","94149","93578","38159","94958","34435","90294","6777","92078","Lexical Decision Task","27","23706","34","yes","1024"
"2.82129731","6.72","5","plum","word","80","80","693.6","693.6","black","no","legacy","legacy","legacy","0","uniform","1","undefined","undefined","undefined","1","j","0","0","0","0","34","0","0","0","34","NA","30","34","30","0","30","3","34","0","34","Fri Feb 19 15:15:52 2021","The main experiment item","yes","Lexical_Decision_Task.osexp","/Users/arianerouget","no","Andale Mono","no","18","no","white","no","yes","576","legacy","30","30","3","/Users/arianerouget/subject-5225750.csv","legacy","Lentiform Loewenfeld","3.3.7","yes","yes","600bd7cfb6416f0113b04181","602110864497cf011d9c0822","0","j","NA","space","space","space","NA","j","570","NA","133","8977","10375","NA","570","2","legacy","1024","2","48000","-16","task","5225750","even","NA","36021","38159","38026","95524","6790","26155","15779","96027","NA","95521","96028","95461","38159","96598","34435","94961","6777","92078","Lexical Decision Task","28","24276","35","yes","1024"
"3.195807436","0","6","stup","non-word","80.55555555555556","80.55555555555556","698.1388888888889","698.1388888888889","black","no","legacy","legacy","legacy","0","uniform","1","undefined","undefined","undefined","1","f","0","0","0","0","35","0","0","0","35","NA","31","35","31","0","31","3","35","0","35","Fri Feb 19 15:15:52 2021","The main experiment item","yes","Lexical_Decision_Task.osexp","/Users/arianerouget","no","Andale Mono","no","18","no","white","no","yes","576","legacy","31","31","3","/Users/arianerouget/subject-5225750.csv","legacy","Lentiform Loewenfeld","3.3.7","yes","yes","600bd7cfb6416f0113b04181","602110864497cf011d9c0822","0","f","NA","space","space","space","NA","f","857","NA","133","8977","10375","NA","857","2","legacy","1024","2","48000","-16","task","5225750","even","NA","36021","38159","38026","97165","6790","26155","15779","97669","NA","97163","97669","97102","38159","98527","34435","96602","6777","92078","Lexical Decision Task","29","25133","36","yes","1024"
"3.194328374","9.42","6","harm","word","81.08108108108108","81.08108108108108","692.027027027027","692.027027027027","black","no","legacy","legacy","legacy","0","uniform","1","undefined","undefined","undefined","1","j","0","0","0","0","36","0","0","0","36","NA","32","36","32","0","32","3","36","0","36","Fri Feb 19 15:15:52 2021","The main experiment item","yes","Lexical_Decision_Task.osexp","/Users/arianerouget","no","Andale Mono","no","18","no","white","no","yes","576","legacy","32","32","3","/Users/arianerouget/subject-5225750.csv","legacy","Lentiform Loewenfeld","3.3.7","yes","yes","600bd7cfb6416f0113b04181","602110864497cf011d9c0822","0","j","NA","space","space","space","NA","j","472","NA","133","8977","10375","NA","472","2","legacy","1024","2","48000","-16","task","5225750","even","NA","36021","38159","38026","99094","6790","26155","15779","99597","NA","99091","99598","99030","38159","100071","34435","98530","6777","92078","Lexical Decision Task","30","25605","37","yes","1024"
"3.311895072","0","9","gung","non-word","81.57894736842105","81.57894736842105","701.6315789473684","701.6315789473684","black","no","legacy","legacy","legacy","0","uniform","1","undefined","undefined","undefined","1","f","0","0","0","0","37","0","0","0","37","NA","33","37","33","0","33","3","37","0","37","Fri Feb 19 15:15:52 2021","The main experiment item","yes","Lexical_Decision_Task.osexp","/Users/arianerouget","no","Andale Mono","no","18","no","white","no","yes","576","legacy","33","33","3","/Users/arianerouget/subject-5225750.csv","legacy","Lentiform Loewenfeld","3.3.7","yes","yes","600bd7cfb6416f0113b04181","602110864497cf011d9c0822","0","f","NA","space","space","space","NA","f","1057","NA","133","8977","10375","NA","1057","2","legacy","1024","2","48000","-16","task","5225750","even","NA","36021","38159","38026","100638","6790","26155","15779","101143","NA","100635","101143","100574","38159","102201","34435","100074","6777","92078","Lexical Decision Task","31","26662","38","yes","1024"
"2.972357144","0","5","dasp","non-word","82.05128205128206","82.05128205128206","700.7435897435897","700.7435897435897","black","no","legacy","legacy","legacy","0","uniform","1","undefined","undefined","undefined","1","f","0","0","0","0","38","0","0","0","38","NA","34","38","34","0","34","3","38","0","38","Fri Feb 19 15:15:52 2021","The main experiment item","yes","Lexical_Decision_Task.osexp","/Users/arianerouget","no","Andale Mono","no","18","no","white","no","yes","576","legacy","34","34","3","/Users/arianerouget/subject-5225750.csv","legacy","Lentiform Loewenfeld","3.3.7","yes","yes","600bd7cfb6416f0113b04181","602110864497cf011d9c0822","0","f","NA","space","space","space","NA","f","667","NA","133","8977","10375","NA","667","2","legacy","1024","2","48000","-16","task","5225750","even","NA","36021","38159","38026","102769","6790","26155","15779","103272","NA","102766","103273","102705","38159","103941","34435","102205","6777","92078","Lexical Decision Task","32","27329","39","yes","1024"
"3.076883066","0","8","mout","non-word","82.5","82.5","694.775","694.775","black","no","legacy","legacy","legacy","0","uniform","1","undefined","undefined","undefined","1","f","0","0","0","0","39","0","0","0","39","NA","35","39","35","0","35","3","39","0","39","Fri Feb 19 15:15:52 2021","The main experiment item","yes","Lexical_Decision_Task.osexp","/Users/arianerouget","no","Andale Mono","no","18","no","white","no","yes","576","legacy","35","35","3","/Users/arianerouget/subject-5225750.csv","legacy","Lentiform Loewenfeld","3.3.7","yes","yes","600bd7cfb6416f0113b04181","602110864497cf011d9c0822","0","f","NA","space","space","space","NA","f","462","NA","133","8977","10375","NA","462","2","legacy","1024","2","48000","-16","task","5225750","even","NA","36021","38159","38026","104511","6790","26155","15779","105015","NA","104508","105015","104444","38159","105478","34435","103944","6777","92078","Lexical Decision Task","33","27791","40","yes","1024"
"2.893578687","8.69","3","surf","word","82.92682926829268","82.92682926829268","693.170731707317","693.170731707317","black","no","legacy","legacy","legacy","0","uniform","1","undefined","undefined","undefined","1","j","0","0","0","0","40","0","0","0","40","NA","36","40","36","0","36","3","40","0","40","Fri Feb 19 15:15:52 2021","The main experiment item","yes","Lexical_Decision_Task.osexp","/Users/arianerouget","no","Andale Mono","no","18","no","white","no","yes","576","legacy","36","36","3","/Users/arianerouget/subject-5225750.csv","legacy","Lentiform Loewenfeld","3.3.7","yes","yes","600bd7cfb6416f0113b04181","602110864497cf011d9c0822","0","j","NA","space","space","space","NA","j","629","NA","133","8977","10375","NA","629","2","legacy","1024","2","48000","-16","task","5225750","even","NA","36021","38159","38026","106044","6790","26155","15779","106547","NA","106041","106548","105981","38159","107178","34435","105481","6777","92078","Lexical Decision Task","34","28420","41","yes","1024"
"2.868644438","10.52","4","town","word","83.33333333333333","83.33333333333333","687.3333333333334","687.3333333333334","black","no","legacy","legacy","legacy","0","uniform","1","undefined","undefined","undefined","1","j","0","0","0","0","41","0","0","0","41","NA","37","41","37","0","37","3","41","0","41","Fri Feb 19 15:15:52 2021","The main experiment item","yes","Lexical_Decision_Task.osexp","/Users/arianerouget","no","Andale Mono","no","18","no","white","no","yes","576","legacy","37","37","3","/Users/arianerouget/subject-5225750.csv","legacy","Lentiform Loewenfeld","3.3.7","yes","yes","600bd7cfb6416f0113b04181","602110864497cf011d9c0822","0","j","NA","space","space","space","NA","j","448","NA","133","8977","10375","NA","448","2","legacy","1024","2","48000","-16","task","5225750","even","NA","36021","38159","38026","107743","6790","26155","15779","108247","NA","107740","108248","107681","38159","108697","34435","107181","6777","92078","Lexical Decision Task","35","28868","42","yes","1024"
"3.20996159","0","4","clee","non-word","83.72093023255815","83.72093023255815","687.2558139534884","687.2558139534884","black","no","legacy","legacy","legacy","0","uniform","1","undefined","undefined","undefined","1","f","0","0","0","0","42","0","0","0","42","NA","38","42","38","0","38","3","42","0","42","Fri Feb 19 15:15:52 2021","The main experiment item","yes","Lexical_Decision_Task.osexp","/Users/arianerouget","no","Andale Mono","no","18","no","white","no","yes","576","legacy","38","38","3","/Users/arianerouget/subject-5225750.csv","legacy","Lentiform Loewenfeld","3.3.7","yes","yes","600bd7cfb6416f0113b04181","602110864497cf011d9c0822","0","f","NA","space","space","space","NA","f","684","NA","133","8977","10375","NA","684","2","legacy","1024","2","48000","-16","task","5225750","even","NA","36021","38159","38026","109262","6790","26155","15779","109765","NA","109260","109766","109200","38159","110451","34435","108700","6777","92078","Lexical Decision Task","36","29552","43","yes","1024"
"2.9737419","7.69","7","claw","word","84.0909090909091","84.0909090909091","686.8636363636364","686.8636363636364","black","no","legacy","legacy","legacy","0","uniform","1","undefined","undefined","undefined","1","j","0","0","0","0","43","0","0","0","43","NA","39","43","39","0","39","3","43","0","43","Fri Feb 19 15:15:52 2021","The main experiment item","yes","Lexical_Decision_Task.osexp","/Users/arianerouget","no","Andale Mono","no","18","no","white","no","yes","576","legacy","39","39","3","/Users/arianerouget/subject-5225750.csv","legacy","Lentiform Loewenfeld","3.3.7","yes","yes","600bd7cfb6416f0113b04181","602110864497cf011d9c0822","0","j","NA","space","space","space","NA","j","670","NA","133","8977","10375","NA","670","2","legacy","1024","2","48000","-16","task","5225750","even","NA","36021","38159","38026","111016","6790","26155","15779","111519","NA","111013","111519","110954","38159","112190","34435","110454","6777","92078","Lexical Decision Task","37","30222","44","yes","1024"
"2.728085817","10.02","9","bike","word","84.44444444444444","84.44444444444444","691.8888888888889","691.8888888888889","black","no","legacy","legacy","legacy","0","uniform","1","undefined","undefined","undefined","1","j","0","0","0","0","44","0","0","0","44","NA","40","44","40","0","40","3","44","0","44","Fri Feb 19 15:15:52 2021","The main experiment item","yes","Lexical_Decision_Task.osexp","/Users/arianerouget","no","Andale Mono","no","18","no","white","no","yes","576","legacy","40","40","3","/Users/arianerouget/subject-5225750.csv","legacy","Lentiform Loewenfeld","3.3.7","yes","yes","600bd7cfb6416f0113b04181","602110864497cf011d9c0822","0","j","NA","space","space","space","NA","j","913","NA","133","8977","10375","NA","913","2","legacy","1024","2","48000","-16","task","5225750","even","NA","36021","38159","38026","112756","6790","26155","15779","113260","NA","112754","113261","112694","38159","114175","34435","112194","6777","92078","Lexical Decision Task","38","31135","45","yes","1024"
"2.755364069","7.72","2","hoax","word","84.78260869565217","84.78260869565217","690.2391304347826","690.2391304347826","black","no","legacy","legacy","legacy","0","uniform","1","undefined","undefined","undefined","1","j","0","0","0","0","45","0","0","0","45","NA","41","45","41","0","41","3","45","0","45","Fri Feb 19 15:15:52 2021","The main experiment item","yes","Lexical_Decision_Task.osexp","/Users/arianerouget","no","Andale Mono","no","18","no","white","no","yes","576","legacy","41","41","3","/Users/arianerouget/subject-5225750.csv","legacy","Lentiform Loewenfeld","3.3.7","yes","yes","600bd7cfb6416f0113b04181","602110864497cf011d9c0822","0","j","NA","space","space","space","NA","j","616","NA","133","8977","10375","NA","616","2","legacy","1024","2","48000","-16","task","5225750","even","NA","36021","38159","38026","114741","6790","26155","15779","115245","NA","114738","115245","114678","38159","115862","34435","114178","6777","92078","Lexical Decision Task","39","31751","46","yes","1024"
"2.698387659","6.66","7","skid","word","85.1063829787234","85.1063829787234","689.8723404255319","689.8723404255319","black","no","legacy","legacy","legacy","0","uniform","1","undefined","undefined","undefined","1","j","0","0","0","0","46","0","0","0","46","NA","42","46","42","0","42","3","46","0","46","Fri Feb 19 15:15:52 2021","The main experiment item","yes","Lexical_Decision_Task.osexp","/Users/arianerouget","no","Andale Mono","no","18","no","white","no","yes","576","legacy","42","42","3","/Users/arianerouget/subject-5225750.csv","legacy","Lentiform Loewenfeld","3.3.7","yes","yes","600bd7cfb6416f0113b04181","602110864497cf011d9c0822","0","j","NA","space","space","space","NA","j","673","NA","133","8977","10375","NA","673","2","legacy","1024","2","48000","-16","task","5225750","even","NA","36021","38159","38026","116428","6790","26155","15779","116932","NA","116425","116932","116365","38159","117606","34435","115865","6777","92078","Lexical Decision Task","40","32424","47","yes","1024"
"2.996511672","0","7","hoil","non-word","83.33333333333333","83.33333333333333","685.9583333333334","685.9583333333334","black","no","legacy","legacy","legacy","0","uniform","0","undefined","undefined","undefined","0","f","0","0","0","0","47","0","0","0","47","NA","43","47","43","0","43","3","47","0","47","Fri Feb 19 15:15:52 2021","The main experiment item","yes","Lexical_Decision_Task.osexp","/Users/arianerouget","no","Andale Mono","no","18","no","white","no","yes","576","legacy","43","43","3","/Users/arianerouget/subject-5225750.csv","legacy","Lentiform Loewenfeld","3.3.7","yes","yes","600bd7cfb6416f0113b04181","602110864497cf011d9c0822","0","j","NA","space","space","space","NA","j","502","NA","133","8977","10375","NA","502","2","legacy","1024","2","48000","-16","task","5225750","even","NA","36021","38159","38026","118173","6790","26155","15779","118676","NA","118170","118677","118109","38159","119179","34435","117609","6777","92078","Lexical Decision Task","40","32926","48","yes","1024"
"2.920123326","7.43","4","duel","word","83.6734693877551","83.6734693877551","684.9795918367347","684.9795918367347","black","no","legacy","legacy","legacy","0","uniform","1","undefined","undefined","undefined","1","j","0","0","0","0","48","0","0","0","48","NA","44","48","44","0","44","3","48","0","48","Fri Feb 19 15:15:52 2021","The main experiment item","yes","Lexical_Decision_Task.osexp","/Users/arianerouget","no","Andale Mono","no","18","no","white","no","yes","576","legacy","44","44","3","/Users/arianerouget/subject-5225750.csv","legacy","Lentiform Loewenfeld","3.3.7","yes","yes","600bd7cfb6416f0113b04181","602110864497cf011d9c0822","0","j","NA","space","space","space","NA","j","638","NA","133","8977","10375","NA","638","2","legacy","1024","2","48000","-16","task","5225750","even","NA","36021","38159","38026","120750","6790","26155","15779","121253","NA","120746","121254","120683","38159","121893","34435","117609","6777","119183","Lexical Decision Task","41","33564","49","yes","1024"
"2.6599162","0","2","saff","non-word","84","84","687.92","687.92","black","no","legacy","legacy","legacy","0","uniform","1","undefined","undefined","undefined","1","f","0","0","0","0","49","0","0","0","49","NA","45","49","45","0","45","3","49","0","49","Fri Feb 19 15:15:52 2021","The main experiment item","yes","Lexical_Decision_Task.osexp","/Users/arianerouget","no","Andale Mono","no","18","no","white","no","yes","576","legacy","45","45","3","/Users/arianerouget/subject-5225750.csv","legacy","Lentiform Loewenfeld","3.3.7","yes","yes","600bd7cfb6416f0113b04181","602110864497cf011d9c0822","0","f","NA","space","space","space","NA","f","832","NA","133","8977","10375","NA","832","2","legacy","1024","2","48000","-16","task","5225750","even","NA","36021","38159","38026","122460","6790","26155","15779","122963","NA","122457","122964","122396","38159","123797","34435","121896","6777","119183","Lexical Decision Task","42","34396","50","yes","1024"
"3.149629599","0","2","cleb","non-word","82.3529411764706","82.3529411764706","693.3137254901961","693.3137254901961","black","no","legacy","legacy","legacy","0","uniform","0","undefined","undefined","undefined","0","f","0","0","0","0","50","0","0","0","50","NA","46","50","46","0","46","3","50","0","50","Fri Feb 19 15:15:52 2021","The main experiment item","yes","Lexical_Decision_Task.osexp","/Users/arianerouget","no","Andale Mono","no","18","no","white","no","yes","576","legacy","46","46","3","/Users/arianerouget/subject-5225750.csv","legacy","Lentiform Loewenfeld","3.3.7","yes","yes","600bd7cfb6416f0113b04181","602110864497cf011d9c0822","0","j","NA","space","space","space","NA","j","963","NA","133","8977","10375","NA","963","2","legacy","1024","2","48000","-16","task","5225750","even","NA","36021","38159","38026","124364","6790","26155","15779","124867","NA","124361","124868","124301","38159","125831","34435","123801","6777","119183","Lexical Decision Task","42","35359","51","yes","1024"
"3.372543801","9.24","8","coat","word","82.6923076923077","82.6923076923077","695.7115384615385","695.7115384615385","black","no","legacy","legacy","legacy","0","uniform","1","undefined","undefined","undefined","1","j","0","0","0","0","51","0","0","0","51","NA","47","51","47","0","47","3","51","0","51","Fri Feb 19 15:15:52 2021","The main experiment item","yes","Lexical_Decision_Task.osexp","/Users/arianerouget","no","Andale Mono","no","18","no","white","no","yes","576","legacy","47","47","3","/Users/arianerouget/subject-5225750.csv","legacy","Lentiform Loewenfeld","3.3.7","yes","yes","600bd7cfb6416f0113b04181","602110864497cf011d9c0822","0","j","NA","space","space","space","NA","j","818","NA","133","8977","10375","NA","818","2","legacy","1024","2","48000","-16","task","5225750","even","NA","36021","38159","38026","127402","6790","26155","15779","127905","NA","127399","127906","127334","38159","128725","34435","123801","6777","125834","Lexical Decision Task","43","36177","52","yes","1024"
"3.131833513","7.66","4","limb","word","83.01886792452831","83.01886792452831","693.0943396226415","693.0943396226415","black","no","legacy","legacy","legacy","0","uniform","1","undefined","undefined","undefined","1","j","0","0","0","0","52","0","0","0","52","NA","48","52","48","0","48","3","52","0","52","Fri Feb 19 15:15:52 2021","The main experiment item","yes","Lexical_Decision_Task.osexp","/Users/arianerouget","no","Andale Mono","no","18","no","white","no","yes","576","legacy","48","48","3","/Users/arianerouget/subject-5225750.csv","legacy","Lentiform Loewenfeld","3.3.7","yes","yes","600bd7cfb6416f0113b04181","602110864497cf011d9c0822","0","j","NA","space","space","space","NA","j","557","NA","133","8977","10375","NA","557","2","legacy","1024","2","48000","-16","task","5225750","even","NA","36021","38159","38026","129291","6790","26155","15779","129794","NA","129288","129795","129228","38159","130353","34435","128728","6777","125834","Lexical Decision Task","44","36734","53","yes","1024"
"3.14849993","10.75","7","hour","word","83.33333333333333","83.33333333333333","697.3518518518518","697.3518518518518","black","no","legacy","legacy","legacy","0","uniform","1","undefined","undefined","undefined","1","j","0","0","0","0","53","0","0","0","53","NA","49","53","49","0","49","3","53","0","53","Fri Feb 19 15:15:52 2021","The main experiment item","yes","Lexical_Decision_Task.osexp","/Users/arianerouget","no","Andale Mono","no","18","no","white","no","yes","576","legacy","49","49","3","/Users/arianerouget/subject-5225750.csv","legacy","Lentiform Loewenfeld","3.3.7","yes","yes","600bd7cfb6416f0113b04181","602110864497cf011d9c0822","0","j","NA","space","space","space","NA","j","923","NA","133","8977","10375","NA","923","2","legacy","1024","2","48000","-16","task","5225750","even","NA","36021","38159","38026","130919","6790","26155","15779","131422","NA","130917","131423","130856","38159","132347","34435","130356","6777","125834","Lexical Decision Task","45","37657","54","yes","1024"
"2.814027728","8.2","4","foam","word","83.63636363636364","83.63636363636364","694.1272727272727","694.1272727272727","black","no","legacy","legacy","legacy","0","uniform","1","undefined","undefined","undefined","1","j","0","0","0","0","54","0","0","0","54","0","50","54","50","0","50","3","54","0","54","Fri Feb 19 15:15:52 2021","The main experiment item","yes","Lexical_Decision_Task.osexp","/Users/arianerouget","no","Andale Mono","no","18","no","white","no","yes","576","legacy","50","50","3","/Users/arianerouget/subject-5225750.csv","legacy","Lentiform Loewenfeld","3.3.7","yes","yes","600bd7cfb6416f0113b04181","602110864497cf011d9c0822","0","j","NA","space","space","space","space","j","520","NA","133","8977","10375","4517","520","2","legacy","1024","2","48000","-16","task","5225750","even","NA","36021","38159","38026","137445","6790","26155","15779","137949","132887","137442","137949","132851","38159","138470","34435","132350","6777","125834","Lexical Decision Task","46","38177","55","yes","1024"
"3.159867847","5.98","5","brim","word","83.92857142857143","83.92857142857143","694.3392857142857","694.3392857142857","black","no","legacy","legacy","legacy","0","uniform","1","undefined","undefined","undefined","1","j","0","0","0","0","55","0","0","0","55","0","51","55","51","0","51","3","55","0","55","Fri Feb 19 15:15:52 2021","The main experiment item","yes","Lexical_Decision_Task.osexp","/Users/arianerouget","no","Andale Mono","no","18","no","white","no","yes","576","legacy","51","51","3","/Users/arianerouget/subject-5225750.csv","legacy","Lentiform Loewenfeld","3.3.7","yes","yes","600bd7cfb6416f0113b04181","602110864497cf011d9c0822","0","j","NA","space","space","space","space","j","706","NA","133","8977","10375","4517","706","2","legacy","1024","2","48000","-16","task","5225750","even","NA","36021","38159","38026","139037","6790","26155","15779","139541","132887","139035","139542","138973","38159","140249","34435","138473","6777","125834","Lexical Decision Task","47","38883","56","yes","1024"
"2.778633532","0","3","jurp","non-word","82.45614035087719","82.45614035087719","691.4912280701755","691.4912280701755","black","no","legacy","legacy","legacy","0","uniform","0","undefined","undefined","undefined","0","f","0","0","0","0","56","0","0","0","56","0","52","56","52","0","52","3","56","0","56","Fri Feb 19 15:15:52 2021","The main experiment item","yes","Lexical_Decision_Task.osexp","/Users/arianerouget","no","Andale Mono","no","18","no","white","no","yes","576","legacy","52","52","3","/Users/arianerouget/subject-5225750.csv","legacy","Lentiform Loewenfeld","3.3.7","yes","yes","600bd7cfb6416f0113b04181","602110864497cf011d9c0822","0","j","NA","space","space","space","space","j","532","NA","133","8977","10375","4517","532","2","legacy","1024","2","48000","-16","task","5225750","even","NA","36021","38159","38026","140817","6790","26155","15779","141322","132887","140814","141323","140752","38159","141856","34435","140252","6777","125834","Lexical Decision Task","47","39415","57","yes","1024"
"2.897810299","0","5","glur","non-word","82.75862068965517","82.75862068965517","694.7413793103449","694.7413793103449","black","no","legacy","legacy","legacy","0","uniform","1","undefined","undefined","undefined","1","f","0","0","0","0","57","0","0","0","57","0","53","57","53","0","53","3","57","0","57","Fri Feb 19 15:15:52 2021","The main experiment item","yes","Lexical_Decision_Task.osexp","/Users/arianerouget","no","Andale Mono","no","18","no","white","no","yes","576","legacy","53","53","3","/Users/arianerouget/subject-5225750.csv","legacy","Lentiform Loewenfeld","3.3.7","yes","yes","600bd7cfb6416f0113b04181","602110864497cf011d9c0822","0","f","NA","space","space","space","space","f","880","NA","133","8977","10375","4517","880","2","legacy","1024","2","48000","-16","task","5225750","even","NA","36021","38159","38026","143432","6790","26155","15779","143938","132887","143425","143939","143359","38159","144820","34435","140252","6777","141859","Lexical Decision Task","48","40295","58","yes","1024"
"2.899092422","7.27","6","snag","word","83.05084745762711","83.05084745762711","694.7966101694915","694.7966101694915","black","no","legacy","legacy","legacy","0","uniform","1","undefined","undefined","undefined","1","j","0","0","0","0","58","0","0","0","58","0","54","58","54","0","54","3","58","0","58","Fri Feb 19 15:15:52 2021","The main experiment item","yes","Lexical_Decision_Task.osexp","/Users/arianerouget","no","Andale Mono","no","18","no","white","no","yes","576","legacy","54","54","3","/Users/arianerouget/subject-5225750.csv","legacy","Lentiform Loewenfeld","3.3.7","yes","yes","600bd7cfb6416f0113b04181","602110864497cf011d9c0822","0","j","NA","space","space","space","space","j","698","NA","133","8977","10375","4517","698","2","legacy","1024","2","48000","-16","task","5225750","even","NA","36021","38159","38026","145388","6790","26155","15779","145891","132887","145385","145892","145323","38159","146591","34435","144823","6777","141859","Lexical Decision Task","49","40993","59","yes","1024"
"3.133964479","0","8","graw","non-word","81.66666666666667","81.66666666666667","693.5","693.5","black","no","legacy","legacy","legacy","0","uniform","0","undefined","undefined","undefined","0","f","0","0","0","0","59","0","0","0","59","0","55","59","55","0","55","3","59","0","59","Fri Feb 19 15:15:52 2021","The main experiment item","yes","Lexical_Decision_Task.osexp","/Users/arianerouget","no","Andale Mono","no","18","no","white","no","yes","576","legacy","55","55","3","/Users/arianerouget/subject-5225750.csv","legacy","Lentiform Loewenfeld","3.3.7","yes","yes","600bd7cfb6416f0113b04181","602110864497cf011d9c0822","0","j","NA","space","space","space","space","j","617","NA","133","8977","10375","4517","617","2","legacy","1024","2","48000","-16","task","5225750","even","NA","36021","38159","38026","147159","6790","26155","15779","147662","132887","147154","147663","147094","38159","148280","34435","146594","6777","141859","Lexical Decision Task","49","41610","60","yes","1024"
"2.782472624","10.55","2","huge","word","81.9672131147541","81.9672131147541","691.672131147541","691.672131147541","black","no","legacy","legacy","legacy","0","uniform","1","undefined","undefined","undefined","1","j","0","0","0","0","60","0","0","0","60","0","56","60","56","0","56","3","60","0","60","Fri Feb 19 15:15:52 2021","The main experiment item","yes","Lexical_Decision_Task.osexp","/Users/arianerouget","no","Andale Mono","no","18","no","white","no","yes","576","legacy","56","56","3","/Users/arianerouget/subject-5225750.csv","legacy","Lentiform Loewenfeld","3.3.7","yes","yes","600bd7cfb6416f0113b04181","602110864497cf011d9c0822","0","j","NA","space","space","space","space","j","582","NA","133","8977","10375","4517","582","2","legacy","1024","2","48000","-16","task","5225750","even","NA","36021","38159","38026","149851","6790","26155","15779","150354","132887","149847","150355","149784","38159","150937","34435","146594","6777","148284","Lexical Decision Task","50","42192","61","yes","1024"
"3.216517684","10.87","3","film","word","82.25806451612904","82.25806451612904","690.3387096774194","690.3387096774194","black","no","legacy","legacy","legacy","0","uniform","1","undefined","undefined","undefined","1","j","0","0","0","0","61","0","0","0","61","0","57","61","57","0","57","3","61","0","61","Fri Feb 19 15:15:52 2021","The main experiment item","yes","Lexical_Decision_Task.osexp","/Users/arianerouget","no","Andale Mono","no","18","no","white","no","yes","576","legacy","57","57","3","/Users/arianerouget/subject-5225750.csv","legacy","Lentiform Loewenfeld","3.3.7","yes","yes","600bd7cfb6416f0113b04181","602110864497cf011d9c0822","0","j","NA","space","space","space","space","j","609","NA","133","8977","10375","4517","609","2","legacy","1024","2","48000","-16","task","5225750","even","NA","36021","38159","38026","151506","6790","26155","15779","152012","132887","151502","152012","151441","38159","152621","34435","150941","6777","148284","Lexical Decision Task","51","42801","62","yes","1024"
"3.481012421","8.34","5","teen","word","82.53968253968254","82.53968253968254","685.8095238095239","685.8095238095239","black","no","legacy","legacy","legacy","0","uniform","1","undefined","undefined","undefined","1","j","0","0","0","0","62","0","0","0","62","0","58","62","58","0","58","3","62","0","62","Fri Feb 19 15:15:52 2021","The main experiment item","yes","Lexical_Decision_Task.osexp","/Users/arianerouget","no","Andale Mono","no","18","no","white","no","yes","576","legacy","58","58","3","/Users/arianerouget/subject-5225750.csv","legacy","Lentiform Loewenfeld","3.3.7","yes","yes","600bd7cfb6416f0113b04181","602110864497cf011d9c0822","0","j","NA","space","space","space","space","j","405","NA","133","8977","10375","4517","405","2","legacy","1024","2","48000","-16","task","5225750","even","NA","36021","38159","38026","153191","6790","26155","15779","153694","132887","153188","153695","153125","38159","154101","34435","152625","6777","148284","Lexical Decision Task","52","43206","63","yes","1024"
"2.971428938","9.86","7","spot","word","82.8125","82.8125","682.546875","682.546875","black","no","legacy","legacy","legacy","0","uniform","1","undefined","undefined","undefined","1","j","0","0","0","0","63","0","0","0","63","0","59","63","59","0","59","3","63","0","63","Fri Feb 19 15:15:52 2021","The main experiment item","yes","Lexical_Decision_Task.osexp","/Users/arianerouget","no","Andale Mono","no","18","no","white","no","yes","576","legacy","59","59","3","/Users/arianerouget/subject-5225750.csv","legacy","Lentiform Loewenfeld","3.3.7","yes","yes","600bd7cfb6416f0113b04181","602110864497cf011d9c0822","0","j","NA","space","space","space","space","j","477","NA","133","8977","10375","4517","477","2","legacy","1024","2","48000","-16","task","5225750","even","NA","36021","38159","38026","154669","6790","26155","15779","155172","132887","154664","155173","154604","38159","155651","34435","154104","6777","148284","Lexical Decision Task","53","43683","64","yes","1024"
"3.156347201","0","8","lasp","non-word","81.53846153846153","81.53846153846153","680.2307692307693","680.2307692307693","black","no","legacy","legacy","legacy","0","uniform","0","undefined","undefined","undefined","0","f","0","0","0","0","64","0","0","0","64","0","60","64","60","0","60","3","64","0","64","Fri Feb 19 15:15:52 2021","The main experiment item","yes","Lexical_Decision_Task.osexp","/Users/arianerouget","no","Andale Mono","no","18","no","white","no","yes","576","legacy","60","60","3","/Users/arianerouget/subject-5225750.csv","legacy","Lentiform Loewenfeld","3.3.7","yes","yes","600bd7cfb6416f0113b04181","602110864497cf011d9c0822","0","j","NA","space","space","space","space","j","532","NA","133","8977","10375","4517","532","2","legacy","1024","2","48000","-16","task","5225750","even","NA","36021","38159","38026","156219","6790","26155","15779","156722","132887","156215","156723","156155","38159","157256","34435","155655","6777","148284","Lexical Decision Task","53","44215","65","yes","1024"
"2.709837904","6.85","8","skim","word","80.3030303030303","80.3030303030303","680.6818181818181","680.6818181818181","black","no","legacy","legacy","legacy","0","uniform","0","undefined","undefined","undefined","0","j","0","0","0","0","65","0","0","0","65","0","61","65","61","0","61","3","65","0","65","Fri Feb 19 15:15:52 2021","The main experiment item","yes","Lexical_Decision_Task.osexp","/Users/arianerouget","no","Andale Mono","no","18","no","white","no","yes","576","legacy","61","61","3","/Users/arianerouget/subject-5225750.csv","legacy","Lentiform Loewenfeld","3.3.7","yes","yes","600bd7cfb6416f0113b04181","602110864497cf011d9c0822","0","f","NA","space","space","space","space","f","710","NA","133","8977","10375","4517","710","2","legacy","1024","2","48000","-16","task","5225750","even","NA","36021","38159","38026","158827","6790","26155","15779","159330","132887","158823","159331","158760","38159","160042","34435","155655","6777","157259","Lexical Decision Task","53","44925","66","yes","1024"
"3.168400243","9.12","6","horn","word","80.59701492537313","80.59701492537313","678.1194029850747","678.1194029850747","black","no","legacy","legacy","legacy","0","uniform","1","undefined","undefined","undefined","1","j","0","0","0","0","66","0","0","0","66","0","62","66","62","0","62","3","66","0","66","Fri Feb 19 15:15:52 2021","The main experiment item","yes","Lexical_Decision_Task.osexp","/Users/arianerouget","no","Andale Mono","no","18","no","white","no","yes","576","legacy","62","62","3","/Users/arianerouget/subject-5225750.csv","legacy","Lentiform Loewenfeld","3.3.7","yes","yes","600bd7cfb6416f0113b04181","602110864497cf011d9c0822","0","j","NA","space","space","space","space","j","509","NA","133","8977","10375","4517","509","2","legacy","1024","2","48000","-16","task","5225750","even","NA","36021","38159","38026","161612","6790","26155","15779","162116","132887","161608","162117","161545","38159","162627","34435","155655","6777","160045","Lexical Decision Task","54","45434","67","yes","1024"
"2.819763221","0","2","durp","non-word","80.88235294117646","80.88235294117646","677.3382352941177","677.3382352941177","black","no","legacy","legacy","legacy","0","uniform","1","undefined","undefined","undefined","1","f","0","0","0","0","67","0","0","0","67","0","63","67","63","0","63","3","67","0","67","Fri Feb 19 15:15:52 2021","The main experiment item","yes","Lexical_Decision_Task.osexp","/Users/arianerouget","no","Andale Mono","no","18","no","white","no","yes","576","legacy","63","63","3","/Users/arianerouget/subject-5225750.csv","legacy","Lentiform Loewenfeld","3.3.7","yes","yes","600bd7cfb6416f0113b04181","602110864497cf011d9c0822","0","f","NA","space","space","space","space","f","625","NA","133","8977","10375","4517","625","2","legacy","1024","2","48000","-16","task","5225750","even","NA","36021","38159","38026","163197","6790","26155","15779","163701","132887","163192","163701","163131","38159","164327","34435","162631","6777","160045","Lexical Decision Task","55","46059","68","yes","1024"
"3.120135028","0","3","vals","non-word","81.15942028985508","81.15942028985508","676.231884057971","676.231884057971","black","no","legacy","legacy","legacy","0","uniform","1","undefined","undefined","undefined","1","f","0","0","0","0","68","0","0","0","68","0","64","68","64","0","64","3","68","0","68","Fri Feb 19 15:15:52 2021","The main experiment item","yes","Lexical_Decision_Task.osexp","/Users/arianerouget","no","Andale Mono","no","18","no","white","no","yes","576","legacy","64","64","3","/Users/arianerouget/subject-5225750.csv","legacy","Lentiform Loewenfeld","3.3.7","yes","yes","600bd7cfb6416f0113b04181","602110864497cf011d9c0822","0","f","NA","space","space","space","space","f","601","NA","133","8977","10375","4517","601","2","legacy","1024","2","48000","-16","task","5225750","even","NA","36021","38159","38026","164894","6790","26155","15779","165399","132887","164891","165400","164830","38159","166002","34435","164330","6777","160045","Lexical Decision Task","56","46660","69","yes","1024"
"2.839898939","8.99","6","soap","word","81.42857142857143","81.42857142857143","673.6428571428571","673.6428571428571","black","no","legacy","legacy","legacy","0","uniform","1","undefined","undefined","undefined","1","j","0","0","0","0","69","0","0","0","69","0","65","69","65","0","65","3","69","0","69","Fri Feb 19 15:15:52 2021","The main experiment item","yes","Lexical_Decision_Task.osexp","/Users/arianerouget","no","Andale Mono","no","18","no","white","no","yes","576","legacy","65","65","3","/Users/arianerouget/subject-5225750.csv","legacy","Lentiform Loewenfeld","3.3.7","yes","yes","600bd7cfb6416f0113b04181","602110864497cf011d9c0822","0","j","NA","space","space","space","space","j","495","NA","133","8977","10375","4517","495","2","legacy","1024","2","48000","-16","task","5225750","even","NA","36021","38159","38026","166569","6790","26155","15779","167075","132887","166566","167075","166505","38159","167571","34435","166005","6777","160045","Lexical Decision Task","57","47155","70","yes","1024"
"2.80048796","0","8","pife","non-word","81.69014084507042","81.69014084507042","672.4225352112676","672.4225352112676","black","no","legacy","legacy","legacy","0","uniform","1","undefined","undefined","undefined","1","f","0","0","0","0","70","0","0","0","70","0","66","70","66","0","66","3","70","0","70","Fri Feb 19 15:15:52 2021","The main experiment item","yes","Lexical_Decision_Task.osexp","/Users/arianerouget","no","Andale Mono","no","18","no","white","no","yes","576","legacy","66","66","3","/Users/arianerouget/subject-5225750.csv","legacy","Lentiform Loewenfeld","3.3.7","yes","yes","600bd7cfb6416f0113b04181","602110864497cf011d9c0822","0","f","NA","space","space","space","space","f","587","NA","133","8977","10375","4517","587","2","legacy","1024","2","48000","-16","task","5225750","even","NA","36021","38159","38026","168140","6790","26155","15779","168644","132887","168135","168644","168074","38159","169232","34435","167574","6777","160045","Lexical Decision Task","58","47742","71","yes","1024"
"3.094121596","0","8","fode","non-word","81.94444444444444","81.94444444444444","677.5972222222222","677.5972222222222","black","no","legacy","legacy","legacy","0","uniform","1","undefined","undefined","undefined","1","f","0","0","0","0","71","0","0","0","71","0","67","71","67","0","67","3","71","0","71","Fri Feb 19 15:15:52 2021","The main experiment item","yes","Lexical_Decision_Task.osexp","/Users/arianerouget","no","Andale Mono","no","18","no","white","no","yes","576","legacy","67","67","3","/Users/arianerouget/subject-5225750.csv","legacy","Lentiform Loewenfeld","3.3.7","yes","yes","600bd7cfb6416f0113b04181","602110864497cf011d9c0822","0","f","NA","space","space","space","space","f","1045","NA","133","8977","10375","4517","1045","2","legacy","1024","2","48000","-16","task","5225750","even","NA","36021","38159","38026","169798","6790","26155","15779","170302","132887","169796","170302","169735","38159","171348","34435","169235","6777","160045","Lexical Decision Task","59","48787","72","yes","1024"
"3.153001286","8.7","5","palm","word","82.1917808219178","82.1917808219178","674.8493150684932","674.8493150684932","black","no","legacy","legacy","legacy","0","uniform","1","undefined","undefined","undefined","1","j","0","0","0","0","72","0","0","0","72","0","68","72","68","0","68","3","72","0","72","Fri Feb 19 15:15:52 2021","The main experiment item","yes","Lexical_Decision_Task.osexp","/Users/arianerouget","no","Andale Mono","no","18","no","white","no","yes","576","legacy","68","68","3","/Users/arianerouget/subject-5225750.csv","legacy","Lentiform Loewenfeld","3.3.7","yes","yes","600bd7cfb6416f0113b04181","602110864497cf011d9c0822","0","j","NA","space","space","space","space","j","477","NA","133","8977","10375","4517","477","2","legacy","1024","2","48000","-16","task","5225750","even","NA","36021","38159","38026","171915","6790","26155","15779","172419","132887","171913","172420","171851","38159","172898","34435","171351","6777","160045","Lexical Decision Task","60","49264","73","yes","1024"
"3.218535505","7.85","7","goat","word","81.08108108108108","81.08108108108108","673.6891891891892","673.6891891891892","black","no","legacy","legacy","legacy","0","uniform","0","undefined","undefined","undefined","0","j","0","0","0","0","73","0","0","0","73","0","69","73","69","0","69","3","73","0","73","Fri Feb 19 15:15:52 2021","The main experiment item","yes","Lexical_Decision_Task.osexp","/Users/arianerouget","no","Andale Mono","no","18","no","white","no","yes","576","legacy","69","69","3","/Users/arianerouget/subject-5225750.csv","legacy","Lentiform Loewenfeld","3.3.7","yes","yes","600bd7cfb6416f0113b04181","602110864497cf011d9c0822","0","f","NA","space","space","space","space","f","589","NA","133","8977","10375","4517","589","2","legacy","1024","2","48000","-16","task","5225750","even","NA","36021","38159","38026","173465","6790","26155","15779","173968","132887","173461","173969","173401","38159","174559","34435","172901","6777","160045","Lexical Decision Task","60","49853","74","yes","1024"
"3.440331212","7.35","6","stew","word","81.33333333333333","81.33333333333333","672.5333333333333","672.5333333333333","black","no","legacy","legacy","legacy","0","uniform","1","undefined","undefined","undefined","1","j","0","0","0","0","74","0","0","0","74","0","70","74","70","0","70","3","74","0","74","Fri Feb 19 15:15:52 2021","The main experiment item","yes","Lexical_Decision_Task.osexp","/Users/arianerouget","no","Andale Mono","no","18","no","white","no","yes","576","legacy","70","70","3","/Users/arianerouget/subject-5225750.csv","legacy","Lentiform Loewenfeld","3.3.7","yes","yes","600bd7cfb6416f0113b04181","602110864497cf011d9c0822","0","j","NA","space","space","space","space","j","587","NA","133","8977","10375","4517","587","2","legacy","1024","2","48000","-16","task","5225750","even","NA","36021","38159","38026","176131","6790","26155","15779","176635","132887","176125","176635","176062","38159","177222","34435","172901","6777","174562","Lexical Decision Task","61","50440","75","yes","1024"
"2.744553742","0","2","nawk","non-word","81.57894736842105","81.57894736842105","670.6184210526316","670.6184210526316","black","no","legacy","legacy","legacy","0","uniform","1","undefined","undefined","undefined","1","f","0","0","0","0","75","0","0","0","75","0","71","75","71","0","71","3","75","0","75","Fri Feb 19 15:15:52 2021","The main experiment item","yes","Lexical_Decision_Task.osexp","/Users/arianerouget","no","Andale Mono","no","18","no","white","no","yes","576","legacy","71","71","3","/Users/arianerouget/subject-5225750.csv","legacy","Lentiform Loewenfeld","3.3.7","yes","yes","600bd7cfb6416f0113b04181","602110864497cf011d9c0822","0","f","NA","space","space","space","space","f","527","NA","133","8977","10375","4517","527","2","legacy","1024","2","48000","-16","task","5225750","even","NA","36021","38159","38026","177790","6790","26155","15779","178295","132887","177787","178295","177726","38159","178822","34435","177226","6777","174562","Lexical Decision Task","62","50967","76","yes","1024"
"3.353210739","0","9","reet","non-word","81.81818181818181","81.81818181818181","671.2857142857143","671.2857142857143","black","no","legacy","legacy","legacy","0","uniform","1","undefined","undefined","undefined","1","f","0","0","0","0","76","0","0","0","76","0","72","76","72","0","72","3","76","0","76","Fri Feb 19 15:15:52 2021","The main experiment item","yes","Lexical_Decision_Task.osexp","/Users/arianerouget","no","Andale Mono","no","18","no","white","no","yes","576","legacy","72","72","3","/Users/arianerouget/subject-5225750.csv","legacy","Lentiform Loewenfeld","3.3.7","yes","yes","600bd7cfb6416f0113b04181","602110864497cf011d9c0822","0","f","NA","space","space","space","space","f","722","NA","133","8977","10375","4517","722","2","legacy","1024","2","48000","-16","task","5225750","even","NA","36021","38159","38026","179388","6790","26155","15779","179892","132887","179385","179892","179325","38159","180614","34435","178825","6777","174562","Lexical Decision Task","63","51689","77","yes","1024"
"3.431095062","5.74","9","perk","word","82.05128205128206","82.05128205128206","672.2435897435897","672.2435897435897","black","no","legacy","legacy","legacy","0","uniform","1","undefined","undefined","undefined","1","j","0","0","0","0","77","0","0","0","77","0","73","77","73","0","73","3","77","0","77","Fri Feb 19 15:15:52 2021","The main experiment item","yes","Lexical_Decision_Task.osexp","/Users/arianerouget","no","Andale Mono","no","18","no","white","no","yes","576","legacy","73","73","3","/Users/arianerouget/subject-5225750.csv","legacy","Lentiform Loewenfeld","3.3.7","yes","yes","600bd7cfb6416f0113b04181","602110864497cf011d9c0822","0","j","NA","space","space","space","space","j","746","NA","133","8977","10375","4517","746","2","legacy","1024","2","48000","-16","task","5225750","even","NA","36021","38159","38026","181181","6790","26155","15779","181684","132887","181178","181685","181118","38159","182432","34435","180618","6777","174562","Lexical Decision Task","64","52435","78","yes","1024"
"3.132473155","0","4","glim","non-word","81.0126582278481","81.0126582278481","669.9367088607595","669.9367088607595","black","no","legacy","legacy","legacy","0","uniform","0","undefined","undefined","undefined","0","f","0","0","0","0","78","0","0","0","78","0","74","78","74","0","74","3","78","0","78","Fri Feb 19 15:15:52 2021","The main experiment item","yes","Lexical_Decision_Task.osexp","/Users/arianerouget","no","Andale Mono","no","18","no","white","no","yes","576","legacy","74","74","3","/Users/arianerouget/subject-5225750.csv","legacy","Lentiform Loewenfeld","3.3.7","yes","yes","600bd7cfb6416f0113b04181","602110864497cf011d9c0822","0","j","NA","space","space","space","space","j","490","NA","133","8977","10375","4517","490","2","legacy","1024","2","48000","-16","task","5225750","even","NA","36021","38159","38026","183000","6790","26155","15779","183504","132887","182997","183504","182936","38159","183995","34435","182436","6777","174562","Lexical Decision Task","64","52925","79","yes","1024"
"2.899638141","0","3","hapt","non-word","81.25","81.25","669.025","669.025","black","no","legacy","legacy","legacy","0","uniform","1","undefined","undefined","undefined","1","f","0","0","0","0","79","0","0","0","79","0","75","79","75","0","75","3","79","0","79","Fri Feb 19 15:15:52 2021","The main experiment item","yes","Lexical_Decision_Task.osexp","/Users/arianerouget","no","Andale Mono","no","18","no","white","no","yes","576","legacy","75","75","3","/Users/arianerouget/subject-5225750.csv","legacy","Lentiform Loewenfeld","3.3.7","yes","yes","600bd7cfb6416f0113b04181","602110864497cf011d9c0822","0","f","NA","space","space","space","space","f","597","NA","133","8977","10375","4517","597","2","legacy","1024","2","48000","-16","task","5225750","even","NA","36021","38159","38026","185567","6790","26155","15779","186071","132887","185563","186071","185498","38159","186669","34435","182436","6777","183998","Lexical Decision Task","65","53522","80","yes","1024"
"2.75025376","10.2","6","jump","word","81.48148148148148","81.48148148148148","666.0617283950618","666.0617283950618","black","no","legacy","legacy","legacy","0","uniform","1","undefined","undefined","undefined","1","j","0","0","0","0","80","0","0","0","80","0","76","80","76","0","76","3","80","0","80","Fri Feb 19 15:15:52 2021","The main experiment item","yes","Lexical_Decision_Task.osexp","/Users/arianerouget","no","Andale Mono","no","18","no","white","no","yes","576","legacy","76","76","3","/Users/arianerouget/subject-5225750.csv","legacy","Lentiform Loewenfeld","3.3.7","yes","yes","600bd7cfb6416f0113b04181","602110864497cf011d9c0822","0","j","NA","space","space","space","space","j","429","NA","133","8977","10375","4517","429","2","legacy","1024","2","48000","-16","task","5225750","even","NA","36021","38159","38026","187232","6790","26155","15779","187735","132887","187229","187736","187172","38159","188166","34435","186672","6777","183998","Lexical Decision Task","66","53951","81","yes","1024"
"2.813801082","5.47","7","nook","word","81.70731707317073","81.70731707317073","665.8414634146342","665.8414634146342","black","no","legacy","legacy","legacy","0","uniform","1","undefined","undefined","undefined","1","j","0","0","0","0","81","0","0","0","81","0","77","81","77","0","77","3","81","0","81","Fri Feb 19 15:15:52 2021","The main experiment item","yes","Lexical_Decision_Task.osexp","/Users/arianerouget","no","Andale Mono","no","18","no","white","no","yes","576","legacy","77","77","3","/Users/arianerouget/subject-5225750.csv","legacy","Lentiform Loewenfeld","3.3.7","yes","yes","600bd7cfb6416f0113b04181","602110864497cf011d9c0822","0","j","NA","space","space","space","space","j","648","NA","133","8977","10375","4517","648","2","legacy","1024","2","48000","-16","task","5225750","even","NA","36021","38159","38026","188735","6790","26155","15779","189240","132887","188731","189240","188670","38159","189889","34435","188170","6777","183998","Lexical Decision Task","67","54599","82","yes","1024"
"3.140404328","10.66","9","deep","word","81.92771084337349","81.92771084337349","662.4096385542168","662.4096385542168","black","no","legacy","legacy","legacy","0","uniform","1","undefined","undefined","undefined","1","j","0","0","0","0","82","0","0","0","82","0","78","82","78","0","78","3","82","0","82","Fri Feb 19 15:15:52 2021","The main experiment item","yes","Lexical_Decision_Task.osexp","/Users/arianerouget","no","Andale Mono","no","18","no","white","no","yes","576","legacy","78","78","3","/Users/arianerouget/subject-5225750.csv","legacy","Lentiform Loewenfeld","3.3.7","yes","yes","600bd7cfb6416f0113b04181","602110864497cf011d9c0822","0","j","NA","space","space","space","space","j","381","NA","133","8977","10375","4517","381","2","legacy","1024","2","48000","-16","task","5225750","even","NA","36021","38159","38026","190457","6790","26155","15779","190962","132887","190454","190962","190393","38159","191344","34435","189893","6777","183998","Lexical Decision Task","68","54980","83","yes","1024"
"2.809559715","8.44","4","volt","word","82.14285714285714","82.14285714285714","659.3095238095239","659.3095238095239","black","no","legacy","legacy","legacy","0","uniform","1","undefined","undefined","undefined","1","j","0","0","0","0","83","0","0","0","83","0","79","83","79","0","79","3","83","0","83","Fri Feb 19 15:15:52 2021","The main experiment item","yes","Lexical_Decision_Task.osexp","/Users/arianerouget","no","Andale Mono","no","18","no","white","no","yes","576","legacy","79","79","3","/Users/arianerouget/subject-5225750.csv","legacy","Lentiform Loewenfeld","3.3.7","yes","yes","600bd7cfb6416f0113b04181","602110864497cf011d9c0822","0","j","NA","space","space","space","space","j","402","NA","133","8977","10375","4517","402","2","legacy","1024","2","48000","-16","task","5225750","even","NA","36021","38159","38026","191911","6790","26155","15779","192414","132887","191907","192414","191847","38159","192817","34435","191347","6777","183998","Lexical Decision Task","69","55382","84","yes","1024"
"3.705778213","0","6","stin","non-word","82.3529411764706","82.3529411764706","658.7176470588236","658.7176470588236","black","no","legacy","legacy","legacy","0","uniform","1","undefined","undefined","undefined","1","f","0","0","0","0","84","0","0","0","84","0","80","84","80","0","80","3","84","0","84","Fri Feb 19 15:15:52 2021","The main experiment item","yes","Lexical_Decision_Task.osexp","/Users/arianerouget","no","Andale Mono","no","18","no","white","no","yes","576","legacy","80","80","3","/Users/arianerouget/subject-5225750.csv","legacy","Lentiform Loewenfeld","3.3.7","yes","yes","600bd7cfb6416f0113b04181","602110864497cf011d9c0822","0","f","NA","space","space","space","space","f","609","NA","133","8977","10375","4517","609","2","legacy","1024","2","48000","-16","task","5225750","even","NA","36021","38159","38026","193384","6790","26155","15779","193888","132887","193381","193888","193320","38159","194498","34435","192820","6777","183998","Lexical Decision Task","70","55991","85","yes","1024"
"3.090140555","5.81","8","pout","word","82.55813953488372","82.55813953488372","659.1860465116279","659.1860465116279","black","no","legacy","legacy","legacy","0","uniform","1","undefined","undefined","undefined","1","j","0","0","0","0","85","0","0","0","85","0","81","85","81","0","81","3","85","0","85","Fri Feb 19 15:15:52 2021","The main experiment item","yes","Lexical_Decision_Task.osexp","/Users/arianerouget","no","Andale Mono","no","18","no","white","no","yes","576","legacy","81","81","3","/Users/arianerouget/subject-5225750.csv","legacy","Lentiform Loewenfeld","3.3.7","yes","yes","600bd7cfb6416f0113b04181","602110864497cf011d9c0822","0","j","NA","space","space","space","space","j","699","NA","133","8977","10375","4517","699","2","legacy","1024","2","48000","-16","task","5225750","even","NA","36021","38159","38026","195064","6790","26155","15779","195567","132887","195061","195568","195001","38159","196268","34435","194501","6777","183998","Lexical Decision Task","71","56690","86","yes","1024"
"3.529815197","0","3","lerm","non-word","82.75862068965517","82.75862068965517","658.3333333333334","658.3333333333334","black","no","legacy","legacy","legacy","0","uniform","1","undefined","undefined","undefined","1","f","0","0","0","0","86","0","0","0","86","0","82","86","82","0","82","3","86","0","86","Fri Feb 19 15:15:52 2021","The main experiment item","yes","Lexical_Decision_Task.osexp","/Users/arianerouget","no","Andale Mono","no","18","no","white","no","yes","576","legacy","82","82","3","/Users/arianerouget/subject-5225750.csv","legacy","Lentiform Loewenfeld","3.3.7","yes","yes","600bd7cfb6416f0113b04181","602110864497cf011d9c0822","0","f","NA","space","space","space","space","f","585","NA","133","8977","10375","4517","585","2","legacy","1024","2","48000","-16","task","5225750","even","NA","36021","38159","38026","196835","6790","26155","15779","197339","132887","196832","197339","196771","38159","197925","34435","196271","6777","183998","Lexical Decision Task","72","57275","87","yes","1024"
"3.474361976","5.24","6","veer","word","82.95454545454545","82.95454545454545","658.2954545454545","658.2954545454545","black","no","legacy","legacy","legacy","0","uniform","1","undefined","undefined","undefined","1","j","0","0","0","0","87","0","0","0","87","0","83","87","83","0","83","3","87","0","87","Fri Feb 19 15:15:52 2021","The main experiment item","yes","Lexical_Decision_Task.osexp","/Users/arianerouget","no","Andale Mono","no","18","no","white","no","yes","576","legacy","83","83","3","/Users/arianerouget/subject-5225750.csv","legacy","Lentiform Loewenfeld","3.3.7","yes","yes","600bd7cfb6416f0113b04181","602110864497cf011d9c0822","0","j","NA","space","space","space","space","j","655","NA","133","8977","10375","4517","655","2","legacy","1024","2","48000","-16","task","5225750","even","NA","36021","38159","38026","198490","6790","26155","15779","198993","132887","198488","198994","198428","38159","199650","34435","197928","6777","183998","Lexical Decision Task","73","57930","88","yes","1024"
"2.693726949","5.08","3","swig","word","83.14606741573034","83.14606741573034","660.7977528089888","660.7977528089888","black","no","legacy","legacy","legacy","0","uniform","1","undefined","undefined","undefined","1","j","0","0","0","0","88","0","0","0","88","0","84","88","84","0","84","3","88","0","88","Fri Feb 19 15:15:52 2021","The main experiment item","yes","Lexical_Decision_Task.osexp","/Users/arianerouget","no","Andale Mono","no","18","no","white","no","yes","576","legacy","84","84","3","/Users/arianerouget/subject-5225750.csv","legacy","Lentiform Loewenfeld","3.3.7","yes","yes","600bd7cfb6416f0113b04181","602110864497cf011d9c0822","0","j","NA","space","space","space","space","j","881","NA","133","8977","10375","4517","881","2","legacy","1024","2","48000","-16","task","5225750","even","NA","36021","38159","38026","200216","6790","26155","15779","200719","132887","200213","200720","200153","38159","201602","34435","199653","6777","183998","Lexical Decision Task","74","58811","89","yes","1024"
"2.842815106","7.86","8","lump","word","83.33333333333333","83.33333333333333","658.8444444444444","658.8444444444444","black","no","legacy","legacy","legacy","0","uniform","1","undefined","undefined","undefined","1","j","0","0","0","0","89","0","0","0","89","0","85","89","85","0","85","3","89","0","89","Fri Feb 19 15:15:52 2021","The main experiment item","yes","Lexical_Decision_Task.osexp","/Users/arianerouget","no","Andale Mono","no","18","no","white","no","yes","576","legacy","85","85","3","/Users/arianerouget/subject-5225750.csv","legacy","Lentiform Loewenfeld","3.3.7","yes","yes","600bd7cfb6416f0113b04181","602110864497cf011d9c0822","0","j","NA","space","space","space","space","j","485","NA","133","8977","10375","4517","485","2","legacy","1024","2","48000","-16","task","5225750","even","NA","36021","38159","38026","202169","6790","26155","15779","202673","132887","202166","202673","202105","38159","203159","34435","201605","6777","183998","Lexical Decision Task","75","59296","90","yes","1024"
"3.347850856","10.51","2","rich","word","83.51648351648352","83.51648351648352","657.8901098901099","657.8901098901099","black","no","legacy","legacy","legacy","0","uniform","1","undefined","undefined","undefined","1","j","0","0","0","0","90","0","0","0","90","0","86","90","86","0","86","3","90","0","90","Fri Feb 19 15:15:52 2021","The main experiment item","yes","Lexical_Decision_Task.osexp","/Users/arianerouget","no","Andale Mono","no","18","no","white","no","yes","576","legacy","86","86","3","/Users/arianerouget/subject-5225750.csv","legacy","Lentiform Loewenfeld","3.3.7","yes","yes","600bd7cfb6416f0113b04181","602110864497cf011d9c0822","0","j","NA","space","space","space","space","j","572","NA","133","8977","10375","4517","572","2","legacy","1024","2","48000","-16","task","5225750","even","NA","36021","38159","38026","203726","6790","26155","15779","204230","132887","203723","204230","203661","38159","204803","34435","203161","6777","183998","Lexical Decision Task","76","59868","91","yes","1024"
"2.616654026","9.37","5","gift","word","83.69565217391305","83.69565217391305","655.2391304347826","655.2391304347826","black","no","legacy","legacy","legacy","0","uniform","1","undefined","undefined","undefined","1","j","0","0","0","0","91","0","0","0","91","0","87","91","87","0","87","3","91","0","91","Fri Feb 19 15:15:52 2021","The main experiment item","yes","Lexical_Decision_Task.osexp","/Users/arianerouget","no","Andale Mono","no","18","no","white","no","yes","576","legacy","87","87","3","/Users/arianerouget/subject-5225750.csv","legacy","Lentiform Loewenfeld","3.3.7","yes","yes","600bd7cfb6416f0113b04181","602110864497cf011d9c0822","0","j","NA","space","space","space","space","j","414","NA","133","8977","10375","4517","414","2","legacy","1024","2","48000","-16","task","5225750","even","NA","36021","38159","38026","205371","6790","26155","15779","205877","132887","205368","205877","205306","38159","206291","34435","204806","6777","183998","Lexical Decision Task","77","60282","92","yes","1024"
"2.821076612","0","4","lult","non-word","83.87096774193549","83.87096774193549","653.3978494623656","653.3978494623656","black","no","legacy","legacy","legacy","0","uniform","1","undefined","undefined","undefined","1","f","0","0","0","0","92","0","0","0","92","0","88","92","88","0","88","3","92","0","92","Fri Feb 19 15:15:52 2021","The main experiment item","yes","Lexical_Decision_Task.osexp","/Users/arianerouget","no","Andale Mono","no","18","no","white","no","yes","576","legacy","88","88","3","/Users/arianerouget/subject-5225750.csv","legacy","Lentiform Loewenfeld","3.3.7","yes","yes","600bd7cfb6416f0113b04181","602110864497cf011d9c0822","0","f","NA","space","space","space","space","f","484","NA","133","8977","10375","4517","484","2","legacy","1024","2","48000","-16","task","5225750","even","NA","36021","38159","38026","206859","6790","26155","15779","207364","132887","206856","207365","206795","38159","207850","34435","206295","6777","183998","Lexical Decision Task","78","60766","93","yes","1024"
"3.077974404","10.41","8","tool","word","84.04255319148936","84.04255319148936","651.3191489361702","651.3191489361702","black","no","legacy","legacy","legacy","0","uniform","1","undefined","undefined","undefined","1","j","0","0","0","0","93","0","0","0","93","0","89","93","89","0","89","3","93","0","93","Fri Feb 19 15:15:52 2021","The main experiment item","yes","Lexical_Decision_Task.osexp","/Users/arianerouget","no","Andale Mono","no","18","no","white","no","yes","576","legacy","89","89","3","/Users/arianerouget/subject-5225750.csv","legacy","Lentiform Loewenfeld","3.3.7","yes","yes","600bd7cfb6416f0113b04181","602110864497cf011d9c0822","0","j","NA","space","space","space","space","j","458","NA","133","8977","10375","4517","458","2","legacy","1024","2","48000","-16","task","5225750","even","NA","36021","38159","38026","208415","6790","26155","15779","208919","132887","208412","208919","208353","38159","209378","34435","207853","6777","183998","Lexical Decision Task","79","61224","94","yes","1024"
"3.531734309","0","6","lerd","non-word","84.21052631578948","84.21052631578948","649.3894736842105","649.3894736842105","black","no","legacy","legacy","legacy","0","uniform","1","undefined","undefined","undefined","1","f","0","0","0","0","94","0","0","0","94","0","90","94","90","0","90","3","94","0","94","Fri Feb 19 15:15:52 2021","The main experiment item","yes","Lexical_Decision_Task.osexp","/Users/arianerouget","no","Andale Mono","no","18","no","white","no","yes","576","legacy","90","90","3","/Users/arianerouget/subject-5225750.csv","legacy","Lentiform Loewenfeld","3.3.7","yes","yes","600bd7cfb6416f0113b04181","602110864497cf011d9c0822","0","f","NA","space","space","space","space","f","468","NA","133","8977","10375","4517","468","2","legacy","1024","2","48000","-16","task","5225750","even","NA","36021","38159","38026","209945","6790","26155","15779","210448","132887","209942","210448","209882","38159","210917","34435","209382","6777","183998","Lexical Decision Task","80","61692","95","yes","1024"
"3.492014979","0","9","yine","non-word","83.33333333333333","83.33333333333333","647.9479166666666","647.9479166666666","black","no","legacy","legacy","legacy","0","uniform","0","undefined","undefined","undefined","0","f","0","0","0","0","95","0","0","0","95","0","91","95","91","0","91","3","95","0","95","Fri Feb 19 15:15:52 2021","The main experiment item","yes","Lexical_Decision_Task.osexp","/Users/arianerouget","no","Andale Mono","no","18","no","white","no","yes","576","legacy","91","91","3","/Users/arianerouget/subject-5225750.csv","legacy","Lentiform Loewenfeld","3.3.7","yes","yes","600bd7cfb6416f0113b04181","602110864497cf011d9c0822","0","j","NA","space","space","space","space","j","511","NA","133","8977","10375","4517","511","2","legacy","1024","2","48000","-16","task","5225750","even","NA","36021","38159","38026","211483","6790","26155","15779","211987","132887","211481","211988","211421","38159","212500","34435","210921","6777","183998","Lexical Decision Task","80","62203","96","yes","1024"
"3.031408464","0","7","drow","non-word","82.47422680412372","82.47422680412372","645.4742268041238","645.4742268041238","black","no","legacy","legacy","legacy","0","uniform","0","undefined","undefined","undefined","0","f","0","0","0","0","96","0","0","0","96","0","92","96","92","0","92","3","96","0","96","Fri Feb 19 15:15:52 2021","The main experiment item","yes","Lexical_Decision_Task.osexp","/Users/arianerouget","no","Andale Mono","no","18","no","white","no","yes","576","legacy","92","92","3","/Users/arianerouget/subject-5225750.csv","legacy","Lentiform Loewenfeld","3.3.7","yes","yes","600bd7cfb6416f0113b04181","602110864497cf011d9c0822","0","j","NA","space","space","space","space","j","408","NA","133","8977","10375","4517","408","2","legacy","1024","2","48000","-16","task","5225750","even","NA","36021","38159","38026","214072","6790","26155","15779","214576","132887","214068","214577","214003","38159","214986","34435","210921","6777","212503","Lexical Decision Task","80","62611","97","yes","1024"
"3.081107167","0","6","chot","non-word","82.65306122448979","82.65306122448979","645.7857142857143","645.7857142857143","black","no","legacy","legacy","legacy","0","uniform","1","undefined","undefined","undefined","1","f","0","0","0","0","97","0","0","0","97","0","93","97","93","0","93","3","97","0","97","Fri Feb 19 15:15:52 2021","The main experiment item","yes","Lexical_Decision_Task.osexp","/Users/arianerouget","no","Andale Mono","no","18","no","white","no","yes","576","legacy","93","93","3","/Users/arianerouget/subject-5225750.csv","legacy","Lentiform Loewenfeld","3.3.7","yes","yes","600bd7cfb6416f0113b04181","602110864497cf011d9c0822","0","f","NA","space","space","space","space","f","676","NA","133","8977","10375","4517","676","2","legacy","1024","2","48000","-16","task","5225750","even","NA","36021","38159","38026","216557","6790","26155","15779","217060","132887","216553","217061","216490","38159","217738","34435","210921","6777","214989","Lexical Decision Task","81","63287","98","yes","1024"
"2.708989954","9.28","9","bowl","word","82.82828282828282","82.82828282828282","644.3737373737374","644.3737373737374","black","no","legacy","legacy","legacy","0","uniform","1","undefined","undefined","undefined","1","j","0","0","0","0","98","0","0","0","98","0","94","98","94","0","94","3","98","0","98","Fri Feb 19 15:15:52 2021","The main experiment item","yes","Lexical_Decision_Task.osexp","/Users/arianerouget","no","Andale Mono","no","18","no","white","no","yes","576","legacy","94","94","3","/Users/arianerouget/subject-5225750.csv","legacy","Lentiform Loewenfeld","3.3.7","yes","yes","600bd7cfb6416f0113b04181","602110864497cf011d9c0822","0","j","NA","space","space","space","space","j","506","NA","133","8977","10375","4517","506","2","legacy","1024","2","48000","-16","task","5225750","even","NA","36021","38159","38026","218305","6790","26155","15779","218808","132887","218302","218809","218242","38159","219316","34435","217741","6777","214989","Lexical Decision Task","82","63793","99","yes","1024"
"3.16326079","0","5","parg","non-word","83","83","642.98","642.98","black","no","legacy","legacy","legacy","0","uniform","1","undefined","undefined","undefined","1","f","0","0","0","0","99","0","0","0","99","0","95","99","95","0","95","3","99","0","99","Fri Feb 19 15:15:52 2021","The main experiment item","yes","Lexical_Decision_Task.osexp","/Users/arianerouget","no","Andale Mono","no","18","no","white","no","yes","576","legacy","95","95","3","/Users/arianerouget/subject-5225750.csv","legacy","Lentiform Loewenfeld","3.3.7","yes","yes","600bd7cfb6416f0113b04181","602110864497cf011d9c0822","0","f","NA","space","space","space","space","f","505","NA","133","8977","10375","4517","505","2","legacy","1024","2","48000","-16","task","5225750","even","NA","36021","38159","38026","219882","6790","26155","15779","220386","132887","219879","220387","219819","38159","220893","34435","219319","6777","214989","Lexical Decision Task","83","64298","100","yes","1024"
"3.145920145","8.51","8","flew","word","83.16831683168317","83.16831683168317","640.8910891089109","640.8910891089109","black","no","legacy","legacy","legacy","0","uniform","1","undefined","undefined","undefined","1","j","0","0","0","0","100","0","0","0","100","0","96","100","96","0","96","3","100","0","100","Fri Feb 19 15:15:52 2021","The main experiment item","yes","Lexical_Decision_Task.osexp","/Users/arianerouget","no","Andale Mono","no","18","no","white","no","yes","576","legacy","96","96","3","/Users/arianerouget/subject-5225750.csv","legacy","Lentiform Loewenfeld","3.3.7","yes","yes","600bd7cfb6416f0113b04181","602110864497cf011d9c0822","0","j","NA","space","space","space","space","j","432","NA","133","8977","10375","4517","432","2","legacy","1024","2","48000","-16","task","5225750","even","NA","36021","38159","38026","221459","6790","26155","15779","221962","132887","221457","221963","221396","38159","222396","34435","220896","6777","214989","Lexical Decision Task","84","64730","101","yes","1024"
