"Log_BG","Log_Freq_HAL","Ortho_N","Stimulus","Type","acc","accuracy","average_response_time","avg_rt","background","bidi","canvas_backend","clock_backend","color_backend","compensation","coordinates","correct","correct_Experimental_intro","correct_Introduction","correct_Practice_intro","correct_experimenter_kb","correct_response","count_End_Of_Experiment","count_End_Of_Practice","count_Experimental_Loop","count_Experimental_intro","count_Fixation","count_Introduction","count_Practice_Loop","count_Practice_intro","count_Stimulus","count_block_break_feedback","count_experimental_sequence","count_experimenter_kb","count_increment_trial_count","count_init_trial_count","count_logger","count_practice_sequence","count_right","count_task","count_wrong","datetime","description","disable_garbage_collection","experiment_file","experiment_path","font_bold","font_family","font_italic","font_size","font_underline","foreground","form_clicks","fullscreen","height","keyboard_backend","live_row","live_row_Experimental_Loop","live_row_Practice_Loop","logfile","mouse_backend","opensesame_codename","opensesame_version","osf_always_upload_data","osf_always_upload_experiment","osf_datanode_id","osf_id","repeat_cycle","response","response_End_Of_Experiment","response_Experimental_intro","response_Introduction","response_Practice_intro","response_block_break_feedback","response_experimenter_kb","response_time","response_time_End_Of_Experiment","response_time_Experimental_intro","response_time_Introduction","response_time_Practice_intro","response_time_block_break_feedback","response_time_experimenter_kb","round_decimals","sampler_backend","sound_buf_size","sound_channels","sound_freq","sound_sample_size","start","subject_nr","subject_parity","time_End_Of_Experiment","time_End_Of_Practice","time_Experimental_Loop","time_Experimental_intro","time_Fixation","time_Introduction","time_Practice_Loop","time_Practice_intro","time_Stimulus","time_block_break_feedback","time_experimental_sequence","time_experimenter_kb","time_increment_trial_count","time_init_trial_count","time_logger","time_practice_sequence","time_right","time_task","time_wrong","title","total_correct","total_response_time","total_responses","uniform_coordinates","width"
"3.102203805","7.21","3","drip","word","100","100","922.4","922.4","black","no","legacy","legacy","legacy","0","uniform","1","undefined","undefined","undefined","1","j","0","0","0","0","4","0","0","0","4","NA","0","4","0","0","0","3","4","0","4","Tue Feb 16 13:22:32 2021","The main experiment item","yes","Lexical_Decision_Task.osexp","/Users/Hannahpowell","no","Andale Mono","no","18","no","white","no","yes","576","legacy","0","0","3","/Users/Hannahpowell/subject-5209341.csv","legacy","Lentiform Loewenfeld","3.3.7","yes","yes","600bd7cfb6416f0113b04181","602110864497cf011d9c0822","0","j","NA","space","space","space","NA","j","1119","NA","4596","16554","9645","NA","1119","2","legacy","1024","2","48000","-16","task","5209341","odd","NA","38339","44937","40341","44968","4337","30559","20909","45471","NA","44965","45471","NA","44937","46591","36527","37811","4327","NA","Lexical Decision Task","5","4612","5","yes","1024"
"2.892836167","10.01","5","soft","word","100","100","886","886","black","no","legacy","legacy","legacy","0","uniform","1","undefined","undefined","undefined","1","j","0","0","0","0","5","0","0","0","5","NA","1","5","1","0","1","3","5","0","5","Tue Feb 16 13:22:32 2021","The main experiment item","yes","Lexical_Decision_Task.osexp","/Users/Hannahpowell","no","Andale Mono","no","18","no","white","no","yes","576","legacy","1","1","3","/Users/Hannahpowell/subject-5209341.csv","legacy","Lentiform Loewenfeld","3.3.7","yes","yes","600bd7cfb6416f0113b04181","602110864497cf011d9c0822","0","j","NA","space","space","space","NA","j","704","NA","4596","16554","9645","NA","704","2","legacy","1024","2","48000","-16","task","5209341","odd","NA","38339","44937","40341","47156","4337","30559","20909","47658","NA","47153","47658","47100","44937","48363","36527","46599","4327","NA","Lexical Decision Task","6","5316","6","yes","1024"
"2.980306438","0","7","slun","non-word","100","100","892","892","black","no","legacy","legacy","legacy","0","uniform","1","undefined","undefined","undefined","1","f","0","0","0","0","6","0","0","0","6","NA","2","6","2","0","2","3","6","0","6","Tue Feb 16 13:22:32 2021","The main experiment item","yes","Lexical_Decision_Task.osexp","/Users/Hannahpowell","no","Andale Mono","no","18","no","white","no","yes","576","legacy","2","2","3","/Users/Hannahpowell/subject-5209341.csv","legacy","Lentiform Loewenfeld","3.3.7","yes","yes","600bd7cfb6416f0113b04181","602110864497cf011d9c0822","0","f","NA","space","space","space","NA","f","928","NA","4596","16554","9645","NA","928","2","legacy","1024","2","48000","-16","task","5209341","odd","NA","38339","44937","40341","48922","4337","30559","20909","49424","NA","48919","49424","48867","44937","50353","36527","48367","4327","NA","Lexical Decision Task","7","6244","7","yes","1024"
"3.368162872","0","4","ferk","non-word","100","100","885.25","885.25","black","no","legacy","legacy","legacy","0","uniform","1","undefined","undefined","undefined","1","f","0","0","0","0","7","0","0","0","7","NA","3","7","3","0","3","3","7","0","7","Tue Feb 16 13:22:32 2021","The main experiment item","yes","Lexical_Decision_Task.osexp","/Users/Hannahpowell","no","Andale Mono","no","18","no","white","no","yes","576","legacy","3","3","3","/Users/Hannahpowell/subject-5209341.csv","legacy","Lentiform Loewenfeld","3.3.7","yes","yes","600bd7cfb6416f0113b04181","602110864497cf011d9c0822","0","f","NA","space","space","space","NA","f","838","NA","4596","16554","9645","NA","838","2","legacy","1024","2","48000","-16","task","5209341","odd","NA","38339","44937","40341","50911","4337","30559","20909","51413","NA","50908","51414","50857","44937","52252","36527","50357","4327","NA","Lexical Decision Task","8","7082","8","yes","1024"
"3.252447662","9.67","9","boat","word","100","100","838","838","black","no","legacy","legacy","legacy","0","uniform","1","undefined","undefined","undefined","1","j","0","0","0","0","8","0","0","0","8","NA","4","8","4","0","4","3","8","0","8","Tue Feb 16 13:22:32 2021","The main experiment item","yes","Lexical_Decision_Task.osexp","/Users/Hannahpowell","no","Andale Mono","no","18","no","white","no","yes","576","legacy","4","4","3","/Users/Hannahpowell/subject-5209341.csv","legacy","Lentiform Loewenfeld","3.3.7","yes","yes","600bd7cfb6416f0113b04181","602110864497cf011d9c0822","0","j","NA","space","space","space","NA","j","460","NA","4596","16554","9645","NA","460","2","legacy","1024","2","48000","-16","task","5209341","odd","NA","38339","44937","40341","52808","4337","30559","20909","53311","NA","52806","53312","52757","44937","53772","36527","52257","4327","NA","Lexical Decision Task","9","7542","9","yes","1024"
"3.082307743","9.68","8","camp","word","100","100","808.9","808.9","black","no","legacy","legacy","legacy","0","uniform","1","undefined","undefined","undefined","1","j","0","0","0","0","9","0","0","0","9","NA","5","9","5","0","5","3","9","0","9","Tue Feb 16 13:22:32 2021","The main experiment item","yes","Lexical_Decision_Task.osexp","/Users/Hannahpowell","no","Andale Mono","no","18","no","white","no","yes","576","legacy","5","5","3","/Users/Hannahpowell/subject-5209341.csv","legacy","Lentiform Loewenfeld","3.3.7","yes","yes","600bd7cfb6416f0113b04181","602110864497cf011d9c0822","0","j","NA","space","space","space","NA","j","547","NA","4596","16554","9645","NA","547","2","legacy","1024","2","48000","-16","task","5209341","odd","NA","38339","44937","40341","54329","4337","30559","20909","54832","NA","54326","54832","54277","44937","55380","36527","53777","4327","NA","Lexical Decision Task","10","8089","10","yes","1024"
"2.875447132","0","9","jelt","non-word","100","100","808.0909090909091","808.0909090909091","black","no","legacy","legacy","legacy","0","uniform","1","undefined","undefined","undefined","1","f","0","0","0","0","10","0","0","0","10","NA","6","10","6","0","6","3","10","0","10","Tue Feb 16 13:22:32 2021","The main experiment item","yes","Lexical_Decision_Task.osexp","/Users/Hannahpowell","no","Andale Mono","no","18","no","white","no","yes","576","legacy","6","6","3","/Users/Hannahpowell/subject-5209341.csv","legacy","Lentiform Loewenfeld","3.3.7","yes","yes","600bd7cfb6416f0113b04181","602110864497cf011d9c0822","0","f","NA","space","space","space","NA","f","800","NA","4596","16554","9645","NA","800","2","legacy","1024","2","48000","-16","task","5209341","odd","NA","38339","44937","40341","55938","4337","30559","20909","56441","NA","55936","56441","55885","44937","57242","36527","55385","4327","NA","Lexical Decision Task","11","8889","11","yes","1024"
"2.8162413","0","5","nusk","non-word","100","100","796.0833333333334","796.0833333333334","black","no","legacy","legacy","legacy","0","uniform","1","undefined","undefined","undefined","1","f","0","0","0","0","11","0","0","0","11","NA","7","11","7","0","7","3","11","0","11","Tue Feb 16 13:22:32 2021","The main experiment item","yes","Lexical_Decision_Task.osexp","/Users/Hannahpowell","no","Andale Mono","no","18","no","white","no","yes","576","legacy","7","7","3","/Users/Hannahpowell/subject-5209341.csv","legacy","Lentiform Loewenfeld","3.3.7","yes","yes","600bd7cfb6416f0113b04181","602110864497cf011d9c0822","0","f","NA","space","space","space","NA","f","664","NA","4596","16554","9645","NA","664","2","legacy","1024","2","48000","-16","task","5209341","odd","NA","38339","44937","40341","57797","4337","30559","20909","58300","NA","57794","58300","57746","44937","58965","36527","57246","4327","NA","Lexical Decision Task","12","9553","12","yes","1024"
"2.695481676","0","7","goke","non-word","100","100","792.3846153846154","792.3846153846154","black","no","legacy","legacy","legacy","0","uniform","1","undefined","undefined","undefined","1","f","0","0","0","0","12","0","0","0","12","NA","8","12","8","0","8","3","12","0","12","Tue Feb 16 13:22:32 2021","The main experiment item","yes","Lexical_Decision_Task.osexp","/Users/Hannahpowell","no","Andale Mono","no","18","no","white","no","yes","576","legacy","8","8","3","/Users/Hannahpowell/subject-5209341.csv","legacy","Lentiform Loewenfeld","3.3.7","yes","yes","600bd7cfb6416f0113b04181","602110864497cf011d9c0822","0","f","NA","space","space","space","NA","f","748","NA","4596","16554","9645","NA","748","2","legacy","1024","2","48000","-16","task","5209341","odd","NA","38339","44937","40341","59521","4337","30559","20909","60024","NA","59519","60024","59471","44937","60773","36527","58970","4327","NA","Lexical Decision Task","13","10301","13","yes","1024"
"2.907588697","8.91","9","mood","word","100","100","778.7857142857143","778.7857142857143","black","no","legacy","legacy","legacy","0","uniform","1","undefined","undefined","undefined","1","j","0","0","0","0","13","0","0","0","13","NA","9","13","9","0","9","3","13","0","13","Tue Feb 16 13:22:32 2021","The main experiment item","yes","Lexical_Decision_Task.osexp","/Users/Hannahpowell","no","Andale Mono","no","18","no","white","no","yes","576","legacy","9","9","3","/Users/Hannahpowell/subject-5209341.csv","legacy","Lentiform Loewenfeld","3.3.7","yes","yes","600bd7cfb6416f0113b04181","602110864497cf011d9c0822","0","j","NA","space","space","space","NA","j","602","NA","4596","16554","9645","NA","602","2","legacy","1024","2","48000","-16","task","5209341","odd","NA","38339","44937","40341","61331","4337","30559","20909","61834","NA","61328","61835","61277","44937","62437","36527","60777","4327","NA","Lexical Decision Task","14","10903","14","yes","1024"
"2.813801082","5.47","7","nook","word","93.33333333333333","93.33333333333333","773.4666666666667","773.4666666666667","black","no","legacy","legacy","legacy","0","uniform","0","undefined","undefined","undefined","0","j","0","0","0","0","14","0","0","0","14","NA","10","14","10","0","10","3","14","0","14","Tue Feb 16 13:22:32 2021","The main experiment item","yes","Lexical_Decision_Task.osexp","/Users/Hannahpowell","no","Andale Mono","no","18","no","white","no","yes","576","legacy","10","10","3","/Users/Hannahpowell/subject-5209341.csv","legacy","Lentiform Loewenfeld","3.3.7","yes","yes","600bd7cfb6416f0113b04181","602110864497cf011d9c0822","0","f","NA","space","space","space","NA","f","699","NA","4596","16554","9645","NA","699","2","legacy","1024","2","48000","-16","task","5209341","odd","NA","38339","44937","40341","63023","4337","30559","20909","63527","NA","63020","63527","62941","44937","64227","36527","62441","4327","NA","Lexical Decision Task","14","11602","15","yes","1024"
"2.971428938","9.86","7","spot","word","93.75","93.75","773.8125","773.8125","black","no","legacy","legacy","legacy","0","uniform","1","undefined","undefined","undefined","1","j","0","0","0","0","15","0","0","0","15","NA","11","15","11","0","11","3","15","0","15","Tue Feb 16 13:22:32 2021","The main experiment item","yes","Lexical_Decision_Task.osexp","/Users/Hannahpowell","no","Andale Mono","no","18","no","white","no","yes","576","legacy","11","11","3","/Users/Hannahpowell/subject-5209341.csv","legacy","Lentiform Loewenfeld","3.3.7","yes","yes","600bd7cfb6416f0113b04181","602110864497cf011d9c0822","0","j","NA","space","space","space","NA","j","779","NA","4596","16554","9645","NA","779","2","legacy","1024","2","48000","-16","task","5209341","odd","NA","38339","44937","40341","65785","4337","30559","20909","66288","NA","65783","66288","65735","44937","67068","36527","62441","4327","64234","Lexical Decision Task","15","12381","16","yes","1024"
"3.168890155","0","6","thet","non-word","94.11764705882354","94.11764705882354","773.6470588235294","773.6470588235294","black","no","legacy","legacy","legacy","0","uniform","1","undefined","undefined","undefined","1","f","0","0","0","0","16","0","0","0","16","NA","12","16","12","0","12","3","16","0","16","Tue Feb 16 13:22:32 2021","The main experiment item","yes","Lexical_Decision_Task.osexp","/Users/Hannahpowell","no","Andale Mono","no","18","no","white","no","yes","576","legacy","12","12","3","/Users/Hannahpowell/subject-5209341.csv","legacy","Lentiform Loewenfeld","3.3.7","yes","yes","600bd7cfb6416f0113b04181","602110864497cf011d9c0822","0","f","NA","space","space","space","NA","f","771","NA","4596","16554","9645","NA","771","2","legacy","1024","2","48000","-16","task","5209341","odd","NA","38339","44937","40341","67625","4337","30559","20909","68128","NA","67623","68128","67572","44937","68900","36527","67072","4327","64234","Lexical Decision Task","16","13152","17","yes","1024"
"2.843025032","0","9","pusk","non-word","94.44444444444444","94.44444444444444","768.7222222222222","768.7222222222222","black","no","legacy","legacy","legacy","0","uniform","1","undefined","undefined","undefined","1","f","0","0","0","0","17","0","0","0","17","NA","13","17","13","0","13","3","17","0","17","Tue Feb 16 13:22:32 2021","The main experiment item","yes","Lexical_Decision_Task.osexp","/Users/Hannahpowell","no","Andale Mono","no","18","no","white","no","yes","576","legacy","13","13","3","/Users/Hannahpowell/subject-5209341.csv","legacy","Lentiform Loewenfeld","3.3.7","yes","yes","600bd7cfb6416f0113b04181","602110864497cf011d9c0822","0","f","NA","space","space","space","NA","f","685","NA","4596","16554","9645","NA","685","2","legacy","1024","2","48000","-16","task","5209341","odd","NA","38339","44937","40341","69455","4337","30559","20909","69958","NA","69453","69958","69404","44937","70643","36527","68904","4327","64234","Lexical Decision Task","17","13837","18","yes","1024"
"2.67699827","0","6","hulf","non-word","94.73684210526316","94.73684210526316","764.6315789473684","764.6315789473684","black","no","legacy","legacy","legacy","0","uniform","1","undefined","undefined","undefined","1","f","0","0","0","0","18","0","0","0","18","NA","14","18","14","0","14","3","18","0","18","Tue Feb 16 13:22:32 2021","The main experiment item","yes","Lexical_Decision_Task.osexp","/Users/Hannahpowell","no","Andale Mono","no","18","no","white","no","yes","576","legacy","14","14","3","/Users/Hannahpowell/subject-5209341.csv","legacy","Lentiform Loewenfeld","3.3.7","yes","yes","600bd7cfb6416f0113b04181","602110864497cf011d9c0822","0","f","NA","space","space","space","NA","f","691","NA","4596","16554","9645","NA","691","2","legacy","1024","2","48000","-16","task","5209341","odd","NA","38339","44937","40341","71199","4337","30559","20909","71701","NA","71196","71701","71148","44937","72393","36527","70647","4327","64234","Lexical Decision Task","18","14528","19","yes","1024"
"3.010582609","0","2","drod","non-word","95","95","774.75","774.75","black","no","legacy","legacy","legacy","0","uniform","1","undefined","undefined","undefined","1","f","0","0","0","0","19","0","0","0","19","NA","15","19","15","0","15","3","19","0","19","Tue Feb 16 13:22:32 2021","The main experiment item","yes","Lexical_Decision_Task.osexp","/Users/Hannahpowell","no","Andale Mono","no","18","no","white","no","yes","576","legacy","15","15","3","/Users/Hannahpowell/subject-5209341.csv","legacy","Lentiform Loewenfeld","3.3.7","yes","yes","600bd7cfb6416f0113b04181","602110864497cf011d9c0822","0","f","NA","space","space","space","NA","f","967","NA","4596","16554","9645","NA","967","2","legacy","1024","2","48000","-16","task","5209341","odd","NA","38339","44937","40341","72949","4337","30559","20909","73451","NA","72946","73452","72898","44937","74420","36527","72397","4327","64234","Lexical Decision Task","19","15495","20","yes","1024"
"3.15462682","0","6","noal","non-word","95.23809523809524","95.23809523809524","801.2380952380952","801.2380952380952","black","no","legacy","legacy","legacy","0","uniform","1","undefined","undefined","undefined","1","f","0","0","0","0","20","0","0","0","20","NA","16","20","16","0","16","3","20","0","20","Tue Feb 16 13:22:32 2021","The main experiment item","yes","Lexical_Decision_Task.osexp","/Users/Hannahpowell","no","Andale Mono","no","18","no","white","no","yes","576","legacy","16","16","3","/Users/Hannahpowell/subject-5209341.csv","legacy","Lentiform Loewenfeld","3.3.7","yes","yes","600bd7cfb6416f0113b04181","602110864497cf011d9c0822","0","f","NA","space","space","space","NA","f","1331","NA","4596","16554","9645","NA","1331","2","legacy","1024","2","48000","-16","task","5209341","odd","NA","38339","44937","40341","74987","4337","30559","20909","75489","NA","74984","75490","74925","44937","76822","36527","74424","4327","64234","Lexical Decision Task","20","16826","21","yes","1024"
"3.145920145","8.51","8","flew","word","90.9090909090909","90.9090909090909","792.9545454545455","792.9545454545455","black","no","legacy","legacy","legacy","0","uniform","0","undefined","undefined","undefined","0","j","0","0","0","0","21","0","0","0","21","NA","17","21","17","0","17","3","21","0","21","Tue Feb 16 13:22:32 2021","The main experiment item","yes","Lexical_Decision_Task.osexp","/Users/Hannahpowell","no","Andale Mono","no","18","no","white","no","yes","576","legacy","17","17","3","/Users/Hannahpowell/subject-5209341.csv","legacy","Lentiform Loewenfeld","3.3.7","yes","yes","600bd7cfb6416f0113b04181","602110864497cf011d9c0822","0","f","NA","space","space","space","NA","f","619","NA","4596","16554","9645","NA","619","2","legacy","1024","2","48000","-16","task","5209341","odd","NA","38339","44937","40341","77378","4337","30559","20909","77881","NA","77375","77881","77327","44937","78501","36527","76826","4327","64234","Lexical Decision Task","20","17445","22","yes","1024"
"2.793790385","5.67","9","swab","word","91.30434782608695","91.30434782608695","792.6521739130435","792.6521739130435","black","no","legacy","legacy","legacy","0","uniform","1","undefined","undefined","undefined","1","j","0","0","0","0","22","0","0","0","22","NA","18","22","18","0","18","3","22","0","22","Tue Feb 16 13:22:32 2021","The main experiment item","yes","Lexical_Decision_Task.osexp","/Users/Hannahpowell","no","Andale Mono","no","18","no","white","no","yes","576","legacy","18","18","3","/Users/Hannahpowell/subject-5209341.csv","legacy","Lentiform Loewenfeld","3.3.7","yes","yes","600bd7cfb6416f0113b04181","602110864497cf011d9c0822","0","j","NA","space","space","space","NA","j","786","NA","4596","16554","9645","NA","786","2","legacy","1024","2","48000","-16","task","5209341","odd","NA","38339","44937","40341","80057","4337","30559","20909","80559","NA","80055","80560","80006","44937","81347","36527","76826","4327","78505","Lexical Decision Task","21","18231","23","yes","1024"
"3.133964479","0","8","graw","non-word","91.66666666666667","91.66666666666667","796.5416666666666","796.5416666666666","black","no","legacy","legacy","legacy","0","uniform","1","undefined","undefined","undefined","1","f","0","0","0","0","23","0","0","0","23","NA","19","23","19","0","19","3","23","0","23","Tue Feb 16 13:22:32 2021","The main experiment item","yes","Lexical_Decision_Task.osexp","/Users/Hannahpowell","no","Andale Mono","no","18","no","white","no","yes","576","legacy","19","19","3","/Users/Hannahpowell/subject-5209341.csv","legacy","Lentiform Loewenfeld","3.3.7","yes","yes","600bd7cfb6416f0113b04181","602110864497cf011d9c0822","0","f","NA","space","space","space","NA","f","886","NA","4596","16554","9645","NA","886","2","legacy","1024","2","48000","-16","task","5209341","odd","NA","38339","44937","40341","81907","4337","30559","20909","82410","NA","81905","82411","81852","44937","83299","36527","81351","4327","78505","Lexical Decision Task","22","19117","24","yes","1024"
"3.440331212","7.35","6","stew","word","92","92","793.4","793.4","black","no","legacy","legacy","legacy","0","uniform","1","undefined","undefined","undefined","1","j","0","0","0","0","24","0","0","0","24","NA","20","24","20","0","20","3","24","0","24","Tue Feb 16 13:22:32 2021","The main experiment item","yes","Lexical_Decision_Task.osexp","/Users/Hannahpowell","no","Andale Mono","no","18","no","white","no","yes","576","legacy","20","20","3","/Users/Hannahpowell/subject-5209341.csv","legacy","Lentiform Loewenfeld","3.3.7","yes","yes","600bd7cfb6416f0113b04181","602110864497cf011d9c0822","0","j","NA","space","space","space","NA","j","718","NA","4596","16554","9645","NA","718","2","legacy","1024","2","48000","-16","task","5209341","odd","NA","38339","44937","40341","83854","4337","30559","20909","84356","NA","83851","84357","83803","44937","85075","36527","83303","4327","78505","Lexical Decision Task","23","19835","25","yes","1024"
"2.728085817","10.02","9","bike","word","92.3076923076923","92.3076923076923","785.0769230769231","785.0769230769231","black","no","legacy","legacy","legacy","0","uniform","1","undefined","undefined","undefined","1","j","0","0","0","0","25","0","0","0","25","NA","21","25","21","0","21","3","25","0","25","Tue Feb 16 13:22:32 2021","The main experiment item","yes","Lexical_Decision_Task.osexp","/Users/Hannahpowell","no","Andale Mono","no","18","no","white","no","yes","576","legacy","21","21","3","/Users/Hannahpowell/subject-5209341.csv","legacy","Lentiform Loewenfeld","3.3.7","yes","yes","600bd7cfb6416f0113b04181","602110864497cf011d9c0822","0","j","NA","space","space","space","NA","j","577","NA","4596","16554","9645","NA","577","2","legacy","1024","2","48000","-16","task","5209341","odd","NA","38339","44937","40341","85633","4337","30559","20909","86135","NA","85630","86135","85580","44937","86713","36527","85080","4327","78505","Lexical Decision Task","24","20412","26","yes","1024"
"3.492014979","0","9","yine","non-word","92.5925925925926","92.5925925925926","787.4074074074074","787.4074074074074","black","no","legacy","legacy","legacy","0","uniform","1","undefined","undefined","undefined","1","f","0","0","0","0","26","0","0","0","26","NA","22","26","22","0","22","3","26","0","26","Tue Feb 16 13:22:32 2021","The main experiment item","yes","Lexical_Decision_Task.osexp","/Users/Hannahpowell","no","Andale Mono","no","18","no","white","no","yes","576","legacy","22","22","3","/Users/Hannahpowell/subject-5209341.csv","legacy","Lentiform Loewenfeld","3.3.7","yes","yes","600bd7cfb6416f0113b04181","602110864497cf011d9c0822","0","f","NA","space","space","space","NA","f","848","NA","4596","16554","9645","NA","848","2","legacy","1024","2","48000","-16","task","5209341","odd","NA","38339","44937","40341","87281","4337","30559","20909","87783","NA","87278","87784","87217","44937","88632","36527","86717","4327","78505","Lexical Decision Task","25","21260","27","yes","1024"
"2.664011697","8.19","4","hawk","word","92.85714285714286","92.85714285714286","783.2857142857143","783.2857142857143","black","no","legacy","legacy","legacy","0","uniform","1","undefined","undefined","undefined","1","j","0","0","0","0","27","0","0","0","27","NA","23","27","23","0","23","3","27","0","27","Tue Feb 16 13:22:32 2021","The main experiment item","yes","Lexical_Decision_Task.osexp","/Users/Hannahpowell","no","Andale Mono","no","18","no","white","no","yes","576","legacy","23","23","3","/Users/Hannahpowell/subject-5209341.csv","legacy","Lentiform Loewenfeld","3.3.7","yes","yes","600bd7cfb6416f0113b04181","602110864497cf011d9c0822","0","j","NA","space","space","space","NA","j","672","NA","4596","16554","9645","NA","672","2","legacy","1024","2","48000","-16","task","5209341","odd","NA","38339","44937","40341","89188","4337","30559","20909","89690","NA","89185","89691","89137","44937","90364","36527","88637","4327","78505","Lexical Decision Task","26","21932","28","yes","1024"
"2.708989954","9.28","9","bowl","word","93.10344827586206","93.10344827586206","781.8620689655172","781.8620689655172","black","no","legacy","legacy","legacy","0","uniform","1","undefined","undefined","undefined","1","j","0","0","0","0","28","0","0","0","28","NA","24","28","24","0","24","3","28","0","28","Tue Feb 16 13:22:32 2021","The main experiment item","yes","Lexical_Decision_Task.osexp","/Users/Hannahpowell","no","Andale Mono","no","18","no","white","no","yes","576","legacy","24","24","3","/Users/Hannahpowell/subject-5209341.csv","legacy","Lentiform Loewenfeld","3.3.7","yes","yes","600bd7cfb6416f0113b04181","602110864497cf011d9c0822","0","j","NA","space","space","space","NA","j","742","NA","4596","16554","9645","NA","742","2","legacy","1024","2","48000","-16","task","5209341","odd","NA","38339","44937","40341","90921","4337","30559","20909","91423","NA","90918","91423","90869","44937","92166","36527","90368","4327","78505","Lexical Decision Task","27","22674","29","yes","1024"
"3.316948329","0","1","besc","non-word","93.33333333333333","93.33333333333333","776.1333333333333","776.1333333333333","black","no","legacy","legacy","legacy","0","uniform","1","undefined","undefined","undefined","1","f","0","0","0","0","29","0","0","0","29","NA","25","29","25","0","25","3","29","0","29","Tue Feb 16 13:22:32 2021","The main experiment item","yes","Lexical_Decision_Task.osexp","/Users/Hannahpowell","no","Andale Mono","no","18","no","white","no","yes","576","legacy","25","25","3","/Users/Hannahpowell/subject-5209341.csv","legacy","Lentiform Loewenfeld","3.3.7","yes","yes","600bd7cfb6416f0113b04181","602110864497cf011d9c0822","0","f","NA","space","space","space","NA","f","610","NA","4596","16554","9645","NA","610","2","legacy","1024","2","48000","-16","task","5209341","odd","NA","38339","44937","40341","92724","4337","30559","20909","93226","NA","92721","93226","92671","44937","93837","36527","92171","4327","78505","Lexical Decision Task","28","23284","30","yes","1024"
"3.2757719","0","5","slea","non-word","93.54838709677419","93.54838709677419","771.516129032258","771.516129032258","black","no","legacy","legacy","legacy","0","uniform","1","undefined","undefined","undefined","1","f","0","0","0","0","30","0","0","0","30","NA","26","30","26","0","26","3","30","0","30","Tue Feb 16 13:22:32 2021","The main experiment item","yes","Lexical_Decision_Task.osexp","/Users/Hannahpowell","no","Andale Mono","no","18","no","white","no","yes","576","legacy","26","26","3","/Users/Hannahpowell/subject-5209341.csv","legacy","Lentiform Loewenfeld","3.3.7","yes","yes","600bd7cfb6416f0113b04181","602110864497cf011d9c0822","0","f","NA","space","space","space","NA","f","633","NA","4596","16554","9645","NA","633","2","legacy","1024","2","48000","-16","task","5209341","odd","NA","38339","44937","40341","94393","4337","30559","20909","94896","NA","94391","94896","94342","44937","95530","36527","93841","4327","78505","Lexical Decision Task","29","23917","31","yes","1024"
"2.771097306","0","9","jold","non-word","93.75","93.75","771.59375","771.59375","black","no","legacy","legacy","legacy","0","uniform","1","undefined","undefined","undefined","1","f","0","0","0","0","31","0","0","0","31","NA","27","31","27","0","27","3","31","0","31","Tue Feb 16 13:22:32 2021","The main experiment item","yes","Lexical_Decision_Task.osexp","/Users/Hannahpowell","no","Andale Mono","no","18","no","white","no","yes","576","legacy","27","27","3","/Users/Hannahpowell/subject-5209341.csv","legacy","Lentiform Loewenfeld","3.3.7","yes","yes","600bd7cfb6416f0113b04181","602110864497cf011d9c0822","0","f","NA","space","space","space","NA","f","774","NA","4596","16554","9645","NA","774","2","legacy","1024","2","48000","-16","task","5209341","odd","NA","38339","44937","40341","96085","4337","30559","20909","96588","NA","96083","96588","96035","44937","97363","36527","95534","4327","78505","Lexical Decision Task","30","24691","32","yes","1024"
"2.767650507","0","6","yolt","non-word","90.9090909090909","90.9090909090909","775.3030303030303","775.3030303030303","black","no","legacy","legacy","legacy","0","uniform","0","undefined","undefined","undefined","0","f","0","0","0","0","32","0","0","0","32","NA","28","32","28","0","28","3","32","0","32","Tue Feb 16 13:22:32 2021","The main experiment item","yes","Lexical_Decision_Task.osexp","/Users/Hannahpowell","no","Andale Mono","no","18","no","white","no","yes","576","legacy","28","28","3","/Users/Hannahpowell/subject-5209341.csv","legacy","Lentiform Loewenfeld","3.3.7","yes","yes","600bd7cfb6416f0113b04181","602110864497cf011d9c0822","0","j","NA","space","space","space","NA","j","894","NA","4596","16554","9645","NA","894","2","legacy","1024","2","48000","-16","task","5209341","odd","NA","38339","44937","40341","97921","4337","30559","20909","98424","NA","97919","98424","97868","44937","99319","36527","97367","4327","78505","Lexical Decision Task","30","25585","33","yes","1024"
"2.782472624","10.55","2","huge","word","91.17647058823529","91.17647058823529","780.0882352941177","780.0882352941177","black","no","legacy","legacy","legacy","0","uniform","1","undefined","undefined","undefined","1","j","0","0","0","0","33","0","0","0","33","NA","29","33","29","0","29","3","33","0","33","Tue Feb 16 13:22:32 2021","The main experiment item","yes","Lexical_Decision_Task.osexp","/Users/Hannahpowell","no","Andale Mono","no","18","no","white","no","yes","576","legacy","29","29","3","/Users/Hannahpowell/subject-5209341.csv","legacy","Lentiform Loewenfeld","3.3.7","yes","yes","600bd7cfb6416f0113b04181","602110864497cf011d9c0822","0","j","NA","space","space","space","NA","j","938","NA","4596","16554","9645","NA","938","2","legacy","1024","2","48000","-16","task","5209341","odd","NA","38339","44937","40341","100875","4337","30559","20909","101378","NA","100873","101379","100824","44937","102317","36527","97367","4327","99323","Lexical Decision Task","31","26523","34","yes","1024"
"3.091901331","0","9","nipe","non-word","91.42857142857143","91.42857142857143","793.0285714285715","793.0285714285715","black","no","legacy","legacy","legacy","0","uniform","1","undefined","undefined","undefined","1","f","0","0","0","0","34","0","0","0","34","NA","30","34","30","0","30","3","34","0","34","Tue Feb 16 13:22:32 2021","The main experiment item","yes","Lexical_Decision_Task.osexp","/Users/Hannahpowell","no","Andale Mono","no","18","no","white","no","yes","576","legacy","30","30","3","/Users/Hannahpowell/subject-5209341.csv","legacy","Lentiform Loewenfeld","3.3.7","yes","yes","600bd7cfb6416f0113b04181","602110864497cf011d9c0822","0","f","NA","space","space","space","NA","f","1233","NA","4596","16554","9645","NA","1233","2","legacy","1024","2","48000","-16","task","5209341","odd","NA","38339","44937","40341","102873","4337","30559","20909","103376","NA","102871","103376","102822","44937","104610","36527","102322","4327","99323","Lexical Decision Task","32","27756","35","yes","1024"
"3.299579929","0","2","flis","non-word","91.66666666666667","91.66666666666667","789.5","789.5","black","no","legacy","legacy","legacy","0","uniform","1","undefined","undefined","undefined","1","f","0","0","0","0","35","0","0","0","35","NA","31","35","31","0","31","3","35","0","35","Tue Feb 16 13:22:32 2021","The main experiment item","yes","Lexical_Decision_Task.osexp","/Users/Hannahpowell","no","Andale Mono","no","18","no","white","no","yes","576","legacy","31","31","3","/Users/Hannahpowell/subject-5209341.csv","legacy","Lentiform Loewenfeld","3.3.7","yes","yes","600bd7cfb6416f0113b04181","602110864497cf011d9c0822","0","f","NA","space","space","space","NA","f","666","NA","4596","16554","9645","NA","666","2","legacy","1024","2","48000","-16","task","5209341","odd","NA","38339","44937","40341","105169","4337","30559","20909","105672","NA","105167","105673","105116","44937","106340","36527","104616","4327","99323","Lexical Decision Task","33","28422","36","yes","1024"
"2.709837904","6.85","8","skim","word","91.89189189189189","91.89189189189189","802.3783783783783","802.3783783783783","black","no","legacy","legacy","legacy","0","uniform","1","undefined","undefined","undefined","1","j","0","0","0","0","36","0","0","0","36","NA","32","36","32","0","32","3","36","0","36","Tue Feb 16 13:22:32 2021","The main experiment item","yes","Lexical_Decision_Task.osexp","/Users/Hannahpowell","no","Andale Mono","no","18","no","white","no","yes","576","legacy","32","32","3","/Users/Hannahpowell/subject-5209341.csv","legacy","Lentiform Loewenfeld","3.3.7","yes","yes","600bd7cfb6416f0113b04181","602110864497cf011d9c0822","0","j","NA","space","space","space","NA","j","1266","NA","4596","16554","9645","NA","1266","2","legacy","1024","2","48000","-16","task","5209341","odd","NA","38339","44937","40341","106899","4337","30559","20909","107401","NA","106896","107401","106845","44937","108668","36527","106345","4327","99323","Lexical Decision Task","34","29688","37","yes","1024"
"3.165936429","0","7","leps","non-word","92.10526315789474","92.10526315789474","803.8947368421053","803.8947368421053","black","no","legacy","legacy","legacy","0","uniform","1","undefined","undefined","undefined","1","f","0","0","0","0","37","0","0","0","37","NA","33","37","33","0","33","3","37","0","37","Tue Feb 16 13:22:32 2021","The main experiment item","yes","Lexical_Decision_Task.osexp","/Users/Hannahpowell","no","Andale Mono","no","18","no","white","no","yes","576","legacy","33","33","3","/Users/Hannahpowell/subject-5209341.csv","legacy","Lentiform Loewenfeld","3.3.7","yes","yes","600bd7cfb6416f0113b04181","602110864497cf011d9c0822","0","f","NA","space","space","space","NA","f","860","NA","4596","16554","9645","NA","860","2","legacy","1024","2","48000","-16","task","5209341","odd","NA","38339","44937","40341","109224","4337","30559","20909","109727","NA","109221","109727","109173","44937","110588","36527","108673","4327","99323","Lexical Decision Task","35","30548","38","yes","1024"
"3.488597715","0","9","nain","non-word","92.3076923076923","92.3076923076923","796.5128205128206","796.5128205128206","black","no","legacy","legacy","legacy","0","uniform","1","undefined","undefined","undefined","1","f","0","0","0","0","38","0","0","0","38","NA","34","38","34","0","34","3","38","0","38","Tue Feb 16 13:22:32 2021","The main experiment item","yes","Lexical_Decision_Task.osexp","/Users/Hannahpowell","no","Andale Mono","no","18","no","white","no","yes","576","legacy","34","34","3","/Users/Hannahpowell/subject-5209341.csv","legacy","Lentiform Loewenfeld","3.3.7","yes","yes","600bd7cfb6416f0113b04181","602110864497cf011d9c0822","0","f","NA","space","space","space","NA","f","516","NA","4596","16554","9645","NA","516","2","legacy","1024","2","48000","-16","task","5209341","odd","NA","38339","44937","40341","111144","4337","30559","20909","111646","NA","111142","111646","111093","44937","112163","36527","110592","4327","99323","Lexical Decision Task","36","31064","39","yes","1024"
"2.953276337","6.32","4","thaw","word","92.5","92.5","795.75","795.75","black","no","legacy","legacy","legacy","0","uniform","1","undefined","undefined","undefined","1","j","0","0","0","0","39","0","0","0","39","NA","35","39","35","0","35","3","39","0","39","Tue Feb 16 13:22:32 2021","The main experiment item","yes","Lexical_Decision_Task.osexp","/Users/Hannahpowell","no","Andale Mono","no","18","no","white","no","yes","576","legacy","35","35","3","/Users/Hannahpowell/subject-5209341.csv","legacy","Lentiform Loewenfeld","3.3.7","yes","yes","600bd7cfb6416f0113b04181","602110864497cf011d9c0822","0","j","NA","space","space","space","NA","j","766","NA","4596","16554","9645","NA","766","2","legacy","1024","2","48000","-16","task","5209341","odd","NA","38339","44937","40341","112722","4337","30559","20909","113225","NA","112720","113226","112669","44937","113993","36527","112168","4327","99323","Lexical Decision Task","37","31830","40","yes","1024"
"3.077974404","10.41","8","tool","word","92.6829268292683","92.6829268292683","793.4878048780488","793.4878048780488","black","no","legacy","legacy","legacy","0","uniform","1","undefined","undefined","undefined","1","j","0","0","0","0","40","0","0","0","40","NA","36","40","36","0","36","3","40","0","40","Tue Feb 16 13:22:32 2021","The main experiment item","yes","Lexical_Decision_Task.osexp","/Users/Hannahpowell","no","Andale Mono","no","18","no","white","no","yes","576","legacy","36","36","3","/Users/Hannahpowell/subject-5209341.csv","legacy","Lentiform Loewenfeld","3.3.7","yes","yes","600bd7cfb6416f0113b04181","602110864497cf011d9c0822","0","j","NA","space","space","space","NA","j","703","NA","4596","16554","9645","NA","703","2","legacy","1024","2","48000","-16","task","5209341","odd","NA","38339","44937","40341","114548","4337","30559","20909","115051","NA","114546","115052","114497","44937","115756","36527","113997","4327","99323","Lexical Decision Task","38","32533","41","yes","1024"
"2.895974732","6.65","5","sift","word","90.47619047619048","90.47619047619048","788.9047619047619","788.9047619047619","black","no","legacy","legacy","legacy","0","uniform","0","undefined","undefined","undefined","0","j","0","0","0","0","41","0","0","0","41","NA","37","41","37","0","37","3","41","0","41","Tue Feb 16 13:22:32 2021","The main experiment item","yes","Lexical_Decision_Task.osexp","/Users/Hannahpowell","no","Andale Mono","no","18","no","white","no","yes","576","legacy","37","37","3","/Users/Hannahpowell/subject-5209341.csv","legacy","Lentiform Loewenfeld","3.3.7","yes","yes","600bd7cfb6416f0113b04181","602110864497cf011d9c0822","0","f","NA","space","space","space","NA","f","601","NA","4596","16554","9645","NA","601","2","legacy","1024","2","48000","-16","task","5209341","odd","NA","38339","44937","40341","116315","4337","30559","20909","116817","NA","116312","116818","116261","44937","117420","36527","115761","4327","99323","Lexical Decision Task","38","33134","42","yes","1024"
"3.068433376","8.09","2","bulb","word","90.69767441860465","90.69767441860465","786.3255813953489","786.3255813953489","black","no","legacy","legacy","legacy","0","uniform","1","undefined","undefined","undefined","1","j","0","0","0","0","42","0","0","0","42","NA","38","42","38","0","38","3","42","0","42","Tue Feb 16 13:22:32 2021","The main experiment item","yes","Lexical_Decision_Task.osexp","/Users/Hannahpowell","no","Andale Mono","no","18","no","white","no","yes","576","legacy","38","38","3","/Users/Hannahpowell/subject-5209341.csv","legacy","Lentiform Loewenfeld","3.3.7","yes","yes","600bd7cfb6416f0113b04181","602110864497cf011d9c0822","0","j","NA","space","space","space","NA","j","678","NA","4596","16554","9645","NA","678","2","legacy","1024","2","48000","-16","task","5209341","odd","NA","38339","44937","40341","118977","4337","30559","20909","119479","NA","118974","119480","118926","44937","120159","36527","115761","4327","117425","Lexical Decision Task","39","33812","43","yes","1024"
"3.274543461","7.46","7","scar","word","90.9090909090909","90.9090909090909","781.6818181818181","781.6818181818181","black","no","legacy","legacy","legacy","0","uniform","1","undefined","undefined","undefined","1","j","0","0","0","0","43","0","0","0","43","NA","39","43","39","0","39","3","43","0","43","Tue Feb 16 13:22:32 2021","The main experiment item","yes","Lexical_Decision_Task.osexp","/Users/Hannahpowell","no","Andale Mono","no","18","no","white","no","yes","576","legacy","39","39","3","/Users/Hannahpowell/subject-5209341.csv","legacy","Lentiform Loewenfeld","3.3.7","yes","yes","600bd7cfb6416f0113b04181","602110864497cf011d9c0822","0","j","NA","space","space","space","NA","j","582","NA","4596","16554","9645","NA","582","2","legacy","1024","2","48000","-16","task","5209341","odd","NA","38339","44937","40341","120715","4337","30559","20909","121218","NA","120713","121219","120663","44937","121802","36527","120163","4327","117425","Lexical Decision Task","40","34394","44","yes","1024"
"2.966923697","5.4","2","fume","word","91.11111111111111","91.11111111111111","786","786","black","no","legacy","legacy","legacy","0","uniform","1","undefined","undefined","undefined","1","j","0","0","0","0","44","0","0","0","44","NA","40","44","40","0","40","3","44","0","44","Tue Feb 16 13:22:32 2021","The main experiment item","yes","Lexical_Decision_Task.osexp","/Users/Hannahpowell","no","Andale Mono","no","18","no","white","no","yes","576","legacy","40","40","3","/Users/Hannahpowell/subject-5209341.csv","legacy","Lentiform Loewenfeld","3.3.7","yes","yes","600bd7cfb6416f0113b04181","602110864497cf011d9c0822","0","j","NA","space","space","space","NA","j","976","NA","4596","16554","9645","NA","976","2","legacy","1024","2","48000","-16","task","5209341","odd","NA","38339","44937","40341","122368","4337","30559","20909","122870","NA","122364","122871","122308","44937","123848","36527","121807","4327","117425","Lexical Decision Task","41","35370","45","yes","1024"
"3.274157849","0","8","leet","non-word","91.30434782608695","91.30434782608695","787.7608695652174","787.7608695652174","black","no","legacy","legacy","legacy","0","uniform","1","undefined","undefined","undefined","1","f","0","0","0","0","45","0","0","0","45","NA","41","45","41","0","41","3","45","0","45","Tue Feb 16 13:22:32 2021","The main experiment item","yes","Lexical_Decision_Task.osexp","/Users/Hannahpowell","no","Andale Mono","no","18","no","white","no","yes","576","legacy","41","41","3","/Users/Hannahpowell/subject-5209341.csv","legacy","Lentiform Loewenfeld","3.3.7","yes","yes","600bd7cfb6416f0113b04181","602110864497cf011d9c0822","0","f","NA","space","space","space","NA","f","867","NA","4596","16554","9645","NA","867","2","legacy","1024","2","48000","-16","task","5209341","odd","NA","38339","44937","40341","124413","4337","30559","20909","124915","NA","124410","124915","124353","44937","125783","36527","123852","4327","117425","Lexical Decision Task","42","36237","46","yes","1024"
"3.529815197","0","3","lerm","non-word","91.48936170212765","91.48936170212765","786.531914893617","786.531914893617","black","no","legacy","legacy","legacy","0","uniform","1","undefined","undefined","undefined","1","f","0","0","0","0","46","0","0","0","46","NA","42","46","42","0","42","3","46","0","46","Tue Feb 16 13:22:32 2021","The main experiment item","yes","Lexical_Decision_Task.osexp","/Users/Hannahpowell","no","Andale Mono","no","18","no","white","no","yes","576","legacy","42","42","3","/Users/Hannahpowell/subject-5209341.csv","legacy","Lentiform Loewenfeld","3.3.7","yes","yes","600bd7cfb6416f0113b04181","602110864497cf011d9c0822","0","f","NA","space","space","space","NA","f","730","NA","4596","16554","9645","NA","730","2","legacy","1024","2","48000","-16","task","5209341","odd","NA","38339","44937","40341","126342","4337","30559","20909","126844","NA","126339","126844","126289","44937","127575","36527","125788","4327","117425","Lexical Decision Task","43","36967","47","yes","1024"
"3.22685757","9.99","7","roll","word","91.66666666666667","91.66666666666667","785.8541666666666","785.8541666666666","black","no","legacy","legacy","legacy","0","uniform","1","undefined","undefined","undefined","1","j","0","0","0","0","47","0","0","0","47","NA","43","47","43","0","43","3","47","0","47","Tue Feb 16 13:22:32 2021","The main experiment item","yes","Lexical_Decision_Task.osexp","/Users/Hannahpowell","no","Andale Mono","no","18","no","white","no","yes","576","legacy","43","43","3","/Users/Hannahpowell/subject-5209341.csv","legacy","Lentiform Loewenfeld","3.3.7","yes","yes","600bd7cfb6416f0113b04181","602110864497cf011d9c0822","0","j","NA","space","space","space","NA","j","754","NA","4596","16554","9645","NA","754","2","legacy","1024","2","48000","-16","task","5209341","odd","NA","38339","44937","40341","128133","4337","30559","20909","128635","NA","128131","128635","128080","44937","129391","36527","127580","4327","117425","Lexical Decision Task","44","37721","48","yes","1024"
"2.899638141","0","3","hapt","non-word","91.83673469387755","91.83673469387755","783.734693877551","783.734693877551","black","no","legacy","legacy","legacy","0","uniform","1","undefined","undefined","undefined","1","f","0","0","0","0","48","0","0","0","48","NA","44","48","44","0","44","3","48","0","48","Tue Feb 16 13:22:32 2021","The main experiment item","yes","Lexical_Decision_Task.osexp","/Users/Hannahpowell","no","Andale Mono","no","18","no","white","no","yes","576","legacy","44","44","3","/Users/Hannahpowell/subject-5209341.csv","legacy","Lentiform Loewenfeld","3.3.7","yes","yes","600bd7cfb6416f0113b04181","602110864497cf011d9c0822","0","f","NA","space","space","space","NA","f","682","NA","4596","16554","9645","NA","682","2","legacy","1024","2","48000","-16","task","5209341","odd","NA","38339","44937","40341","129951","4337","30559","20909","130454","NA","129947","130454","129895","44937","131137","36527","129395","4327","117425","Lexical Decision Task","45","38403","49","yes","1024"
"3.195807436","0","6","stup","non-word","92","92","782.28","782.28","black","no","legacy","legacy","legacy","0","uniform","1","undefined","undefined","undefined","1","f","0","0","0","0","49","0","0","0","49","NA","45","49","45","0","45","3","49","0","49","Tue Feb 16 13:22:32 2021","The main experiment item","yes","Lexical_Decision_Task.osexp","/Users/Hannahpowell","no","Andale Mono","no","18","no","white","no","yes","576","legacy","45","45","3","/Users/Hannahpowell/subject-5209341.csv","legacy","Lentiform Loewenfeld","3.3.7","yes","yes","600bd7cfb6416f0113b04181","602110864497cf011d9c0822","0","f","NA","space","space","space","NA","f","711","NA","4596","16554","9645","NA","711","2","legacy","1024","2","48000","-16","task","5209341","odd","NA","38339","44937","40341","131694","4337","30559","20909","132196","NA","131690","132197","131642","44937","132909","36527","131141","4327","117425","Lexical Decision Task","46","39114","50","yes","1024"
"3.043885998","0","9","gome","non-word","92.15686274509804","92.15686274509804","789.9803921568628","789.9803921568628","black","no","legacy","legacy","legacy","0","uniform","1","undefined","undefined","undefined","1","f","0","0","0","0","50","0","0","0","50","NA","46","50","46","0","46","3","50","0","50","Tue Feb 16 13:22:32 2021","The main experiment item","yes","Lexical_Decision_Task.osexp","/Users/Hannahpowell","no","Andale Mono","no","18","no","white","no","yes","576","legacy","46","46","3","/Users/Hannahpowell/subject-5209341.csv","legacy","Lentiform Loewenfeld","3.3.7","yes","yes","600bd7cfb6416f0113b04181","602110864497cf011d9c0822","0","f","NA","space","space","space","NA","f","1175","NA","4596","16554","9645","NA","1175","2","legacy","1024","2","48000","-16","task","5209341","odd","NA","38339","44937","40341","133467","4337","30559","20909","133970","NA","133464","133971","133414","44937","135147","36527","132914","4327","117425","Lexical Decision Task","47","40289","51","yes","1024"
"2.884795364","0","6","flob","non-word","90.38461538461539","90.38461538461539","803.6923076923077","803.6923076923077","black","no","legacy","legacy","legacy","0","uniform","0","undefined","undefined","undefined","0","f","0","0","0","0","51","0","0","0","51","NA","47","51","47","0","47","3","51","0","51","Tue Feb 16 13:22:32 2021","The main experiment item","yes","Lexical_Decision_Task.osexp","/Users/Hannahpowell","no","Andale Mono","no","18","no","white","no","yes","576","legacy","47","47","3","/Users/Hannahpowell/subject-5209341.csv","legacy","Lentiform Loewenfeld","3.3.7","yes","yes","600bd7cfb6416f0113b04181","602110864497cf011d9c0822","0","j","NA","space","space","space","NA","j","1503","NA","4596","16554","9645","NA","1503","2","legacy","1024","2","48000","-16","task","5209341","odd","NA","38339","44937","40341","135706","4337","30559","20909","136208","NA","135703","136208","135651","44937","137712","36527","135151","4327","117425","Lexical Decision Task","47","41792","52","yes","1024"
"3.363486562","6.93","9","lush","word","90.56603773584905","90.56603773584905","799.9811320754717","799.9811320754717","black","no","legacy","legacy","legacy","0","uniform","1","undefined","undefined","undefined","1","j","0","0","0","0","52","0","0","0","52","NA","48","52","48","0","48","3","52","0","52","Tue Feb 16 13:22:32 2021","The main experiment item","yes","Lexical_Decision_Task.osexp","/Users/Hannahpowell","no","Andale Mono","no","18","no","white","no","yes","576","legacy","48","48","3","/Users/Hannahpowell/subject-5209341.csv","legacy","Lentiform Loewenfeld","3.3.7","yes","yes","600bd7cfb6416f0113b04181","602110864497cf011d9c0822","0","j","NA","space","space","space","NA","j","607","NA","4596","16554","9645","NA","607","2","legacy","1024","2","48000","-16","task","5209341","odd","NA","38339","44937","40341","139268","4337","30559","20909","139773","NA","139265","139774","139216","44937","140383","36527","135151","4327","137716","Lexical Decision Task","48","42399","53","yes","1024"
"2.68604012","0","3","mulb","non-word","90.74074074074075","90.74074074074075","801.9629629629629","801.9629629629629","black","no","legacy","legacy","legacy","0","uniform","1","undefined","undefined","undefined","1","f","0","0","0","0","53","0","0","0","53","NA","49","53","49","0","49","3","53","0","53","Tue Feb 16 13:22:32 2021","The main experiment item","yes","Lexical_Decision_Task.osexp","/Users/Hannahpowell","no","Andale Mono","no","18","no","white","no","yes","576","legacy","49","49","3","/Users/Hannahpowell/subject-5209341.csv","legacy","Lentiform Loewenfeld","3.3.7","yes","yes","600bd7cfb6416f0113b04181","602110864497cf011d9c0822","0","f","NA","space","space","space","NA","f","907","NA","4596","16554","9645","NA","907","2","legacy","1024","2","48000","-16","task","5209341","odd","NA","38339","44937","40341","140941","4337","30559","20909","141444","NA","140939","141444","140888","44937","142352","36527","140388","4327","137716","Lexical Decision Task","49","43306","54","yes","1024"
"3.259832699","0","9","flar","non-word","90.9090909090909","90.9090909090909","801.4","801.4","black","no","legacy","legacy","legacy","0","uniform","1","undefined","undefined","undefined","1","f","0","0","0","0","54","0","0","0","54","0","50","54","50","0","50","3","54","0","54","Tue Feb 16 13:22:32 2021","The main experiment item","yes","Lexical_Decision_Task.osexp","/Users/Hannahpowell","no","Andale Mono","no","18","no","white","no","yes","576","legacy","50","50","3","/Users/Hannahpowell/subject-5209341.csv","legacy","Lentiform Loewenfeld","3.3.7","yes","yes","600bd7cfb6416f0113b04181","602110864497cf011d9c0822","0","f","NA","space","space","space","space","f","771","NA","4596","16554","9645","5109","771","2","legacy","1024","2","48000","-16","task","5209341","odd","NA","38339","44937","40341","148045","4337","30559","20909","148547","142881","148042","148548","142857","44937","149320","36527","142357","4327","137716","Lexical Decision Task","50","44077","55","yes","1024"
"2.698100546","0","9","mulk","non-word","91.07142857142857","91.07142857142857","795.9642857142857","795.9642857142857","black","no","legacy","legacy","legacy","0","uniform","1","undefined","undefined","undefined","1","f","0","0","0","0","55","0","0","0","55","0","51","55","51","0","51","3","55","0","55","Tue Feb 16 13:22:32 2021","The main experiment item","yes","Lexical_Decision_Task.osexp","/Users/Hannahpowell","no","Andale Mono","no","18","no","white","no","yes","576","legacy","51","51","3","/Users/Hannahpowell/subject-5209341.csv","legacy","Lentiform Loewenfeld","3.3.7","yes","yes","600bd7cfb6416f0113b04181","602110864497cf011d9c0822","0","f","NA","space","space","space","space","f","497","NA","4596","16554","9645","5109","497","2","legacy","1024","2","48000","-16","task","5209341","odd","NA","38339","44937","40341","149881","4337","30559","20909","150383","142881","149878","150383","149827","44937","150881","36527","149326","4327","137716","Lexical Decision Task","51","44574","56","yes","1024"
"2.746890964","9.67","3","plug","word","91.2280701754386","91.2280701754386","792.4561403508771","792.4561403508771","black","no","legacy","legacy","legacy","0","uniform","1","undefined","undefined","undefined","1","j","0","0","0","0","56","0","0","0","56","0","52","56","52","0","52","3","56","0","56","Tue Feb 16 13:22:32 2021","The main experiment item","yes","Lexical_Decision_Task.osexp","/Users/Hannahpowell","no","Andale Mono","no","18","no","white","no","yes","576","legacy","52","52","3","/Users/Hannahpowell/subject-5209341.csv","legacy","Lentiform Loewenfeld","3.3.7","yes","yes","600bd7cfb6416f0113b04181","602110864497cf011d9c0822","0","j","NA","space","space","space","space","j","596","NA","4596","16554","9645","5109","596","2","legacy","1024","2","48000","-16","task","5209341","odd","NA","38339","44937","40341","151441","4337","30559","20909","151943","142881","151438","151944","151385","44937","152541","36527","150885","4327","137716","Lexical Decision Task","52","45170","57","yes","1024"
"2.744553742","0","2","nawk","non-word","91.37931034482759","91.37931034482759","787.5689655172414","787.5689655172414","black","no","legacy","legacy","legacy","0","uniform","1","undefined","undefined","undefined","1","f","0","0","0","0","57","0","0","0","57","0","53","57","53","0","53","3","57","0","57","Tue Feb 16 13:22:32 2021","The main experiment item","yes","Lexical_Decision_Task.osexp","/Users/Hannahpowell","no","Andale Mono","no","18","no","white","no","yes","576","legacy","53","53","3","/Users/Hannahpowell/subject-5209341.csv","legacy","Lentiform Loewenfeld","3.3.7","yes","yes","600bd7cfb6416f0113b04181","602110864497cf011d9c0822","0","f","NA","space","space","space","space","f","509","NA","4596","16554","9645","5109","509","2","legacy","1024","2","48000","-16","task","5209341","odd","NA","38339","44937","40341","153096","4337","30559","20909","153598","142881","153094","153598","153045","44937","154108","36527","152545","4327","137716","Lexical Decision Task","53","45679","58","yes","1024"
"3.209246849","0","7","slem","non-word","91.52542372881356","91.52542372881356","782.8305084745763","782.8305084745763","black","no","legacy","legacy","legacy","0","uniform","1","undefined","undefined","undefined","1","f","0","0","0","0","58","0","0","0","58","0","54","58","54","0","54","3","58","0","58","Tue Feb 16 13:22:32 2021","The main experiment item","yes","Lexical_Decision_Task.osexp","/Users/Hannahpowell","no","Andale Mono","no","18","no","white","no","yes","576","legacy","54","54","3","/Users/Hannahpowell/subject-5209341.csv","legacy","Lentiform Loewenfeld","3.3.7","yes","yes","600bd7cfb6416f0113b04181","602110864497cf011d9c0822","0","f","NA","space","space","space","space","f","508","NA","4596","16554","9645","5109","508","2","legacy","1024","2","48000","-16","task","5209341","odd","NA","38339","44937","40341","154666","4337","30559","20909","155168","142881","154663","155169","154613","44937","155678","36527","154113","4327","137716","Lexical Decision Task","54","46187","59","yes","1024"
"3.208978517","10.33","4","fish","word","91.66666666666667","91.66666666666667","780.3833333333333","780.3833333333333","black","no","legacy","legacy","legacy","0","uniform","1","undefined","undefined","undefined","1","j","0","0","0","0","59","0","0","0","59","0","55","59","55","0","55","3","59","0","59","Tue Feb 16 13:22:32 2021","The main experiment item","yes","Lexical_Decision_Task.osexp","/Users/Hannahpowell","no","Andale Mono","no","18","no","white","no","yes","576","legacy","55","55","3","/Users/Hannahpowell/subject-5209341.csv","legacy","Lentiform Loewenfeld","3.3.7","yes","yes","600bd7cfb6416f0113b04181","602110864497cf011d9c0822","0","j","NA","space","space","space","space","j","636","NA","4596","16554","9645","5109","636","2","legacy","1024","2","48000","-16","task","5209341","odd","NA","38339","44937","40341","156240","4337","30559","20909","156742","142881","156237","156743","156183","44937","157380","36527","155683","4327","137716","Lexical Decision Task","55","46823","60","yes","1024"
"3.120135028","0","3","vals","non-word","91.80327868852459","91.80327868852459","777.2131147540983","777.2131147540983","black","no","legacy","legacy","legacy","0","uniform","1","undefined","undefined","undefined","1","f","0","0","0","0","60","0","0","0","60","0","56","60","56","0","56","3","60","0","60","Tue Feb 16 13:22:32 2021","The main experiment item","yes","Lexical_Decision_Task.osexp","/Users/Hannahpowell","no","Andale Mono","no","18","no","white","no","yes","576","legacy","56","56","3","/Users/Hannahpowell/subject-5209341.csv","legacy","Lentiform Loewenfeld","3.3.7","yes","yes","600bd7cfb6416f0113b04181","602110864497cf011d9c0822","0","f","NA","space","space","space","space","f","587","NA","4596","16554","9645","5109","587","2","legacy","1024","2","48000","-16","task","5209341","odd","NA","38339","44937","40341","157939","4337","30559","20909","158441","142881","157936","158442","157885","44937","159030","36527","157385","4327","137716","Lexical Decision Task","56","47410","61","yes","1024"
"3.066077331","0","7","vorn","non-word","91.93548387096774","91.93548387096774","778.9032258064516","778.9032258064516","black","no","legacy","legacy","legacy","0","uniform","1","undefined","undefined","undefined","1","f","0","0","0","0","61","0","0","0","61","0","57","61","57","0","57","3","61","0","61","Tue Feb 16 13:22:32 2021","The main experiment item","yes","Lexical_Decision_Task.osexp","/Users/Hannahpowell","no","Andale Mono","no","18","no","white","no","yes","576","legacy","57","57","3","/Users/Hannahpowell/subject-5209341.csv","legacy","Lentiform Loewenfeld","3.3.7","yes","yes","600bd7cfb6416f0113b04181","602110864497cf011d9c0822","0","f","NA","space","space","space","space","f","882","NA","4596","16554","9645","5109","882","2","legacy","1024","2","48000","-16","task","5209341","odd","NA","38339","44937","40341","159590","4337","30559","20909","160092","142881","159587","160092","159535","44937","160975","36527","159035","4327","137716","Lexical Decision Task","57","48292","62","yes","1024"
"3.261341392","5.08","8","reek","word","90.47619047619048","90.47619047619048","774.8095238095239","774.8095238095239","black","no","legacy","legacy","legacy","0","uniform","0","undefined","undefined","undefined","0","j","0","0","0","0","62","0","0","0","62","0","58","62","58","0","58","3","62","0","62","Tue Feb 16 13:22:32 2021","The main experiment item","yes","Lexical_Decision_Task.osexp","/Users/Hannahpowell","no","Andale Mono","no","18","no","white","no","yes","576","legacy","58","58","3","/Users/Hannahpowell/subject-5209341.csv","legacy","Lentiform Loewenfeld","3.3.7","yes","yes","600bd7cfb6416f0113b04181","602110864497cf011d9c0822","0","f","NA","space","space","space","space","f","521","NA","4596","16554","9645","5109","521","2","legacy","1024","2","48000","-16","task","5209341","odd","NA","38339","44937","40341","161532","4337","30559","20909","162036","142881","161530","162037","161479","44937","162559","36527","160979","4327","137716","Lexical Decision Task","57","48813","63","yes","1024"
"2.594027722","9.08","8","skip","word","90.625","90.625","774.34375","774.34375","black","no","legacy","legacy","legacy","0","uniform","1","undefined","undefined","undefined","1","j","0","0","0","0","63","0","0","0","63","0","59","63","59","0","59","3","63","0","63","Tue Feb 16 13:22:32 2021","The main experiment item","yes","Lexical_Decision_Task.osexp","/Users/Hannahpowell","no","Andale Mono","no","18","no","white","no","yes","576","legacy","59","59","3","/Users/Hannahpowell/subject-5209341.csv","legacy","Lentiform Loewenfeld","3.3.7","yes","yes","600bd7cfb6416f0113b04181","602110864497cf011d9c0822","0","j","NA","space","space","space","space","j","745","NA","4596","16554","9645","5109","745","2","legacy","1024","2","48000","-16","task","5209341","odd","NA","38339","44937","40341","164118","4337","30559","20909","164621","142881","164116","164621","164064","44937","165367","36527","160979","4327","162564","Lexical Decision Task","58","49558","64","yes","1024"
"2.69019608","9.01","2","myth","word","90.76923076923077","90.76923076923077","771.8153846153846","771.8153846153846","black","no","legacy","legacy","legacy","0","uniform","1","undefined","undefined","undefined","1","j","0","0","0","0","64","0","0","0","64","0","60","64","60","0","60","3","64","0","64","Tue Feb 16 13:22:32 2021","The main experiment item","yes","Lexical_Decision_Task.osexp","/Users/Hannahpowell","no","Andale Mono","no","18","no","white","no","yes","576","legacy","60","60","3","/Users/Hannahpowell/subject-5209341.csv","legacy","Lentiform Loewenfeld","3.3.7","yes","yes","600bd7cfb6416f0113b04181","602110864497cf011d9c0822","0","j","NA","space","space","space","space","j","610","NA","4596","16554","9645","5109","610","2","legacy","1024","2","48000","-16","task","5209341","odd","NA","38339","44937","40341","165928","4337","30559","20909","166431","142881","165925","166432","165872","44937","167043","36527","165371","4327","162564","Lexical Decision Task","59","50168","65","yes","1024"
"2.755364069","7.72","2","hoax","word","90.9090909090909","90.9090909090909","769.439393939394","769.439393939394","black","no","legacy","legacy","legacy","0","uniform","1","undefined","undefined","undefined","1","j","0","0","0","0","65","0","0","0","65","0","61","65","61","0","61","3","65","0","65","Tue Feb 16 13:22:32 2021","The main experiment item","yes","Lexical_Decision_Task.osexp","/Users/Hannahpowell","no","Andale Mono","no","18","no","white","no","yes","576","legacy","61","61","3","/Users/Hannahpowell/subject-5209341.csv","legacy","Lentiform Loewenfeld","3.3.7","yes","yes","600bd7cfb6416f0113b04181","602110864497cf011d9c0822","0","j","NA","space","space","space","space","j","615","NA","4596","16554","9645","5109","615","2","legacy","1024","2","48000","-16","task","5209341","odd","NA","38339","44937","40341","167599","4337","30559","20909","168101","142881","167596","168101","167547","44937","168717","36527","167047","4327","162564","Lexical Decision Task","60","50783","66","yes","1024"
"2.68604012","0","4","pumb","non-word","91.04477611940298","91.04477611940298","769.8955223880597","769.8955223880597","black","no","legacy","legacy","legacy","0","uniform","1","undefined","undefined","undefined","1","f","0","0","0","0","66","0","0","0","66","0","62","66","62","0","62","3","66","0","66","Tue Feb 16 13:22:32 2021","The main experiment item","yes","Lexical_Decision_Task.osexp","/Users/Hannahpowell","no","Andale Mono","no","18","no","white","no","yes","576","legacy","62","62","3","/Users/Hannahpowell/subject-5209341.csv","legacy","Lentiform Loewenfeld","3.3.7","yes","yes","600bd7cfb6416f0113b04181","602110864497cf011d9c0822","0","f","NA","space","space","space","space","f","800","NA","4596","16554","9645","5109","800","2","legacy","1024","2","48000","-16","task","5209341","odd","NA","38339","44937","40341","169277","4337","30559","20909","169779","142881","169274","169779","169222","44937","170580","36527","168722","4327","162564","Lexical Decision Task","61","51583","67","yes","1024"
"3.443783828","7.65","3","verb","word","91.17647058823529","91.17647058823529","767.5","767.5","black","no","legacy","legacy","legacy","0","uniform","1","undefined","undefined","undefined","1","j","0","0","0","0","67","0","0","0","67","0","63","67","63","0","63","3","67","0","67","Tue Feb 16 13:22:32 2021","The main experiment item","yes","Lexical_Decision_Task.osexp","/Users/Hannahpowell","no","Andale Mono","no","18","no","white","no","yes","576","legacy","63","63","3","/Users/Hannahpowell/subject-5209341.csv","legacy","Lentiform Loewenfeld","3.3.7","yes","yes","600bd7cfb6416f0113b04181","602110864497cf011d9c0822","0","j","NA","space","space","space","space","j","607","NA","4596","16554","9645","5109","607","2","legacy","1024","2","48000","-16","task","5209341","odd","NA","38339","44937","40341","171138","4337","30559","20909","171641","142881","171136","171641","171085","44937","172250","36527","170585","4327","162564","Lexical Decision Task","62","52190","68","yes","1024"
"3.031408464","0","7","drow","non-word","91.30434782608695","91.30434782608695","764.3623188405797","764.3623188405797","black","no","legacy","legacy","legacy","0","uniform","1","undefined","undefined","undefined","1","f","0","0","0","0","68","0","0","0","68","0","64","68","64","0","64","3","68","0","68","Tue Feb 16 13:22:32 2021","The main experiment item","yes","Lexical_Decision_Task.osexp","/Users/Hannahpowell","no","Andale Mono","no","18","no","white","no","yes","576","legacy","64","64","3","/Users/Hannahpowell/subject-5209341.csv","legacy","Lentiform Loewenfeld","3.3.7","yes","yes","600bd7cfb6416f0113b04181","602110864497cf011d9c0822","0","f","NA","space","space","space","space","f","551","NA","4596","16554","9645","5109","551","2","legacy","1024","2","48000","-16","task","5209341","odd","NA","38339","44937","40341","172810","4337","30559","20909","173312","142881","172807","173312","172756","44937","173864","36527","172256","4327","162564","Lexical Decision Task","63","52741","69","yes","1024"
"2.937852093","0","7","bamp","non-word","91.42857142857143","91.42857142857143","762.8285714285714","762.8285714285714","black","no","legacy","legacy","legacy","0","uniform","1","undefined","undefined","undefined","1","f","0","0","0","0","69","0","0","0","69","0","65","69","65","0","65","3","69","0","69","Tue Feb 16 13:22:32 2021","The main experiment item","yes","Lexical_Decision_Task.osexp","/Users/Hannahpowell","no","Andale Mono","no","18","no","white","no","yes","576","legacy","65","65","3","/Users/Hannahpowell/subject-5209341.csv","legacy","Lentiform Loewenfeld","3.3.7","yes","yes","600bd7cfb6416f0113b04181","602110864497cf011d9c0822","0","f","NA","space","space","space","space","f","657","NA","4596","16554","9645","5109","657","2","legacy","1024","2","48000","-16","task","5209341","odd","NA","38339","44937","40341","174420","4337","30559","20909","174923","142881","174418","174923","174369","44937","175581","36527","173869","4327","162564","Lexical Decision Task","64","53398","70","yes","1024"
"2.972819734","0","4","scew","non-word","91.54929577464789","91.54929577464789","760.7746478873239","760.7746478873239","black","no","legacy","legacy","legacy","0","uniform","1","undefined","undefined","undefined","1","f","0","0","0","0","70","0","0","0","70","0","66","70","66","0","66","3","70","0","70","Tue Feb 16 13:22:32 2021","The main experiment item","yes","Lexical_Decision_Task.osexp","/Users/Hannahpowell","no","Andale Mono","no","18","no","white","no","yes","576","legacy","66","66","3","/Users/Hannahpowell/subject-5209341.csv","legacy","Lentiform Loewenfeld","3.3.7","yes","yes","600bd7cfb6416f0113b04181","602110864497cf011d9c0822","0","f","NA","space","space","space","space","f","617","NA","4596","16554","9645","5109","617","2","legacy","1024","2","48000","-16","task","5209341","odd","NA","38339","44937","40341","176137","4337","30559","20909","176640","142881","176135","176640","176086","44937","177258","36527","175585","4327","162564","Lexical Decision Task","65","54015","71","yes","1024"
"3.248054965","7.86","5","glow","word","91.66666666666667","91.66666666666667","758.5694444444445","758.5694444444445","black","no","legacy","legacy","legacy","0","uniform","1","undefined","undefined","undefined","1","j","0","0","0","0","71","0","0","0","71","0","67","71","67","0","67","3","71","0","71","Tue Feb 16 13:22:32 2021","The main experiment item","yes","Lexical_Decision_Task.osexp","/Users/Hannahpowell","no","Andale Mono","no","18","no","white","no","yes","576","legacy","67","67","3","/Users/Hannahpowell/subject-5209341.csv","legacy","Lentiform Loewenfeld","3.3.7","yes","yes","600bd7cfb6416f0113b04181","602110864497cf011d9c0822","0","j","NA","space","space","space","space","j","602","NA","4596","16554","9645","5109","602","2","legacy","1024","2","48000","-16","task","5209341","odd","NA","38339","44937","40341","177817","4337","30559","20909","178319","142881","177814","178319","177763","44937","178922","36527","177263","4327","162564","Lexical Decision Task","66","54617","72","yes","1024"
"2.980911938","7.15","7","hoop","word","91.78082191780823","91.78082191780823","755.2602739726027","755.2602739726027","black","no","legacy","legacy","legacy","0","uniform","1","undefined","undefined","undefined","1","j","0","0","0","0","72","0","0","0","72","0","68","72","68","0","68","3","72","0","72","Tue Feb 16 13:22:32 2021","The main experiment item","yes","Lexical_Decision_Task.osexp","/Users/Hannahpowell","no","Andale Mono","no","18","no","white","no","yes","576","legacy","68","68","3","/Users/Hannahpowell/subject-5209341.csv","legacy","Lentiform Loewenfeld","3.3.7","yes","yes","600bd7cfb6416f0113b04181","602110864497cf011d9c0822","0","j","NA","space","space","space","space","j","517","NA","4596","16554","9645","5109","517","2","legacy","1024","2","48000","-16","task","5209341","odd","NA","38339","44937","40341","179480","4337","30559","20909","179982","142881","179477","179982","179427","44937","180501","36527","178926","4327","162564","Lexical Decision Task","67","55134","73","yes","1024"
"2.705007959","6.01","4","wept","word","90.54054054054055","90.54054054054055","754.0405405405405","754.0405405405405","black","no","legacy","legacy","legacy","0","uniform","0","undefined","undefined","undefined","0","j","0","0","0","0","73","0","0","0","73","0","69","73","69","0","69","3","73","0","73","Tue Feb 16 13:22:32 2021","The main experiment item","yes","Lexical_Decision_Task.osexp","/Users/Hannahpowell","no","Andale Mono","no","18","no","white","no","yes","576","legacy","69","69","3","/Users/Hannahpowell/subject-5209341.csv","legacy","Lentiform Loewenfeld","3.3.7","yes","yes","600bd7cfb6416f0113b04181","602110864497cf011d9c0822","0","f","NA","space","space","space","space","f","665","NA","4596","16554","9645","5109","665","2","legacy","1024","2","48000","-16","task","5209341","odd","NA","38339","44937","40341","181061","4337","30559","20909","181564","142881","181059","181565","181008","44937","182232","36527","180507","4327","162564","Lexical Decision Task","67","55799","74","yes","1024"
"3.382617311","0","4","pret","non-word","90.66666666666667","90.66666666666667","753.1333333333333","753.1333333333333","black","no","legacy","legacy","legacy","0","uniform","1","undefined","undefined","undefined","1","f","0","0","0","0","74","0","0","0","74","0","70","74","70","0","70","3","74","0","74","Tue Feb 16 13:22:32 2021","The main experiment item","yes","Lexical_Decision_Task.osexp","/Users/Hannahpowell","no","Andale Mono","no","18","no","white","no","yes","576","legacy","70","70","3","/Users/Hannahpowell/subject-5209341.csv","legacy","Lentiform Loewenfeld","3.3.7","yes","yes","600bd7cfb6416f0113b04181","602110864497cf011d9c0822","0","f","NA","space","space","space","space","f","686","NA","4596","16554","9645","5109","686","2","legacy","1024","2","48000","-16","task","5209341","odd","NA","38339","44937","40341","183791","4337","30559","20909","184293","142881","183788","184293","183738","44937","184980","36527","180507","4327","182237","Lexical Decision Task","68","56485","75","yes","1024"
"3.081107167","0","6","chot","non-word","90.78947368421052","90.78947368421052","751.2631578947369","751.2631578947369","black","no","legacy","legacy","legacy","0","uniform","1","undefined","undefined","undefined","1","f","0","0","0","0","75","0","0","0","75","0","71","75","71","0","71","3","75","0","75","Tue Feb 16 13:22:32 2021","The main experiment item","yes","Lexical_Decision_Task.osexp","/Users/Hannahpowell","no","Andale Mono","no","18","no","white","no","yes","576","legacy","71","71","3","/Users/Hannahpowell/subject-5209341.csv","legacy","Lentiform Loewenfeld","3.3.7","yes","yes","600bd7cfb6416f0113b04181","602110864497cf011d9c0822","0","f","NA","space","space","space","space","f","611","NA","4596","16554","9645","5109","611","2","legacy","1024","2","48000","-16","task","5209341","odd","NA","38339","44937","40341","185541","4337","30559","20909","186043","142881","185538","186043","185486","44937","186655","36527","184985","4327","182237","Lexical Decision Task","69","57096","76","yes","1024"
"3.168400243","9.12","6","horn","word","90.9090909090909","90.9090909090909","751.5454545454545","751.5454545454545","black","no","legacy","legacy","legacy","0","uniform","1","undefined","undefined","undefined","1","j","0","0","0","0","76","0","0","0","76","0","72","76","72","0","72","3","76","0","76","Tue Feb 16 13:22:32 2021","The main experiment item","yes","Lexical_Decision_Task.osexp","/Users/Hannahpowell","no","Andale Mono","no","18","no","white","no","yes","576","legacy","72","72","3","/Users/Hannahpowell/subject-5209341.csv","legacy","Lentiform Loewenfeld","3.3.7","yes","yes","600bd7cfb6416f0113b04181","602110864497cf011d9c0822","0","j","NA","space","space","space","space","j","773","NA","4596","16554","9645","5109","773","2","legacy","1024","2","48000","-16","task","5209341","odd","NA","38339","44937","40341","187210","4337","30559","20909","187713","142881","187207","187714","187159","44937","188489","36527","186659","4327","182237","Lexical Decision Task","70","57869","77","yes","1024"
"3.374198258","0","8","vist","non-word","91.02564102564102","91.02564102564102","755.3717948717949","755.3717948717949","black","no","legacy","legacy","legacy","0","uniform","1","undefined","undefined","undefined","1","f","0","0","0","0","77","0","0","0","77","0","73","77","73","0","73","3","77","0","77","Tue Feb 16 13:22:32 2021","The main experiment item","yes","Lexical_Decision_Task.osexp","/Users/Hannahpowell","no","Andale Mono","no","18","no","white","no","yes","576","legacy","73","73","3","/Users/Hannahpowell/subject-5209341.csv","legacy","Lentiform Loewenfeld","3.3.7","yes","yes","600bd7cfb6416f0113b04181","602110864497cf011d9c0822","0","f","NA","space","space","space","space","f","1050","NA","4596","16554","9645","5109","1050","2","legacy","1024","2","48000","-16","task","5209341","odd","NA","38339","44937","40341","189046","4337","30559","20909","189548","142881","189043","189548","188994","44937","190601","36527","188493","4327","182237","Lexical Decision Task","71","58919","78","yes","1024"
"3.29439347","8.6","9","wand","word","91.13924050632912","91.13924050632912","754.0253164556962","754.0253164556962","black","no","legacy","legacy","legacy","0","uniform","1","undefined","undefined","undefined","1","j","0","0","0","0","78","0","0","0","78","0","74","78","74","0","74","3","78","0","78","Tue Feb 16 13:22:32 2021","The main experiment item","yes","Lexical_Decision_Task.osexp","/Users/Hannahpowell","no","Andale Mono","no","18","no","white","no","yes","576","legacy","74","74","3","/Users/Hannahpowell/subject-5209341.csv","legacy","Lentiform Loewenfeld","3.3.7","yes","yes","600bd7cfb6416f0113b04181","602110864497cf011d9c0822","0","j","NA","space","space","space","space","j","649","NA","4596","16554","9645","5109","649","2","legacy","1024","2","48000","-16","task","5209341","odd","NA","38339","44937","40341","191159","4337","30559","20909","191662","142881","191157","191662","191106","44937","192313","36527","190606","4327","182237","Lexical Decision Task","72","59568","79","yes","1024"
"3.105055783","0","2","norp","non-word","91.25","91.25","750.2125","750.2125","black","no","legacy","legacy","legacy","0","uniform","1","undefined","undefined","undefined","1","f","0","0","0","0","79","0","0","0","79","0","75","79","75","0","75","3","79","0","79","Tue Feb 16 13:22:32 2021","The main experiment item","yes","Lexical_Decision_Task.osexp","/Users/Hannahpowell","no","Andale Mono","no","18","no","white","no","yes","576","legacy","75","75","3","/Users/Hannahpowell/subject-5209341.csv","legacy","Lentiform Loewenfeld","3.3.7","yes","yes","600bd7cfb6416f0113b04181","602110864497cf011d9c0822","0","f","NA","space","space","space","space","f","449","NA","4596","16554","9645","5109","449","2","legacy","1024","2","48000","-16","task","5209341","odd","NA","38339","44937","40341","192881","4337","30559","20909","193383","142881","192878","193383","192818","44937","193833","36527","192318","4327","182237","Lexical Decision Task","73","60017","80","yes","1024"
"3.159867847","5.98","5","brim","word","91.35802469135803","91.35802469135803","748.8395061728395","748.8395061728395","black","no","legacy","legacy","legacy","0","uniform","1","undefined","undefined","undefined","1","j","0","0","0","0","80","0","0","0","80","0","76","80","76","0","76","3","80","0","80","Tue Feb 16 13:22:32 2021","The main experiment item","yes","Lexical_Decision_Task.osexp","/Users/Hannahpowell","no","Andale Mono","no","18","no","white","no","yes","576","legacy","76","76","3","/Users/Hannahpowell/subject-5209341.csv","legacy","Lentiform Loewenfeld","3.3.7","yes","yes","600bd7cfb6416f0113b04181","602110864497cf011d9c0822","0","j","NA","space","space","space","space","j","639","NA","4596","16554","9645","5109","639","2","legacy","1024","2","48000","-16","task","5209341","odd","NA","38339","44937","40341","194391","4337","30559","20909","194895","142881","194389","194895","194338","44937","195535","36527","193838","4327","182237","Lexical Decision Task","74","60656","81","yes","1024"
"2.719886232","7.98","2","quiz","word","91.46341463414635","91.46341463414635","747.0487804878048","747.0487804878048","black","no","legacy","legacy","legacy","0","uniform","1","undefined","undefined","undefined","1","j","0","0","0","0","81","0","0","0","81","0","77","81","77","0","77","3","81","0","81","Tue Feb 16 13:22:32 2021","The main experiment item","yes","Lexical_Decision_Task.osexp","/Users/Hannahpowell","no","Andale Mono","no","18","no","white","no","yes","576","legacy","77","77","3","/Users/Hannahpowell/subject-5209341.csv","legacy","Lentiform Loewenfeld","3.3.7","yes","yes","600bd7cfb6416f0113b04181","602110864497cf011d9c0822","0","j","NA","space","space","space","space","j","602","NA","4596","16554","9645","5109","602","2","legacy","1024","2","48000","-16","task","5209341","odd","NA","38339","44937","40341","196093","4337","30559","20909","196596","142881","196091","196596","196040","44937","197199","36527","195540","4327","182237","Lexical Decision Task","75","61258","82","yes","1024"
"2.858136002","0","4","phip","non-word","91.56626506024097","91.56626506024097","744.8674698795181","744.8674698795181","black","no","legacy","legacy","legacy","0","uniform","1","undefined","undefined","undefined","1","f","0","0","0","0","82","0","0","0","82","0","78","82","78","0","78","3","82","0","82","Tue Feb 16 13:22:32 2021","The main experiment item","yes","Lexical_Decision_Task.osexp","/Users/Hannahpowell","no","Andale Mono","no","18","no","white","no","yes","576","legacy","78","78","3","/Users/Hannahpowell/subject-5209341.csv","legacy","Lentiform Loewenfeld","3.3.7","yes","yes","600bd7cfb6416f0113b04181","602110864497cf011d9c0822","0","f","NA","space","space","space","space","f","566","NA","4596","16554","9645","5109","566","2","legacy","1024","2","48000","-16","task","5209341","odd","NA","38339","44937","40341","197755","4337","30559","20909","198258","142881","197753","198258","197704","44937","198825","36527","197204","4327","182237","Lexical Decision Task","76","61824","83","yes","1024"
"2.703007489","8.37","3","pulp","word","91.66666666666667","91.66666666666667","742.202380952381","742.202380952381","black","no","legacy","legacy","legacy","0","uniform","1","undefined","undefined","undefined","1","j","0","0","0","0","83","0","0","0","83","0","79","83","79","0","79","3","83","0","83","Tue Feb 16 13:22:32 2021","The main experiment item","yes","Lexical_Decision_Task.osexp","/Users/Hannahpowell","no","Andale Mono","no","18","no","white","no","yes","576","legacy","79","79","3","/Users/Hannahpowell/subject-5209341.csv","legacy","Lentiform Loewenfeld","3.3.7","yes","yes","600bd7cfb6416f0113b04181","602110864497cf011d9c0822","0","j","NA","space","space","space","space","j","521","NA","4596","16554","9645","5109","521","2","legacy","1024","2","48000","-16","task","5209341","odd","NA","38339","44937","40341","199382","4337","30559","20909","199885","142881","199379","199885","199330","44937","200407","36527","198830","4327","182237","Lexical Decision Task","77","62345","84","yes","1024"
"3.064581521","5.51","6","cask","word","91.76470588235294","91.76470588235294","742.5294117647059","742.5294117647059","black","no","legacy","legacy","legacy","0","uniform","1","undefined","undefined","undefined","1","j","0","0","0","0","84","0","0","0","84","0","80","84","80","0","80","3","84","0","84","Tue Feb 16 13:22:32 2021","The main experiment item","yes","Lexical_Decision_Task.osexp","/Users/Hannahpowell","no","Andale Mono","no","18","no","white","no","yes","576","legacy","80","80","3","/Users/Hannahpowell/subject-5209341.csv","legacy","Lentiform Loewenfeld","3.3.7","yes","yes","600bd7cfb6416f0113b04181","602110864497cf011d9c0822","0","j","NA","space","space","space","space","j","770","NA","4596","16554","9645","5109","770","2","legacy","1024","2","48000","-16","task","5209341","odd","NA","38339","44937","40341","200964","4337","30559","20909","201468","142881","200962","201468","200912","44937","202239","36527","200411","4327","182237","Lexical Decision Task","78","63115","85","yes","1024"
"2.6599162","0","6","flug","non-word","90.69767441860465","90.69767441860465","740.0348837209302","740.0348837209302","black","no","legacy","legacy","legacy","0","uniform","0","undefined","undefined","undefined","0","f","0","0","0","0","85","0","0","0","85","0","81","85","81","0","81","3","85","0","85","Tue Feb 16 13:22:32 2021","The main experiment item","yes","Lexical_Decision_Task.osexp","/Users/Hannahpowell","no","Andale Mono","no","18","no","white","no","yes","576","legacy","81","81","3","/Users/Hannahpowell/subject-5209341.csv","legacy","Lentiform Loewenfeld","3.3.7","yes","yes","600bd7cfb6416f0113b04181","602110864497cf011d9c0822","0","j","NA","space","space","space","space","j","528","NA","4596","16554","9645","5109","528","2","legacy","1024","2","48000","-16","task","5209341","odd","NA","38339","44937","40341","202795","4337","30559","20909","203298","142881","202793","203299","202743","44937","203829","36527","202243","4327","182237","Lexical Decision Task","78","63643","86","yes","1024"
"3.049218023","7.4","9","robe","word","90.80459770114942","90.80459770114942","741.6781609195402","741.6781609195402","black","no","legacy","legacy","legacy","0","uniform","1","undefined","undefined","undefined","1","j","0","0","0","0","86","0","0","0","86","0","82","86","82","0","82","3","86","0","86","Tue Feb 16 13:22:32 2021","The main experiment item","yes","Lexical_Decision_Task.osexp","/Users/Hannahpowell","no","Andale Mono","no","18","no","white","no","yes","576","legacy","82","82","3","/Users/Hannahpowell/subject-5209341.csv","legacy","Lentiform Loewenfeld","3.3.7","yes","yes","600bd7cfb6416f0113b04181","602110864497cf011d9c0822","0","j","NA","space","space","space","space","j","883","NA","4596","16554","9645","5109","883","2","legacy","1024","2","48000","-16","task","5209341","odd","NA","38339","44937","40341","205399","4337","30559","20909","205901","142881","205396","205902","205335","44937","206787","36527","202243","4327","203835","Lexical Decision Task","79","64526","87","yes","1024"
"2.898725182","0","7","turl","non-word","90.9090909090909","90.9090909090909","739.6022727272727","739.6022727272727","black","no","legacy","legacy","legacy","0","uniform","1","undefined","undefined","undefined","1","f","0","0","0","0","87","0","0","0","87","0","83","87","83","0","83","3","87","0","87","Tue Feb 16 13:22:32 2021","The main experiment item","yes","Lexical_Decision_Task.osexp","/Users/Hannahpowell","no","Andale Mono","no","18","no","white","no","yes","576","legacy","83","83","3","/Users/Hannahpowell/subject-5209341.csv","legacy","Lentiform Loewenfeld","3.3.7","yes","yes","600bd7cfb6416f0113b04181","602110864497cf011d9c0822","0","f","NA","space","space","space","space","f","559","NA","4596","16554","9645","5109","559","2","legacy","1024","2","48000","-16","task","5209341","odd","NA","38339","44937","40341","207345","4337","30559","20909","207848","142881","207343","207848","207292","44937","208409","36527","206791","4327","203835","Lexical Decision Task","80","65085","88","yes","1024"
"3.531734309","0","6","lerd","non-word","91.01123595505618","91.01123595505618","737.7528089887641","737.7528089887641","black","no","legacy","legacy","legacy","0","uniform","1","undefined","undefined","undefined","1","f","0","0","0","0","88","0","0","0","88","0","84","88","84","0","84","3","88","0","88","Tue Feb 16 13:22:32 2021","The main experiment item","yes","Lexical_Decision_Task.osexp","/Users/Hannahpowell","no","Andale Mono","no","18","no","white","no","yes","576","legacy","84","84","3","/Users/Hannahpowell/subject-5209341.csv","legacy","Lentiform Loewenfeld","3.3.7","yes","yes","600bd7cfb6416f0113b04181","602110864497cf011d9c0822","0","f","NA","space","space","space","space","f","575","NA","4596","16554","9645","5109","575","2","legacy","1024","2","48000","-16","task","5209341","odd","NA","38339","44937","40341","208969","4337","30559","20909","209472","142881","208966","209473","208914","44937","210049","36527","208414","4327","203835","Lexical Decision Task","81","65660","89","yes","1024"
"2.675164031","8.57","6","glue","word","91.11111111111111","91.11111111111111","735.8444444444444","735.8444444444444","black","no","legacy","legacy","legacy","0","uniform","1","undefined","undefined","undefined","1","j","0","0","0","0","89","0","0","0","89","0","85","89","85","0","85","3","89","0","89","Tue Feb 16 13:22:32 2021","The main experiment item","yes","Lexical_Decision_Task.osexp","/Users/Hannahpowell","no","Andale Mono","no","18","no","white","no","yes","576","legacy","85","85","3","/Users/Hannahpowell/subject-5209341.csv","legacy","Lentiform Loewenfeld","3.3.7","yes","yes","600bd7cfb6416f0113b04181","602110864497cf011d9c0822","0","j","NA","space","space","space","space","j","566","NA","4596","16554","9645","5109","566","2","legacy","1024","2","48000","-16","task","5209341","odd","NA","38339","44937","40341","210605","4337","30559","20909","211108","142881","210603","211108","210554","44937","211675","36527","210054","4327","203835","Lexical Decision Task","82","66226","90","yes","1024"
"2.952953801","0","8","clax","non-word","91.20879120879121","91.20879120879121","733.8461538461538","733.8461538461538","black","no","legacy","legacy","legacy","0","uniform","1","undefined","undefined","undefined","1","f","0","0","0","0","90","0","0","0","90","0","86","90","86","0","86","3","90","0","90","Tue Feb 16 13:22:32 2021","The main experiment item","yes","Lexical_Decision_Task.osexp","/Users/Hannahpowell","no","Andale Mono","no","18","no","white","no","yes","576","legacy","86","86","3","/Users/Hannahpowell/subject-5209341.csv","legacy","Lentiform Loewenfeld","3.3.7","yes","yes","600bd7cfb6416f0113b04181","602110864497cf011d9c0822","0","f","NA","space","space","space","space","f","554","NA","4596","16554","9645","5109","554","2","legacy","1024","2","48000","-16","task","5209341","odd","NA","38339","44937","40341","212232","4337","30559","20909","212734","142881","212230","212734","212180","44937","213289","36527","211679","4327","203835","Lexical Decision Task","83","66780","91","yes","1024"
"3.276537627","9.15","5","trap","word","91.30434782608695","91.30434782608695","733.2826086956521","733.2826086956521","black","no","legacy","legacy","legacy","0","uniform","1","undefined","undefined","undefined","1","j","0","0","0","0","91","0","0","0","91","0","87","91","87","0","87","3","91","0","91","Tue Feb 16 13:22:32 2021","The main experiment item","yes","Lexical_Decision_Task.osexp","/Users/Hannahpowell","no","Andale Mono","no","18","no","white","no","yes","576","legacy","87","87","3","/Users/Hannahpowell/subject-5209341.csv","legacy","Lentiform Loewenfeld","3.3.7","yes","yes","600bd7cfb6416f0113b04181","602110864497cf011d9c0822","0","j","NA","space","space","space","space","j","682","NA","4596","16554","9645","5109","682","2","legacy","1024","2","48000","-16","task","5209341","odd","NA","38339","44937","40341","213847","4337","30559","20909","214349","142881","213844","214350","213794","44937","215033","36527","213294","4327","203835","Lexical Decision Task","84","67462","92","yes","1024"
"3.302475237","0","7","leel","non-word","91.39784946236558","91.39784946236558","732.5698924731183","732.5698924731183","black","no","legacy","legacy","legacy","0","uniform","1","undefined","undefined","undefined","1","f","0","0","0","0","92","0","0","0","92","0","88","92","88","0","88","3","92","0","92","Tue Feb 16 13:22:32 2021","The main experiment item","yes","Lexical_Decision_Task.osexp","/Users/Hannahpowell","no","Andale Mono","no","18","no","white","no","yes","576","legacy","88","88","3","/Users/Hannahpowell/subject-5209341.csv","legacy","Lentiform Loewenfeld","3.3.7","yes","yes","600bd7cfb6416f0113b04181","602110864497cf011d9c0822","0","f","NA","space","space","space","space","f","667","NA","4596","16554","9645","5109","667","2","legacy","1024","2","48000","-16","task","5209341","odd","NA","38339","44937","40341","215589","4337","30559","20909","216092","142881","215586","216093","215538","44937","216761","36527","215037","4327","203835","Lexical Decision Task","85","68129","93","yes","1024"
"3.153001286","8.7","5","palm","word","91.48936170212765","91.48936170212765","730.6808510638298","730.6808510638298","black","no","legacy","legacy","legacy","0","uniform","1","undefined","undefined","undefined","1","j","0","0","0","0","93","0","0","0","93","0","89","93","89","0","89","3","93","0","93","Tue Feb 16 13:22:32 2021","The main experiment item","yes","Lexical_Decision_Task.osexp","/Users/Hannahpowell","no","Andale Mono","no","18","no","white","no","yes","576","legacy","89","89","3","/Users/Hannahpowell/subject-5209341.csv","legacy","Lentiform Loewenfeld","3.3.7","yes","yes","600bd7cfb6416f0113b04181","602110864497cf011d9c0822","0","j","NA","space","space","space","space","j","555","NA","4596","16554","9645","5109","555","2","legacy","1024","2","48000","-16","task","5209341","odd","NA","38339","44937","40341","217321","4337","30559","20909","217824","142881","217318","217824","217266","44937","218380","36527","216766","4327","203835","Lexical Decision Task","86","68684","94","yes","1024"
"2.698387659","6.66","7","skid","word","90.52631578947368","90.52631578947368","728.578947368421","728.578947368421","black","no","legacy","legacy","legacy","0","uniform","0","undefined","undefined","undefined","0","j","0","0","0","0","94","0","0","0","94","0","90","94","90","0","90","3","94","0","94","Tue Feb 16 13:22:32 2021","The main experiment item","yes","Lexical_Decision_Task.osexp","/Users/Hannahpowell","no","Andale Mono","no","18","no","white","no","yes","576","legacy","90","90","3","/Users/Hannahpowell/subject-5209341.csv","legacy","Lentiform Loewenfeld","3.3.7","yes","yes","600bd7cfb6416f0113b04181","602110864497cf011d9c0822","0","f","NA","space","space","space","space","f","531","NA","4596","16554","9645","5109","531","2","legacy","1024","2","48000","-16","task","5209341","odd","NA","38339","44937","40341","218938","4337","30559","20909","219440","142881","218935","219440","218885","44937","219973","36527","218384","4327","203835","Lexical Decision Task","86","69215","95","yes","1024"
"3.028977705","0","7","frow","non-word","90.625","90.625","729.2916666666666","729.2916666666666","black","no","legacy","legacy","legacy","0","uniform","1","undefined","undefined","undefined","1","f","0","0","0","0","95","0","0","0","95","0","91","95","91","0","91","3","95","0","95","Tue Feb 16 13:22:32 2021","The main experiment item","yes","Lexical_Decision_Task.osexp","/Users/Hannahpowell","no","Andale Mono","no","18","no","white","no","yes","576","legacy","91","91","3","/Users/Hannahpowell/subject-5209341.csv","legacy","Lentiform Loewenfeld","3.3.7","yes","yes","600bd7cfb6416f0113b04181","602110864497cf011d9c0822","0","f","NA","space","space","space","space","f","797","NA","4596","16554","9645","5109","797","2","legacy","1024","2","48000","-16","task","5209341","odd","NA","38339","44937","40341","221532","4337","30559","20909","222035","142881","221530","222035","221478","44937","222833","36527","218384","4327","219978","Lexical Decision Task","87","70012","96","yes","1024"
"2.778633532","0","3","jurp","non-word","90.72164948453609","90.72164948453609","726.5051546391752","726.5051546391752","black","no","legacy","legacy","legacy","0","uniform","1","undefined","undefined","undefined","1","f","0","0","0","0","96","0","0","0","96","0","92","96","92","0","92","3","96","0","96","Tue Feb 16 13:22:32 2021","The main experiment item","yes","Lexical_Decision_Task.osexp","/Users/Hannahpowell","no","Andale Mono","no","18","no","white","no","yes","576","legacy","92","92","3","/Users/Hannahpowell/subject-5209341.csv","legacy","Lentiform Loewenfeld","3.3.7","yes","yes","600bd7cfb6416f0113b04181","602110864497cf011d9c0822","0","f","NA","space","space","space","space","f","459","NA","4596","16554","9645","5109","459","2","legacy","1024","2","48000","-16","task","5209341","odd","NA","38339","44937","40341","223392","4337","30559","20909","223894","142881","223389","223894","223337","44937","224355","36527","222837","4327","219978","Lexical Decision Task","88","70471","97","yes","1024"
"2.981215883","10.66","5","hair","word","90.81632653061224","90.81632653061224","724.6020408163265","724.6020408163265","black","no","legacy","legacy","legacy","0","uniform","1","undefined","undefined","undefined","1","j","0","0","0","0","97","0","0","0","97","0","93","97","93","0","93","3","97","0","97","Tue Feb 16 13:22:32 2021","The main experiment item","yes","Lexical_Decision_Task.osexp","/Users/Hannahpowell","no","Andale Mono","no","18","no","white","no","yes","576","legacy","93","93","3","/Users/Hannahpowell/subject-5209341.csv","legacy","Lentiform Loewenfeld","3.3.7","yes","yes","600bd7cfb6416f0113b04181","602110864497cf011d9c0822","0","j","NA","space","space","space","space","j","540","NA","4596","16554","9645","5109","540","2","legacy","1024","2","48000","-16","task","5209341","odd","NA","38339","44937","40341","224916","4337","30559","20909","225419","142881","224914","225419","224860","44937","225960","36527","224359","4327","219978","Lexical Decision Task","89","71011","98","yes","1024"
"3.20871002","7.15","8","cram","word","90.9090909090909","90.9090909090909","724.7474747474747","724.7474747474747","black","no","legacy","legacy","legacy","0","uniform","1","undefined","undefined","undefined","1","j","0","0","0","0","98","0","0","0","98","0","94","98","94","0","94","3","98","0","98","Tue Feb 16 13:22:32 2021","The main experiment item","yes","Lexical_Decision_Task.osexp","/Users/Hannahpowell","no","Andale Mono","no","18","no","white","no","yes","576","legacy","94","94","3","/Users/Hannahpowell/subject-5209341.csv","legacy","Lentiform Loewenfeld","3.3.7","yes","yes","600bd7cfb6416f0113b04181","602110864497cf011d9c0822","0","j","NA","space","space","space","space","j","739","NA","4596","16554","9645","5109","739","2","legacy","1024","2","48000","-16","task","5209341","odd","NA","38339","44937","40341","226518","4337","30559","20909","227020","142881","226516","227020","226465","44937","227760","36527","225965","4327","219978","Lexical Decision Task","90","71750","99","yes","1024"
"3.218535505","7.85","7","goat","word","91","91","724.33","724.33","black","no","legacy","legacy","legacy","0","uniform","1","undefined","undefined","undefined","1","j","0","0","0","0","99","0","0","0","99","0","95","99","95","0","95","3","99","0","99","Tue Feb 16 13:22:32 2021","The main experiment item","yes","Lexical_Decision_Task.osexp","/Users/Hannahpowell","no","Andale Mono","no","18","no","white","no","yes","576","legacy","95","95","3","/Users/Hannahpowell/subject-5209341.csv","legacy","Lentiform Loewenfeld","3.3.7","yes","yes","600bd7cfb6416f0113b04181","602110864497cf011d9c0822","0","j","NA","space","space","space","space","j","683","NA","4596","16554","9645","5109","683","2","legacy","1024","2","48000","-16","task","5209341","odd","NA","38339","44937","40341","228318","4337","30559","20909","228820","142881","228316","228820","228265","44937","229504","36527","227765","4327","219978","Lexical Decision Task","91","72433","100","yes","1024"
"3.208172527","10.27","7","deck","word","91.08910891089108","91.08910891089108","724.7821782178218","724.7821782178218","black","no","legacy","legacy","legacy","0","uniform","1","undefined","undefined","undefined","1","j","0","0","0","0","100","0","0","0","100","0","96","100","96","0","96","3","100","0","100","Tue Feb 16 13:22:32 2021","The main experiment item","yes","Lexical_Decision_Task.osexp","/Users/Hannahpowell","no","Andale Mono","no","18","no","white","no","yes","576","legacy","96","96","3","/Users/Hannahpowell/subject-5209341.csv","legacy","Lentiform Loewenfeld","3.3.7","yes","yes","600bd7cfb6416f0113b04181","602110864497cf011d9c0822","0","j","NA","space","space","space","space","j","770","NA","4596","16554","9645","5109","770","2","legacy","1024","2","48000","-16","task","5209341","odd","NA","38339","44937","40341","230061","4337","30559","20909","230564","142881","230058","230564","230009","44937","231336","36527","229509","4327","219978","Lexical Decision Task","92","73203","101","yes","1024"
"2.983324025","9.56","2","debt","word","91.17647058823529","91.17647058823529","733.2058823529412","733.2058823529412","black","no","legacy","legacy","legacy","0","uniform","1","undefined","undefined","undefined","1","j","0","0","0","0","101","0","0","0","101","0","97","101","97","0","97","3","101","0","101","Tue Feb 16 13:22:32 2021","The main experiment item","yes","Lexical_Decision_Task.osexp","/Users/Hannahpowell","no","Andale Mono","no","18","no","white","no","yes","576","legacy","97","97","3","/Users/Hannahpowell/subject-5209341.csv","legacy","Lentiform Loewenfeld","3.3.7","yes","yes","600bd7cfb6416f0113b04181","602110864497cf011d9c0822","0","j","NA","space","space","space","space","j","1584","NA","4596","16554","9645","5109","1584","2","legacy","1024","2","48000","-16","task","5209341","odd","NA","38339","44937","40341","231903","4337","30559","20909","232405","142881","231900","232405","231840","44937","233991","36527","231339","4327","219978","Lexical Decision Task","93","74787","102","yes","1024"
