"Log_BG","Log_Freq_HAL","Ortho_N","Stimulus","Type","acc","accuracy","average_response_time","avg_rt","background","bidi","canvas_backend","clock_backend","color_backend","compensation","coordinates","correct","correct_Experimental_intro","correct_Introduction","correct_Practice_intro","correct_experimenter_kb","correct_response","count_End_Of_Experiment","count_End_Of_Practice","count_Experimental_Loop","count_Experimental_intro","count_Fixation","count_Introduction","count_Practice_Loop","count_Practice_intro","count_Stimulus","count_block_break_feedback","count_experimental_sequence","count_experimenter_kb","count_increment_trial_count","count_init_trial_count","count_logger","count_practice_sequence","count_right","count_task","count_wrong","datetime","description","disable_garbage_collection","experiment_file","experiment_path","font_bold","font_family","font_italic","font_size","font_underline","foreground","form_clicks","fullscreen","height","keyboard_backend","live_row","live_row_Experimental_Loop","live_row_Practice_Loop","logfile","mouse_backend","opensesame_codename","opensesame_version","osf_always_upload_data","osf_always_upload_experiment","osf_datanode_id","osf_id","repeat_cycle","response","response_End_Of_Experiment","response_Experimental_intro","response_Introduction","response_Practice_intro","response_block_break_feedback","response_experimenter_kb","response_time","response_time_End_Of_Experiment","response_time_Experimental_intro","response_time_Introduction","response_time_Practice_intro","response_time_block_break_feedback","response_time_experimenter_kb","round_decimals","sampler_backend","sound_buf_size","sound_channels","sound_freq","sound_sample_size","start","subject_nr","subject_parity","time_End_Of_Experiment","time_End_Of_Practice","time_Experimental_Loop","time_Experimental_intro","time_Fixation","time_Introduction","time_Practice_Loop","time_Practice_intro","time_Stimulus","time_block_break_feedback","time_experimental_sequence","time_experimenter_kb","time_increment_trial_count","time_init_trial_count","time_logger","time_practice_sequence","time_right","time_task","time_wrong","title","total_correct","total_response_time","total_responses","uniform_coordinates","width"
"3.276537627","9.15","5","trap","word","100","100","1131","1131","black","no","legacy","legacy","legacy","0","uniform","1","undefined","undefined","undefined","1","j","0","0","0","0","4","0","0","0","4","NA","0","4","0","0","0","3","4","0","4","Fri Feb 19 11:51:55 2021","The main experiment item","yes","Lexical_Decision_Task.osexp","/Users/student","no","Andale Mono","no","18","no","white","no","yes","576","legacy","0","0","3","/Users/student/Documents/subject-5226324.csv","legacy","Lentiform Loewenfeld","3.3.8","yes","yes","600bd7cfb6416f0113b04181","602110864497cf011d9c0822","0","j","NA","space","space","space","NA","j","628","NA","3765","89","20128","NA","628","2","legacy","1024","2","48000","-16","task","5226324","even","NA","43419","49189","45423","49227","13403","33661","13524","49729","NA","49224","49729","NA","49189","50358","41695","42888","13326","NA","Lexical Decision Task","5","5655","5","yes","1024"
"2.819763221","0","2","durp","non-word","100","100","1040.6666666666667","1040.6666666666667","black","no","legacy","legacy","legacy","0","uniform","1","undefined","undefined","undefined","1","f","0","0","0","0","5","0","0","0","5","NA","1","5","1","0","1","3","5","0","5","Fri Feb 19 11:51:55 2021","The main experiment item","yes","Lexical_Decision_Task.osexp","/Users/student","no","Andale Mono","no","18","no","white","no","yes","576","legacy","1","1","3","/Users/student/Documents/subject-5226324.csv","legacy","Lentiform Loewenfeld","3.3.8","yes","yes","600bd7cfb6416f0113b04181","602110864497cf011d9c0822","0","f","NA","space","space","space","NA","f","589","NA","3765","89","20128","NA","589","2","legacy","1024","2","48000","-16","task","5226324","even","NA","43419","49189","45423","50936","13403","33661","13524","51438","NA","50933","51438","50869","49189","52028","41695","50369","13326","NA","Lexical Decision Task","6","6244","6","yes","1024"
"3.067193647","6.73","6","raft","word","100","100","1002.1428571428571","1002.1428571428571","black","no","legacy","legacy","legacy","0","uniform","1","undefined","undefined","undefined","1","j","0","0","0","0","6","0","0","0","6","NA","2","6","2","0","2","3","6","0","6","Fri Feb 19 11:51:55 2021","The main experiment item","yes","Lexical_Decision_Task.osexp","/Users/student","no","Andale Mono","no","18","no","white","no","yes","576","legacy","2","2","3","/Users/student/Documents/subject-5226324.csv","legacy","Lentiform Loewenfeld","3.3.8","yes","yes","600bd7cfb6416f0113b04181","602110864497cf011d9c0822","0","j","NA","space","space","space","NA","j","771","NA","3765","89","20128","NA","771","2","legacy","1024","2","48000","-16","task","5226324","even","NA","43419","49189","45423","52615","13403","33661","13524","53117","NA","52612","53118","52552","49189","53890","41695","52052","13326","NA","Lexical Decision Task","7","7015","7","yes","1024"
"2.812467698","0","7","hafe","non-word","100","100","982.25","982.25","black","no","legacy","legacy","legacy","0","uniform","1","undefined","undefined","undefined","1","f","0","0","0","0","7","0","0","0","7","NA","3","7","3","0","3","3","7","0","7","Fri Feb 19 11:51:55 2021","The main experiment item","yes","Lexical_Decision_Task.osexp","/Users/student","no","Andale Mono","no","18","no","white","no","yes","576","legacy","3","3","3","/Users/student/Documents/subject-5226324.csv","legacy","Lentiform Loewenfeld","3.3.8","yes","yes","600bd7cfb6416f0113b04181","602110864497cf011d9c0822","0","f","NA","space","space","space","NA","f","843","NA","3765","89","20128","NA","843","2","legacy","1024","2","48000","-16","task","5226324","even","NA","43419","49189","45423","54454","13403","33661","13524","54956","NA","54451","54956","54394","49189","55800","41695","53894","13326","NA","Lexical Decision Task","8","7858","8","yes","1024"
"2.899092422","7.27","6","snag","word","100","100","944.2222222222222","944.2222222222222","black","no","legacy","legacy","legacy","0","uniform","1","undefined","undefined","undefined","1","j","0","0","0","0","8","0","0","0","8","NA","4","8","4","0","4","3","8","0","8","Fri Feb 19 11:51:55 2021","The main experiment item","yes","Lexical_Decision_Task.osexp","/Users/student","no","Andale Mono","no","18","no","white","no","yes","576","legacy","4","4","3","/Users/student/Documents/subject-5226324.csv","legacy","Lentiform Loewenfeld","3.3.8","yes","yes","600bd7cfb6416f0113b04181","602110864497cf011d9c0822","0","j","NA","space","space","space","NA","j","640","NA","3765","89","20128","NA","640","2","legacy","1024","2","48000","-16","task","5226324","even","NA","43419","49189","45423","56422","13403","33661","13524","56924","NA","56418","56924","56352","49189","57565","41695","55852","13326","NA","Lexical Decision Task","9","8498","9","yes","1024"
"2.771097306","0","9","jold","non-word","100","100","954.2","954.2","black","no","legacy","legacy","legacy","0","uniform","1","undefined","undefined","undefined","1","f","0","0","0","0","9","0","0","0","9","NA","5","9","5","0","5","3","9","0","9","Fri Feb 19 11:51:55 2021","The main experiment item","yes","Lexical_Decision_Task.osexp","/Users/student","no","Andale Mono","no","18","no","white","no","yes","576","legacy","5","5","3","/Users/student/Documents/subject-5226324.csv","legacy","Lentiform Loewenfeld","3.3.8","yes","yes","600bd7cfb6416f0113b04181","602110864497cf011d9c0822","0","f","NA","space","space","space","NA","f","1044","NA","3765","89","20128","NA","1044","2","legacy","1024","2","48000","-16","task","5226324","even","NA","43419","49189","45423","58132","13403","33661","13524","58635","NA","58129","58635","58070","49189","59681","41695","57570","13326","NA","Lexical Decision Task","10","9542","10","yes","1024"
"2.803231716","5.26","3","kiln","word","100","100","927.3636363636364","927.3636363636364","black","no","legacy","legacy","legacy","0","uniform","1","undefined","undefined","undefined","1","j","0","0","0","0","10","0","0","0","10","NA","6","10","6","0","6","3","10","0","10","Fri Feb 19 11:51:55 2021","The main experiment item","yes","Lexical_Decision_Task.osexp","/Users/student","no","Andale Mono","no","18","no","white","no","yes","576","legacy","6","6","3","/Users/student/Documents/subject-5226324.csv","legacy","Lentiform Loewenfeld","3.3.8","yes","yes","600bd7cfb6416f0113b04181","602110864497cf011d9c0822","0","j","NA","space","space","space","NA","j","659","NA","3765","89","20128","NA","659","2","legacy","1024","2","48000","-16","task","5226324","even","NA","43419","49189","45423","60254","13403","33661","13524","60756","NA","60251","60756","60187","49189","61416","41695","59686","13326","NA","Lexical Decision Task","11","10201","11","yes","1024"
"3.031408464","0","7","drow","non-word","100","100","974.5","974.5","black","no","legacy","legacy","legacy","0","uniform","1","undefined","undefined","undefined","1","f","0","0","0","0","11","0","0","0","11","NA","7","11","7","0","7","3","11","0","11","Fri Feb 19 11:51:55 2021","The main experiment item","yes","Lexical_Decision_Task.osexp","/Users/student","no","Andale Mono","no","18","no","white","no","yes","576","legacy","7","7","3","/Users/student/Documents/subject-5226324.csv","legacy","Lentiform Loewenfeld","3.3.8","yes","yes","600bd7cfb6416f0113b04181","602110864497cf011d9c0822","0","f","NA","space","space","space","NA","f","1493","NA","3765","89","20128","NA","1493","2","legacy","1024","2","48000","-16","task","5226324","even","NA","43419","49189","45423","61980","13403","33661","13524","62482","NA","61977","62482","61921","49189","63977","41695","61421","13326","NA","Lexical Decision Task","12","11694","12","yes","1024"
"3.209246849","0","7","slem","non-word","100","100","955.6923076923077","955.6923076923077","black","no","legacy","legacy","legacy","0","uniform","1","undefined","undefined","undefined","1","f","0","0","0","0","12","0","0","0","12","NA","8","12","8","0","8","3","12","0","12","Fri Feb 19 11:51:55 2021","The main experiment item","yes","Lexical_Decision_Task.osexp","/Users/student","no","Andale Mono","no","18","no","white","no","yes","576","legacy","8","8","3","/Users/student/Documents/subject-5226324.csv","legacy","Lentiform Loewenfeld","3.3.8","yes","yes","600bd7cfb6416f0113b04181","602110864497cf011d9c0822","0","f","NA","space","space","space","NA","f","730","NA","3765","89","20128","NA","730","2","legacy","1024","2","48000","-16","task","5226324","even","NA","43419","49189","45423","64545","13403","33661","13524","65046","NA","64542","65047","64480","49189","65778","41695","63980","13326","NA","Lexical Decision Task","13","12424","13","yes","1024"
"3.197740804","6.74","3","ache","word","100","100","930.2142857142857","930.2142857142857","black","no","legacy","legacy","legacy","0","uniform","1","undefined","undefined","undefined","1","j","0","0","0","0","13","0","0","0","13","NA","9","13","9","0","9","3","13","0","13","Fri Feb 19 11:51:55 2021","The main experiment item","yes","Lexical_Decision_Task.osexp","/Users/student","no","Andale Mono","no","18","no","white","no","yes","576","legacy","9","9","3","/Users/student/Documents/subject-5226324.csv","legacy","Lentiform Loewenfeld","3.3.8","yes","yes","600bd7cfb6416f0113b04181","602110864497cf011d9c0822","0","j","NA","space","space","space","NA","j","599","NA","3765","89","20128","NA","599","2","legacy","1024","2","48000","-16","task","5226324","even","NA","43419","49189","45423","66344","13403","33661","13524","66845","NA","66341","66846","66282","49189","67445","41695","65781","13326","NA","Lexical Decision Task","14","13023","14","yes","1024"
"3.037294994","8.64","7","roof","word","100","100","902.1333333333333","902.1333333333333","black","no","legacy","legacy","legacy","0","uniform","1","undefined","undefined","undefined","1","j","0","0","0","0","14","0","0","0","14","NA","10","14","10","0","10","3","14","0","14","Fri Feb 19 11:51:55 2021","The main experiment item","yes","Lexical_Decision_Task.osexp","/Users/student","no","Andale Mono","no","18","no","white","no","yes","576","legacy","10","10","3","/Users/student/Documents/subject-5226324.csv","legacy","Lentiform Loewenfeld","3.3.8","yes","yes","600bd7cfb6416f0113b04181","602110864497cf011d9c0822","0","j","NA","space","space","space","NA","j","509","NA","3765","89","20128","NA","509","2","legacy","1024","2","48000","-16","task","5226324","even","NA","43419","49189","45423","68022","13403","33661","13524","68524","NA","68019","68524","67961","49189","69034","41695","67461","13326","NA","Lexical Decision Task","15","13532","15","yes","1024"
"3.105055783","0","2","norp","non-word","100","100","883.375","883.375","black","no","legacy","legacy","legacy","0","uniform","1","undefined","undefined","undefined","1","f","0","0","0","0","15","0","0","0","15","NA","11","15","11","0","11","3","15","0","15","Fri Feb 19 11:51:55 2021","The main experiment item","yes","Lexical_Decision_Task.osexp","/Users/student","no","Andale Mono","no","18","no","white","no","yes","576","legacy","11","11","3","/Users/student/Documents/subject-5226324.csv","legacy","Lentiform Loewenfeld","3.3.8","yes","yes","600bd7cfb6416f0113b04181","602110864497cf011d9c0822","0","f","NA","space","space","space","NA","f","602","NA","3765","89","20128","NA","602","2","legacy","1024","2","48000","-16","task","5226324","even","NA","43419","49189","45423","69599","13403","33661","13524","70102","NA","69597","70102","69538","49189","70705","41695","69038","13326","NA","Lexical Decision Task","16","14134","16","yes","1024"
"2.664011697","8.19","4","hawk","word","100","100","870.1764705882352","870.1764705882352","black","no","legacy","legacy","legacy","0","uniform","1","undefined","undefined","undefined","1","j","0","0","0","0","16","0","0","0","16","NA","12","16","12","0","12","3","16","0","16","Fri Feb 19 11:51:55 2021","The main experiment item","yes","Lexical_Decision_Task.osexp","/Users/student","no","Andale Mono","no","18","no","white","no","yes","576","legacy","12","12","3","/Users/student/Documents/subject-5226324.csv","legacy","Lentiform Loewenfeld","3.3.8","yes","yes","600bd7cfb6416f0113b04181","602110864497cf011d9c0822","0","j","NA","space","space","space","NA","j","659","NA","3765","89","20128","NA","659","2","legacy","1024","2","48000","-16","task","5226324","even","NA","43419","49189","45423","71273","13403","33661","13524","71775","NA","71271","71775","71208","49189","72437","41695","70708","13326","NA","Lexical Decision Task","17","14793","17","yes","1024"
"2.709837904","6.85","8","skim","word","100","100","897","897","black","no","legacy","legacy","legacy","0","uniform","1","undefined","undefined","undefined","1","j","0","0","0","0","17","0","0","0","17","NA","13","17","13","0","13","3","17","0","17","Fri Feb 19 11:51:55 2021","The main experiment item","yes","Lexical_Decision_Task.osexp","/Users/student","no","Andale Mono","no","18","no","white","no","yes","576","legacy","13","13","3","/Users/student/Documents/subject-5226324.csv","legacy","Lentiform Loewenfeld","3.3.8","yes","yes","600bd7cfb6416f0113b04181","602110864497cf011d9c0822","0","j","NA","space","space","space","NA","j","1353","NA","3765","89","20128","NA","1353","2","legacy","1024","2","48000","-16","task","5226324","even","NA","43419","49189","45423","73011","13403","33661","13524","73513","NA","73008","73513","72945","49189","74867","41695","72445","13326","NA","Lexical Decision Task","18","16146","18","yes","1024"
"3.137775856","7.39","5","comb","word","100","100","878.4736842105264","878.4736842105264","black","no","legacy","legacy","legacy","0","uniform","1","undefined","undefined","undefined","1","j","0","0","0","0","18","0","0","0","18","NA","14","18","14","0","14","3","18","0","18","Fri Feb 19 11:51:55 2021","The main experiment item","yes","Lexical_Decision_Task.osexp","/Users/student","no","Andale Mono","no","18","no","white","no","yes","576","legacy","14","14","3","/Users/student/Documents/subject-5226324.csv","legacy","Lentiform Loewenfeld","3.3.8","yes","yes","600bd7cfb6416f0113b04181","602110864497cf011d9c0822","0","j","NA","space","space","space","NA","j","545","NA","3765","89","20128","NA","545","2","legacy","1024","2","48000","-16","task","5226324","even","NA","43419","49189","45423","75437","13403","33661","13524","75939","NA","75434","75939","75377","49189","76485","41695","74877","13326","NA","Lexical Decision Task","19","16691","19","yes","1024"
"2.794720352","0","9","koot","non-word","100","100","871.75","871.75","black","no","legacy","legacy","legacy","0","uniform","1","undefined","undefined","undefined","1","f","0","0","0","0","19","0","0","0","19","NA","15","19","15","0","15","3","19","0","19","Fri Feb 19 11:51:55 2021","The main experiment item","yes","Lexical_Decision_Task.osexp","/Users/student","no","Andale Mono","no","18","no","white","no","yes","576","legacy","15","15","3","/Users/student/Documents/subject-5226324.csv","legacy","Lentiform Loewenfeld","3.3.8","yes","yes","600bd7cfb6416f0113b04181","602110864497cf011d9c0822","0","f","NA","space","space","space","NA","f","744","NA","3765","89","20128","NA","744","2","legacy","1024","2","48000","-16","task","5226324","even","NA","43419","49189","45423","77137","13403","33661","13524","77639","NA","77134","77639","77079","49189","78384","41695","76579","13326","NA","Lexical Decision Task","20","17435","20","yes","1024"
"2.980911938","7.15","7","hoop","word","100","100","854.7619047619048","854.7619047619048","black","no","legacy","legacy","legacy","0","uniform","1","undefined","undefined","undefined","1","j","0","0","0","0","20","0","0","0","20","NA","16","20","16","0","16","3","20","0","20","Fri Feb 19 11:51:55 2021","The main experiment item","yes","Lexical_Decision_Task.osexp","/Users/student","no","Andale Mono","no","18","no","white","no","yes","576","legacy","16","16","3","/Users/student/Documents/subject-5226324.csv","legacy","Lentiform Loewenfeld","3.3.8","yes","yes","600bd7cfb6416f0113b04181","602110864497cf011d9c0822","0","j","NA","space","space","space","NA","j","515","NA","3765","89","20128","NA","515","2","legacy","1024","2","48000","-16","task","5226324","even","NA","43419","49189","45423","78958","13403","33661","13524","79460","NA","78954","79460","78897","49189","79976","41695","78397","13326","NA","Lexical Decision Task","21","17950","21","yes","1024"
"2.920123326","7.43","4","duel","word","100","100","849.5","849.5","black","no","legacy","legacy","legacy","0","uniform","1","undefined","undefined","undefined","1","j","0","0","0","0","21","0","0","0","21","NA","17","21","17","0","17","3","21","0","21","Fri Feb 19 11:51:55 2021","The main experiment item","yes","Lexical_Decision_Task.osexp","/Users/student","no","Andale Mono","no","18","no","white","no","yes","576","legacy","17","17","3","/Users/student/Documents/subject-5226324.csv","legacy","Lentiform Loewenfeld","3.3.8","yes","yes","600bd7cfb6416f0113b04181","602110864497cf011d9c0822","0","j","NA","space","space","space","NA","j","739","NA","3765","89","20128","NA","739","2","legacy","1024","2","48000","-16","task","5226324","even","NA","43419","49189","45423","80549","13403","33661","13524","81051","NA","80546","81051","80480","49189","81790","41695","79980","13326","NA","Lexical Decision Task","22","18689","22","yes","1024"
"2.845304797","0","6","buct","non-word","100","100","837.4782608695652","837.4782608695652","black","no","legacy","legacy","legacy","0","uniform","1","undefined","undefined","undefined","1","f","0","0","0","0","22","0","0","0","22","NA","18","22","18","0","18","3","22","0","22","Fri Feb 19 11:51:55 2021","The main experiment item","yes","Lexical_Decision_Task.osexp","/Users/student","no","Andale Mono","no","18","no","white","no","yes","576","legacy","18","18","3","/Users/student/Documents/subject-5226324.csv","legacy","Lentiform Loewenfeld","3.3.8","yes","yes","600bd7cfb6416f0113b04181","602110864497cf011d9c0822","0","f","NA","space","space","space","NA","f","573","NA","3765","89","20128","NA","573","2","legacy","1024","2","48000","-16","task","5226324","even","NA","43419","49189","45423","82370","13403","33661","13524","82872","NA","82367","82872","82305","49189","83446","41695","81805","13326","NA","Lexical Decision Task","23","19262","23","yes","1024"
"3.066077331","0","7","vorn","non-word","100","100","840.4166666666666","840.4166666666666","black","no","legacy","legacy","legacy","0","uniform","1","undefined","undefined","undefined","1","f","0","0","0","0","23","0","0","0","23","NA","19","23","19","0","19","3","23","0","23","Fri Feb 19 11:51:55 2021","The main experiment item","yes","Lexical_Decision_Task.osexp","/Users/student","no","Andale Mono","no","18","no","white","no","yes","576","legacy","19","19","3","/Users/student/Documents/subject-5226324.csv","legacy","Lentiform Loewenfeld","3.3.8","yes","yes","600bd7cfb6416f0113b04181","602110864497cf011d9c0822","0","f","NA","space","space","space","NA","f","908","NA","3765","89","20128","NA","908","2","legacy","1024","2","48000","-16","task","5226324","even","NA","43419","49189","45423","84046","13403","33661","13524","84548","NA","84043","84548","83983","49189","85457","41695","83482","13326","NA","Lexical Decision Task","24","20170","24","yes","1024"
"2.68604012","0","3","mulb","non-word","100","100","831.32","831.32","black","no","legacy","legacy","legacy","0","uniform","1","undefined","undefined","undefined","1","f","0","0","0","0","24","0","0","0","24","NA","20","24","20","0","20","3","24","0","24","Fri Feb 19 11:51:55 2021","The main experiment item","yes","Lexical_Decision_Task.osexp","/Users/student","no","Andale Mono","no","18","no","white","no","yes","576","legacy","20","20","3","/Users/student/Documents/subject-5226324.csv","legacy","Lentiform Loewenfeld","3.3.8","yes","yes","600bd7cfb6416f0113b04181","602110864497cf011d9c0822","0","f","NA","space","space","space","NA","f","613","NA","3765","89","20128","NA","613","2","legacy","1024","2","48000","-16","task","5226324","even","NA","43419","49189","45423","86040","13403","33661","13524","86542","NA","86038","86542","85977","49189","87157","41695","85476","13326","NA","Lexical Decision Task","25","20783","25","yes","1024"
"3.140404328","10.66","9","deep","word","100","100","817.7692307692307","817.7692307692307","black","no","legacy","legacy","legacy","0","uniform","1","undefined","undefined","undefined","1","j","0","0","0","0","25","0","0","0","25","NA","21","25","21","0","21","3","25","0","25","Fri Feb 19 11:51:55 2021","The main experiment item","yes","Lexical_Decision_Task.osexp","/Users/student","no","Andale Mono","no","18","no","white","no","yes","576","legacy","21","21","3","/Users/student/Documents/subject-5226324.csv","legacy","Lentiform Loewenfeld","3.3.8","yes","yes","600bd7cfb6416f0113b04181","602110864497cf011d9c0822","0","j","NA","space","space","space","NA","j","479","NA","3765","89","20128","NA","479","2","legacy","1024","2","48000","-16","task","5226324","even","NA","43419","49189","45423","87730","13403","33661","13524","88231","NA","87728","88232","87665","49189","88712","41695","87165","13326","NA","Lexical Decision Task","26","21262","26","yes","1024"
"3.003891166","8.05","2","frog","word","100","100","809.3703703703703","809.3703703703703","black","no","legacy","legacy","legacy","0","uniform","1","undefined","undefined","undefined","1","j","0","0","0","0","26","0","0","0","26","NA","22","26","22","0","22","3","26","0","26","Fri Feb 19 11:51:55 2021","The main experiment item","yes","Lexical_Decision_Task.osexp","/Users/student","no","Andale Mono","no","18","no","white","no","yes","576","legacy","22","22","3","/Users/student/Documents/subject-5226324.csv","legacy","Lentiform Loewenfeld","3.3.8","yes","yes","600bd7cfb6416f0113b04181","602110864497cf011d9c0822","0","j","NA","space","space","space","NA","j","591","NA","3765","89","20128","NA","591","2","legacy","1024","2","48000","-16","task","5226324","even","NA","43419","49189","45423","89281","13403","33661","13524","89783","NA","89278","89783","89217","49189","90375","41695","88717","13326","NA","Lexical Decision Task","27","21853","27","yes","1024"
"3.20871002","7.15","8","cram","word","100","100","799.6785714285714","799.6785714285714","black","no","legacy","legacy","legacy","0","uniform","1","undefined","undefined","undefined","1","j","0","0","0","0","27","0","0","0","27","NA","23","27","23","0","23","3","27","0","27","Fri Feb 19 11:51:55 2021","The main experiment item","yes","Lexical_Decision_Task.osexp","/Users/student","no","Andale Mono","no","18","no","white","no","yes","576","legacy","23","23","3","/Users/student/Documents/subject-5226324.csv","legacy","Lentiform Loewenfeld","3.3.8","yes","yes","600bd7cfb6416f0113b04181","602110864497cf011d9c0822","0","j","NA","space","space","space","NA","j","538","NA","3765","89","20128","NA","538","2","legacy","1024","2","48000","-16","task","5226324","even","NA","43419","49189","45423","90943","13403","33661","13524","91445","NA","90940","91445","90881","49189","91984","41695","90381","13326","NA","Lexical Decision Task","28","22391","28","yes","1024"
"2.713490543","0","3","feps","non-word","100","100","795.2758620689655","795.2758620689655","black","no","legacy","legacy","legacy","0","uniform","1","undefined","undefined","undefined","1","f","0","0","0","0","28","0","0","0","28","NA","24","28","24","0","24","3","28","0","28","Fri Feb 19 11:51:55 2021","The main experiment item","yes","Lexical_Decision_Task.osexp","/Users/student","no","Andale Mono","no","18","no","white","no","yes","576","legacy","24","24","3","/Users/student/Documents/subject-5226324.csv","legacy","Lentiform Loewenfeld","3.3.8","yes","yes","600bd7cfb6416f0113b04181","602110864497cf011d9c0822","0","f","NA","space","space","space","NA","f","672","NA","3765","89","20128","NA","672","2","legacy","1024","2","48000","-16","task","5226324","even","NA","43419","49189","45423","92562","13403","33661","13524","93065","NA","92559","93066","92497","49189","93739","41695","91997","13326","NA","Lexical Decision Task","29","23063","29","yes","1024"
"3.094121596","0","8","fode","non-word","100","100","786.6333333333333","786.6333333333333","black","no","legacy","legacy","legacy","0","uniform","1","undefined","undefined","undefined","1","f","0","0","0","0","29","0","0","0","29","NA","25","29","25","0","25","3","29","0","29","Fri Feb 19 11:51:55 2021","The main experiment item","yes","Lexical_Decision_Task.osexp","/Users/student","no","Andale Mono","no","18","no","white","no","yes","576","legacy","25","25","3","/Users/student/Documents/subject-5226324.csv","legacy","Lentiform Loewenfeld","3.3.8","yes","yes","600bd7cfb6416f0113b04181","602110864497cf011d9c0822","0","f","NA","space","space","space","NA","f","536","NA","3765","89","20128","NA","536","2","legacy","1024","2","48000","-16","task","5226324","even","NA","43419","49189","45423","94333","13403","33661","13524","94835","NA","94330","94835","94270","49189","95372","41695","93770","13326","NA","Lexical Decision Task","30","23599","30","yes","1024"
"3.29439347","8.6","9","wand","word","100","100","783","783","black","no","legacy","legacy","legacy","0","uniform","1","undefined","undefined","undefined","1","j","0","0","0","0","30","0","0","0","30","NA","26","30","26","0","26","3","30","0","30","Fri Feb 19 11:51:55 2021","The main experiment item","yes","Lexical_Decision_Task.osexp","/Users/student","no","Andale Mono","no","18","no","white","no","yes","576","legacy","26","26","3","/Users/student/Documents/subject-5226324.csv","legacy","Lentiform Loewenfeld","3.3.8","yes","yes","600bd7cfb6416f0113b04181","602110864497cf011d9c0822","0","j","NA","space","space","space","NA","j","674","NA","3765","89","20128","NA","674","2","legacy","1024","2","48000","-16","task","5226324","even","NA","43419","49189","45423","95955","13403","33661","13524","96457","NA","95952","96457","95897","49189","97133","41695","95397","13326","NA","Lexical Decision Task","31","24273","31","yes","1024"
"2.858136002","0","4","phip","non-word","100","100","778.34375","778.34375","black","no","legacy","legacy","legacy","0","uniform","1","undefined","undefined","undefined","1","f","0","0","0","0","31","0","0","0","31","NA","27","31","27","0","27","3","31","0","31","Fri Feb 19 11:51:55 2021","The main experiment item","yes","Lexical_Decision_Task.osexp","/Users/student","no","Andale Mono","no","18","no","white","no","yes","576","legacy","27","27","3","/Users/student/Documents/subject-5226324.csv","legacy","Lentiform Loewenfeld","3.3.8","yes","yes","600bd7cfb6416f0113b04181","602110864497cf011d9c0822","0","f","NA","space","space","space","NA","f","634","NA","3765","89","20128","NA","634","2","legacy","1024","2","48000","-16","task","5226324","even","NA","43419","49189","45423","97779","13403","33661","13524","98281","NA","97776","98281","97717","49189","98916","41695","97217","13326","NA","Lexical Decision Task","32","24907","32","yes","1024"
"2.778633532","0","3","jurp","non-word","100","100","772.2424242424242","772.2424242424242","black","no","legacy","legacy","legacy","0","uniform","1","undefined","undefined","undefined","1","f","0","0","0","0","32","0","0","0","32","NA","28","32","28","0","28","3","32","0","32","Fri Feb 19 11:51:55 2021","The main experiment item","yes","Lexical_Decision_Task.osexp","/Users/student","no","Andale Mono","no","18","no","white","no","yes","576","legacy","28","28","3","/Users/student/Documents/subject-5226324.csv","legacy","Lentiform Loewenfeld","3.3.8","yes","yes","600bd7cfb6416f0113b04181","602110864497cf011d9c0822","0","f","NA","space","space","space","NA","f","577","NA","3765","89","20128","NA","577","2","legacy","1024","2","48000","-16","task","5226324","even","NA","43419","49189","45423","99487","13403","33661","13524","99989","NA","99484","99989","99421","49189","100567","41695","98921","13326","NA","Lexical Decision Task","33","25484","33","yes","1024"
"2.7084209","0","8","vump","non-word","100","100","768.4705882352941","768.4705882352941","black","no","legacy","legacy","legacy","0","uniform","1","undefined","undefined","undefined","1","f","0","0","0","0","33","0","0","0","33","NA","29","33","29","0","29","3","33","0","33","Fri Feb 19 11:51:55 2021","The main experiment item","yes","Lexical_Decision_Task.osexp","/Users/student","no","Andale Mono","no","18","no","white","no","yes","576","legacy","29","29","3","/Users/student/Documents/subject-5226324.csv","legacy","Lentiform Loewenfeld","3.3.8","yes","yes","600bd7cfb6416f0113b04181","602110864497cf011d9c0822","0","f","NA","space","space","space","NA","f","644","NA","3765","89","20128","NA","644","2","legacy","1024","2","48000","-16","task","5226324","even","NA","43419","49189","45423","101132","13403","33661","13524","101634","NA","101129","101634","101071","49189","102279","41695","100571","13326","NA","Lexical Decision Task","34","26128","34","yes","1024"
"3.374198258","0","8","vist","non-word","97.14285714285714","97.14285714285714","763.8285714285714","763.8285714285714","black","no","legacy","legacy","legacy","0","uniform","0","undefined","undefined","undefined","0","f","0","0","0","0","34","0","0","0","34","NA","30","34","30","0","30","3","34","0","34","Fri Feb 19 11:51:55 2021","The main experiment item","yes","Lexical_Decision_Task.osexp","/Users/student","no","Andale Mono","no","18","no","white","no","yes","576","legacy","30","30","3","/Users/student/Documents/subject-5226324.csv","legacy","Lentiform Loewenfeld","3.3.8","yes","yes","600bd7cfb6416f0113b04181","602110864497cf011d9c0822","0","j","NA","space","space","space","NA","j","606","NA","3765","89","20128","NA","606","2","legacy","1024","2","48000","-16","task","5226324","even","NA","43419","49189","45423","102968","13403","33661","13524","103471","NA","102965","103471","102905","49189","104079","41695","102405","13326","NA","Lexical Decision Task","34","26734","35","yes","1024"
"3.067070856","9.39","3","loud","word","97.22222222222223","97.22222222222223","761.5833333333334","761.5833333333334","black","no","legacy","legacy","legacy","0","uniform","1","undefined","undefined","undefined","1","j","0","0","0","0","35","0","0","0","35","NA","31","35","31","0","31","3","35","0","35","Fri Feb 19 11:51:55 2021","The main experiment item","yes","Lexical_Decision_Task.osexp","/Users/student","no","Andale Mono","no","18","no","white","no","yes","576","legacy","31","31","3","/Users/student/Documents/subject-5226324.csv","legacy","Lentiform Loewenfeld","3.3.8","yes","yes","600bd7cfb6416f0113b04181","602110864497cf011d9c0822","0","j","NA","space","space","space","NA","j","683","NA","3765","89","20128","NA","683","2","legacy","1024","2","48000","-16","task","5226324","even","NA","43419","49189","45423","105648","13403","33661","13524","106150","NA","105646","106150","105592","49189","106834","41695","102405","13326","104092","Lexical Decision Task","35","27417","36","yes","1024"
"2.892836167","10.01","5","soft","word","97.29729729729729","97.29729729729729","757.3783783783783","757.3783783783783","black","no","legacy","legacy","legacy","0","uniform","1","undefined","undefined","undefined","1","j","0","0","0","0","36","0","0","0","36","NA","32","36","32","0","32","3","36","0","36","Fri Feb 19 11:51:55 2021","The main experiment item","yes","Lexical_Decision_Task.osexp","/Users/student","no","Andale Mono","no","18","no","white","no","yes","576","legacy","32","32","3","/Users/student/Documents/subject-5226324.csv","legacy","Lentiform Loewenfeld","3.3.8","yes","yes","600bd7cfb6416f0113b04181","602110864497cf011d9c0822","0","j","NA","space","space","space","NA","j","606","NA","3765","89","20128","NA","606","2","legacy","1024","2","48000","-16","task","5226324","even","NA","43419","49189","45423","107389","13403","33661","13524","107891","NA","107386","107891","107338","49189","108498","41695","106838","13326","104092","Lexical Decision Task","36","28023","37","yes","1024"
"2.576725172","0","8","gowl","non-word","97.36842105263158","97.36842105263158","753.7631578947369","753.7631578947369","black","no","legacy","legacy","legacy","0","uniform","1","undefined","undefined","undefined","1","f","0","0","0","0","37","0","0","0","37","NA","33","37","33","0","33","3","37","0","37","Fri Feb 19 11:51:55 2021","The main experiment item","yes","Lexical_Decision_Task.osexp","/Users/student","no","Andale Mono","no","18","no","white","no","yes","576","legacy","33","33","3","/Users/student/Documents/subject-5226324.csv","legacy","Lentiform Loewenfeld","3.3.8","yes","yes","600bd7cfb6416f0113b04181","602110864497cf011d9c0822","0","f","NA","space","space","space","NA","f","620","NA","3765","89","20128","NA","620","2","legacy","1024","2","48000","-16","task","5226324","even","NA","43419","49189","45423","109065","13403","33661","13524","109568","NA","109062","109568","109001","49189","110189","41695","108501","13326","104092","Lexical Decision Task","37","28643","38","yes","1024"
"3.208978517","10.33","4","fish","word","97.43589743589743","97.43589743589743","746.1538461538462","746.1538461538462","black","no","legacy","legacy","legacy","0","uniform","1","undefined","undefined","undefined","1","j","0","0","0","0","38","0","0","0","38","NA","34","38","34","0","34","3","38","0","38","Fri Feb 19 11:51:55 2021","The main experiment item","yes","Lexical_Decision_Task.osexp","/Users/student","no","Andale Mono","no","18","no","white","no","yes","576","legacy","34","34","3","/Users/student/Documents/subject-5226324.csv","legacy","Lentiform Loewenfeld","3.3.8","yes","yes","600bd7cfb6416f0113b04181","602110864497cf011d9c0822","0","j","NA","space","space","space","NA","j","457","NA","3765","89","20128","NA","457","2","legacy","1024","2","48000","-16","task","5226324","even","NA","43419","49189","45423","110754","13403","33661","13524","111257","NA","110752","111257","110693","49189","111716","41695","110192","13326","104092","Lexical Decision Task","38","29100","39","yes","1024"
"3.081107167","0","6","chot","non-word","97.5","97.5","747.6","747.6","black","no","legacy","legacy","legacy","0","uniform","1","undefined","undefined","undefined","1","f","0","0","0","0","39","0","0","0","39","NA","35","39","35","0","35","3","39","0","39","Fri Feb 19 11:51:55 2021","The main experiment item","yes","Lexical_Decision_Task.osexp","/Users/student","no","Andale Mono","no","18","no","white","no","yes","576","legacy","35","35","3","/Users/student/Documents/subject-5226324.csv","legacy","Lentiform Loewenfeld","3.3.8","yes","yes","600bd7cfb6416f0113b04181","602110864497cf011d9c0822","0","f","NA","space","space","space","NA","f","804","NA","3765","89","20128","NA","804","2","legacy","1024","2","48000","-16","task","5226324","even","NA","43419","49189","45423","112285","13403","33661","13524","112787","NA","112282","112787","112221","49189","113592","41695","111721","13326","104092","Lexical Decision Task","39","29904","40","yes","1024"
"2.80048796","0","8","pife","non-word","97.5609756097561","97.5609756097561","745.7560975609756","745.7560975609756","black","no","legacy","legacy","legacy","0","uniform","1","undefined","undefined","undefined","1","f","0","0","0","0","40","0","0","0","40","NA","36","40","36","0","36","3","40","0","40","Fri Feb 19 11:51:55 2021","The main experiment item","yes","Lexical_Decision_Task.osexp","/Users/student","no","Andale Mono","no","18","no","white","no","yes","576","legacy","36","36","3","/Users/student/Documents/subject-5226324.csv","legacy","Lentiform Loewenfeld","3.3.8","yes","yes","600bd7cfb6416f0113b04181","602110864497cf011d9c0822","0","f","NA","space","space","space","NA","f","672","NA","3765","89","20128","NA","672","2","legacy","1024","2","48000","-16","task","5226324","even","NA","43419","49189","45423","114154","13403","33661","13524","114656","NA","114152","114657","114096","49189","115330","41695","113596","13326","104092","Lexical Decision Task","40","30576","41","yes","1024"
"3.134602053","0","8","jart","non-word","97.61904761904762","97.61904761904762","789.2142857142857","789.2142857142857","black","no","legacy","legacy","legacy","0","uniform","1","undefined","undefined","undefined","1","f","0","0","0","0","41","0","0","0","41","NA","37","41","37","0","37","3","41","0","41","Fri Feb 19 11:51:55 2021","The main experiment item","yes","Lexical_Decision_Task.osexp","/Users/student","no","Andale Mono","no","18","no","white","no","yes","576","legacy","37","37","3","/Users/student/Documents/subject-5226324.csv","legacy","Lentiform Loewenfeld","3.3.8","yes","yes","600bd7cfb6416f0113b04181","602110864497cf011d9c0822","0","f","NA","space","space","space","NA","f","2571","NA","3765","89","20128","NA","2571","2","legacy","1024","2","48000","-16","task","5226324","even","NA","43419","49189","45423","115897","13403","33661","13524","116400","NA","115895","116400","115834","49189","118972","41695","115334","13326","104092","Lexical Decision Task","41","33147","42","yes","1024"
"3.102203805","7.21","3","drip","word","95.34883720930233","95.34883720930233","779.0930232558139","779.0930232558139","black","no","legacy","legacy","legacy","0","uniform","0","undefined","undefined","undefined","0","j","0","0","0","0","42","0","0","0","42","NA","38","42","38","0","38","3","42","0","42","Fri Feb 19 11:51:55 2021","The main experiment item","yes","Lexical_Decision_Task.osexp","/Users/student","no","Andale Mono","no","18","no","white","no","yes","576","legacy","38","38","3","/Users/student/Documents/subject-5226324.csv","legacy","Lentiform Loewenfeld","3.3.8","yes","yes","600bd7cfb6416f0113b04181","602110864497cf011d9c0822","0","f","NA","space","space","space","NA","f","354","NA","3765","89","20128","NA","354","2","legacy","1024","2","48000","-16","task","5226324","even","NA","43419","49189","45423","119536","13403","33661","13524","120038","NA","119533","120038","119477","49189","120393","41695","118977","13326","104092","Lexical Decision Task","41","33501","43","yes","1024"
"3.076883066","0","8","mout","non-word","95.45454545454545","95.45454545454545","775.3863636363636","775.3863636363636","black","no","legacy","legacy","legacy","0","uniform","1","undefined","undefined","undefined","1","f","0","0","0","0","43","0","0","0","43","NA","39","43","39","0","39","3","43","0","43","Fri Feb 19 11:51:55 2021","The main experiment item","yes","Lexical_Decision_Task.osexp","/Users/student","no","Andale Mono","no","18","no","white","no","yes","576","legacy","39","39","3","/Users/student/Documents/subject-5226324.csv","legacy","Lentiform Loewenfeld","3.3.8","yes","yes","600bd7cfb6416f0113b04181","602110864497cf011d9c0822","0","f","NA","space","space","space","NA","f","616","NA","3765","89","20128","NA","616","2","legacy","1024","2","48000","-16","task","5226324","even","NA","43419","49189","45423","121959","13403","33661","13524","122461","NA","121956","122461","121897","49189","123078","41695","118977","13326","120397","Lexical Decision Task","42","34117","44","yes","1024"
"3.274543461","7.46","7","scar","word","95.55555555555556","95.55555555555556","770","770","black","no","legacy","legacy","legacy","0","uniform","1","undefined","undefined","undefined","1","j","0","0","0","0","44","0","0","0","44","NA","40","44","40","0","40","3","44","0","44","Fri Feb 19 11:51:55 2021","The main experiment item","yes","Lexical_Decision_Task.osexp","/Users/student","no","Andale Mono","no","18","no","white","no","yes","576","legacy","40","40","3","/Users/student/Documents/subject-5226324.csv","legacy","Lentiform Loewenfeld","3.3.8","yes","yes","600bd7cfb6416f0113b04181","602110864497cf011d9c0822","0","j","NA","space","space","space","NA","j","533","NA","3765","89","20128","NA","533","2","legacy","1024","2","48000","-16","task","5226324","even","NA","43419","49189","45423","123643","13403","33661","13524","124145","NA","123640","124145","123582","49189","124679","41695","123082","13326","120397","Lexical Decision Task","43","34650","45","yes","1024"
"3.121778632","0","9","sark","non-word","95.65217391304348","95.65217391304348","763.7608695652174","763.7608695652174","black","no","legacy","legacy","legacy","0","uniform","1","undefined","undefined","undefined","1","f","0","0","0","0","45","0","0","0","45","NA","41","45","41","0","41","3","45","0","45","Fri Feb 19 11:51:55 2021","The main experiment item","yes","Lexical_Decision_Task.osexp","/Users/student","no","Andale Mono","no","18","no","white","no","yes","576","legacy","41","41","3","/Users/student/Documents/subject-5226324.csv","legacy","Lentiform Loewenfeld","3.3.8","yes","yes","600bd7cfb6416f0113b04181","602110864497cf011d9c0822","0","f","NA","space","space","space","NA","f","483","NA","3765","89","20128","NA","483","2","legacy","1024","2","48000","-16","task","5226324","even","NA","43419","49189","45423","125244","13403","33661","13524","125746","NA","125241","125746","125183","49189","126230","41695","124683","13326","120397","Lexical Decision Task","44","35133","46","yes","1024"
"3.431095062","5.74","9","perk","word","95.74468085106383","95.74468085106383","765.063829787234","765.063829787234","black","no","legacy","legacy","legacy","0","uniform","1","undefined","undefined","undefined","1","j","0","0","0","0","46","0","0","0","46","NA","42","46","42","0","42","3","46","0","46","Fri Feb 19 11:51:55 2021","The main experiment item","yes","Lexical_Decision_Task.osexp","/Users/student","no","Andale Mono","no","18","no","white","no","yes","576","legacy","42","42","3","/Users/student/Documents/subject-5226324.csv","legacy","Lentiform Loewenfeld","3.3.8","yes","yes","600bd7cfb6416f0113b04181","602110864497cf011d9c0822","0","j","NA","space","space","space","NA","j","825","NA","3765","89","20128","NA","825","2","legacy","1024","2","48000","-16","task","5226324","even","NA","43419","49189","45423","126791","13403","33661","13524","127294","NA","126789","127294","126733","49189","128120","41695","126233","13326","120397","Lexical Decision Task","45","35958","47","yes","1024"
"2.755364069","7.72","2","hoax","word","95.83333333333333","95.83333333333333","761.2083333333334","761.2083333333334","black","no","legacy","legacy","legacy","0","uniform","1","undefined","undefined","undefined","1","j","0","0","0","0","47","0","0","0","47","NA","43","47","43","0","43","3","47","0","47","Fri Feb 19 11:51:55 2021","The main experiment item","yes","Lexical_Decision_Task.osexp","/Users/student","no","Andale Mono","no","18","no","white","no","yes","576","legacy","43","43","3","/Users/student/Documents/subject-5226324.csv","legacy","Lentiform Loewenfeld","3.3.8","yes","yes","600bd7cfb6416f0113b04181","602110864497cf011d9c0822","0","j","NA","space","space","space","NA","j","580","NA","3765","89","20128","NA","580","2","legacy","1024","2","48000","-16","task","5226324","even","NA","43419","49189","45423","128686","13403","33661","13524","129189","NA","128683","129189","128624","49189","129770","41695","128124","13326","120397","Lexical Decision Task","46","36538","48","yes","1024"
"3.194328374","9.42","6","harm","word","95.91836734693878","95.91836734693878","754.6530612244898","754.6530612244898","black","no","legacy","legacy","legacy","0","uniform","1","undefined","undefined","undefined","1","j","0","0","0","0","48","0","0","0","48","NA","44","48","44","0","44","3","48","0","48","Fri Feb 19 11:51:55 2021","The main experiment item","yes","Lexical_Decision_Task.osexp","/Users/student","no","Andale Mono","no","18","no","white","no","yes","576","legacy","44","44","3","/Users/student/Documents/subject-5226324.csv","legacy","Lentiform Loewenfeld","3.3.8","yes","yes","600bd7cfb6416f0113b04181","602110864497cf011d9c0822","0","j","NA","space","space","space","NA","j","440","NA","3765","89","20128","NA","440","2","legacy","1024","2","48000","-16","task","5226324","even","NA","43419","49189","45423","130339","13403","33661","13524","130841","NA","130336","130841","130275","49189","131282","41695","129775","13326","120397","Lexical Decision Task","47","36978","49","yes","1024"
"3.374137706","10.21","4","tree","word","96","96","749.14","749.14","black","no","legacy","legacy","legacy","0","uniform","1","undefined","undefined","undefined","1","j","0","0","0","0","49","0","0","0","49","NA","45","49","45","0","45","3","49","0","49","Fri Feb 19 11:51:55 2021","The main experiment item","yes","Lexical_Decision_Task.osexp","/Users/student","no","Andale Mono","no","18","no","white","no","yes","576","legacy","45","45","3","/Users/student/Documents/subject-5226324.csv","legacy","Lentiform Loewenfeld","3.3.8","yes","yes","600bd7cfb6416f0113b04181","602110864497cf011d9c0822","0","j","NA","space","space","space","NA","j","479","NA","3765","89","20128","NA","479","2","legacy","1024","2","48000","-16","task","5226324","even","NA","43419","49189","45423","131848","13403","33661","13524","132352","NA","131844","132352","131785","49189","132832","41695","131285","13326","120397","Lexical Decision Task","48","37457","50","yes","1024"
"3.119255889","6.63","2","itch","word","96.07843137254902","96.07843137254902","744.5294117647059","744.5294117647059","black","no","legacy","legacy","legacy","0","uniform","1","undefined","undefined","undefined","1","j","0","0","0","0","50","0","0","0","50","NA","46","50","46","0","46","3","50","0","50","Fri Feb 19 11:51:55 2021","The main experiment item","yes","Lexical_Decision_Task.osexp","/Users/student","no","Andale Mono","no","18","no","white","no","yes","576","legacy","46","46","3","/Users/student/Documents/subject-5226324.csv","legacy","Lentiform Loewenfeld","3.3.8","yes","yes","600bd7cfb6416f0113b04181","602110864497cf011d9c0822","0","j","NA","space","space","space","NA","j","514","NA","3765","89","20128","NA","514","2","legacy","1024","2","48000","-16","task","5226324","even","NA","43419","49189","45423","133399","13403","33661","13524","133902","NA","133396","133902","133336","49189","134418","41695","132836","13326","120397","Lexical Decision Task","49","37971","51","yes","1024"
"3.174641193","0","3","ramb","non-word","96.15384615384616","96.15384615384616","746.5576923076923","746.5576923076923","black","no","legacy","legacy","legacy","0","uniform","1","undefined","undefined","undefined","1","f","0","0","0","0","51","0","0","0","51","NA","47","51","47","0","47","3","51","0","51","Fri Feb 19 11:51:55 2021","The main experiment item","yes","Lexical_Decision_Task.osexp","/Users/student","no","Andale Mono","no","18","no","white","no","yes","576","legacy","47","47","3","/Users/student/Documents/subject-5226324.csv","legacy","Lentiform Loewenfeld","3.3.8","yes","yes","600bd7cfb6416f0113b04181","602110864497cf011d9c0822","0","f","NA","space","space","space","NA","f","850","NA","3765","89","20128","NA","850","2","legacy","1024","2","48000","-16","task","5226324","even","NA","43419","49189","45423","134985","13403","33661","13524","135488","NA","134982","135488","134921","49189","136339","41695","134421","13326","120397","Lexical Decision Task","50","38821","52","yes","1024"
"3.225825991","0","7","talm","non-word","96.22641509433963","96.22641509433963","743.7169811320755","743.7169811320755","black","no","legacy","legacy","legacy","0","uniform","1","undefined","undefined","undefined","1","f","0","0","0","0","52","0","0","0","52","NA","48","52","48","0","48","3","52","0","52","Fri Feb 19 11:51:55 2021","The main experiment item","yes","Lexical_Decision_Task.osexp","/Users/student","no","Andale Mono","no","18","no","white","no","yes","576","legacy","48","48","3","/Users/student/Documents/subject-5226324.csv","legacy","Lentiform Loewenfeld","3.3.8","yes","yes","600bd7cfb6416f0113b04181","602110864497cf011d9c0822","0","f","NA","space","space","space","NA","f","596","NA","3765","89","20128","NA","596","2","legacy","1024","2","48000","-16","task","5226324","even","NA","43419","49189","45423","136905","13403","33661","13524","137407","NA","136903","137407","136844","49189","138004","41695","136343","13326","120397","Lexical Decision Task","51","39417","53","yes","1024"
"3.460446784","0","5","dess","non-word","96.29629629629629","96.29629629629629","767.0370370370371","767.0370370370371","black","no","legacy","legacy","legacy","0","uniform","1","undefined","undefined","undefined","1","f","0","0","0","0","53","0","0","0","53","NA","49","53","49","0","49","3","53","0","53","Fri Feb 19 11:51:55 2021","The main experiment item","yes","Lexical_Decision_Task.osexp","/Users/student","no","Andale Mono","no","18","no","white","no","yes","576","legacy","49","49","3","/Users/student/Documents/subject-5226324.csv","legacy","Lentiform Loewenfeld","3.3.8","yes","yes","600bd7cfb6416f0113b04181","602110864497cf011d9c0822","0","f","NA","space","space","space","NA","f","2003","NA","3765","89","20128","NA","2003","2","legacy","1024","2","48000","-16","task","5226324","even","NA","43419","49189","45423","138572","13403","33661","13524","139074","NA","138569","139074","138508","49189","141078","41695","138008","13326","120397","Lexical Decision Task","52","41420","54","yes","1024"
"2.95456409","0","4","taud","non-word","96.36363636363636","96.36363636363636","764.1272727272727","764.1272727272727","black","no","legacy","legacy","legacy","0","uniform","1","undefined","undefined","undefined","1","f","0","0","0","0","54","0","0","0","54","0","50","54","50","0","50","3","54","0","54","Fri Feb 19 11:51:55 2021","The main experiment item","yes","Lexical_Decision_Task.osexp","/Users/student","no","Andale Mono","no","18","no","white","no","yes","576","legacy","50","50","3","/Users/student/Documents/subject-5226324.csv","legacy","Lentiform Loewenfeld","3.3.8","yes","yes","600bd7cfb6416f0113b04181","602110864497cf011d9c0822","0","f","NA","space","space","space","space","f","607","NA","3765","89","20128","3021","607","2","legacy","1024","2","48000","-16","task","5226324","even","NA","43419","49189","45423","144693","13403","33661","13524","145196","141611","144690","145196","141582","49189","145804","41695","141081","13326","120397","Lexical Decision Task","53","42027","55","yes","1024"
"2.839268497","0","8","maft","non-word","96.42857142857143","96.42857142857143","760.0535714285714","760.0535714285714","black","no","legacy","legacy","legacy","0","uniform","1","undefined","undefined","undefined","1","f","0","0","0","0","55","0","0","0","55","0","51","55","51","0","51","3","55","0","55","Fri Feb 19 11:51:55 2021","The main experiment item","yes","Lexical_Decision_Task.osexp","/Users/student","no","Andale Mono","no","18","no","white","no","yes","576","legacy","51","51","3","/Users/student/Documents/subject-5226324.csv","legacy","Lentiform Loewenfeld","3.3.8","yes","yes","600bd7cfb6416f0113b04181","602110864497cf011d9c0822","0","f","NA","space","space","space","space","f","536","NA","3765","89","20128","3021","536","2","legacy","1024","2","48000","-16","task","5226324","even","NA","43419","49189","45423","146367","13403","33661","13524","146870","141611","146364","146870","146308","49189","147408","41695","145808","13326","120397","Lexical Decision Task","54","42563","56","yes","1024"
"2.675164031","8.57","6","glue","word","96.49122807017544","96.49122807017544","757.3859649122807","757.3859649122807","black","no","legacy","legacy","legacy","0","uniform","1","undefined","undefined","undefined","1","j","0","0","0","0","56","0","0","0","56","0","52","56","52","0","52","3","56","0","56","Fri Feb 19 11:51:55 2021","The main experiment item","yes","Lexical_Decision_Task.osexp","/Users/student","no","Andale Mono","no","18","no","white","no","yes","576","legacy","52","52","3","/Users/student/Documents/subject-5226324.csv","legacy","Lentiform Loewenfeld","3.3.8","yes","yes","600bd7cfb6416f0113b04181","602110864497cf011d9c0822","0","j","NA","space","space","space","space","j","608","NA","3765","89","20128","3021","608","2","legacy","1024","2","48000","-16","task","5226324","even","NA","43419","49189","45423","147973","13403","33661","13524","148475","141611","147970","148475","147912","49189","149084","41695","147412","13326","120397","Lexical Decision Task","55","43171","57","yes","1024"
"2.839898939","8.99","6","soap","word","96.55172413793103","96.55172413793103","753.1551724137931","753.1551724137931","black","no","legacy","legacy","legacy","0","uniform","1","undefined","undefined","undefined","1","j","0","0","0","0","57","0","0","0","57","0","53","57","53","0","53","3","57","0","57","Fri Feb 19 11:51:55 2021","The main experiment item","yes","Lexical_Decision_Task.osexp","/Users/student","no","Andale Mono","no","18","no","white","no","yes","576","legacy","53","53","3","/Users/student/Documents/subject-5226324.csv","legacy","Lentiform Loewenfeld","3.3.8","yes","yes","600bd7cfb6416f0113b04181","602110864497cf011d9c0822","0","j","NA","space","space","space","space","j","512","NA","3765","89","20128","3021","512","2","legacy","1024","2","48000","-16","task","5226324","even","NA","43419","49189","45423","149648","13403","33661","13524","150151","141611","149645","150151","149587","49189","150664","41695","149087","13326","120397","Lexical Decision Task","56","43683","58","yes","1024"
"2.971428938","9.86","7","spot","word","96.61016949152543","96.61016949152543","746.4915254237288","746.4915254237288","black","no","legacy","legacy","legacy","0","uniform","1","undefined","undefined","undefined","1","j","0","0","0","0","58","0","0","0","58","0","54","58","54","0","54","3","58","0","58","Fri Feb 19 11:51:55 2021","The main experiment item","yes","Lexical_Decision_Task.osexp","/Users/student","no","Andale Mono","no","18","no","white","no","yes","576","legacy","54","54","3","/Users/student/Documents/subject-5226324.csv","legacy","Lentiform Loewenfeld","3.3.8","yes","yes","600bd7cfb6416f0113b04181","602110864497cf011d9c0822","0","j","NA","space","space","space","space","j","360","NA","3765","89","20128","3021","360","2","legacy","1024","2","48000","-16","task","5226324","even","NA","43419","49189","45423","151230","13403","33661","13524","151733","141611","151226","151733","151168","49189","152095","41695","150668","13326","120397","Lexical Decision Task","57","44043","59","yes","1024"
"2.69019608","9.01","2","myth","word","96.66666666666667","96.66666666666667","742.6333333333333","742.6333333333333","black","no","legacy","legacy","legacy","0","uniform","1","undefined","undefined","undefined","1","j","0","0","0","0","59","0","0","0","59","0","55","59","55","0","55","3","59","0","59","Fri Feb 19 11:51:55 2021","The main experiment item","yes","Lexical_Decision_Task.osexp","/Users/student","no","Andale Mono","no","18","no","white","no","yes","576","legacy","55","55","3","/Users/student/Documents/subject-5226324.csv","legacy","Lentiform Loewenfeld","3.3.8","yes","yes","600bd7cfb6416f0113b04181","602110864497cf011d9c0822","0","j","NA","space","space","space","space","j","515","NA","3765","89","20128","3021","515","2","legacy","1024","2","48000","-16","task","5226324","even","NA","43419","49189","45423","152659","13403","33661","13524","153162","141611","152656","153163","152598","49189","153679","41695","152098","13326","120397","Lexical Decision Task","58","44558","60","yes","1024"
"2.899638141","0","3","hapt","non-word","96.72131147540983","96.72131147540983","742.9344262295082","742.9344262295082","black","no","legacy","legacy","legacy","0","uniform","1","undefined","undefined","undefined","1","f","0","0","0","0","60","0","0","0","60","0","56","60","56","0","56","3","60","0","60","Fri Feb 19 11:51:55 2021","The main experiment item","yes","Lexical_Decision_Task.osexp","/Users/student","no","Andale Mono","no","18","no","white","no","yes","576","legacy","56","56","3","/Users/student/Documents/subject-5226324.csv","legacy","Lentiform Loewenfeld","3.3.8","yes","yes","600bd7cfb6416f0113b04181","602110864497cf011d9c0822","0","f","NA","space","space","space","space","f","761","NA","3765","89","20128","3021","761","2","legacy","1024","2","48000","-16","task","5226324","even","NA","43419","49189","45423","154247","13403","33661","13524","154749","141611","154244","154749","154183","49189","155511","41695","153683","13326","120397","Lexical Decision Task","59","45319","61","yes","1024"
"2.814027728","8.2","4","foam","word","96.7741935483871","96.7741935483871","739.8870967741935","739.8870967741935","black","no","legacy","legacy","legacy","0","uniform","1","undefined","undefined","undefined","1","j","0","0","0","0","61","0","0","0","61","0","57","61","57","0","57","3","61","0","61","Fri Feb 19 11:51:55 2021","The main experiment item","yes","Lexical_Decision_Task.osexp","/Users/student","no","Andale Mono","no","18","no","white","no","yes","576","legacy","57","57","3","/Users/student/Documents/subject-5226324.csv","legacy","Lentiform Loewenfeld","3.3.8","yes","yes","600bd7cfb6416f0113b04181","602110864497cf011d9c0822","0","j","NA","space","space","space","space","j","554","NA","3765","89","20128","3021","554","2","legacy","1024","2","48000","-16","task","5226324","even","NA","43419","49189","45423","156078","13403","33661","13524","156580","141611","156075","156580","156016","49189","157136","41695","155516","13326","120397","Lexical Decision Task","60","45873","62","yes","1024"
"2.594027722","9.08","8","skip","word","96.82539682539682","96.82539682539682","736","736","black","no","legacy","legacy","legacy","0","uniform","1","undefined","undefined","undefined","1","j","0","0","0","0","62","0","0","0","62","0","58","62","58","0","58","3","62","0","62","Fri Feb 19 11:51:55 2021","The main experiment item","yes","Lexical_Decision_Task.osexp","/Users/student","no","Andale Mono","no","18","no","white","no","yes","576","legacy","58","58","3","/Users/student/Documents/subject-5226324.csv","legacy","Lentiform Loewenfeld","3.3.8","yes","yes","600bd7cfb6416f0113b04181","602110864497cf011d9c0822","0","j","NA","space","space","space","space","j","495","NA","3765","89","20128","3021","495","2","legacy","1024","2","48000","-16","task","5226324","even","NA","43419","49189","45423","157696","13403","33661","13524","158198","141611","157693","158199","157639","49189","158696","41695","157139","13326","120397","Lexical Decision Task","61","46368","63","yes","1024"
"3.347850856","10.51","2","rich","word","96.875","96.875","730.171875","730.171875","black","no","legacy","legacy","legacy","0","uniform","1","undefined","undefined","undefined","1","j","0","0","0","0","63","0","0","0","63","0","59","63","59","0","59","3","63","0","63","Fri Feb 19 11:51:55 2021","The main experiment item","yes","Lexical_Decision_Task.osexp","/Users/student","no","Andale Mono","no","18","no","white","no","yes","576","legacy","59","59","3","/Users/student/Documents/subject-5226324.csv","legacy","Lentiform Loewenfeld","3.3.8","yes","yes","600bd7cfb6416f0113b04181","602110864497cf011d9c0822","0","j","NA","space","space","space","space","j","363","NA","3765","89","20128","3021","363","2","legacy","1024","2","48000","-16","task","5226324","even","NA","43419","49189","45423","159261","13403","33661","13524","159763","141611","159258","159763","159199","49189","160128","41695","158699","13326","120397","Lexical Decision Task","62","46731","64","yes","1024"
"3.2757719","0","5","slea","non-word","96.92307692307692","96.92307692307692","728.123076923077","728.123076923077","black","no","legacy","legacy","legacy","0","uniform","1","undefined","undefined","undefined","1","f","0","0","0","0","64","0","0","0","64","0","60","64","60","0","60","3","64","0","64","Fri Feb 19 11:51:55 2021","The main experiment item","yes","Lexical_Decision_Task.osexp","/Users/student","no","Andale Mono","no","18","no","white","no","yes","576","legacy","60","60","3","/Users/student/Documents/subject-5226324.csv","legacy","Lentiform Loewenfeld","3.3.8","yes","yes","600bd7cfb6416f0113b04181","602110864497cf011d9c0822","0","f","NA","space","space","space","space","f","597","NA","3765","89","20128","3021","597","2","legacy","1024","2","48000","-16","task","5226324","even","NA","43419","49189","45423","160691","13403","33661","13524","161193","141611","160688","161193","160631","49189","161791","41695","160131","13326","120397","Lexical Decision Task","63","47328","65","yes","1024"
"2.706148589","0","4","hube","non-word","96.96969696969697","96.96969696969697","729.2878787878788","729.2878787878788","black","no","legacy","legacy","legacy","0","uniform","1","undefined","undefined","undefined","1","f","0","0","0","0","65","0","0","0","65","0","61","65","61","0","61","3","65","0","65","Fri Feb 19 11:51:55 2021","The main experiment item","yes","Lexical_Decision_Task.osexp","/Users/student","no","Andale Mono","no","18","no","white","no","yes","576","legacy","61","61","3","/Users/student/Documents/subject-5226324.csv","legacy","Lentiform Loewenfeld","3.3.8","yes","yes","600bd7cfb6416f0113b04181","602110864497cf011d9c0822","0","f","NA","space","space","space","space","f","805","NA","3765","89","20128","3021","805","2","legacy","1024","2","48000","-16","task","5226324","even","NA","43419","49189","45423","162352","13403","33661","13524","162854","141611","162349","162854","162295","49189","163660","41695","161795","13326","120397","Lexical Decision Task","64","48133","66","yes","1024"
"3.195807436","0","6","stup","non-word","97.01492537313433","97.01492537313433","725.7313432835821","725.7313432835821","black","no","legacy","legacy","legacy","0","uniform","1","undefined","undefined","undefined","1","f","0","0","0","0","66","0","0","0","66","0","62","66","62","0","62","3","66","0","66","Fri Feb 19 11:51:55 2021","The main experiment item","yes","Lexical_Decision_Task.osexp","/Users/student","no","Andale Mono","no","18","no","white","no","yes","576","legacy","62","62","3","/Users/student/Documents/subject-5226324.csv","legacy","Lentiform Loewenfeld","3.3.8","yes","yes","600bd7cfb6416f0113b04181","602110864497cf011d9c0822","0","f","NA","space","space","space","space","f","491","NA","3765","89","20128","3021","491","2","legacy","1024","2","48000","-16","task","5226324","even","NA","43419","49189","45423","164225","13403","33661","13524","164727","141611","164222","164727","164165","49189","165219","41695","163665","13326","120397","Lexical Decision Task","65","48624","67","yes","1024"
"2.698387659","6.66","7","skid","word","97.05882352941177","97.05882352941177","722.6617647058823","722.6617647058823","black","no","legacy","legacy","legacy","0","uniform","1","undefined","undefined","undefined","1","j","0","0","0","0","67","0","0","0","67","0","63","67","63","0","63","3","67","0","67","Fri Feb 19 11:51:55 2021","The main experiment item","yes","Lexical_Decision_Task.osexp","/Users/student","no","Andale Mono","no","18","no","white","no","yes","576","legacy","63","63","3","/Users/student/Documents/subject-5226324.csv","legacy","Lentiform Loewenfeld","3.3.8","yes","yes","600bd7cfb6416f0113b04181","602110864497cf011d9c0822","0","j","NA","space","space","space","space","j","517","NA","3765","89","20128","3021","517","2","legacy","1024","2","48000","-16","task","5226324","even","NA","43419","49189","45423","165784","13403","33661","13524","166286","141611","165781","166286","165722","49189","166804","41695","165222","13326","120397","Lexical Decision Task","66","49141","68","yes","1024"
"3.22685757","9.99","7","roll","word","97.10144927536231","97.10144927536231","719.072463768116","719.072463768116","black","no","legacy","legacy","legacy","0","uniform","1","undefined","undefined","undefined","1","j","0","0","0","0","68","0","0","0","68","0","64","68","64","0","64","3","68","0","68","Fri Feb 19 11:51:55 2021","The main experiment item","yes","Lexical_Decision_Task.osexp","/Users/student","no","Andale Mono","no","18","no","white","no","yes","576","legacy","64","64","3","/Users/student/Documents/subject-5226324.csv","legacy","Lentiform Loewenfeld","3.3.8","yes","yes","600bd7cfb6416f0113b04181","602110864497cf011d9c0822","0","j","NA","space","space","space","space","j","475","NA","3765","89","20128","3021","475","2","legacy","1024","2","48000","-16","task","5226324","even","NA","43419","49189","45423","167367","13403","33661","13524","167870","141611","167365","167870","167308","49189","168346","41695","166808","13326","120397","Lexical Decision Task","67","49616","69","yes","1024"
"2.996511672","0","7","hoil","non-word","97.14285714285714","97.14285714285714","716","716","black","no","legacy","legacy","legacy","0","uniform","1","undefined","undefined","undefined","1","f","0","0","0","0","69","0","0","0","69","0","65","69","65","0","65","3","69","0","69","Fri Feb 19 11:51:55 2021","The main experiment item","yes","Lexical_Decision_Task.osexp","/Users/student","no","Andale Mono","no","18","no","white","no","yes","576","legacy","65","65","3","/Users/student/Documents/subject-5226324.csv","legacy","Lentiform Loewenfeld","3.3.8","yes","yes","600bd7cfb6416f0113b04181","602110864497cf011d9c0822","0","f","NA","space","space","space","space","f","504","NA","3765","89","20128","3021","504","2","legacy","1024","2","48000","-16","task","5226324","even","NA","43419","49189","45423","168909","13403","33661","13524","169411","141611","168906","169411","168849","49189","169917","41695","168349","13326","120397","Lexical Decision Task","68","50120","70","yes","1024"
"2.696356389","0","1","pizz","non-word","97.1830985915493","97.1830985915493","715.5915492957746","715.5915492957746","black","no","legacy","legacy","legacy","0","uniform","1","undefined","undefined","undefined","1","f","0","0","0","0","70","0","0","0","70","0","66","70","66","0","66","3","70","0","70","Fri Feb 19 11:51:55 2021","The main experiment item","yes","Lexical_Decision_Task.osexp","/Users/student","no","Andale Mono","no","18","no","white","no","yes","576","legacy","66","66","3","/Users/student/Documents/subject-5226324.csv","legacy","Lentiform Loewenfeld","3.3.8","yes","yes","600bd7cfb6416f0113b04181","602110864497cf011d9c0822","0","f","NA","space","space","space","space","f","687","NA","3765","89","20128","3021","687","2","legacy","1024","2","48000","-16","task","5226324","even","NA","43419","49189","45423","170482","13403","33661","13524","170984","141611","170479","170984","170421","49189","171672","41695","169920","13326","120397","Lexical Decision Task","69","50807","71","yes","1024"
"3.440331212","7.35","6","stew","word","97.22222222222223","97.22222222222223","713.4305555555555","713.4305555555555","black","no","legacy","legacy","legacy","0","uniform","1","undefined","undefined","undefined","1","j","0","0","0","0","71","0","0","0","71","0","67","71","67","0","67","3","71","0","71","Fri Feb 19 11:51:55 2021","The main experiment item","yes","Lexical_Decision_Task.osexp","/Users/student","no","Andale Mono","no","18","no","white","no","yes","576","legacy","67","67","3","/Users/student/Documents/subject-5226324.csv","legacy","Lentiform Loewenfeld","3.3.8","yes","yes","600bd7cfb6416f0113b04181","602110864497cf011d9c0822","0","j","NA","space","space","space","space","j","560","NA","3765","89","20128","3021","560","2","legacy","1024","2","48000","-16","task","5226324","even","NA","43419","49189","45423","172233","13403","33661","13524","172736","141611","172231","172737","172175","49189","173298","41695","171675","13326","120397","Lexical Decision Task","70","51367","72","yes","1024"
"2.868644438","10.52","4","town","word","97.26027397260275","97.26027397260275","713.1095890410959","713.1095890410959","black","no","legacy","legacy","legacy","0","uniform","1","undefined","undefined","undefined","1","j","0","0","0","0","72","0","0","0","72","0","68","72","68","0","68","3","72","0","72","Fri Feb 19 11:51:55 2021","The main experiment item","yes","Lexical_Decision_Task.osexp","/Users/student","no","Andale Mono","no","18","no","white","no","yes","576","legacy","68","68","3","/Users/student/Documents/subject-5226324.csv","legacy","Lentiform Loewenfeld","3.3.8","yes","yes","600bd7cfb6416f0113b04181","602110864497cf011d9c0822","0","j","NA","space","space","space","space","j","690","NA","3765","89","20128","3021","690","2","legacy","1024","2","48000","-16","task","5226324","even","NA","43419","49189","45423","173862","13403","33661","13524","174364","141611","173859","174365","173801","49189","175057","41695","173301","13326","120397","Lexical Decision Task","71","52057","73","yes","1024"
"2.983324025","9.56","2","debt","word","97.29729729729729","97.29729729729729","710.0135135135135","710.0135135135135","black","no","legacy","legacy","legacy","0","uniform","1","undefined","undefined","undefined","1","j","0","0","0","0","73","0","0","0","73","0","69","73","69","0","69","3","73","0","73","Fri Feb 19 11:51:55 2021","The main experiment item","yes","Lexical_Decision_Task.osexp","/Users/student","no","Andale Mono","no","18","no","white","no","yes","576","legacy","69","69","3","/Users/student/Documents/subject-5226324.csv","legacy","Lentiform Loewenfeld","3.3.8","yes","yes","600bd7cfb6416f0113b04181","602110864497cf011d9c0822","0","j","NA","space","space","space","space","j","484","NA","3765","89","20128","3021","484","2","legacy","1024","2","48000","-16","task","5226324","even","NA","43419","49189","45423","175618","13403","33661","13524","176121","141611","175616","176121","175560","49189","176606","41695","175060","13326","120397","Lexical Decision Task","72","52541","74","yes","1024"
"3.062080345","0","6","tomp","non-word","97.33333333333333","97.33333333333333","706.9733333333334","706.9733333333334","black","no","legacy","legacy","legacy","0","uniform","1","undefined","undefined","undefined","1","f","0","0","0","0","74","0","0","0","74","0","70","74","70","0","70","3","74","0","74","Fri Feb 19 11:51:55 2021","The main experiment item","yes","Lexical_Decision_Task.osexp","/Users/student","no","Andale Mono","no","18","no","white","no","yes","576","legacy","70","70","3","/Users/student/Documents/subject-5226324.csv","legacy","Lentiform Loewenfeld","3.3.8","yes","yes","600bd7cfb6416f0113b04181","602110864497cf011d9c0822","0","f","NA","space","space","space","space","f","482","NA","3765","89","20128","3021","482","2","legacy","1024","2","48000","-16","task","5226324","even","NA","43419","49189","45423","177168","13403","33661","13524","177670","141611","177165","177670","177109","49189","178153","41695","176609","13326","120397","Lexical Decision Task","73","53023","75","yes","1024"
"3.208172527","10.27","7","deck","word","97.36842105263158","97.36842105263158","705.2368421052631","705.2368421052631","black","no","legacy","legacy","legacy","0","uniform","1","undefined","undefined","undefined","1","j","0","0","0","0","75","0","0","0","75","0","71","75","71","0","71","3","75","0","75","Fri Feb 19 11:51:55 2021","The main experiment item","yes","Lexical_Decision_Task.osexp","/Users/student","no","Andale Mono","no","18","no","white","no","yes","576","legacy","71","71","3","/Users/student/Documents/subject-5226324.csv","legacy","Lentiform Loewenfeld","3.3.8","yes","yes","600bd7cfb6416f0113b04181","602110864497cf011d9c0822","0","j","NA","space","space","space","space","j","575","NA","3765","89","20128","3021","575","2","legacy","1024","2","48000","-16","task","5226324","even","NA","43419","49189","45423","178718","13403","33661","13524","179221","141611","178716","179221","178657","49189","179797","41695","178157","13326","120397","Lexical Decision Task","74","53598","76","yes","1024"
"2.907588697","8.91","9","mood","word","97.40259740259741","97.40259740259741","701.9350649350649","701.9350649350649","black","no","legacy","legacy","legacy","0","uniform","1","undefined","undefined","undefined","1","j","0","0","0","0","76","0","0","0","76","0","72","76","72","0","72","3","76","0","76","Fri Feb 19 11:51:55 2021","The main experiment item","yes","Lexical_Decision_Task.osexp","/Users/student","no","Andale Mono","no","18","no","white","no","yes","576","legacy","72","72","3","/Users/student/Documents/subject-5226324.csv","legacy","Lentiform Loewenfeld","3.3.8","yes","yes","600bd7cfb6416f0113b04181","602110864497cf011d9c0822","0","j","NA","space","space","space","space","j","451","NA","3765","89","20128","3021","451","2","legacy","1024","2","48000","-16","task","5226324","even","NA","43419","49189","45423","180361","13403","33661","13524","180863","141611","180358","180864","180301","49189","181316","41695","179801","13326","120397","Lexical Decision Task","75","54049","77","yes","1024"
"2.664328519","0","4","plux","non-word","97.43589743589743","97.43589743589743","699.7179487179487","699.7179487179487","black","no","legacy","legacy","legacy","0","uniform","1","undefined","undefined","undefined","1","f","0","0","0","0","77","0","0","0","77","0","73","77","73","0","73","3","77","0","77","Fri Feb 19 11:51:55 2021","The main experiment item","yes","Lexical_Decision_Task.osexp","/Users/student","no","Andale Mono","no","18","no","white","no","yes","576","legacy","73","73","3","/Users/student/Documents/subject-5226324.csv","legacy","Lentiform Loewenfeld","3.3.8","yes","yes","600bd7cfb6416f0113b04181","602110864497cf011d9c0822","0","f","NA","space","space","space","space","f","529","NA","3765","89","20128","3021","529","2","legacy","1024","2","48000","-16","task","5226324","even","NA","43419","49189","45423","181881","13403","33661","13524","182384","141611","181878","182384","181820","49189","182915","41695","181320","13326","120397","Lexical Decision Task","76","54578","78","yes","1024"
"3.474361976","5.24","6","veer","word","97.46835443037975","97.46835443037975","698","698","black","no","legacy","legacy","legacy","0","uniform","1","undefined","undefined","undefined","1","j","0","0","0","0","78","0","0","0","78","0","74","78","74","0","74","3","78","0","78","Fri Feb 19 11:51:55 2021","The main experiment item","yes","Lexical_Decision_Task.osexp","/Users/student","no","Andale Mono","no","18","no","white","no","yes","576","legacy","74","74","3","/Users/student/Documents/subject-5226324.csv","legacy","Lentiform Loewenfeld","3.3.8","yes","yes","600bd7cfb6416f0113b04181","602110864497cf011d9c0822","0","j","NA","space","space","space","space","j","564","NA","3765","89","20128","3021","564","2","legacy","1024","2","48000","-16","task","5226324","even","NA","43419","49189","45423","183481","13403","33661","13524","183984","141611","183478","183984","183419","49189","184550","41695","182919","13326","120397","Lexical Decision Task","77","55142","79","yes","1024"
"3.088136089","8.32","9","worm","word","97.5","97.5","695.425","695.425","black","no","legacy","legacy","legacy","0","uniform","1","undefined","undefined","undefined","1","j","0","0","0","0","79","0","0","0","79","0","75","79","75","0","75","3","79","0","79","Fri Feb 19 11:51:55 2021","The main experiment item","yes","Lexical_Decision_Task.osexp","/Users/student","no","Andale Mono","no","18","no","white","no","yes","576","legacy","75","75","3","/Users/student/Documents/subject-5226324.csv","legacy","Lentiform Loewenfeld","3.3.8","yes","yes","600bd7cfb6416f0113b04181","602110864497cf011d9c0822","0","j","NA","space","space","space","space","j","492","NA","3765","89","20128","3021","492","2","legacy","1024","2","48000","-16","task","5226324","even","NA","43419","49189","45423","185111","13403","33661","13524","185613","141611","185109","185614","185053","49189","186107","41695","184553","13326","120397","Lexical Decision Task","78","55634","80","yes","1024"
"2.884795364","0","6","flob","non-word","97.53086419753086","97.53086419753086","692.283950617284","692.283950617284","black","no","legacy","legacy","legacy","0","uniform","1","undefined","undefined","undefined","1","f","0","0","0","0","80","0","0","0","80","0","76","80","76","0","76","3","80","0","80","Fri Feb 19 11:51:55 2021","The main experiment item","yes","Lexical_Decision_Task.osexp","/Users/student","no","Andale Mono","no","18","no","white","no","yes","576","legacy","76","76","3","/Users/student/Documents/subject-5226324.csv","legacy","Lentiform Loewenfeld","3.3.8","yes","yes","600bd7cfb6416f0113b04181","602110864497cf011d9c0822","0","f","NA","space","space","space","space","f","441","NA","3765","89","20128","3021","441","2","legacy","1024","2","48000","-16","task","5226324","even","NA","43419","49189","45423","186670","13403","33661","13524","187172","141611","186667","187172","186611","49189","187615","41695","186111","13326","120397","Lexical Decision Task","79","56075","81","yes","1024"
"2.784379519","0","2","snaf","non-word","97.5609756097561","97.5609756097561","690.3048780487804","690.3048780487804","black","no","legacy","legacy","legacy","0","uniform","1","undefined","undefined","undefined","1","f","0","0","0","0","81","0","0","0","81","0","77","81","77","0","77","3","81","0","81","Fri Feb 19 11:51:55 2021","The main experiment item","yes","Lexical_Decision_Task.osexp","/Users/student","no","Andale Mono","no","18","no","white","no","yes","576","legacy","77","77","3","/Users/student/Documents/subject-5226324.csv","legacy","Lentiform Loewenfeld","3.3.8","yes","yes","600bd7cfb6416f0113b04181","602110864497cf011d9c0822","0","f","NA","space","space","space","space","f","530","NA","3765","89","20128","3021","530","2","legacy","1024","2","48000","-16","task","5226324","even","NA","43419","49189","45423","188179","13403","33661","13524","188681","141611","188176","188682","188119","49189","189213","41695","187619","13326","120397","Lexical Decision Task","80","56605","82","yes","1024"
"2.698100546","0","9","mulk","non-word","97.59036144578313","97.59036144578313","688.4578313253012","688.4578313253012","black","no","legacy","legacy","legacy","0","uniform","1","undefined","undefined","undefined","1","f","0","0","0","0","82","0","0","0","82","0","78","82","78","0","78","3","82","0","82","Fri Feb 19 11:51:55 2021","The main experiment item","yes","Lexical_Decision_Task.osexp","/Users/student","no","Andale Mono","no","18","no","white","no","yes","576","legacy","78","78","3","/Users/student/Documents/subject-5226324.csv","legacy","Lentiform Loewenfeld","3.3.8","yes","yes","600bd7cfb6416f0113b04181","602110864497cf011d9c0822","0","f","NA","space","space","space","space","f","537","NA","3765","89","20128","3021","537","2","legacy","1024","2","48000","-16","task","5226324","even","NA","43419","49189","45423","189778","13403","33661","13524","190280","141611","189775","190281","189717","49189","190819","41695","189217","13326","120397","Lexical Decision Task","81","57142","83","yes","1024"
"2.981215883","10.66","5","hair","word","97.61904761904762","97.61904761904762","686.0714285714286","686.0714285714286","black","no","legacy","legacy","legacy","0","uniform","1","undefined","undefined","undefined","1","j","0","0","0","0","83","0","0","0","83","0","79","83","79","0","79","3","83","0","83","Fri Feb 19 11:51:55 2021","The main experiment item","yes","Lexical_Decision_Task.osexp","/Users/student","no","Andale Mono","no","18","no","white","no","yes","576","legacy","79","79","3","/Users/student/Documents/subject-5226324.csv","legacy","Lentiform Loewenfeld","3.3.8","yes","yes","600bd7cfb6416f0113b04181","602110864497cf011d9c0822","0","j","NA","space","space","space","space","j","488","NA","3765","89","20128","3021","488","2","legacy","1024","2","48000","-16","task","5226324","even","NA","43419","49189","45423","191384","13403","33661","13524","191886","141611","191382","191887","191323","49189","192376","41695","190823","13326","120397","Lexical Decision Task","82","57630","84","yes","1024"
"2.799799878","0","4","ciff","non-word","96.47058823529412","96.47058823529412","684.2","684.2","black","no","legacy","legacy","legacy","0","uniform","0","undefined","undefined","undefined","0","f","0","0","0","0","84","0","0","0","84","0","80","84","80","0","80","3","84","0","84","Fri Feb 19 11:51:55 2021","The main experiment item","yes","Lexical_Decision_Task.osexp","/Users/student","no","Andale Mono","no","18","no","white","no","yes","576","legacy","80","80","3","/Users/student/Documents/subject-5226324.csv","legacy","Lentiform Loewenfeld","3.3.8","yes","yes","600bd7cfb6416f0113b04181","602110864497cf011d9c0822","0","j","NA","space","space","space","space","j","527","NA","3765","89","20128","3021","527","2","legacy","1024","2","48000","-16","task","5226324","even","NA","43419","49189","45423","192942","13403","33661","13524","193444","141611","192939","193444","192880","49189","193972","41695","192380","13326","120397","Lexical Decision Task","82","58157","85","yes","1024"
"2.972357144","0","5","dasp","non-word","96.51162790697674","96.51162790697674","683.1162790697674","683.1162790697674","black","no","legacy","legacy","legacy","0","uniform","1","undefined","undefined","undefined","1","f","0","0","0","0","85","0","0","0","85","0","81","85","81","0","81","3","85","0","85","Fri Feb 19 11:51:55 2021","The main experiment item","yes","Lexical_Decision_Task.osexp","/Users/student","no","Andale Mono","no","18","no","white","no","yes","576","legacy","81","81","3","/Users/student/Documents/subject-5226324.csv","legacy","Lentiform Loewenfeld","3.3.8","yes","yes","600bd7cfb6416f0113b04181","602110864497cf011d9c0822","0","f","NA","space","space","space","space","f","591","NA","3765","89","20128","3021","591","2","legacy","1024","2","48000","-16","task","5226324","even","NA","43419","49189","45423","195559","13403","33661","13524","196061","141611","195533","196061","195475","49189","196653","41695","192380","13326","193975","Lexical Decision Task","83","58748","86","yes","1024"
"2.880623071","0","9","curp","non-word","96.55172413793103","96.55172413793103","682.9540229885057","682.9540229885057","black","no","legacy","legacy","legacy","0","uniform","1","undefined","undefined","undefined","1","f","0","0","0","0","86","0","0","0","86","0","82","86","82","0","82","3","86","0","86","Fri Feb 19 11:51:55 2021","The main experiment item","yes","Lexical_Decision_Task.osexp","/Users/student","no","Andale Mono","no","18","no","white","no","yes","576","legacy","82","82","3","/Users/student/Documents/subject-5226324.csv","legacy","Lentiform Loewenfeld","3.3.8","yes","yes","600bd7cfb6416f0113b04181","602110864497cf011d9c0822","0","f","NA","space","space","space","space","f","669","NA","3765","89","20128","3021","669","2","legacy","1024","2","48000","-16","task","5226324","even","NA","43419","49189","45423","197215","13403","33661","13524","197717","141611","197212","197717","197157","49189","198387","41695","196657","13326","193975","Lexical Decision Task","84","59417","87","yes","1024"
"3.529815197","0","3","lerm","non-word","96.5909090909091","96.5909090909091","680.9772727272727","680.9772727272727","black","no","legacy","legacy","legacy","0","uniform","1","undefined","undefined","undefined","1","f","0","0","0","0","87","0","0","0","87","0","83","87","83","0","83","3","87","0","87","Fri Feb 19 11:51:55 2021","The main experiment item","yes","Lexical_Decision_Task.osexp","/Users/student","no","Andale Mono","no","18","no","white","no","yes","576","legacy","83","83","3","/Users/student/Documents/subject-5226324.csv","legacy","Lentiform Loewenfeld","3.3.8","yes","yes","600bd7cfb6416f0113b04181","602110864497cf011d9c0822","0","f","NA","space","space","space","space","f","509","NA","3765","89","20128","3021","509","2","legacy","1024","2","48000","-16","task","5226324","even","NA","43419","49189","45423","198949","13403","33661","13524","199451","141611","198947","199451","198890","49189","199962","41695","198390","13326","193975","Lexical Decision Task","85","59926","88","yes","1024"
"3.153001286","8.7","5","palm","word","96.62921348314607","96.62921348314607","679.0449438202247","679.0449438202247","black","no","legacy","legacy","legacy","0","uniform","1","undefined","undefined","undefined","1","j","0","0","0","0","88","0","0","0","88","0","84","88","84","0","84","3","88","0","88","Fri Feb 19 11:51:55 2021","The main experiment item","yes","Lexical_Decision_Task.osexp","/Users/student","no","Andale Mono","no","18","no","white","no","yes","576","legacy","84","84","3","/Users/student/Documents/subject-5226324.csv","legacy","Lentiform Loewenfeld","3.3.8","yes","yes","600bd7cfb6416f0113b04181","602110864497cf011d9c0822","0","j","NA","space","space","space","space","j","509","NA","3765","89","20128","3021","509","2","legacy","1024","2","48000","-16","task","5226324","even","NA","43419","49189","45423","200529","13403","33661","13524","201031","141611","200526","201032","200466","49189","201542","41695","199966","13326","193975","Lexical Decision Task","86","60435","89","yes","1024"
"3.384413096","10.15","3","glad","word","96.66666666666667","96.66666666666667","676.9888888888889","676.9888888888889","black","no","legacy","legacy","legacy","0","uniform","1","undefined","undefined","undefined","1","j","0","0","0","0","89","0","0","0","89","0","85","89","85","0","85","3","89","0","89","Fri Feb 19 11:51:55 2021","The main experiment item","yes","Lexical_Decision_Task.osexp","/Users/student","no","Andale Mono","no","18","no","white","no","yes","576","legacy","85","85","3","/Users/student/Documents/subject-5226324.csv","legacy","Lentiform Loewenfeld","3.3.8","yes","yes","600bd7cfb6416f0113b04181","602110864497cf011d9c0822","0","j","NA","space","space","space","space","j","494","NA","3765","89","20128","3021","494","2","legacy","1024","2","48000","-16","task","5226324","even","NA","43419","49189","45423","202109","13403","33661","13524","202611","141611","202105","202611","202046","49189","203106","41695","201546","13326","193975","Lexical Decision Task","87","60929","90","yes","1024"
"3.307211407","6.07","7","honk","word","95.6043956043956","95.6043956043956","675.989010989011","675.989010989011","black","no","legacy","legacy","legacy","0","uniform","0","undefined","undefined","undefined","0","j","0","0","0","0","90","0","0","0","90","0","86","90","86","0","86","3","90","0","90","Fri Feb 19 11:51:55 2021","The main experiment item","yes","Lexical_Decision_Task.osexp","/Users/student","no","Andale Mono","no","18","no","white","no","yes","576","legacy","86","86","3","/Users/student/Documents/subject-5226324.csv","legacy","Lentiform Loewenfeld","3.3.8","yes","yes","600bd7cfb6416f0113b04181","602110864497cf011d9c0822","0","f","NA","space","space","space","space","f","586","NA","3765","89","20128","3021","586","2","legacy","1024","2","48000","-16","task","5226324","even","NA","43419","49189","45423","203670","13403","33661","13524","204173","141611","203668","204173","203610","49189","204761","41695","203110","13326","193975","Lexical Decision Task","87","61515","91","yes","1024"
"3.14849993","10.75","7","hour","word","95.65217391304348","95.65217391304348","672.8804347826087","672.8804347826087","black","no","legacy","legacy","legacy","0","uniform","1","undefined","undefined","undefined","1","j","0","0","0","0","91","0","0","0","91","0","87","91","87","0","87","3","91","0","91","Fri Feb 19 11:51:55 2021","The main experiment item","yes","Lexical_Decision_Task.osexp","/Users/student","no","Andale Mono","no","18","no","white","no","yes","576","legacy","87","87","3","/Users/student/Documents/subject-5226324.csv","legacy","Lentiform Loewenfeld","3.3.8","yes","yes","600bd7cfb6416f0113b04181","602110864497cf011d9c0822","0","j","NA","space","space","space","space","j","390","NA","3765","89","20128","3021","390","2","legacy","1024","2","48000","-16","task","5226324","even","NA","43419","49189","45423","206329","13403","33661","13524","206832","141611","206326","206833","206265","49189","207224","41695","203110","13326","204765","Lexical Decision Task","88","61905","92","yes","1024"
"3.15462682","0","6","noal","non-word","95.6989247311828","95.6989247311828","671.0752688172043","671.0752688172043","black","no","legacy","legacy","legacy","0","uniform","1","undefined","undefined","undefined","1","f","0","0","0","0","92","0","0","0","92","0","88","92","88","0","88","3","92","0","92","Fri Feb 19 11:51:55 2021","The main experiment item","yes","Lexical_Decision_Task.osexp","/Users/student","no","Andale Mono","no","18","no","white","no","yes","576","legacy","88","88","3","/Users/student/Documents/subject-5226324.csv","legacy","Lentiform Loewenfeld","3.3.8","yes","yes","600bd7cfb6416f0113b04181","602110864497cf011d9c0822","0","f","NA","space","space","space","space","f","505","NA","3765","89","20128","3021","505","2","legacy","1024","2","48000","-16","task","5226324","even","NA","43419","49189","45423","207792","13403","33661","13524","208297","141611","207787","208297","207727","49189","208803","41695","207227","13326","204765","Lexical Decision Task","89","62410","93","yes","1024"
"3.443783828","7.65","3","verb","word","95.74468085106383","95.74468085106383","669.1808510638298","669.1808510638298","black","no","legacy","legacy","legacy","0","uniform","1","undefined","undefined","undefined","1","j","0","0","0","0","93","0","0","0","93","0","89","93","89","0","89","3","93","0","93","Fri Feb 19 11:51:55 2021","The main experiment item","yes","Lexical_Decision_Task.osexp","/Users/student","no","Andale Mono","no","18","no","white","no","yes","576","legacy","89","89","3","/Users/student/Documents/subject-5226324.csv","legacy","Lentiform Loewenfeld","3.3.8","yes","yes","600bd7cfb6416f0113b04181","602110864497cf011d9c0822","0","j","NA","space","space","space","space","j","493","NA","3765","89","20128","3021","493","2","legacy","1024","2","48000","-16","task","5226324","even","NA","43419","49189","45423","209371","13403","33661","13524","209875","141611","209367","209876","209309","49189","210371","41695","208808","13326","204765","Lexical Decision Task","90","62903","94","yes","1024"
"2.767650507","0","6","yolt","non-word","95.78947368421052","95.78947368421052","668.8","668.8","black","no","legacy","legacy","legacy","0","uniform","1","undefined","undefined","undefined","1","f","0","0","0","0","94","0","0","0","94","0","90","94","90","0","90","3","94","0","94","Fri Feb 19 11:51:55 2021","The main experiment item","yes","Lexical_Decision_Task.osexp","/Users/student","no","Andale Mono","no","18","no","white","no","yes","576","legacy","90","90","3","/Users/student/Documents/subject-5226324.csv","legacy","Lentiform Loewenfeld","3.3.8","yes","yes","600bd7cfb6416f0113b04181","602110864497cf011d9c0822","0","f","NA","space","space","space","space","f","633","NA","3765","89","20128","3021","633","2","legacy","1024","2","48000","-16","task","5226324","even","NA","43419","49189","45423","210937","13403","33661","13524","211439","141611","210933","211439","210875","49189","212073","41695","210375","13326","204765","Lexical Decision Task","91","63536","95","yes","1024"
"3.303771854","0","9","dath","non-word","95.83333333333333","95.83333333333333","667.8125","667.8125","black","no","legacy","legacy","legacy","0","uniform","1","undefined","undefined","undefined","1","f","0","0","0","0","95","0","0","0","95","0","91","95","91","0","91","3","95","0","95","Fri Feb 19 11:51:55 2021","The main experiment item","yes","Lexical_Decision_Task.osexp","/Users/student","no","Andale Mono","no","18","no","white","no","yes","576","legacy","91","91","3","/Users/student/Documents/subject-5226324.csv","legacy","Lentiform Loewenfeld","3.3.8","yes","yes","600bd7cfb6416f0113b04181","602110864497cf011d9c0822","0","f","NA","space","space","space","space","f","574","NA","3765","89","20128","3021","574","2","legacy","1024","2","48000","-16","task","5226324","even","NA","43419","49189","45423","212638","13403","33661","13524","213142","141611","212635","213142","212577","49189","213717","41695","212077","13326","204765","Lexical Decision Task","92","64110","96","yes","1024"
"3.120135028","0","3","vals","non-word","95.87628865979381","95.87628865979381","666.1546391752578","666.1546391752578","black","no","legacy","legacy","legacy","0","uniform","1","undefined","undefined","undefined","1","f","0","0","0","0","96","0","0","0","96","0","92","96","92","0","92","3","96","0","96","Fri Feb 19 11:51:55 2021","The main experiment item","yes","Lexical_Decision_Task.osexp","/Users/student","no","Andale Mono","no","18","no","white","no","yes","576","legacy","92","92","3","/Users/student/Documents/subject-5226324.csv","legacy","Lentiform Loewenfeld","3.3.8","yes","yes","600bd7cfb6416f0113b04181","602110864497cf011d9c0822","0","f","NA","space","space","space","space","f","507","NA","3765","89","20128","3021","507","2","legacy","1024","2","48000","-16","task","5226324","even","NA","43419","49189","45423","214280","13403","33661","13524","214782","141611","214277","214782","214221","49189","215290","41695","213721","13326","204765","Lexical Decision Task","93","64617","97","yes","1024"
"3.397302518","7.01","2","knit","word","95.91836734693878","95.91836734693878","664.4795918367347","664.4795918367347","black","no","legacy","legacy","legacy","0","uniform","1","undefined","undefined","undefined","1","j","0","0","0","0","97","0","0","0","97","0","93","97","93","0","93","3","97","0","97","Fri Feb 19 11:51:55 2021","The main experiment item","yes","Lexical_Decision_Task.osexp","/Users/student","no","Andale Mono","no","18","no","white","no","yes","576","legacy","93","93","3","/Users/student/Documents/subject-5226324.csv","legacy","Lentiform Loewenfeld","3.3.8","yes","yes","600bd7cfb6416f0113b04181","602110864497cf011d9c0822","0","j","NA","space","space","space","space","j","502","NA","3765","89","20128","3021","502","2","legacy","1024","2","48000","-16","task","5226324","even","NA","43419","49189","45423","215853","13403","33661","13524","216355","141611","215851","216355","215793","49189","216859","41695","215293","13326","204765","Lexical Decision Task","94","65119","98","yes","1024"
"2.986323777","10.85","8","ship","word","95.95959595959596","95.95959595959596","662.7777777777778","662.7777777777778","black","no","legacy","legacy","legacy","0","uniform","1","undefined","undefined","undefined","1","j","0","0","0","0","98","0","0","0","98","0","94","98","94","0","94","3","98","0","98","Fri Feb 19 11:51:55 2021","The main experiment item","yes","Lexical_Decision_Task.osexp","/Users/student","no","Andale Mono","no","18","no","white","no","yes","576","legacy","94","94","3","/Users/student/Documents/subject-5226324.csv","legacy","Lentiform Loewenfeld","3.3.8","yes","yes","600bd7cfb6416f0113b04181","602110864497cf011d9c0822","0","j","NA","space","space","space","space","j","496","NA","3765","89","20128","3021","496","2","legacy","1024","2","48000","-16","task","5226324","even","NA","43419","49189","45423","217427","13403","33661","13524","217929","141611","217424","217929","217363","49189","218426","41695","216863","13326","204765","Lexical Decision Task","95","65615","99","yes","1024"
"3.363486562","6.93","9","lush","word","96","96","660.91","660.91","black","no","legacy","legacy","legacy","0","uniform","1","undefined","undefined","undefined","1","j","0","0","0","0","99","0","0","0","99","0","95","99","95","0","95","3","99","0","99","Fri Feb 19 11:51:55 2021","The main experiment item","yes","Lexical_Decision_Task.osexp","/Users/student","no","Andale Mono","no","18","no","white","no","yes","576","legacy","95","95","3","/Users/student/Documents/subject-5226324.csv","legacy","Lentiform Loewenfeld","3.3.8","yes","yes","600bd7cfb6416f0113b04181","602110864497cf011d9c0822","0","j","NA","space","space","space","space","j","476","NA","3765","89","20128","3021","476","2","legacy","1024","2","48000","-16","task","5226324","even","NA","43419","49189","45423","218990","13403","33661","13524","219492","141611","218987","219493","218929","49189","219970","41695","218429","13326","204765","Lexical Decision Task","96","66091","100","yes","1024"
"2.979548375","8.71","4","soup","word","96.03960396039604","96.03960396039604","658.6039603960396","658.6039603960396","black","no","legacy","legacy","legacy","0","uniform","1","undefined","undefined","undefined","1","j","0","0","0","0","100","0","0","0","100","0","96","100","96","0","96","3","100","0","100","Fri Feb 19 11:51:55 2021","The main experiment item","yes","Lexical_Decision_Task.osexp","/Users/student","no","Andale Mono","no","18","no","white","no","yes","576","legacy","96","96","3","/Users/student/Documents/subject-5226324.csv","legacy","Lentiform Loewenfeld","3.3.8","yes","yes","600bd7cfb6416f0113b04181","602110864497cf011d9c0822","0","j","NA","space","space","space","space","j","428","NA","3765","89","20128","3021","428","2","legacy","1024","2","48000","-16","task","5226324","even","NA","43419","49189","45423","220537","13403","33661","13524","221039","141611","220533","221039","220474","49189","221469","41695","219974","13326","204765","Lexical Decision Task","97","66519","101","yes","1024"
"3.311895072","0","9","gung","non-word","96.07843137254902","96.07843137254902","662.843137254902","662.843137254902","black","no","legacy","legacy","legacy","0","uniform","1","undefined","undefined","undefined","1","f","0","0","0","0","101","0","0","0","101","0","97","101","97","0","97","3","101","0","101","Fri Feb 19 11:51:55 2021","The main experiment item","yes","Lexical_Decision_Task.osexp","/Users/student","no","Andale Mono","no","18","no","white","no","yes","576","legacy","97","97","3","/Users/student/Documents/subject-5226324.csv","legacy","Lentiform Loewenfeld","3.3.8","yes","yes","600bd7cfb6416f0113b04181","602110864497cf011d9c0822","0","f","NA","space","space","space","space","f","1091","NA","3765","89","20128","3021","1091","2","legacy","1024","2","48000","-16","task","5226324","even","NA","43419","49189","45423","222034","13403","33661","13524","222537","141611","222031","222537","221973","49189","223630","41695","221472","13326","204765","Lexical Decision Task","98","67610","102","yes","1024"
