"Log_BG","Log_Freq_HAL","Ortho_N","Stimulus","Type","acc","accuracy","average_response_time","avg_rt","background","bidi","canvas_backend","clock_backend","color_backend","compensation","coordinates","correct","correct_Experimental_intro","correct_Introduction","correct_Practice_intro","correct_experimenter_kb","correct_response","count_End_Of_Experiment","count_End_Of_Practice","count_Experimental_Loop","count_Experimental_intro","count_Fixation","count_Introduction","count_Practice_Loop","count_Practice_intro","count_Stimulus","count_block_break_feedback","count_experimental_sequence","count_experimenter_kb","count_increment_trial_count","count_init_trial_count","count_logger","count_practice_sequence","count_right","count_task","count_wrong","datetime","description","disable_garbage_collection","experiment_path","font_bold","font_family","font_italic","font_size","font_underline","foreground","form_clicks","fullscreen","height","keyboard_backend","live_row","live_row_Experimental_Loop","live_row_Practice_Loop","logfile","mouse_backend","opensesame_codename","opensesame_version","osf_always_upload_data","osf_always_upload_experiment","osf_datanode_id","osf_id","repeat_cycle","response","response_End_Of_Experiment","response_Experimental_intro","response_Introduction","response_Practice_intro","response_block_break_feedback","response_experimenter_kb","response_time","response_time_End_Of_Experiment","response_time_Experimental_intro","response_time_Introduction","response_time_Practice_intro","response_time_block_break_feedback","response_time_experimenter_kb","round_decimals","sampler_backend","sound_buf_size","sound_channels","sound_freq","sound_sample_size","start","subject_nr","subject_parity","time_End_Of_Experiment","time_End_Of_Practice","time_Experimental_Loop","time_Experimental_intro","time_Fixation","time_Introduction","time_Practice_Loop","time_Practice_intro","time_Stimulus","time_block_break_feedback","time_experimental_sequence","time_experimenter_kb","time_increment_trial_count","time_init_trial_count","time_logger","time_practice_sequence","time_right","time_task","time_wrong","title","total_correct","total_response_time","total_responses","uniform_coordinates","width"
"3.028977705","0","7","frow","non-word","80","80","1633.4","1633.4","black","no","legacy","legacy","legacy","0","uniform","0","undefined","undefined","undefined","0","f","0","0","0","0","4","0","0","0","4","NA","0","4","0","0","0","3","4","0","4","Thu Feb 18 13:59:43 2021","The main experiment item","yes","C:/Users/username/Documents/Psych degree/SECOND YEAR/Semester 2/RMAS 2/Lexical_Decision_Task.osexp","no","Andale Mono","no","18","no","white","no","yes","576","legacy","0","0","3","C:/Users/username/Documents/Psych degree/SECOND YEAR/Semester 2/Cognition and language/assignment/subject-5065886.csv","legacy","Lentiform Loewenfeld","3.3.7","yes","yes","600bd7cfb6416f0113b04181","602110864497cf011d9c0822","0","None","NA","space","space","space","NA","None","3000","NA","2002","27712","6523","NA","3000","2","legacy","1024","2","48000","-16","task","5065886","even","NA","47852","51856","49854","51905","4024","38263","31739","52409","NA","51904","52410","NA","51856","55410","45838","47327","4013","NA","Lexical Decision Task","4","8167","5","yes","1024"
"3.149629599","0","2","cleb","non-word","83.33333333333333","83.33333333333333","1662.5","1662.5","black","no","legacy","legacy","legacy","0","uniform","1","undefined","undefined","undefined","1","f","0","0","0","0","5","0","0","0","5","NA","1","5","1","0","1","3","5","0","5","Thu Feb 18 13:59:43 2021","The main experiment item","yes","C:/Users/username/Documents/Psych degree/SECOND YEAR/Semester 2/RMAS 2/Lexical_Decision_Task.osexp","no","Andale Mono","no","18","no","white","no","yes","576","legacy","1","1","3","C:/Users/username/Documents/Psych degree/SECOND YEAR/Semester 2/Cognition and language/assignment/subject-5065886.csv","legacy","Lentiform Loewenfeld","3.3.7","yes","yes","600bd7cfb6416f0113b04181","602110864497cf011d9c0822","0","f","NA","space","space","space","NA","f","1808","NA","2002","27712","6523","NA","1808","2","legacy","1024","2","48000","-16","task","5065886","even","NA","47852","51856","49854","57015","4024","38263","31739","57520","NA","57013","57520","56917","51856","59328","45838","47327","4013","55417","Lexical Decision Task","5","9975","6","yes","1024"
"3.105055783","0","2","norp","non-word","85.71428571428571","85.71428571428571","1563.2857142857142","1563.2857142857142","black","no","legacy","legacy","legacy","0","uniform","1","undefined","undefined","undefined","1","f","0","0","0","0","6","0","0","0","6","NA","2","6","2","0","2","3","6","0","6","Thu Feb 18 13:59:43 2021","The main experiment item","yes","C:/Users/username/Documents/Psych degree/SECOND YEAR/Semester 2/RMAS 2/Lexical_Decision_Task.osexp","no","Andale Mono","no","18","no","white","no","yes","576","legacy","2","2","3","C:/Users/username/Documents/Psych degree/SECOND YEAR/Semester 2/Cognition and language/assignment/subject-5065886.csv","legacy","Lentiform Loewenfeld","3.3.7","yes","yes","600bd7cfb6416f0113b04181","602110864497cf011d9c0822","0","f","NA","space","space","space","NA","f","968","NA","2002","27712","6523","NA","968","2","legacy","1024","2","48000","-16","task","5065886","even","NA","47852","51856","49854","59900","4024","38263","31739","60404","NA","59898","60404","59832","51856","61373","45838","59332","4013","55417","Lexical Decision Task","6","10943","7","yes","1024"
"2.668385917","5.48","4","twig","word","87.5","87.5","1464.625","1464.625","black","no","legacy","legacy","legacy","0","uniform","1","undefined","undefined","undefined","1","j","0","0","0","0","7","0","0","0","7","NA","3","7","3","0","3","3","7","0","7","Thu Feb 18 13:59:43 2021","The main experiment item","yes","C:/Users/username/Documents/Psych degree/SECOND YEAR/Semester 2/RMAS 2/Lexical_Decision_Task.osexp","no","Andale Mono","no","18","no","white","no","yes","576","legacy","3","3","3","C:/Users/username/Documents/Psych degree/SECOND YEAR/Semester 2/Cognition and language/assignment/subject-5065886.csv","legacy","Lentiform Loewenfeld","3.3.7","yes","yes","600bd7cfb6416f0113b04181","602110864497cf011d9c0822","0","j","NA","space","space","space","NA","j","774","NA","2002","27712","6523","NA","774","2","legacy","1024","2","48000","-16","task","5065886","even","NA","47852","51856","49854","61945","4024","38263","31739","62446","NA","61944","62446","61877","51856","63221","45838","61377","4013","55417","Lexical Decision Task","7","11717","8","yes","1024"
"3.102203805","7.21","3","drip","word","88.88888888888889","88.88888888888889","1389.3333333333333","1389.3333333333333","black","no","legacy","legacy","legacy","0","uniform","1","undefined","undefined","undefined","1","j","0","0","0","0","8","0","0","0","8","NA","4","8","4","0","4","3","8","0","8","Thu Feb 18 13:59:43 2021","The main experiment item","yes","C:/Users/username/Documents/Psych degree/SECOND YEAR/Semester 2/RMAS 2/Lexical_Decision_Task.osexp","no","Andale Mono","no","18","no","white","no","yes","576","legacy","4","4","3","C:/Users/username/Documents/Psych degree/SECOND YEAR/Semester 2/Cognition and language/assignment/subject-5065886.csv","legacy","Lentiform Loewenfeld","3.3.7","yes","yes","600bd7cfb6416f0113b04181","602110864497cf011d9c0822","0","j","NA","space","space","space","NA","j","787","NA","2002","27712","6523","NA","787","2","legacy","1024","2","48000","-16","task","5065886","even","NA","47852","51856","49854","63805","4024","38263","31739","64309","NA","63803","64309","63724","51856","65097","45838","63224","4013","55417","Lexical Decision Task","8","12504","9","yes","1024"
"3.121778632","0","9","sark","non-word","90","90","1423.3","1423.3","black","no","legacy","legacy","legacy","0","uniform","1","undefined","undefined","undefined","1","f","0","0","0","0","9","0","0","0","9","NA","5","9","5","0","5","3","9","0","9","Thu Feb 18 13:59:43 2021","The main experiment item","yes","C:/Users/username/Documents/Psych degree/SECOND YEAR/Semester 2/RMAS 2/Lexical_Decision_Task.osexp","no","Andale Mono","no","18","no","white","no","yes","576","legacy","5","5","3","C:/Users/username/Documents/Psych degree/SECOND YEAR/Semester 2/Cognition and language/assignment/subject-5065886.csv","legacy","Lentiform Loewenfeld","3.3.7","yes","yes","600bd7cfb6416f0113b04181","602110864497cf011d9c0822","0","f","NA","space","space","space","NA","f","1729","NA","2002","27712","6523","NA","1729","2","legacy","1024","2","48000","-16","task","5065886","even","NA","47852","51856","49854","65668","4024","38263","31739","66171","NA","65666","66171","65600","51856","67900","45838","65100","4013","55417","Lexical Decision Task","9","14233","10","yes","1024"
"2.705007959","6.01","4","wept","word","90.9090909090909","90.9090909090909","1368.5454545454545","1368.5454545454545","black","no","legacy","legacy","legacy","0","uniform","1","undefined","undefined","undefined","1","j","0","0","0","0","10","0","0","0","10","NA","6","10","6","0","6","3","10","0","10","Thu Feb 18 13:59:43 2021","The main experiment item","yes","C:/Users/username/Documents/Psych degree/SECOND YEAR/Semester 2/RMAS 2/Lexical_Decision_Task.osexp","no","Andale Mono","no","18","no","white","no","yes","576","legacy","6","6","3","C:/Users/username/Documents/Psych degree/SECOND YEAR/Semester 2/Cognition and language/assignment/subject-5065886.csv","legacy","Lentiform Loewenfeld","3.3.7","yes","yes","600bd7cfb6416f0113b04181","602110864497cf011d9c0822","0","j","NA","space","space","space","NA","j","821","NA","2002","27712","6523","NA","821","2","legacy","1024","2","48000","-16","task","5065886","even","NA","47852","51856","49854","68485","4024","38263","31739","68989","NA","68484","68989","68410","51856","69811","45838","67910","4013","55417","Lexical Decision Task","10","15054","11","yes","1024"
"3.145920145","8.51","8","flew","word","91.66666666666667","91.66666666666667","1301","1301","black","no","legacy","legacy","legacy","0","uniform","1","undefined","undefined","undefined","1","j","0","0","0","0","11","0","0","0","11","NA","7","11","7","0","7","3","11","0","11","Thu Feb 18 13:59:43 2021","The main experiment item","yes","C:/Users/username/Documents/Psych degree/SECOND YEAR/Semester 2/RMAS 2/Lexical_Decision_Task.osexp","no","Andale Mono","no","18","no","white","no","yes","576","legacy","7","7","3","C:/Users/username/Documents/Psych degree/SECOND YEAR/Semester 2/Cognition and language/assignment/subject-5065886.csv","legacy","Lentiform Loewenfeld","3.3.7","yes","yes","600bd7cfb6416f0113b04181","602110864497cf011d9c0822","0","j","NA","space","space","space","NA","j","558","NA","2002","27712","6523","NA","558","2","legacy","1024","2","48000","-16","task","5065886","even","NA","47852","51856","49854","70392","4024","38263","31739","70894","NA","70391","70894","70314","51856","71453","45838","69814","4013","55417","Lexical Decision Task","11","15612","12","yes","1024"
"2.64476673","0","5","moft","non-word","92.3076923076923","92.3076923076923","1272.6153846153845","1272.6153846153845","black","no","legacy","legacy","legacy","0","uniform","1","undefined","undefined","undefined","1","f","0","0","0","0","12","0","0","0","12","NA","8","12","8","0","8","3","12","0","12","Thu Feb 18 13:59:43 2021","The main experiment item","yes","C:/Users/username/Documents/Psych degree/SECOND YEAR/Semester 2/RMAS 2/Lexical_Decision_Task.osexp","no","Andale Mono","no","18","no","white","no","yes","576","legacy","8","8","3","C:/Users/username/Documents/Psych degree/SECOND YEAR/Semester 2/Cognition and language/assignment/subject-5065886.csv","legacy","Lentiform Loewenfeld","3.3.7","yes","yes","600bd7cfb6416f0113b04181","602110864497cf011d9c0822","0","f","NA","space","space","space","NA","f","932","NA","2002","27712","6523","NA","932","2","legacy","1024","2","48000","-16","task","5065886","even","NA","47852","51856","49854","72032","4024","38263","31739","72536","NA","72030","72536","71957","51856","73469","45838","71457","4013","55417","Lexical Decision Task","12","16544","13","yes","1024"
"2.813801082","5.47","7","nook","word","92.85714285714286","92.85714285714286","1250.9285714285713","1250.9285714285713","black","no","legacy","legacy","legacy","0","uniform","1","undefined","undefined","undefined","1","j","0","0","0","0","13","0","0","0","13","NA","9","13","9","0","9","3","13","0","13","Thu Feb 18 13:59:43 2021","The main experiment item","yes","C:/Users/username/Documents/Psych degree/SECOND YEAR/Semester 2/RMAS 2/Lexical_Decision_Task.osexp","no","Andale Mono","no","18","no","white","no","yes","576","legacy","9","9","3","C:/Users/username/Documents/Psych degree/SECOND YEAR/Semester 2/Cognition and language/assignment/subject-5065886.csv","legacy","Lentiform Loewenfeld","3.3.7","yes","yes","600bd7cfb6416f0113b04181","602110864497cf011d9c0822","0","j","NA","space","space","space","NA","j","969","NA","2002","27712","6523","NA","969","2","legacy","1024","2","48000","-16","task","5065886","even","NA","47852","51856","49854","74047","4024","38263","31739","74551","NA","74045","74551","73972","51856","75520","45838","73472","4013","55417","Lexical Decision Task","13","17513","14","yes","1024"
"3.076883066","0","8","mout","non-word","93.33333333333333","93.33333333333333","1242.3333333333333","1242.3333333333333","black","no","legacy","legacy","legacy","0","uniform","1","undefined","undefined","undefined","1","f","0","0","0","0","14","0","0","0","14","NA","10","14","10","0","10","3","14","0","14","Thu Feb 18 13:59:43 2021","The main experiment item","yes","C:/Users/username/Documents/Psych degree/SECOND YEAR/Semester 2/RMAS 2/Lexical_Decision_Task.osexp","no","Andale Mono","no","18","no","white","no","yes","576","legacy","10","10","3","C:/Users/username/Documents/Psych degree/SECOND YEAR/Semester 2/Cognition and language/assignment/subject-5065886.csv","legacy","Lentiform Loewenfeld","3.3.7","yes","yes","600bd7cfb6416f0113b04181","602110864497cf011d9c0822","0","f","NA","space","space","space","NA","f","1122","NA","2002","27712","6523","NA","1122","2","legacy","1024","2","48000","-16","task","5065886","even","NA","47852","51856","49854","76099","4024","38263","31739","76604","NA","76097","76604","76024","51856","77727","45838","75524","4013","55417","Lexical Decision Task","14","18635","15","yes","1024"
"3.20871002","7.15","8","cram","word","93.75","93.75","1221.6875","1221.6875","black","no","legacy","legacy","legacy","0","uniform","1","undefined","undefined","undefined","1","j","0","0","0","0","15","0","0","0","15","NA","11","15","11","0","11","3","15","0","15","Thu Feb 18 13:59:43 2021","The main experiment item","yes","C:/Users/username/Documents/Psych degree/SECOND YEAR/Semester 2/RMAS 2/Lexical_Decision_Task.osexp","no","Andale Mono","no","18","no","white","no","yes","576","legacy","11","11","3","C:/Users/username/Documents/Psych degree/SECOND YEAR/Semester 2/Cognition and language/assignment/subject-5065886.csv","legacy","Lentiform Loewenfeld","3.3.7","yes","yes","600bd7cfb6416f0113b04181","602110864497cf011d9c0822","0","j","NA","space","space","space","NA","j","912","NA","2002","27712","6523","NA","912","2","legacy","1024","2","48000","-16","task","5065886","even","NA","47852","51856","49854","78311","4024","38263","31739","78812","NA","78309","78813","78237","51856","79725","45838","77737","4013","55417","Lexical Decision Task","15","19547","16","yes","1024"
"3.263399331","0","8","cour","non-word","94.11764705882354","94.11764705882354","1221.7058823529412","1221.7058823529412","black","no","legacy","legacy","legacy","0","uniform","1","undefined","undefined","undefined","1","f","0","0","0","0","16","0","0","0","16","NA","12","16","12","0","12","3","16","0","16","Thu Feb 18 13:59:43 2021","The main experiment item","yes","C:/Users/username/Documents/Psych degree/SECOND YEAR/Semester 2/RMAS 2/Lexical_Decision_Task.osexp","no","Andale Mono","no","18","no","white","no","yes","576","legacy","12","12","3","C:/Users/username/Documents/Psych degree/SECOND YEAR/Semester 2/Cognition and language/assignment/subject-5065886.csv","legacy","Lentiform Loewenfeld","3.3.7","yes","yes","600bd7cfb6416f0113b04181","602110864497cf011d9c0822","0","f","NA","space","space","space","NA","f","1222","NA","2002","27712","6523","NA","1222","2","legacy","1024","2","48000","-16","task","5065886","even","NA","47852","51856","49854","80304","4024","38263","31739","80807","NA","80303","80807","80229","51856","82030","45838","79729","4013","55417","Lexical Decision Task","16","20769","17","yes","1024"
"2.664011697","8.19","4","hawk","word","94.44444444444444","94.44444444444444","1207.7222222222222","1207.7222222222222","black","no","legacy","legacy","legacy","0","uniform","1","undefined","undefined","undefined","1","j","0","0","0","0","17","0","0","0","17","NA","13","17","13","0","13","3","17","0","17","Thu Feb 18 13:59:43 2021","The main experiment item","yes","C:/Users/username/Documents/Psych degree/SECOND YEAR/Semester 2/RMAS 2/Lexical_Decision_Task.osexp","no","Andale Mono","no","18","no","white","no","yes","576","legacy","13","13","3","C:/Users/username/Documents/Psych degree/SECOND YEAR/Semester 2/Cognition and language/assignment/subject-5065886.csv","legacy","Lentiform Loewenfeld","3.3.7","yes","yes","600bd7cfb6416f0113b04181","602110864497cf011d9c0822","0","j","NA","space","space","space","NA","j","970","NA","2002","27712","6523","NA","970","2","legacy","1024","2","48000","-16","task","5065886","even","NA","47852","51856","49854","82608","4024","38263","31739","83111","NA","82606","83111","82534","51856","84082","45838","82034","4013","55417","Lexical Decision Task","17","21739","18","yes","1024"
"3.269668578","0","7","trag","non-word","94.73684210526316","94.73684210526316","1200.0526315789473","1200.0526315789473","black","no","legacy","legacy","legacy","0","uniform","1","undefined","undefined","undefined","1","f","0","0","0","0","18","0","0","0","18","NA","14","18","14","0","14","3","18","0","18","Thu Feb 18 13:59:43 2021","The main experiment item","yes","C:/Users/username/Documents/Psych degree/SECOND YEAR/Semester 2/RMAS 2/Lexical_Decision_Task.osexp","no","Andale Mono","no","18","no","white","no","yes","576","legacy","14","14","3","C:/Users/username/Documents/Psych degree/SECOND YEAR/Semester 2/Cognition and language/assignment/subject-5065886.csv","legacy","Lentiform Loewenfeld","3.3.7","yes","yes","600bd7cfb6416f0113b04181","602110864497cf011d9c0822","0","f","NA","space","space","space","NA","f","1062","NA","2002","27712","6523","NA","1062","2","legacy","1024","2","48000","-16","task","5065886","even","NA","47852","51856","49854","84670","4024","38263","31739","85175","NA","84668","85176","84591","51856","86239","45838","84091","4013","55417","Lexical Decision Task","18","22801","19","yes","1024"
"3.20996159","0","4","clee","non-word","95","95","1216.9","1216.9","black","no","legacy","legacy","legacy","0","uniform","1","undefined","undefined","undefined","1","f","0","0","0","0","19","0","0","0","19","NA","15","19","15","0","15","3","19","0","19","Thu Feb 18 13:59:43 2021","The main experiment item","yes","C:/Users/username/Documents/Psych degree/SECOND YEAR/Semester 2/RMAS 2/Lexical_Decision_Task.osexp","no","Andale Mono","no","18","no","white","no","yes","576","legacy","15","15","3","C:/Users/username/Documents/Psych degree/SECOND YEAR/Semester 2/Cognition and language/assignment/subject-5065886.csv","legacy","Lentiform Loewenfeld","3.3.7","yes","yes","600bd7cfb6416f0113b04181","602110864497cf011d9c0822","0","f","NA","space","space","space","NA","f","1537","NA","2002","27712","6523","NA","1537","2","legacy","1024","2","48000","-16","task","5065886","even","NA","47852","51856","49854","86822","4024","38263","31739","87326","NA","86820","87327","86743","51856","88864","45838","86243","4013","55417","Lexical Decision Task","19","24338","20","yes","1024"
"3.209246849","0","7","slem","non-word","95.23809523809524","95.23809523809524","1203.5238095238096","1203.5238095238096","black","no","legacy","legacy","legacy","0","uniform","1","undefined","undefined","undefined","1","f","0","0","0","0","20","0","0","0","20","NA","16","20","16","0","16","3","20","0","20","Thu Feb 18 13:59:43 2021","The main experiment item","yes","C:/Users/username/Documents/Psych degree/SECOND YEAR/Semester 2/RMAS 2/Lexical_Decision_Task.osexp","no","Andale Mono","no","18","no","white","no","yes","576","legacy","16","16","3","C:/Users/username/Documents/Psych degree/SECOND YEAR/Semester 2/Cognition and language/assignment/subject-5065886.csv","legacy","Lentiform Loewenfeld","3.3.7","yes","yes","600bd7cfb6416f0113b04181","602110864497cf011d9c0822","0","f","NA","space","space","space","NA","f","936","NA","2002","27712","6523","NA","936","2","legacy","1024","2","48000","-16","task","5065886","even","NA","47852","51856","49854","89436","4024","38263","31739","89941","NA","89434","89941","89368","51856","90878","45838","88868","4013","55417","Lexical Decision Task","20","25274","21","yes","1024"
"2.899092422","7.27","6","snag","word","95.45454545454545","95.45454545454545","1185.5","1185.5","black","no","legacy","legacy","legacy","0","uniform","1","undefined","undefined","undefined","1","j","0","0","0","0","21","0","0","0","21","NA","17","21","17","0","17","3","21","0","21","Thu Feb 18 13:59:43 2021","The main experiment item","yes","C:/Users/username/Documents/Psych degree/SECOND YEAR/Semester 2/RMAS 2/Lexical_Decision_Task.osexp","no","Andale Mono","no","18","no","white","no","yes","576","legacy","17","17","3","C:/Users/username/Documents/Psych degree/SECOND YEAR/Semester 2/Cognition and language/assignment/subject-5065886.csv","legacy","Lentiform Loewenfeld","3.3.7","yes","yes","600bd7cfb6416f0113b04181","602110864497cf011d9c0822","0","j","NA","space","space","space","NA","j","807","NA","2002","27712","6523","NA","807","2","legacy","1024","2","48000","-16","task","5065886","even","NA","47852","51856","49854","91457","4024","38263","31739","91958","NA","91455","91958","91382","51856","92766","45838","90882","4013","55417","Lexical Decision Task","21","26081","22","yes","1024"
"3.363486562","6.93","9","lush","word","95.65217391304348","95.65217391304348","1161.0434782608695","1161.0434782608695","black","no","legacy","legacy","legacy","0","uniform","1","undefined","undefined","undefined","1","j","0","0","0","0","22","0","0","0","22","NA","18","22","18","0","18","3","22","0","22","Thu Feb 18 13:59:43 2021","The main experiment item","yes","C:/Users/username/Documents/Psych degree/SECOND YEAR/Semester 2/RMAS 2/Lexical_Decision_Task.osexp","no","Andale Mono","no","18","no","white","no","yes","576","legacy","18","18","3","C:/Users/username/Documents/Psych degree/SECOND YEAR/Semester 2/Cognition and language/assignment/subject-5065886.csv","legacy","Lentiform Loewenfeld","3.3.7","yes","yes","600bd7cfb6416f0113b04181","602110864497cf011d9c0822","0","j","NA","space","space","space","NA","j","623","NA","2002","27712","6523","NA","623","2","legacy","1024","2","48000","-16","task","5065886","even","NA","47852","51856","49854","93338","4024","38263","31739","93840","NA","93337","93840","93270","51856","94464","45838","92769","4013","55417","Lexical Decision Task","22","26704","23","yes","1024"
"2.664328519","0","4","plux","non-word","95.83333333333333","95.83333333333333","1140.4583333333333","1140.4583333333333","black","no","legacy","legacy","legacy","0","uniform","1","undefined","undefined","undefined","1","f","0","0","0","0","23","0","0","0","23","NA","19","23","19","0","19","3","23","0","23","Thu Feb 18 13:59:43 2021","The main experiment item","yes","C:/Users/username/Documents/Psych degree/SECOND YEAR/Semester 2/RMAS 2/Lexical_Decision_Task.osexp","no","Andale Mono","no","18","no","white","no","yes","576","legacy","19","19","3","C:/Users/username/Documents/Psych degree/SECOND YEAR/Semester 2/Cognition and language/assignment/subject-5065886.csv","legacy","Lentiform Loewenfeld","3.3.7","yes","yes","600bd7cfb6416f0113b04181","602110864497cf011d9c0822","0","f","NA","space","space","space","NA","f","667","NA","2002","27712","6523","NA","667","2","legacy","1024","2","48000","-16","task","5065886","even","NA","47852","51856","49854","95045","4024","38263","31739","95550","NA","95043","95550","94967","51856","96217","45838","94467","4013","55417","Lexical Decision Task","23","27371","24","yes","1024"
"2.709837904","6.85","8","skim","word","92","92","1139.52","1139.52","black","no","legacy","legacy","legacy","0","uniform","0","undefined","undefined","undefined","0","j","0","0","0","0","24","0","0","0","24","NA","20","24","20","0","20","3","24","0","24","Thu Feb 18 13:59:43 2021","The main experiment item","yes","C:/Users/username/Documents/Psych degree/SECOND YEAR/Semester 2/RMAS 2/Lexical_Decision_Task.osexp","no","Andale Mono","no","18","no","white","no","yes","576","legacy","20","20","3","C:/Users/username/Documents/Psych degree/SECOND YEAR/Semester 2/Cognition and language/assignment/subject-5065886.csv","legacy","Lentiform Loewenfeld","3.3.7","yes","yes","600bd7cfb6416f0113b04181","602110864497cf011d9c0822","0","f","NA","space","space","space","NA","f","1117","NA","2002","27712","6523","NA","1117","2","legacy","1024","2","48000","-16","task","5065886","even","NA","47852","51856","49854","96807","4024","38263","31739","97312","NA","96805","97312","96727","51856","98430","45838","96227","4013","55417","Lexical Decision Task","23","28488","25","yes","1024"
"3.168890155","0","6","thet","non-word","92.3076923076923","92.3076923076923","1132.5","1132.5","black","no","legacy","legacy","legacy","0","uniform","1","undefined","undefined","undefined","1","f","0","0","0","0","25","0","0","0","25","NA","21","25","21","0","21","3","25","0","25","Thu Feb 18 13:59:43 2021","The main experiment item","yes","C:/Users/username/Documents/Psych degree/SECOND YEAR/Semester 2/RMAS 2/Lexical_Decision_Task.osexp","no","Andale Mono","no","18","no","white","no","yes","576","legacy","21","21","3","C:/Users/username/Documents/Psych degree/SECOND YEAR/Semester 2/Cognition and language/assignment/subject-5065886.csv","legacy","Lentiform Loewenfeld","3.3.7","yes","yes","600bd7cfb6416f0113b04181","602110864497cf011d9c0822","0","f","NA","space","space","space","NA","f","957","NA","2002","27712","6523","NA","957","2","legacy","1024","2","48000","-16","task","5065886","even","NA","47852","51856","49854","100007","4024","38263","31739","100508","NA","100005","100508","99934","51856","101466","45838","96227","4013","98434","Lexical Decision Task","24","29445","26","yes","1024"
"3.14849993","10.75","7","hour","word","92.5925925925926","92.5925925925926","1115.2962962962963","1115.2962962962963","black","no","legacy","legacy","legacy","0","uniform","1","undefined","undefined","undefined","1","j","0","0","0","0","26","0","0","0","26","NA","22","26","22","0","22","3","26","0","26","Thu Feb 18 13:59:43 2021","The main experiment item","yes","C:/Users/username/Documents/Psych degree/SECOND YEAR/Semester 2/RMAS 2/Lexical_Decision_Task.osexp","no","Andale Mono","no","18","no","white","no","yes","576","legacy","22","22","3","C:/Users/username/Documents/Psych degree/SECOND YEAR/Semester 2/Cognition and language/assignment/subject-5065886.csv","legacy","Lentiform Loewenfeld","3.3.7","yes","yes","600bd7cfb6416f0113b04181","602110864497cf011d9c0822","0","j","NA","space","space","space","NA","j","668","NA","2002","27712","6523","NA","668","2","legacy","1024","2","48000","-16","task","5065886","even","NA","47852","51856","49854","102055","4024","38263","31739","102557","NA","102053","102557","101975","51856","103226","45838","101475","4013","98434","Lexical Decision Task","25","30113","27","yes","1024"
"2.981215883","10.66","5","hair","word","92.85714285714286","92.85714285714286","1097.0714285714287","1097.0714285714287","black","no","legacy","legacy","legacy","0","uniform","1","undefined","undefined","undefined","1","j","0","0","0","0","27","0","0","0","27","NA","23","27","23","0","23","3","27","0","27","Thu Feb 18 13:59:43 2021","The main experiment item","yes","C:/Users/username/Documents/Psych degree/SECOND YEAR/Semester 2/RMAS 2/Lexical_Decision_Task.osexp","no","Andale Mono","no","18","no","white","no","yes","576","legacy","23","23","3","C:/Users/username/Documents/Psych degree/SECOND YEAR/Semester 2/Cognition and language/assignment/subject-5065886.csv","legacy","Lentiform Loewenfeld","3.3.7","yes","yes","600bd7cfb6416f0113b04181","602110864497cf011d9c0822","0","j","NA","space","space","space","NA","j","605","NA","2002","27712","6523","NA","605","2","legacy","1024","2","48000","-16","task","5065886","even","NA","47852","51856","49854","103822","4024","38263","31739","104327","NA","103820","104328","103736","51856","104933","45838","103236","4013","98434","Lexical Decision Task","26","30718","28","yes","1024"
"3.140404328","10.66","9","deep","word","93.10344827586206","93.10344827586206","1093.4827586206898","1093.4827586206898","black","no","legacy","legacy","legacy","0","uniform","1","undefined","undefined","undefined","1","j","0","0","0","0","28","0","0","0","28","NA","24","28","24","0","24","3","28","0","28","Thu Feb 18 13:59:43 2021","The main experiment item","yes","C:/Users/username/Documents/Psych degree/SECOND YEAR/Semester 2/RMAS 2/Lexical_Decision_Task.osexp","no","Andale Mono","no","18","no","white","no","yes","576","legacy","24","24","3","C:/Users/username/Documents/Psych degree/SECOND YEAR/Semester 2/Cognition and language/assignment/subject-5065886.csv","legacy","Lentiform Loewenfeld","3.3.7","yes","yes","600bd7cfb6416f0113b04181","602110864497cf011d9c0822","0","j","NA","space","space","space","NA","j","993","NA","2002","27712","6523","NA","993","2","legacy","1024","2","48000","-16","task","5065886","even","NA","47852","51856","49854","105523","4024","38263","31739","106028","NA","105521","106028","105443","51856","107021","45838","104943","4013","98434","Lexical Decision Task","27","31711","29","yes","1024"
"2.6599162","0","2","saff","non-word","93.33333333333333","93.33333333333333","1099.8666666666666","1099.8666666666666","black","no","legacy","legacy","legacy","0","uniform","1","undefined","undefined","undefined","1","f","0","0","0","0","29","0","0","0","29","NA","25","29","25","0","25","3","29","0","29","Thu Feb 18 13:59:43 2021","The main experiment item","yes","C:/Users/username/Documents/Psych degree/SECOND YEAR/Semester 2/RMAS 2/Lexical_Decision_Task.osexp","no","Andale Mono","no","18","no","white","no","yes","576","legacy","25","25","3","C:/Users/username/Documents/Psych degree/SECOND YEAR/Semester 2/Cognition and language/assignment/subject-5065886.csv","legacy","Lentiform Loewenfeld","3.3.7","yes","yes","600bd7cfb6416f0113b04181","602110864497cf011d9c0822","0","f","NA","space","space","space","NA","f","1285","NA","2002","27712","6523","NA","1285","2","legacy","1024","2","48000","-16","task","5065886","even","NA","47852","51856","49854","107592","4024","38263","31739","108095","NA","107590","108095","107525","51856","109381","45838","107025","4013","98434","Lexical Decision Task","28","32996","30","yes","1024"
"3.003891166","8.05","2","frog","word","93.54838709677419","93.54838709677419","1092.5483870967741","1092.5483870967741","black","no","legacy","legacy","legacy","0","uniform","1","undefined","undefined","undefined","1","j","0","0","0","0","30","0","0","0","30","NA","26","30","26","0","26","3","30","0","30","Thu Feb 18 13:59:43 2021","The main experiment item","yes","C:/Users/username/Documents/Psych degree/SECOND YEAR/Semester 2/RMAS 2/Lexical_Decision_Task.osexp","no","Andale Mono","no","18","no","white","no","yes","576","legacy","26","26","3","C:/Users/username/Documents/Psych degree/SECOND YEAR/Semester 2/Cognition and language/assignment/subject-5065886.csv","legacy","Lentiform Loewenfeld","3.3.7","yes","yes","600bd7cfb6416f0113b04181","602110864497cf011d9c0822","0","j","NA","space","space","space","NA","j","873","NA","2002","27712","6523","NA","873","2","legacy","1024","2","48000","-16","task","5065886","even","NA","47852","51856","49854","109953","4024","38263","31739","110456","NA","109951","110456","109885","51856","111330","45838","109385","4013","98434","Lexical Decision Task","29","33869","31","yes","1024"
"2.693726949","5.08","3","swig","word","93.75","93.75","1075.6875","1075.6875","black","no","legacy","legacy","legacy","0","uniform","1","undefined","undefined","undefined","1","j","0","0","0","0","31","0","0","0","31","NA","27","31","27","0","27","3","31","0","31","Thu Feb 18 13:59:43 2021","The main experiment item","yes","C:/Users/username/Documents/Psych degree/SECOND YEAR/Semester 2/RMAS 2/Lexical_Decision_Task.osexp","no","Andale Mono","no","18","no","white","no","yes","576","legacy","27","27","3","C:/Users/username/Documents/Psych degree/SECOND YEAR/Semester 2/Cognition and language/assignment/subject-5065886.csv","legacy","Lentiform Loewenfeld","3.3.7","yes","yes","600bd7cfb6416f0113b04181","602110864497cf011d9c0822","0","j","NA","space","space","space","NA","j","553","NA","2002","27712","6523","NA","553","2","legacy","1024","2","48000","-16","task","5065886","even","NA","47852","51856","49854","111902","4024","38263","31739","112405","NA","111900","112405","111834","51856","112959","45838","111334","4013","98434","Lexical Decision Task","30","34422","32","yes","1024"
"2.980911938","7.15","7","hoop","word","93.93939393939394","93.93939393939394","1058.7272727272727","1058.7272727272727","black","no","legacy","legacy","legacy","0","uniform","1","undefined","undefined","undefined","1","j","0","0","0","0","32","0","0","0","32","NA","28","32","28","0","28","3","32","0","32","Thu Feb 18 13:59:43 2021","The main experiment item","yes","C:/Users/username/Documents/Psych degree/SECOND YEAR/Semester 2/RMAS 2/Lexical_Decision_Task.osexp","no","Andale Mono","no","18","no","white","no","yes","576","legacy","28","28","3","C:/Users/username/Documents/Psych degree/SECOND YEAR/Semester 2/Cognition and language/assignment/subject-5065886.csv","legacy","Lentiform Loewenfeld","3.3.7","yes","yes","600bd7cfb6416f0113b04181","602110864497cf011d9c0822","0","j","NA","space","space","space","NA","j","516","NA","2002","27712","6523","NA","516","2","legacy","1024","2","48000","-16","task","5065886","even","NA","47852","51856","49854","113536","4024","38263","31739","114041","NA","113535","114041","113463","51856","114557","45838","112962","4013","98434","Lexical Decision Task","31","34938","33","yes","1024"
"3.353210739","0","9","reet","non-word","94.11764705882354","94.11764705882354","1065.5","1065.5","black","no","legacy","legacy","legacy","0","uniform","1","undefined","undefined","undefined","1","f","0","0","0","0","33","0","0","0","33","NA","29","33","29","0","29","3","33","0","33","Thu Feb 18 13:59:43 2021","The main experiment item","yes","C:/Users/username/Documents/Psych degree/SECOND YEAR/Semester 2/RMAS 2/Lexical_Decision_Task.osexp","no","Andale Mono","no","18","no","white","no","yes","576","legacy","29","29","3","C:/Users/username/Documents/Psych degree/SECOND YEAR/Semester 2/Cognition and language/assignment/subject-5065886.csv","legacy","Lentiform Loewenfeld","3.3.7","yes","yes","600bd7cfb6416f0113b04181","602110864497cf011d9c0822","0","f","NA","space","space","space","NA","f","1289","NA","2002","27712","6523","NA","1289","2","legacy","1024","2","48000","-16","task","5065886","even","NA","47852","51856","49854","115143","4024","38263","31739","115644","NA","115141","115644","115067","51856","116934","45838","114567","4013","98434","Lexical Decision Task","32","36227","34","yes","1024"
"2.996511672","0","7","hoil","non-word","94.28571428571429","94.28571428571429","1058.3714285714286","1058.3714285714286","black","no","legacy","legacy","legacy","0","uniform","1","undefined","undefined","undefined","1","f","0","0","0","0","34","0","0","0","34","NA","30","34","30","0","30","3","34","0","34","Thu Feb 18 13:59:43 2021","The main experiment item","yes","C:/Users/username/Documents/Psych degree/SECOND YEAR/Semester 2/RMAS 2/Lexical_Decision_Task.osexp","no","Andale Mono","no","18","no","white","no","yes","576","legacy","30","30","3","C:/Users/username/Documents/Psych degree/SECOND YEAR/Semester 2/Cognition and language/assignment/subject-5065886.csv","legacy","Lentiform Loewenfeld","3.3.7","yes","yes","600bd7cfb6416f0113b04181","602110864497cf011d9c0822","0","f","NA","space","space","space","NA","f","816","NA","2002","27712","6523","NA","816","2","legacy","1024","2","48000","-16","task","5065886","even","NA","47852","51856","49854","117506","4024","38263","31739","118007","NA","117504","118007","117437","51856","118823","45838","116937","4013","98434","Lexical Decision Task","33","37043","35","yes","1024"
"3.443783828","7.65","3","verb","word","94.44444444444444","94.44444444444444","1048.25","1048.25","black","no","legacy","legacy","legacy","0","uniform","1","undefined","undefined","undefined","1","j","0","0","0","0","35","0","0","0","35","NA","31","35","31","0","31","3","35","0","35","Thu Feb 18 13:59:43 2021","The main experiment item","yes","C:/Users/username/Documents/Psych degree/SECOND YEAR/Semester 2/RMAS 2/Lexical_Decision_Task.osexp","no","Andale Mono","no","18","no","white","no","yes","576","legacy","31","31","3","C:/Users/username/Documents/Psych degree/SECOND YEAR/Semester 2/Cognition and language/assignment/subject-5065886.csv","legacy","Lentiform Loewenfeld","3.3.7","yes","yes","600bd7cfb6416f0113b04181","602110864497cf011d9c0822","0","j","NA","space","space","space","NA","j","694","NA","2002","27712","6523","NA","694","2","legacy","1024","2","48000","-16","task","5065886","even","NA","47852","51856","49854","119409","4024","38263","31739","119913","NA","119408","119914","119336","51856","120608","45838","118836","4013","98434","Lexical Decision Task","34","37737","36","yes","1024"
"3.134602053","0","8","jart","non-word","91.89189189189189","91.89189189189189","1049.5135135135135","1049.5135135135135","black","no","legacy","legacy","legacy","0","uniform","0","undefined","undefined","undefined","0","f","0","0","0","0","36","0","0","0","36","NA","32","36","32","0","32","3","36","0","36","Thu Feb 18 13:59:43 2021","The main experiment item","yes","C:/Users/username/Documents/Psych degree/SECOND YEAR/Semester 2/RMAS 2/Lexical_Decision_Task.osexp","no","Andale Mono","no","18","no","white","no","yes","576","legacy","32","32","3","C:/Users/username/Documents/Psych degree/SECOND YEAR/Semester 2/Cognition and language/assignment/subject-5065886.csv","legacy","Lentiform Loewenfeld","3.3.7","yes","yes","600bd7cfb6416f0113b04181","602110864497cf011d9c0822","0","j","NA","space","space","space","NA","j","1095","NA","2002","27712","6523","NA","1095","2","legacy","1024","2","48000","-16","task","5065886","even","NA","47852","51856","49854","121196","4024","38263","31739","121701","NA","121194","121701","121126","51856","122797","45838","120626","4013","98434","Lexical Decision Task","34","38832","37","yes","1024"
"2.884795364","0","6","flob","non-word","92.10526315789474","92.10526315789474","1055.5","1055.5","black","no","legacy","legacy","legacy","0","uniform","1","undefined","undefined","undefined","1","f","0","0","0","0","37","0","0","0","37","NA","33","37","33","0","33","3","37","0","37","Thu Feb 18 13:59:43 2021","The main experiment item","yes","C:/Users/username/Documents/Psych degree/SECOND YEAR/Semester 2/RMAS 2/Lexical_Decision_Task.osexp","no","Andale Mono","no","18","no","white","no","yes","576","legacy","33","33","3","C:/Users/username/Documents/Psych degree/SECOND YEAR/Semester 2/Cognition and language/assignment/subject-5065886.csv","legacy","Lentiform Loewenfeld","3.3.7","yes","yes","600bd7cfb6416f0113b04181","602110864497cf011d9c0822","0","f","NA","space","space","space","NA","f","1277","NA","2002","27712","6523","NA","1277","2","legacy","1024","2","48000","-16","task","5065886","even","NA","47852","51856","49854","124380","4024","38263","31739","124882","NA","124378","124882","124300","51856","126160","45838","120626","4013","122800","Lexical Decision Task","35","40109","38","yes","1024"
"3.282244367","0","6","fute","non-word","92.3076923076923","92.3076923076923","1056.2564102564102","1056.2564102564102","black","no","legacy","legacy","legacy","0","uniform","1","undefined","undefined","undefined","1","f","0","0","0","0","38","0","0","0","38","NA","34","38","34","0","34","3","38","0","38","Thu Feb 18 13:59:43 2021","The main experiment item","yes","C:/Users/username/Documents/Psych degree/SECOND YEAR/Semester 2/RMAS 2/Lexical_Decision_Task.osexp","no","Andale Mono","no","18","no","white","no","yes","576","legacy","34","34","3","C:/Users/username/Documents/Psych degree/SECOND YEAR/Semester 2/Cognition and language/assignment/subject-5065886.csv","legacy","Lentiform Loewenfeld","3.3.7","yes","yes","600bd7cfb6416f0113b04181","602110864497cf011d9c0822","0","f","NA","space","space","space","NA","f","1085","NA","2002","27712","6523","NA","1085","2","legacy","1024","2","48000","-16","task","5065886","even","NA","47852","51856","49854","126736","4024","38263","31739","127239","NA","126734","127239","126664","51856","128326","45838","126164","4013","122800","Lexical Decision Task","36","41194","39","yes","1024"
"3.303771854","0","9","dath","non-word","92.5","92.5","1049","1049","black","no","legacy","legacy","legacy","0","uniform","1","undefined","undefined","undefined","1","f","0","0","0","0","39","0","0","0","39","NA","35","39","35","0","35","3","39","0","39","Thu Feb 18 13:59:43 2021","The main experiment item","yes","C:/Users/username/Documents/Psych degree/SECOND YEAR/Semester 2/RMAS 2/Lexical_Decision_Task.osexp","no","Andale Mono","no","18","no","white","no","yes","576","legacy","35","35","3","C:/Users/username/Documents/Psych degree/SECOND YEAR/Semester 2/Cognition and language/assignment/subject-5065886.csv","legacy","Lentiform Loewenfeld","3.3.7","yes","yes","600bd7cfb6416f0113b04181","602110864497cf011d9c0822","0","f","NA","space","space","space","NA","f","766","NA","2002","27712","6523","NA","766","2","legacy","1024","2","48000","-16","task","5065886","even","NA","47852","51856","49854","128904","4024","38263","31739","129409","NA","128903","129410","128837","51856","130177","45838","128337","4013","122800","Lexical Decision Task","37","41960","40","yes","1024"
"3.068433376","8.09","2","bulb","word","92.6829268292683","92.6829268292683","1040.878048780488","1040.878048780488","black","no","legacy","legacy","legacy","0","uniform","1","undefined","undefined","undefined","1","j","0","0","0","0","40","0","0","0","40","NA","36","40","36","0","36","3","40","0","40","Thu Feb 18 13:59:43 2021","The main experiment item","yes","C:/Users/username/Documents/Psych degree/SECOND YEAR/Semester 2/RMAS 2/Lexical_Decision_Task.osexp","no","Andale Mono","no","18","no","white","no","yes","576","legacy","36","36","3","C:/Users/username/Documents/Psych degree/SECOND YEAR/Semester 2/Cognition and language/assignment/subject-5065886.csv","legacy","Lentiform Loewenfeld","3.3.7","yes","yes","600bd7cfb6416f0113b04181","602110864497cf011d9c0822","0","j","NA","space","space","space","NA","j","716","NA","2002","27712","6523","NA","716","2","legacy","1024","2","48000","-16","task","5065886","even","NA","47852","51856","49854","130768","4024","38263","31739","131271","NA","130766","131272","130687","51856","131988","45838","130186","4013","122800","Lexical Decision Task","38","42676","41","yes","1024"
"2.880623071","0","9","curp","non-word","92.85714285714286","92.85714285714286","1035.642857142857","1035.642857142857","black","no","legacy","legacy","legacy","0","uniform","1","undefined","undefined","undefined","1","f","0","0","0","0","41","0","0","0","41","NA","37","41","37","0","37","3","41","0","41","Thu Feb 18 13:59:43 2021","The main experiment item","yes","C:/Users/username/Documents/Psych degree/SECOND YEAR/Semester 2/RMAS 2/Lexical_Decision_Task.osexp","no","Andale Mono","no","18","no","white","no","yes","576","legacy","37","37","3","C:/Users/username/Documents/Psych degree/SECOND YEAR/Semester 2/Cognition and language/assignment/subject-5065886.csv","legacy","Lentiform Loewenfeld","3.3.7","yes","yes","600bd7cfb6416f0113b04181","602110864497cf011d9c0822","0","f","NA","space","space","space","NA","f","821","NA","2002","27712","6523","NA","821","2","legacy","1024","2","48000","-16","task","5065886","even","NA","47852","51856","49854","132562","4024","38263","31739","133067","NA","132560","133067","132492","51856","133889","45838","131992","4013","122800","Lexical Decision Task","39","43497","42","yes","1024"
"2.972357144","0","5","dasp","non-word","93.02325581395348","93.02325581395348","1036.906976744186","1036.906976744186","black","no","legacy","legacy","legacy","0","uniform","1","undefined","undefined","undefined","1","f","0","0","0","0","42","0","0","0","42","NA","38","42","38","0","38","3","42","0","42","Thu Feb 18 13:59:43 2021","The main experiment item","yes","C:/Users/username/Documents/Psych degree/SECOND YEAR/Semester 2/RMAS 2/Lexical_Decision_Task.osexp","no","Andale Mono","no","18","no","white","no","yes","576","legacy","38","38","3","C:/Users/username/Documents/Psych degree/SECOND YEAR/Semester 2/Cognition and language/assignment/subject-5065886.csv","legacy","Lentiform Loewenfeld","3.3.7","yes","yes","600bd7cfb6416f0113b04181","602110864497cf011d9c0822","0","f","NA","space","space","space","NA","f","1090","NA","2002","27712","6523","NA","1090","2","legacy","1024","2","48000","-16","task","5065886","even","NA","47852","51856","49854","134473","4024","38263","31739","134975","NA","134472","134975","134399","51856","136066","45838","133899","4013","122800","Lexical Decision Task","40","44587","43","yes","1024"
"2.979548375","8.71","4","soup","word","93.18181818181819","93.18181818181819","1035.8863636363637","1035.8863636363637","black","no","legacy","legacy","legacy","0","uniform","1","undefined","undefined","undefined","1","j","0","0","0","0","43","0","0","0","43","NA","39","43","39","0","39","3","43","0","43","Thu Feb 18 13:59:43 2021","The main experiment item","yes","C:/Users/username/Documents/Psych degree/SECOND YEAR/Semester 2/RMAS 2/Lexical_Decision_Task.osexp","no","Andale Mono","no","18","no","white","no","yes","576","legacy","39","39","3","C:/Users/username/Documents/Psych degree/SECOND YEAR/Semester 2/Cognition and language/assignment/subject-5065886.csv","legacy","Lentiform Loewenfeld","3.3.7","yes","yes","600bd7cfb6416f0113b04181","602110864497cf011d9c0822","0","j","NA","space","space","space","NA","j","992","NA","2002","27712","6523","NA","992","2","legacy","1024","2","48000","-16","task","5065886","even","NA","47852","51856","49854","136637","4024","38263","31739","137142","NA","136635","137142","136569","51856","138134","45838","136069","4013","122800","Lexical Decision Task","41","45579","44","yes","1024"
"2.706148589","0","4","hube","non-word","93.33333333333333","93.33333333333333","1035.1555555555556","1035.1555555555556","black","no","legacy","legacy","legacy","0","uniform","1","undefined","undefined","undefined","1","f","0","0","0","0","44","0","0","0","44","NA","40","44","40","0","40","3","44","0","44","Thu Feb 18 13:59:43 2021","The main experiment item","yes","C:/Users/username/Documents/Psych degree/SECOND YEAR/Semester 2/RMAS 2/Lexical_Decision_Task.osexp","no","Andale Mono","no","18","no","white","no","yes","576","legacy","40","40","3","C:/Users/username/Documents/Psych degree/SECOND YEAR/Semester 2/Cognition and language/assignment/subject-5065886.csv","legacy","Lentiform Loewenfeld","3.3.7","yes","yes","600bd7cfb6416f0113b04181","602110864497cf011d9c0822","0","f","NA","space","space","space","NA","f","1003","NA","2002","27712","6523","NA","1003","2","legacy","1024","2","48000","-16","task","5065886","even","NA","47852","51856","49854","138712","4024","38263","31739","139216","NA","138710","139216","138645","51856","140220","45838","138145","4013","122800","Lexical Decision Task","42","46582","45","yes","1024"
"2.80048796","0","8","pife","non-word","93.47826086956522","93.47826086956522","1027.8260869565217","1027.8260869565217","black","no","legacy","legacy","legacy","0","uniform","1","undefined","undefined","undefined","1","f","0","0","0","0","45","0","0","0","45","NA","41","45","41","0","41","3","45","0","45","Thu Feb 18 13:59:43 2021","The main experiment item","yes","C:/Users/username/Documents/Psych degree/SECOND YEAR/Semester 2/RMAS 2/Lexical_Decision_Task.osexp","no","Andale Mono","no","18","no","white","no","yes","576","legacy","41","41","3","C:/Users/username/Documents/Psych degree/SECOND YEAR/Semester 2/Cognition and language/assignment/subject-5065886.csv","legacy","Lentiform Loewenfeld","3.3.7","yes","yes","600bd7cfb6416f0113b04181","602110864497cf011d9c0822","0","f","NA","space","space","space","NA","f","698","NA","2002","27712","6523","NA","698","2","legacy","1024","2","48000","-16","task","5065886","even","NA","47852","51856","49854","140792","4024","38263","31739","141297","NA","140790","141298","140723","51856","141997","45838","140223","4013","122800","Lexical Decision Task","43","47280","46","yes","1024"
"2.696356389","0","1","pizz","non-word","93.61702127659575","93.61702127659575","1021.2553191489362","1021.2553191489362","black","no","legacy","legacy","legacy","0","uniform","1","undefined","undefined","undefined","1","f","0","0","0","0","46","0","0","0","46","NA","42","46","42","0","42","3","46","0","46","Thu Feb 18 13:59:43 2021","The main experiment item","yes","C:/Users/username/Documents/Psych degree/SECOND YEAR/Semester 2/RMAS 2/Lexical_Decision_Task.osexp","no","Andale Mono","no","18","no","white","no","yes","576","legacy","42","42","3","C:/Users/username/Documents/Psych degree/SECOND YEAR/Semester 2/Cognition and language/assignment/subject-5065886.csv","legacy","Lentiform Loewenfeld","3.3.7","yes","yes","600bd7cfb6416f0113b04181","602110864497cf011d9c0822","0","f","NA","space","space","space","NA","f","719","NA","2002","27712","6523","NA","719","2","legacy","1024","2","48000","-16","task","5065886","even","NA","47852","51856","49854","142584","4024","38263","31739","143088","NA","142582","143089","142507","51856","143808","45838","142007","4013","122800","Lexical Decision Task","44","47999","47","yes","1024"
"3.062080345","0","6","tomp","non-word","93.75","93.75","1014.6041666666666","1014.6041666666666","black","no","legacy","legacy","legacy","0","uniform","1","undefined","undefined","undefined","1","f","0","0","0","0","47","0","0","0","47","NA","43","47","43","0","43","3","47","0","47","Thu Feb 18 13:59:43 2021","The main experiment item","yes","C:/Users/username/Documents/Psych degree/SECOND YEAR/Semester 2/RMAS 2/Lexical_Decision_Task.osexp","no","Andale Mono","no","18","no","white","no","yes","576","legacy","43","43","3","C:/Users/username/Documents/Psych degree/SECOND YEAR/Semester 2/Cognition and language/assignment/subject-5065886.csv","legacy","Lentiform Loewenfeld","3.3.7","yes","yes","600bd7cfb6416f0113b04181","602110864497cf011d9c0822","0","f","NA","space","space","space","NA","f","702","NA","2002","27712","6523","NA","702","2","legacy","1024","2","48000","-16","task","5065886","even","NA","47852","51856","49854","144389","4024","38263","31739","144890","NA","144386","144890","144318","51856","145593","45838","143818","4013","122800","Lexical Decision Task","45","48701","48","yes","1024"
"2.9737419","7.69","7","claw","word","93.87755102040816","93.87755102040816","1008.5918367346939","1008.5918367346939","black","no","legacy","legacy","legacy","0","uniform","1","undefined","undefined","undefined","1","j","0","0","0","0","48","0","0","0","48","NA","44","48","44","0","44","3","48","0","48","Thu Feb 18 13:59:43 2021","The main experiment item","yes","C:/Users/username/Documents/Psych degree/SECOND YEAR/Semester 2/RMAS 2/Lexical_Decision_Task.osexp","no","Andale Mono","no","18","no","white","no","yes","576","legacy","44","44","3","C:/Users/username/Documents/Psych degree/SECOND YEAR/Semester 2/Cognition and language/assignment/subject-5065886.csv","legacy","Lentiform Loewenfeld","3.3.7","yes","yes","600bd7cfb6416f0113b04181","602110864497cf011d9c0822","0","j","NA","space","space","space","NA","j","720","NA","2002","27712","6523","NA","720","2","legacy","1024","2","48000","-16","task","5065886","even","NA","47852","51856","49854","146176","4024","38263","31739","146679","NA","146174","146679","146096","51856","147399","45838","145596","4013","122800","Lexical Decision Task","46","49421","49","yes","1024"
"2.971428938","9.86","7","spot","word","94","94","1000.82","1000.82","black","no","legacy","legacy","legacy","0","uniform","1","undefined","undefined","undefined","1","j","0","0","0","0","49","0","0","0","49","NA","45","49","45","0","45","3","49","0","49","Thu Feb 18 13:59:43 2021","The main experiment item","yes","C:/Users/username/Documents/Psych degree/SECOND YEAR/Semester 2/RMAS 2/Lexical_Decision_Task.osexp","no","Andale Mono","no","18","no","white","no","yes","576","legacy","45","45","3","C:/Users/username/Documents/Psych degree/SECOND YEAR/Semester 2/Cognition and language/assignment/subject-5065886.csv","legacy","Lentiform Loewenfeld","3.3.7","yes","yes","600bd7cfb6416f0113b04181","602110864497cf011d9c0822","0","j","NA","space","space","space","NA","j","620","NA","2002","27712","6523","NA","620","2","legacy","1024","2","48000","-16","task","5065886","even","NA","47852","51856","49854","147969","4024","38263","31739","148470","NA","147967","148470","147903","51856","149091","45838","147403","4013","122800","Lexical Decision Task","47","50041","50","yes","1024"
"3.440331212","7.35","6","stew","word","94.11764705882354","94.11764705882354","996.5882352941177","996.5882352941177","black","no","legacy","legacy","legacy","0","uniform","1","undefined","undefined","undefined","1","j","0","0","0","0","50","0","0","0","50","NA","46","50","46","0","46","3","50","0","50","Thu Feb 18 13:59:43 2021","The main experiment item","yes","C:/Users/username/Documents/Psych degree/SECOND YEAR/Semester 2/RMAS 2/Lexical_Decision_Task.osexp","no","Andale Mono","no","18","no","white","no","yes","576","legacy","46","46","3","C:/Users/username/Documents/Psych degree/SECOND YEAR/Semester 2/Cognition and language/assignment/subject-5065886.csv","legacy","Lentiform Loewenfeld","3.3.7","yes","yes","600bd7cfb6416f0113b04181","602110864497cf011d9c0822","0","j","NA","space","space","space","NA","j","785","NA","2002","27712","6523","NA","785","2","legacy","1024","2","48000","-16","task","5065886","even","NA","47852","51856","49854","149679","4024","38263","31739","150184","NA","149677","150184","149603","51856","150970","45838","149103","4013","122800","Lexical Decision Task","48","50826","51","yes","1024"
"2.771097306","0","9","jold","non-word","94.23076923076923","94.23076923076923","991.7115384615385","991.7115384615385","black","no","legacy","legacy","legacy","0","uniform","1","undefined","undefined","undefined","1","f","0","0","0","0","51","0","0","0","51","NA","47","51","47","0","47","3","51","0","51","Thu Feb 18 13:59:43 2021","The main experiment item","yes","C:/Users/username/Documents/Psych degree/SECOND YEAR/Semester 2/RMAS 2/Lexical_Decision_Task.osexp","no","Andale Mono","no","18","no","white","no","yes","576","legacy","47","47","3","C:/Users/username/Documents/Psych degree/SECOND YEAR/Semester 2/Cognition and language/assignment/subject-5065886.csv","legacy","Lentiform Loewenfeld","3.3.7","yes","yes","600bd7cfb6416f0113b04181","602110864497cf011d9c0822","0","f","NA","space","space","space","NA","f","743","NA","2002","27712","6523","NA","743","2","legacy","1024","2","48000","-16","task","5065886","even","NA","47852","51856","49854","151558","4024","38263","31739","152063","NA","151556","152064","151479","51856","152808","45838","150979","4013","122800","Lexical Decision Task","49","51569","52","yes","1024"
"2.713490543","0","3","feps","non-word","94.33962264150944","94.33962264150944","986.3396226415094","986.3396226415094","black","no","legacy","legacy","legacy","0","uniform","1","undefined","undefined","undefined","1","f","0","0","0","0","52","0","0","0","52","NA","48","52","48","0","48","3","52","0","52","Thu Feb 18 13:59:43 2021","The main experiment item","yes","C:/Users/username/Documents/Psych degree/SECOND YEAR/Semester 2/RMAS 2/Lexical_Decision_Task.osexp","no","Andale Mono","no","18","no","white","no","yes","576","legacy","48","48","3","C:/Users/username/Documents/Psych degree/SECOND YEAR/Semester 2/Cognition and language/assignment/subject-5065886.csv","legacy","Lentiform Loewenfeld","3.3.7","yes","yes","600bd7cfb6416f0113b04181","602110864497cf011d9c0822","0","f","NA","space","space","space","NA","f","707","NA","2002","27712","6523","NA","707","2","legacy","1024","2","48000","-16","task","5065886","even","NA","47852","51856","49854","153393","4024","38263","31739","153895","NA","153391","153895","153318","51856","154603","45838","152818","4013","122800","Lexical Decision Task","50","52276","53","yes","1024"
"2.8162413","0","5","nusk","non-word","94.44444444444444","94.44444444444444","987.074074074074","987.074074074074","black","no","legacy","legacy","legacy","0","uniform","1","undefined","undefined","undefined","1","f","0","0","0","0","53","0","0","0","53","NA","49","53","49","0","49","3","53","0","53","Thu Feb 18 13:59:43 2021","The main experiment item","yes","C:/Users/username/Documents/Psych degree/SECOND YEAR/Semester 2/RMAS 2/Lexical_Decision_Task.osexp","no","Andale Mono","no","18","no","white","no","yes","576","legacy","49","49","3","C:/Users/username/Documents/Psych degree/SECOND YEAR/Semester 2/Cognition and language/assignment/subject-5065886.csv","legacy","Lentiform Loewenfeld","3.3.7","yes","yes","600bd7cfb6416f0113b04181","602110864497cf011d9c0822","0","f","NA","space","space","space","NA","f","1026","NA","2002","27712","6523","NA","1026","2","legacy","1024","2","48000","-16","task","5065886","even","NA","47852","51856","49854","155187","4024","38263","31739","155692","NA","155185","155692","155107","51856","156719","45838","154607","4013","122800","Lexical Decision Task","51","53302","54","yes","1024"
"2.990042563","6.64","9","plow","word","94.54545454545455","94.54545454545455","988.3818181818182","988.3818181818182","black","no","legacy","legacy","legacy","0","uniform","1","undefined","undefined","undefined","1","j","0","0","0","0","54","0","0","0","54","0","50","54","50","0","50","3","54","0","54","Thu Feb 18 13:59:43 2021","The main experiment item","yes","C:/Users/username/Documents/Psych degree/SECOND YEAR/Semester 2/RMAS 2/Lexical_Decision_Task.osexp","no","Andale Mono","no","18","no","white","no","yes","576","legacy","50","50","3","C:/Users/username/Documents/Psych degree/SECOND YEAR/Semester 2/Cognition and language/assignment/subject-5065886.csv","legacy","Lentiform Loewenfeld","3.3.7","yes","yes","600bd7cfb6416f0113b04181","602110864497cf011d9c0822","0","j","NA","space","space","space","space","j","1059","NA","2002","27712","6523","5917","1059","2","legacy","1024","2","48000","-16","task","5065886","even","NA","47852","51856","49854","163265","4024","38263","31739","163766","157281","163264","163767","157223","51856","164827","45838","156722","4013","122800","Lexical Decision Task","52","54361","55","yes","1024"
"3.197740804","6.74","3","ache","word","94.64285714285714","94.64285714285714","980.4464285714286","980.4464285714286","black","no","legacy","legacy","legacy","0","uniform","1","undefined","undefined","undefined","1","j","0","0","0","0","55","0","0","0","55","0","51","55","51","0","51","3","55","0","55","Thu Feb 18 13:59:43 2021","The main experiment item","yes","C:/Users/username/Documents/Psych degree/SECOND YEAR/Semester 2/RMAS 2/Lexical_Decision_Task.osexp","no","Andale Mono","no","18","no","white","no","yes","576","legacy","51","51","3","C:/Users/username/Documents/Psych degree/SECOND YEAR/Semester 2/Cognition and language/assignment/subject-5065886.csv","legacy","Lentiform Loewenfeld","3.3.7","yes","yes","600bd7cfb6416f0113b04181","602110864497cf011d9c0822","0","j","NA","space","space","space","space","j","544","NA","2002","27712","6523","5917","544","2","legacy","1024","2","48000","-16","task","5065886","even","NA","47852","51856","49854","165400","4024","38263","31739","165904","157281","165398","165904","165331","51856","166449","45838","164831","4013","122800","Lexical Decision Task","53","54905","56","yes","1024"
"3.010582609","0","2","drod","non-word","94.73684210526316","94.73684210526316","975.4912280701755","975.4912280701755","black","no","legacy","legacy","legacy","0","uniform","1","undefined","undefined","undefined","1","f","0","0","0","0","56","0","0","0","56","0","52","56","52","0","52","3","56","0","56","Thu Feb 18 13:59:43 2021","The main experiment item","yes","C:/Users/username/Documents/Psych degree/SECOND YEAR/Semester 2/RMAS 2/Lexical_Decision_Task.osexp","no","Andale Mono","no","18","no","white","no","yes","576","legacy","52","52","3","C:/Users/username/Documents/Psych degree/SECOND YEAR/Semester 2/Cognition and language/assignment/subject-5065886.csv","legacy","Lentiform Loewenfeld","3.3.7","yes","yes","600bd7cfb6416f0113b04181","602110864497cf011d9c0822","0","f","NA","space","space","space","space","f","698","NA","2002","27712","6523","5917","698","2","legacy","1024","2","48000","-16","task","5065886","even","NA","47852","51856","49854","167035","4024","38263","31739","167539","157281","167033","167539","166952","51856","168238","45838","166452","4013","122800","Lexical Decision Task","54","55603","57","yes","1024"
"2.719886232","7.98","2","quiz","word","94.82758620689656","94.82758620689656","970.1724137931035","970.1724137931035","black","no","legacy","legacy","legacy","0","uniform","1","undefined","undefined","undefined","1","j","0","0","0","0","57","0","0","0","57","0","53","57","53","0","53","3","57","0","57","Thu Feb 18 13:59:43 2021","The main experiment item","yes","C:/Users/username/Documents/Psych degree/SECOND YEAR/Semester 2/RMAS 2/Lexical_Decision_Task.osexp","no","Andale Mono","no","18","no","white","no","yes","576","legacy","53","53","3","C:/Users/username/Documents/Psych degree/SECOND YEAR/Semester 2/Cognition and language/assignment/subject-5065886.csv","legacy","Lentiform Loewenfeld","3.3.7","yes","yes","600bd7cfb6416f0113b04181","602110864497cf011d9c0822","0","j","NA","space","space","space","space","j","667","NA","2002","27712","6523","5917","667","2","legacy","1024","2","48000","-16","task","5065886","even","NA","47852","51856","49854","168829","4024","38263","31739","169334","157281","168826","169334","168747","51856","170002","45838","168247","4013","122800","Lexical Decision Task","55","56270","58","yes","1024"
"2.966923697","5.4","2","fume","word","94.91525423728814","94.91525423728814","972.4406779661017","972.4406779661017","black","no","legacy","legacy","legacy","0","uniform","1","undefined","undefined","undefined","1","j","0","0","0","0","58","0","0","0","58","0","54","58","54","0","54","3","58","0","58","Thu Feb 18 13:59:43 2021","The main experiment item","yes","C:/Users/username/Documents/Psych degree/SECOND YEAR/Semester 2/RMAS 2/Lexical_Decision_Task.osexp","no","Andale Mono","no","18","no","white","no","yes","576","legacy","54","54","3","C:/Users/username/Documents/Psych degree/SECOND YEAR/Semester 2/Cognition and language/assignment/subject-5065886.csv","legacy","Lentiform Loewenfeld","3.3.7","yes","yes","600bd7cfb6416f0113b04181","602110864497cf011d9c0822","0","j","NA","space","space","space","space","j","1104","NA","2002","27712","6523","5917","1104","2","legacy","1024","2","48000","-16","task","5065886","even","NA","47852","51856","49854","170583","4024","38263","31739","171087","157281","170581","171087","170507","51856","172192","45838","170007","4013","122800","Lexical Decision Task","56","57374","59","yes","1024"
"2.708989954","9.28","9","bowl","word","95","95","965.5","965.5","black","no","legacy","legacy","legacy","0","uniform","1","undefined","undefined","undefined","1","j","0","0","0","0","59","0","0","0","59","0","55","59","55","0","55","3","59","0","59","Thu Feb 18 13:59:43 2021","The main experiment item","yes","C:/Users/username/Documents/Psych degree/SECOND YEAR/Semester 2/RMAS 2/Lexical_Decision_Task.osexp","no","Andale Mono","no","18","no","white","no","yes","576","legacy","55","55","3","C:/Users/username/Documents/Psych degree/SECOND YEAR/Semester 2/Cognition and language/assignment/subject-5065886.csv","legacy","Lentiform Loewenfeld","3.3.7","yes","yes","600bd7cfb6416f0113b04181","602110864497cf011d9c0822","0","j","NA","space","space","space","space","j","556","NA","2002","27712","6523","5917","556","2","legacy","1024","2","48000","-16","task","5065886","even","NA","47852","51856","49854","172780","4024","38263","31739","173283","157281","172778","173283","172702","51856","173840","45838","172202","4013","122800","Lexical Decision Task","57","57930","60","yes","1024"
"3.159867847","5.98","5","brim","word","93.44262295081967","93.44262295081967","959.7540983606557","959.7540983606557","black","no","legacy","legacy","legacy","0","uniform","0","undefined","undefined","undefined","0","j","0","0","0","0","60","0","0","0","60","0","56","60","56","0","56","3","60","0","60","Thu Feb 18 13:59:43 2021","The main experiment item","yes","C:/Users/username/Documents/Psych degree/SECOND YEAR/Semester 2/RMAS 2/Lexical_Decision_Task.osexp","no","Andale Mono","no","18","no","white","no","yes","576","legacy","56","56","3","C:/Users/username/Documents/Psych degree/SECOND YEAR/Semester 2/Cognition and language/assignment/subject-5065886.csv","legacy","Lentiform Loewenfeld","3.3.7","yes","yes","600bd7cfb6416f0113b04181","602110864497cf011d9c0822","0","f","NA","space","space","space","space","f","615","NA","2002","27712","6523","5917","615","2","legacy","1024","2","48000","-16","task","5065886","even","NA","47852","51856","49854","174420","4024","38263","31739","174925","157281","174418","174926","174344","51856","175542","45838","173844","4013","122800","Lexical Decision Task","57","58545","61","yes","1024"
"2.809559715","8.44","4","volt","word","93.54838709677419","93.54838709677419","956.3225806451613","956.3225806451613","black","no","legacy","legacy","legacy","0","uniform","1","undefined","undefined","undefined","1","j","0","0","0","0","61","0","0","0","61","0","57","61","57","0","57","3","61","0","61","Thu Feb 18 13:59:43 2021","The main experiment item","yes","C:/Users/username/Documents/Psych degree/SECOND YEAR/Semester 2/RMAS 2/Lexical_Decision_Task.osexp","no","Andale Mono","no","18","no","white","no","yes","576","legacy","57","57","3","C:/Users/username/Documents/Psych degree/SECOND YEAR/Semester 2/Cognition and language/assignment/subject-5065886.csv","legacy","Lentiform Loewenfeld","3.3.7","yes","yes","600bd7cfb6416f0113b04181","602110864497cf011d9c0822","0","j","NA","space","space","space","space","j","747","NA","2002","27712","6523","5917","747","2","legacy","1024","2","48000","-16","task","5065886","even","NA","47852","51856","49854","177128","4024","38263","31739","177632","157281","177127","177632","177046","51856","178380","45838","173844","4013","175546","Lexical Decision Task","58","59292","62","yes","1024"
"2.952953801","0","8","clax","non-word","93.65079365079364","93.65079365079364","950.2539682539683","950.2539682539683","black","no","legacy","legacy","legacy","0","uniform","1","undefined","undefined","undefined","1","f","0","0","0","0","62","0","0","0","62","0","58","62","58","0","58","3","62","0","62","Thu Feb 18 13:59:43 2021","The main experiment item","yes","C:/Users/username/Documents/Psych degree/SECOND YEAR/Semester 2/RMAS 2/Lexical_Decision_Task.osexp","no","Andale Mono","no","18","no","white","no","yes","576","legacy","58","58","3","C:/Users/username/Documents/Psych degree/SECOND YEAR/Semester 2/Cognition and language/assignment/subject-5065886.csv","legacy","Lentiform Loewenfeld","3.3.7","yes","yes","600bd7cfb6416f0113b04181","602110864497cf011d9c0822","0","f","NA","space","space","space","space","f","574","NA","2002","27712","6523","5917","574","2","legacy","1024","2","48000","-16","task","5065886","even","NA","47852","51856","49854","178959","4024","38263","31739","179462","157281","178957","179462","178890","51856","180036","45838","178389","4013","175546","Lexical Decision Task","59","59866","63","yes","1024"
"2.82129731","6.72","5","plum","word","93.75","93.75","943.859375","943.859375","black","no","legacy","legacy","legacy","0","uniform","1","undefined","undefined","undefined","1","j","0","0","0","0","63","0","0","0","63","0","59","63","59","0","59","3","63","0","63","Thu Feb 18 13:59:43 2021","The main experiment item","yes","C:/Users/username/Documents/Psych degree/SECOND YEAR/Semester 2/RMAS 2/Lexical_Decision_Task.osexp","no","Andale Mono","no","18","no","white","no","yes","576","legacy","59","59","3","C:/Users/username/Documents/Psych degree/SECOND YEAR/Semester 2/Cognition and language/assignment/subject-5065886.csv","legacy","Lentiform Loewenfeld","3.3.7","yes","yes","600bd7cfb6416f0113b04181","602110864497cf011d9c0822","0","j","NA","space","space","space","space","j","541","NA","2002","27712","6523","5917","541","2","legacy","1024","2","48000","-16","task","5065886","even","NA","47852","51856","49854","180616","4024","38263","31739","181117","157281","180614","181117","180539","51856","181659","45838","180039","4013","175546","Lexical Decision Task","60","60407","64","yes","1024"
"3.153001286","8.7","5","palm","word","93.84615384615384","93.84615384615384","939.5846153846154","939.5846153846154","black","no","legacy","legacy","legacy","0","uniform","1","undefined","undefined","undefined","1","j","0","0","0","0","64","0","0","0","64","0","60","64","60","0","60","3","64","0","64","Thu Feb 18 13:59:43 2021","The main experiment item","yes","C:/Users/username/Documents/Psych degree/SECOND YEAR/Semester 2/RMAS 2/Lexical_Decision_Task.osexp","no","Andale Mono","no","18","no","white","no","yes","576","legacy","60","60","3","C:/Users/username/Documents/Psych degree/SECOND YEAR/Semester 2/Cognition and language/assignment/subject-5065886.csv","legacy","Lentiform Loewenfeld","3.3.7","yes","yes","600bd7cfb6416f0113b04181","602110864497cf011d9c0822","0","j","NA","space","space","space","space","j","666","NA","2002","27712","6523","5917","666","2","legacy","1024","2","48000","-16","task","5065886","even","NA","47852","51856","49854","182230","4024","38263","31739","182735","157281","182228","182735","182162","51856","183402","45838","181662","4013","175546","Lexical Decision Task","61","61073","65","yes","1024"
"3.208978517","10.33","4","fish","word","93.93939393939394","93.93939393939394","933.3939393939394","933.3939393939394","black","no","legacy","legacy","legacy","0","uniform","1","undefined","undefined","undefined","1","j","0","0","0","0","65","0","0","0","65","0","61","65","61","0","61","3","65","0","65","Thu Feb 18 13:59:43 2021","The main experiment item","yes","C:/Users/username/Documents/Psych degree/SECOND YEAR/Semester 2/RMAS 2/Lexical_Decision_Task.osexp","no","Andale Mono","no","18","no","white","no","yes","576","legacy","61","61","3","C:/Users/username/Documents/Psych degree/SECOND YEAR/Semester 2/Cognition and language/assignment/subject-5065886.csv","legacy","Lentiform Loewenfeld","3.3.7","yes","yes","600bd7cfb6416f0113b04181","602110864497cf011d9c0822","0","j","NA","space","space","space","space","j","531","NA","2002","27712","6523","5917","531","2","legacy","1024","2","48000","-16","task","5065886","even","NA","47852","51856","49854","183992","4024","38263","31739","184498","157281","183991","184498","183915","51856","185030","45838","183414","4013","175546","Lexical Decision Task","62","61604","66","yes","1024"
"3.133964479","0","8","graw","non-word","92.53731343283582","92.53731343283582","926.6119402985074","926.6119402985074","black","no","legacy","legacy","legacy","0","uniform","0","undefined","undefined","undefined","0","f","0","0","0","0","66","0","0","0","66","0","62","66","62","0","62","3","66","0","66","Thu Feb 18 13:59:43 2021","The main experiment item","yes","C:/Users/username/Documents/Psych degree/SECOND YEAR/Semester 2/RMAS 2/Lexical_Decision_Task.osexp","no","Andale Mono","no","18","no","white","no","yes","576","legacy","62","62","3","C:/Users/username/Documents/Psych degree/SECOND YEAR/Semester 2/Cognition and language/assignment/subject-5065886.csv","legacy","Lentiform Loewenfeld","3.3.7","yes","yes","600bd7cfb6416f0113b04181","602110864497cf011d9c0822","0","j","NA","space","space","space","space","j","479","NA","2002","27712","6523","5917","479","2","legacy","1024","2","48000","-16","task","5065886","even","NA","47852","51856","49854","185616","4024","38263","31739","186119","157281","185614","186119","185534","51856","186599","45838","185034","4013","175546","Lexical Decision Task","62","62083","67","yes","1024"
"3.16326079","0","5","parg","non-word","92.6470588235294","92.6470588235294","924.5441176470588","924.5441176470588","black","no","legacy","legacy","legacy","0","uniform","1","undefined","undefined","undefined","1","f","0","0","0","0","67","0","0","0","67","0","63","67","63","0","63","3","67","0","67","Thu Feb 18 13:59:43 2021","The main experiment item","yes","C:/Users/username/Documents/Psych degree/SECOND YEAR/Semester 2/RMAS 2/Lexical_Decision_Task.osexp","no","Andale Mono","no","18","no","white","no","yes","576","legacy","63","63","3","C:/Users/username/Documents/Psych degree/SECOND YEAR/Semester 2/Cognition and language/assignment/subject-5065886.csv","legacy","Lentiform Loewenfeld","3.3.7","yes","yes","600bd7cfb6416f0113b04181","602110864497cf011d9c0822","0","f","NA","space","space","space","space","f","786","NA","2002","27712","6523","5917","786","2","legacy","1024","2","48000","-16","task","5065886","even","NA","47852","51856","49854","188192","4024","38263","31739","188696","157281","188190","188696","188109","51856","189483","45838","185034","4013","186609","Lexical Decision Task","63","62869","68","yes","1024"
"3.474361976","5.24","6","veer","word","91.30434782608695","91.30434782608695","925.0869565217391","925.0869565217391","black","no","legacy","legacy","legacy","0","uniform","0","undefined","undefined","undefined","0","j","0","0","0","0","68","0","0","0","68","0","64","68","64","0","64","3","68","0","68","Thu Feb 18 13:59:43 2021","The main experiment item","yes","C:/Users/username/Documents/Psych degree/SECOND YEAR/Semester 2/RMAS 2/Lexical_Decision_Task.osexp","no","Andale Mono","no","18","no","white","no","yes","576","legacy","64","64","3","C:/Users/username/Documents/Psych degree/SECOND YEAR/Semester 2/Cognition and language/assignment/subject-5065886.csv","legacy","Lentiform Loewenfeld","3.3.7","yes","yes","600bd7cfb6416f0113b04181","602110864497cf011d9c0822","0","f","NA","space","space","space","space","f","962","NA","2002","27712","6523","5917","962","2","legacy","1024","2","48000","-16","task","5065886","even","NA","47852","51856","49854","190062","4024","38263","31739","190566","157281","190060","190567","189988","51856","191530","45838","189488","4013","186609","Lexical Decision Task","63","63831","69","yes","1024"
"2.986323777","10.85","8","ship","word","91.42857142857143","91.42857142857143","920.3142857142857","920.3142857142857","black","no","legacy","legacy","legacy","0","uniform","1","undefined","undefined","undefined","1","j","0","0","0","0","69","0","0","0","69","0","65","69","65","0","65","3","69","0","69","Thu Feb 18 13:59:43 2021","The main experiment item","yes","C:/Users/username/Documents/Psych degree/SECOND YEAR/Semester 2/RMAS 2/Lexical_Decision_Task.osexp","no","Andale Mono","no","18","no","white","no","yes","576","legacy","65","65","3","C:/Users/username/Documents/Psych degree/SECOND YEAR/Semester 2/Cognition and language/assignment/subject-5065886.csv","legacy","Lentiform Loewenfeld","3.3.7","yes","yes","600bd7cfb6416f0113b04181","602110864497cf011d9c0822","0","j","NA","space","space","space","space","j","591","NA","2002","27712","6523","5917","591","2","legacy","1024","2","48000","-16","task","5065886","even","NA","47852","51856","49854","193124","4024","38263","31739","193629","157281","193122","193629","193033","51856","194221","45838","189488","4013","191533","Lexical Decision Task","64","64422","70","yes","1024"
"2.782472624","10.55","2","huge","word","91.54929577464789","91.54929577464789","915.9577464788732","915.9577464788732","black","no","legacy","legacy","legacy","0","uniform","1","undefined","undefined","undefined","1","j","0","0","0","0","70","0","0","0","70","0","66","70","66","0","66","3","70","0","70","Thu Feb 18 13:59:43 2021","The main experiment item","yes","C:/Users/username/Documents/Psych degree/SECOND YEAR/Semester 2/RMAS 2/Lexical_Decision_Task.osexp","no","Andale Mono","no","18","no","white","no","yes","576","legacy","66","66","3","C:/Users/username/Documents/Psych degree/SECOND YEAR/Semester 2/Cognition and language/assignment/subject-5065886.csv","legacy","Lentiform Loewenfeld","3.3.7","yes","yes","600bd7cfb6416f0113b04181","602110864497cf011d9c0822","0","j","NA","space","space","space","space","j","611","NA","2002","27712","6523","5917","611","2","legacy","1024","2","48000","-16","task","5065886","even","NA","47852","51856","49854","194808","4024","38263","31739","195311","157281","194806","195311","194725","51856","195923","45838","194225","4013","191533","Lexical Decision Task","65","65033","71","yes","1024"
"3.276537627","9.15","5","trap","word","91.66666666666667","91.66666666666667","911.6388888888889","911.6388888888889","black","no","legacy","legacy","legacy","0","uniform","1","undefined","undefined","undefined","1","j","0","0","0","0","71","0","0","0","71","0","67","71","67","0","67","3","71","0","71","Thu Feb 18 13:59:43 2021","The main experiment item","yes","C:/Users/username/Documents/Psych degree/SECOND YEAR/Semester 2/RMAS 2/Lexical_Decision_Task.osexp","no","Andale Mono","no","18","no","white","no","yes","576","legacy","67","67","3","C:/Users/username/Documents/Psych degree/SECOND YEAR/Semester 2/Cognition and language/assignment/subject-5065886.csv","legacy","Lentiform Loewenfeld","3.3.7","yes","yes","600bd7cfb6416f0113b04181","602110864497cf011d9c0822","0","j","NA","space","space","space","space","j","605","NA","2002","27712","6523","5917","605","2","legacy","1024","2","48000","-16","task","5065886","even","NA","47852","51856","49854","196508","4024","38263","31739","197012","157281","196506","197012","196435","51856","197617","45838","195935","4013","191533","Lexical Decision Task","66","65638","72","yes","1024"
"3.307211407","6.07","7","honk","word","91.78082191780823","91.78082191780823","909.5616438356165","909.5616438356165","black","no","legacy","legacy","legacy","0","uniform","1","undefined","undefined","undefined","1","j","0","0","0","0","72","0","0","0","72","0","68","72","68","0","68","3","72","0","72","Thu Feb 18 13:59:43 2021","The main experiment item","yes","C:/Users/username/Documents/Psych degree/SECOND YEAR/Semester 2/RMAS 2/Lexical_Decision_Task.osexp","no","Andale Mono","no","18","no","white","no","yes","576","legacy","68","68","3","C:/Users/username/Documents/Psych degree/SECOND YEAR/Semester 2/Cognition and language/assignment/subject-5065886.csv","legacy","Lentiform Loewenfeld","3.3.7","yes","yes","600bd7cfb6416f0113b04181","602110864497cf011d9c0822","0","j","NA","space","space","space","space","j","760","NA","2002","27712","6523","5917","760","2","legacy","1024","2","48000","-16","task","5065886","even","NA","47852","51856","49854","198205","4024","38263","31739","198710","157281","198204","198710","198128","51856","199471","45838","197627","4013","191533","Lexical Decision Task","67","66398","73","yes","1024"
"3.248054965","7.86","5","glow","word","91.89189189189189","91.89189189189189","904.3378378378378","904.3378378378378","black","no","legacy","legacy","legacy","0","uniform","1","undefined","undefined","undefined","1","j","0","0","0","0","73","0","0","0","73","0","69","73","69","0","69","3","73","0","73","Thu Feb 18 13:59:43 2021","The main experiment item","yes","C:/Users/username/Documents/Psych degree/SECOND YEAR/Semester 2/RMAS 2/Lexical_Decision_Task.osexp","no","Andale Mono","no","18","no","white","no","yes","576","legacy","69","69","3","C:/Users/username/Documents/Psych degree/SECOND YEAR/Semester 2/Cognition and language/assignment/subject-5065886.csv","legacy","Lentiform Loewenfeld","3.3.7","yes","yes","600bd7cfb6416f0113b04181","602110864497cf011d9c0822","0","j","NA","space","space","space","space","j","523","NA","2002","27712","6523","5917","523","2","legacy","1024","2","48000","-16","task","5065886","even","NA","47852","51856","49854","200047","4024","38263","31739","200553","157281","200046","200553","199975","51856","201077","45838","199475","4013","191533","Lexical Decision Task","68","66921","74","yes","1024"
"2.839268497","0","8","maft","non-word","92","92","903.7866666666666","903.7866666666666","black","no","legacy","legacy","legacy","0","uniform","1","undefined","undefined","undefined","1","f","0","0","0","0","74","0","0","0","74","0","70","74","70","0","70","3","74","0","74","Thu Feb 18 13:59:43 2021","The main experiment item","yes","C:/Users/username/Documents/Psych degree/SECOND YEAR/Semester 2/RMAS 2/Lexical_Decision_Task.osexp","no","Andale Mono","no","18","no","white","no","yes","576","legacy","70","70","3","C:/Users/username/Documents/Psych degree/SECOND YEAR/Semester 2/Cognition and language/assignment/subject-5065886.csv","legacy","Lentiform Loewenfeld","3.3.7","yes","yes","600bd7cfb6416f0113b04181","602110864497cf011d9c0822","0","f","NA","space","space","space","space","f","863","NA","2002","27712","6523","5917","863","2","legacy","1024","2","48000","-16","task","5065886","even","NA","47852","51856","49854","201665","4024","38263","31739","202166","157281","201663","202166","201588","51856","203030","45838","201087","4013","191533","Lexical Decision Task","69","67784","75","yes","1024"
"3.257359335","8","6","brew","word","92.10526315789474","92.10526315789474","899.921052631579","899.921052631579","black","no","legacy","legacy","legacy","0","uniform","1","undefined","undefined","undefined","1","j","0","0","0","0","75","0","0","0","75","0","71","75","71","0","71","3","75","0","75","Thu Feb 18 13:59:43 2021","The main experiment item","yes","C:/Users/username/Documents/Psych degree/SECOND YEAR/Semester 2/RMAS 2/Lexical_Decision_Task.osexp","no","Andale Mono","no","18","no","white","no","yes","576","legacy","71","71","3","C:/Users/username/Documents/Psych degree/SECOND YEAR/Semester 2/Cognition and language/assignment/subject-5065886.csv","legacy","Lentiform Loewenfeld","3.3.7","yes","yes","600bd7cfb6416f0113b04181","602110864497cf011d9c0822","0","j","NA","space","space","space","space","j","610","NA","2002","27712","6523","5917","610","2","legacy","1024","2","48000","-16","task","5065886","even","NA","47852","51856","49854","203624","4024","38263","31739","204125","157281","203622","204125","203543","51856","204736","45838","203043","4013","191533","Lexical Decision Task","70","68394","76","yes","1024"
"2.744553742","0","2","nawk","non-word","90.9090909090909","90.9090909090909","899.7142857142857","899.7142857142857","black","no","legacy","legacy","legacy","0","uniform","0","undefined","undefined","undefined","0","f","0","0","0","0","76","0","0","0","76","0","72","76","72","0","72","3","76","0","76","Thu Feb 18 13:59:43 2021","The main experiment item","yes","C:/Users/username/Documents/Psych degree/SECOND YEAR/Semester 2/RMAS 2/Lexical_Decision_Task.osexp","no","Andale Mono","no","18","no","white","no","yes","576","legacy","72","72","3","C:/Users/username/Documents/Psych degree/SECOND YEAR/Semester 2/Cognition and language/assignment/subject-5065886.csv","legacy","Lentiform Loewenfeld","3.3.7","yes","yes","600bd7cfb6416f0113b04181","602110864497cf011d9c0822","0","j","NA","space","space","space","space","j","884","NA","2002","27712","6523","5917","884","2","legacy","1024","2","48000","-16","task","5065886","even","NA","47852","51856","49854","205315","4024","38263","31739","205816","157281","205313","205816","205240","51856","206701","45838","204740","4013","191533","Lexical Decision Task","70","69278","77","yes","1024"
"2.937852093","0","7","bamp","non-word","91.02564102564102","91.02564102564102","898.7051282051282","898.7051282051282","black","no","legacy","legacy","legacy","0","uniform","1","undefined","undefined","undefined","1","f","0","0","0","0","77","0","0","0","77","0","73","77","73","0","73","3","77","0","77","Thu Feb 18 13:59:43 2021","The main experiment item","yes","C:/Users/username/Documents/Psych degree/SECOND YEAR/Semester 2/RMAS 2/Lexical_Decision_Task.osexp","no","Andale Mono","no","18","no","white","no","yes","576","legacy","73","73","3","C:/Users/username/Documents/Psych degree/SECOND YEAR/Semester 2/Cognition and language/assignment/subject-5065886.csv","legacy","Lentiform Loewenfeld","3.3.7","yes","yes","600bd7cfb6416f0113b04181","602110864497cf011d9c0822","0","f","NA","space","space","space","space","f","821","NA","2002","27712","6523","5917","821","2","legacy","1024","2","48000","-16","task","5065886","even","NA","47852","51856","49854","208285","4024","38263","31739","208791","157281","208284","208791","208205","51856","209613","45838","204740","4013","206705","Lexical Decision Task","71","70099","78","yes","1024"
"3.368162872","0","4","ferk","non-word","91.13924050632912","91.13924050632912","897.253164556962","897.253164556962","black","no","legacy","legacy","legacy","0","uniform","1","undefined","undefined","undefined","1","f","0","0","0","0","78","0","0","0","78","0","74","78","74","0","74","3","78","0","78","Thu Feb 18 13:59:43 2021","The main experiment item","yes","C:/Users/username/Documents/Psych degree/SECOND YEAR/Semester 2/RMAS 2/Lexical_Decision_Task.osexp","no","Andale Mono","no","18","no","white","no","yes","576","legacy","74","74","3","C:/Users/username/Documents/Psych degree/SECOND YEAR/Semester 2/Cognition and language/assignment/subject-5065886.csv","legacy","Lentiform Loewenfeld","3.3.7","yes","yes","600bd7cfb6416f0113b04181","602110864497cf011d9c0822","0","f","NA","space","space","space","space","f","784","NA","2002","27712","6523","5917","784","2","legacy","1024","2","48000","-16","task","5065886","even","NA","47852","51856","49854","210210","4024","38263","31739","210713","157281","210208","210713","210122","51856","211498","45838","209622","4013","206705","Lexical Decision Task","72","70883","79","yes","1024"
"3.119255889","6.63","2","itch","word","91.25","91.25","895","895","black","no","legacy","legacy","legacy","0","uniform","1","undefined","undefined","undefined","1","j","0","0","0","0","79","0","0","0","79","0","75","79","75","0","75","3","79","0","79","Thu Feb 18 13:59:43 2021","The main experiment item","yes","C:/Users/username/Documents/Psych degree/SECOND YEAR/Semester 2/RMAS 2/Lexical_Decision_Task.osexp","no","Andale Mono","no","18","no","white","no","yes","576","legacy","75","75","3","C:/Users/username/Documents/Psych degree/SECOND YEAR/Semester 2/Cognition and language/assignment/subject-5065886.csv","legacy","Lentiform Loewenfeld","3.3.7","yes","yes","600bd7cfb6416f0113b04181","602110864497cf011d9c0822","0","j","NA","space","space","space","space","j","717","NA","2002","27712","6523","5917","717","2","legacy","1024","2","48000","-16","task","5065886","even","NA","47852","51856","49854","212086","4024","38263","31739","212590","157281","212084","212590","212009","51856","213308","45838","211509","4013","206705","Lexical Decision Task","73","71600","80","yes","1024"
"2.983324025","9.56","2","debt","word","91.35802469135803","91.35802469135803","890.8271604938271","890.8271604938271","black","no","legacy","legacy","legacy","0","uniform","1","undefined","undefined","undefined","1","j","0","0","0","0","80","0","0","0","80","0","76","80","76","0","76","3","80","0","80","Thu Feb 18 13:59:43 2021","The main experiment item","yes","C:/Users/username/Documents/Psych degree/SECOND YEAR/Semester 2/RMAS 2/Lexical_Decision_Task.osexp","no","Andale Mono","no","18","no","white","no","yes","576","legacy","76","76","3","C:/Users/username/Documents/Psych degree/SECOND YEAR/Semester 2/Cognition and language/assignment/subject-5065886.csv","legacy","Lentiform Loewenfeld","3.3.7","yes","yes","600bd7cfb6416f0113b04181","602110864497cf011d9c0822","0","j","NA","space","space","space","space","j","557","NA","2002","27712","6523","5917","557","2","legacy","1024","2","48000","-16","task","5065886","even","NA","47852","51856","49854","213880","4024","38263","31739","214381","157281","213880","214381","213812","51856","214939","45838","213311","4013","206705","Lexical Decision Task","74","72157","81","yes","1024"
"2.868644438","10.52","4","town","word","91.46341463414635","91.46341463414635","888","888","black","no","legacy","legacy","legacy","0","uniform","1","undefined","undefined","undefined","1","j","0","0","0","0","81","0","0","0","81","0","77","81","77","0","77","3","81","0","81","Thu Feb 18 13:59:43 2021","The main experiment item","yes","C:/Users/username/Documents/Psych degree/SECOND YEAR/Semester 2/RMAS 2/Lexical_Decision_Task.osexp","no","Andale Mono","no","18","no","white","no","yes","576","legacy","77","77","3","C:/Users/username/Documents/Psych degree/SECOND YEAR/Semester 2/Cognition and language/assignment/subject-5065886.csv","legacy","Lentiform Loewenfeld","3.3.7","yes","yes","600bd7cfb6416f0113b04181","602110864497cf011d9c0822","0","j","NA","space","space","space","space","j","659","NA","2002","27712","6523","5917","659","2","legacy","1024","2","48000","-16","task","5065886","even","NA","47852","51856","49854","215522","4024","38263","31739","216025","157281","215520","216025","215453","51856","216685","45838","214953","4013","206705","Lexical Decision Task","75","72816","82","yes","1024"
"2.576725172","0","8","gowl","non-word","91.56626506024097","91.56626506024097","887.7469879518072","887.7469879518072","black","no","legacy","legacy","legacy","0","uniform","1","undefined","undefined","undefined","1","f","0","0","0","0","82","0","0","0","82","0","78","82","78","0","78","3","82","0","82","Thu Feb 18 13:59:43 2021","The main experiment item","yes","C:/Users/username/Documents/Psych degree/SECOND YEAR/Semester 2/RMAS 2/Lexical_Decision_Task.osexp","no","Andale Mono","no","18","no","white","no","yes","576","legacy","78","78","3","C:/Users/username/Documents/Psych degree/SECOND YEAR/Semester 2/Cognition and language/assignment/subject-5065886.csv","legacy","Lentiform Loewenfeld","3.3.7","yes","yes","600bd7cfb6416f0113b04181","602110864497cf011d9c0822","0","f","NA","space","space","space","space","f","867","NA","2002","27712","6523","5917","867","2","legacy","1024","2","48000","-16","task","5065886","even","NA","47852","51856","49854","217266","4024","38263","31739","217771","157281","217264","217772","217188","51856","218639","45838","216688","4013","206705","Lexical Decision Task","76","73683","83","yes","1024"
"2.695481676","0","7","goke","non-word","91.66666666666667","91.66666666666667","886.5714285714286","886.5714285714286","black","no","legacy","legacy","legacy","0","uniform","1","undefined","undefined","undefined","1","f","0","0","0","0","83","0","0","0","83","0","79","83","79","0","79","3","83","0","83","Thu Feb 18 13:59:43 2021","The main experiment item","yes","C:/Users/username/Documents/Psych degree/SECOND YEAR/Semester 2/RMAS 2/Lexical_Decision_Task.osexp","no","Andale Mono","no","18","no","white","no","yes","576","legacy","79","79","3","C:/Users/username/Documents/Psych degree/SECOND YEAR/Semester 2/Cognition and language/assignment/subject-5065886.csv","legacy","Lentiform Loewenfeld","3.3.7","yes","yes","600bd7cfb6416f0113b04181","602110864497cf011d9c0822","0","f","NA","space","space","space","space","f","789","NA","2002","27712","6523","5917","789","2","legacy","1024","2","48000","-16","task","5065886","even","NA","47852","51856","49854","219231","4024","38263","31739","219736","157281","219229","219736","219149","51856","220527","45838","218649","4013","206705","Lexical Decision Task","77","74472","84","yes","1024"
"2.920123326","7.43","4","duel","word","91.76470588235294","91.76470588235294","883.0823529411765","883.0823529411765","black","no","legacy","legacy","legacy","0","uniform","1","undefined","undefined","undefined","1","j","0","0","0","0","84","0","0","0","84","0","80","84","80","0","80","3","84","0","84","Thu Feb 18 13:59:43 2021","The main experiment item","yes","C:/Users/username/Documents/Psych degree/SECOND YEAR/Semester 2/RMAS 2/Lexical_Decision_Task.osexp","no","Andale Mono","no","18","no","white","no","yes","576","legacy","80","80","3","C:/Users/username/Documents/Psych degree/SECOND YEAR/Semester 2/Cognition and language/assignment/subject-5065886.csv","legacy","Lentiform Loewenfeld","3.3.7","yes","yes","600bd7cfb6416f0113b04181","602110864497cf011d9c0822","0","j","NA","space","space","space","space","j","590","NA","2002","27712","6523","5917","590","2","legacy","1024","2","48000","-16","task","5065886","even","NA","47852","51856","49854","221114","4024","38263","31739","221620","157281","221112","221620","221037","51856","222212","45838","220536","4013","206705","Lexical Decision Task","78","75062","85","yes","1024"
"3.259832699","0","9","flar","non-word","91.86046511627907","91.86046511627907","883.9883720930233","883.9883720930233","black","no","legacy","legacy","legacy","0","uniform","1","undefined","undefined","undefined","1","f","0","0","0","0","85","0","0","0","85","0","81","85","81","0","81","3","85","0","85","Thu Feb 18 13:59:43 2021","The main experiment item","yes","C:/Users/username/Documents/Psych degree/SECOND YEAR/Semester 2/RMAS 2/Lexical_Decision_Task.osexp","no","Andale Mono","no","18","no","white","no","yes","576","legacy","81","81","3","C:/Users/username/Documents/Psych degree/SECOND YEAR/Semester 2/Cognition and language/assignment/subject-5065886.csv","legacy","Lentiform Loewenfeld","3.3.7","yes","yes","600bd7cfb6416f0113b04181","602110864497cf011d9c0822","0","f","NA","space","space","space","space","f","961","NA","2002","27712","6523","5917","961","2","legacy","1024","2","48000","-16","task","5065886","even","NA","47852","51856","49854","222800","4024","38263","31739","223304","157281","222798","223304","222724","51856","224266","45838","222223","4013","206705","Lexical Decision Task","79","76023","86","yes","1024"
"3.218535505","7.85","7","goat","word","91.95402298850574","91.95402298850574","882.5402298850574","882.5402298850574","black","no","legacy","legacy","legacy","0","uniform","1","undefined","undefined","undefined","1","j","0","0","0","0","86","0","0","0","86","0","82","86","82","0","82","3","86","0","86","Thu Feb 18 13:59:43 2021","The main experiment item","yes","C:/Users/username/Documents/Psych degree/SECOND YEAR/Semester 2/RMAS 2/Lexical_Decision_Task.osexp","no","Andale Mono","no","18","no","white","no","yes","576","legacy","82","82","3","C:/Users/username/Documents/Psych degree/SECOND YEAR/Semester 2/Cognition and language/assignment/subject-5065886.csv","legacy","Lentiform Loewenfeld","3.3.7","yes","yes","600bd7cfb6416f0113b04181","602110864497cf011d9c0822","0","j","NA","space","space","space","space","j","758","NA","2002","27712","6523","5917","758","2","legacy","1024","2","48000","-16","task","5065886","even","NA","47852","51856","49854","224850","4024","38263","31739","225354","157281","224848","225354","224770","51856","226113","45838","224270","4013","206705","Lexical Decision Task","80","76781","87","yes","1024"
"3.049218023","7.4","9","robe","word","92.04545454545455","92.04545454545455","878.9090909090909","878.9090909090909","black","no","legacy","legacy","legacy","0","uniform","1","undefined","undefined","undefined","1","j","0","0","0","0","87","0","0","0","87","0","83","87","83","0","83","3","87","0","87","Thu Feb 18 13:59:43 2021","The main experiment item","yes","C:/Users/username/Documents/Psych degree/SECOND YEAR/Semester 2/RMAS 2/Lexical_Decision_Task.osexp","no","Andale Mono","no","18","no","white","no","yes","576","legacy","83","83","3","C:/Users/username/Documents/Psych degree/SECOND YEAR/Semester 2/Cognition and language/assignment/subject-5065886.csv","legacy","Lentiform Loewenfeld","3.3.7","yes","yes","600bd7cfb6416f0113b04181","602110864497cf011d9c0822","0","j","NA","space","space","space","space","j","563","NA","2002","27712","6523","5917","563","2","legacy","1024","2","48000","-16","task","5065886","even","NA","47852","51856","49854","226701","4024","38263","31739","227204","157281","226699","227204","226622","51856","227768","45838","226122","4013","206705","Lexical Decision Task","81","77344","88","yes","1024"
"3.067193647","6.73","6","raft","word","92.13483146067416","92.13483146067416","875.9101123595506","875.9101123595506","black","no","legacy","legacy","legacy","0","uniform","1","undefined","undefined","undefined","1","j","0","0","0","0","88","0","0","0","88","0","84","88","84","0","84","3","88","0","88","Thu Feb 18 13:59:43 2021","The main experiment item","yes","C:/Users/username/Documents/Psych degree/SECOND YEAR/Semester 2/RMAS 2/Lexical_Decision_Task.osexp","no","Andale Mono","no","18","no","white","no","yes","576","legacy","84","84","3","C:/Users/username/Documents/Psych degree/SECOND YEAR/Semester 2/Cognition and language/assignment/subject-5065886.csv","legacy","Lentiform Loewenfeld","3.3.7","yes","yes","600bd7cfb6416f0113b04181","602110864497cf011d9c0822","0","j","NA","space","space","space","space","j","612","NA","2002","27712","6523","5917","612","2","legacy","1024","2","48000","-16","task","5065886","even","NA","47852","51856","49854","228351","4024","38263","31739","228852","157281","228349","228852","228272","51856","229465","45838","227772","4013","206705","Lexical Decision Task","82","77956","89","yes","1024"
"3.1430148","7.92","8","bald","word","92.22222222222223","92.22222222222223","875.0888888888888","875.0888888888888","black","no","legacy","legacy","legacy","0","uniform","1","undefined","undefined","undefined","1","j","0","0","0","0","89","0","0","0","89","0","85","89","85","0","85","3","89","0","89","Thu Feb 18 13:59:43 2021","The main experiment item","yes","C:/Users/username/Documents/Psych degree/SECOND YEAR/Semester 2/RMAS 2/Lexical_Decision_Task.osexp","no","Andale Mono","no","18","no","white","no","yes","576","legacy","85","85","3","C:/Users/username/Documents/Psych degree/SECOND YEAR/Semester 2/Cognition and language/assignment/subject-5065886.csv","legacy","Lentiform Loewenfeld","3.3.7","yes","yes","600bd7cfb6416f0113b04181","602110864497cf011d9c0822","0","j","NA","space","space","space","space","j","802","NA","2002","27712","6523","5917","802","2","legacy","1024","2","48000","-16","task","5065886","even","NA","47852","51856","49854","230045","4024","38263","31739","230549","157281","230043","230549","229968","51856","231352","45838","229468","4013","206705","Lexical Decision Task","83","78758","90","yes","1024"
