"Log_BG","Log_Freq_HAL","Ortho_N","Stimulus","Type","acc","accuracy","average_response_time","avg_rt","background","bidi","canvas_backend","clock_backend","color_backend","compensation","coordinates","correct","correct_Experimental_intro","correct_Introduction","correct_Practice_intro","correct_experimenter_kb","correct_response","count_End_Of_Experiment","count_End_Of_Practice","count_Experimental_Loop","count_Experimental_intro","count_Fixation","count_Introduction","count_Practice_Loop","count_Practice_intro","count_Stimulus","count_block_break_feedback","count_experimental_sequence","count_experimenter_kb","count_increment_trial_count","count_init_trial_count","count_logger","count_practice_sequence","count_right","count_task","count_wrong","datetime","description","disable_garbage_collection","experiment_file","experiment_path","font_bold","font_family","font_italic","font_size","font_underline","foreground","form_clicks","fullscreen","height","keyboard_backend","live_row","live_row_Experimental_Loop","live_row_Practice_Loop","logfile","mouse_backend","opensesame_codename","opensesame_version","osf_always_upload_data","osf_always_upload_experiment","osf_datanode_id","osf_id","repeat_cycle","response","response_End_Of_Experiment","response_Experimental_intro","response_Introduction","response_Practice_intro","response_block_break_feedback","response_experimenter_kb","response_time","response_time_End_Of_Experiment","response_time_Experimental_intro","response_time_Introduction","response_time_Practice_intro","response_time_block_break_feedback","response_time_experimenter_kb","round_decimals","sampler_backend","sound_buf_size","sound_channels","sound_freq","sound_sample_size","start","subject_nr","subject_parity","time_End_Of_Experiment","time_End_Of_Practice","time_Experimental_Loop","time_Experimental_intro","time_Fixation","time_Introduction","time_Practice_Loop","time_Practice_intro","time_Stimulus","time_block_break_feedback","time_experimental_sequence","time_experimenter_kb","time_increment_trial_count","time_init_trial_count","time_logger","time_practice_sequence","time_right","time_task","time_wrong","title","total_correct","total_response_time","total_responses","uniform_coordinates","width"
"2.793790385","5.67","9","swab","word","100","100","953.8","953.8","black","no","legacy","legacy","legacy","0","uniform","1","undefined","undefined","undefined","1","j","0","0","0","0","4","0","0","0","4","NA","0","4","0","0","0","3","4","0","4","Wed Feb 17 12:00:25 2021","The main experiment item","yes","Lexical_Decision_Task.osexp","/Users/oliviahorne","no","Andale Mono","no","18","no","white","no","yes","576","legacy","0","0","3","/Users/oliviahorne/subject-5202797.csv","legacy","Lentiform Loewenfeld","3.3.7","yes","yes","600bd7cfb6416f0113b04181","602110864497cf011d9c0822","0","j","NA","return","return","return","NA","j","1139","NA","3790","1621","716","NA","1139","2","legacy","1024","2","48000","-16","task","5202797","odd","NA","14656","20450","16659","20472","4462","6811","6092","20974","NA","20470","20974","NA","20450","22114","12892","14134","4418","NA","Lexical Decision Task","5","4769","5","yes","1024"
"2.719886232","7.98","2","quiz","word","100","100","934.1666666666666","934.1666666666666","black","no","legacy","legacy","legacy","0","uniform","1","undefined","undefined","undefined","1","j","0","0","0","0","5","0","0","0","5","NA","1","5","1","0","1","3","5","0","5","Wed Feb 17 12:00:25 2021","The main experiment item","yes","Lexical_Decision_Task.osexp","/Users/oliviahorne","no","Andale Mono","no","18","no","white","no","yes","576","legacy","1","1","3","/Users/oliviahorne/subject-5202797.csv","legacy","Lentiform Loewenfeld","3.3.7","yes","yes","600bd7cfb6416f0113b04181","602110864497cf011d9c0822","0","j","NA","return","return","return","NA","j","836","NA","3790","1621","716","NA","836","2","legacy","1024","2","48000","-16","task","5202797","odd","NA","14656","20450","16659","22667","4462","6811","6092","23169","NA","22665","23169","22625","20450","24005","12892","22125","4418","NA","Lexical Decision Task","6","5605","6","yes","1024"
"3.153001286","8.7","5","palm","word","100","100","894.2857142857143","894.2857142857143","black","no","legacy","legacy","legacy","0","uniform","1","undefined","undefined","undefined","1","j","0","0","0","0","6","0","0","0","6","NA","2","6","2","0","2","3","6","0","6","Wed Feb 17 12:00:25 2021","The main experiment item","yes","Lexical_Decision_Task.osexp","/Users/oliviahorne","no","Andale Mono","no","18","no","white","no","yes","576","legacy","2","2","3","/Users/oliviahorne/subject-5202797.csv","legacy","Lentiform Loewenfeld","3.3.7","yes","yes","600bd7cfb6416f0113b04181","602110864497cf011d9c0822","0","j","NA","return","return","return","NA","j","655","NA","3790","1621","716","NA","655","2","legacy","1024","2","48000","-16","task","5202797","odd","NA","14656","20450","16659","24551","4462","6811","6092","25053","NA","24549","25053","24508","20450","25708","12892","24008","4418","NA","Lexical Decision Task","7","6260","7","yes","1024"
"2.703007489","8.37","3","pulp","word","100","100","885.375","885.375","black","no","legacy","legacy","legacy","0","uniform","1","undefined","undefined","undefined","1","j","0","0","0","0","7","0","0","0","7","NA","3","7","3","0","3","3","7","0","7","Wed Feb 17 12:00:25 2021","The main experiment item","yes","Lexical_Decision_Task.osexp","/Users/oliviahorne","no","Andale Mono","no","18","no","white","no","yes","576","legacy","3","3","3","/Users/oliviahorne/subject-5202797.csv","legacy","Lentiform Loewenfeld","3.3.7","yes","yes","600bd7cfb6416f0113b04181","602110864497cf011d9c0822","0","j","NA","return","return","return","NA","j","823","NA","3790","1621","716","NA","823","2","legacy","1024","2","48000","-16","task","5202797","odd","NA","14656","20450","16659","26256","4462","6811","6092","26758","NA","26254","26758","26212","20450","27581","12892","25711","4418","NA","Lexical Decision Task","8","7083","8","yes","1024"
"2.9737419","7.69","7","claw","word","100","100","859.3333333333334","859.3333333333334","black","no","legacy","legacy","legacy","0","uniform","1","undefined","undefined","undefined","1","j","0","0","0","0","8","0","0","0","8","NA","4","8","4","0","4","3","8","0","8","Wed Feb 17 12:00:25 2021","The main experiment item","yes","Lexical_Decision_Task.osexp","/Users/oliviahorne","no","Andale Mono","no","18","no","white","no","yes","576","legacy","4","4","3","/Users/oliviahorne/subject-5202797.csv","legacy","Lentiform Loewenfeld","3.3.7","yes","yes","600bd7cfb6416f0113b04181","602110864497cf011d9c0822","0","j","NA","return","return","return","NA","j","651","NA","3790","1621","716","NA","651","2","legacy","1024","2","48000","-16","task","5202797","odd","NA","14656","20450","16659","28131","4462","6811","6092","28633","NA","28129","28633","28089","20450","29284","12892","27589","4418","NA","Lexical Decision Task","9","7734","9","yes","1024"
"3.031408464","0","7","drow","non-word","100","100","852.5","852.5","black","no","legacy","legacy","legacy","0","uniform","1","undefined","undefined","undefined","1","f","0","0","0","0","9","0","0","0","9","NA","5","9","5","0","5","3","9","0","9","Wed Feb 17 12:00:25 2021","The main experiment item","yes","Lexical_Decision_Task.osexp","/Users/oliviahorne","no","Andale Mono","no","18","no","white","no","yes","576","legacy","5","5","3","/Users/oliviahorne/subject-5202797.csv","legacy","Lentiform Loewenfeld","3.3.7","yes","yes","600bd7cfb6416f0113b04181","602110864497cf011d9c0822","0","f","NA","return","return","return","NA","f","791","NA","3790","1621","716","NA","791","2","legacy","1024","2","48000","-16","task","5202797","odd","NA","14656","20450","16659","29837","4462","6811","6092","30339","NA","29833","30339","29793","20450","31131","12892","29293","4418","NA","Lexical Decision Task","10","8525","10","yes","1024"
"3.076883066","0","8","mout","non-word","100","100","836.4545454545455","836.4545454545455","black","no","legacy","legacy","legacy","0","uniform","1","undefined","undefined","undefined","1","f","0","0","0","0","10","0","0","0","10","NA","6","10","6","0","6","3","10","0","10","Wed Feb 17 12:00:25 2021","The main experiment item","yes","Lexical_Decision_Task.osexp","/Users/oliviahorne","no","Andale Mono","no","18","no","white","no","yes","576","legacy","6","6","3","/Users/oliviahorne/subject-5202797.csv","legacy","Lentiform Loewenfeld","3.3.7","yes","yes","600bd7cfb6416f0113b04181","602110864497cf011d9c0822","0","f","NA","return","return","return","NA","f","676","NA","3790","1621","716","NA","676","2","legacy","1024","2","48000","-16","task","5202797","odd","NA","14656","20450","16659","31682","4462","6811","6092","32184","NA","31680","32184","31640","20450","32861","12892","31140","4418","NA","Lexical Decision Task","11","9201","11","yes","1024"
"2.576725172","0","8","gowl","non-word","91.66666666666667","91.66666666666667","821.9166666666666","821.9166666666666","black","no","legacy","legacy","legacy","0","uniform","0","undefined","undefined","undefined","0","f","0","0","0","0","11","0","0","0","11","NA","7","11","7","0","7","3","11","0","11","Wed Feb 17 12:00:25 2021","The main experiment item","yes","Lexical_Decision_Task.osexp","/Users/oliviahorne","no","Andale Mono","no","18","no","white","no","yes","576","legacy","7","7","3","/Users/oliviahorne/subject-5202797.csv","legacy","Lentiform Loewenfeld","3.3.7","yes","yes","600bd7cfb6416f0113b04181","602110864497cf011d9c0822","0","j","NA","return","return","return","NA","j","662","NA","3790","1621","716","NA","662","2","legacy","1024","2","48000","-16","task","5202797","odd","NA","14656","20450","16659","33412","4462","6811","6092","33914","NA","33410","33914","33370","20450","34576","12892","32870","4418","NA","Lexical Decision Task","11","9863","12","yes","1024"
"2.64476673","0","5","moft","non-word","92.3076923076923","92.3076923076923","821.7692307692307","821.7692307692307","black","no","legacy","legacy","legacy","0","uniform","1","undefined","undefined","undefined","1","f","0","0","0","0","12","0","0","0","12","NA","8","12","8","0","8","3","12","0","12","Wed Feb 17 12:00:25 2021","The main experiment item","yes","Lexical_Decision_Task.osexp","/Users/oliviahorne","no","Andale Mono","no","18","no","white","no","yes","576","legacy","8","8","3","/Users/oliviahorne/subject-5202797.csv","legacy","Lentiform Loewenfeld","3.3.7","yes","yes","600bd7cfb6416f0113b04181","602110864497cf011d9c0822","0","f","NA","return","return","return","NA","f","820","NA","3790","1621","716","NA","820","2","legacy","1024","2","48000","-16","task","5202797","odd","NA","14656","20450","16659","36128","4462","6811","6092","36632","NA","36126","36632","36084","20450","37453","12892","32870","4418","34584","Lexical Decision Task","12","10683","13","yes","1024"
"2.82129731","6.72","5","plum","word","92.85714285714286","92.85714285714286","811.5","811.5","black","no","legacy","legacy","legacy","0","uniform","1","undefined","undefined","undefined","1","j","0","0","0","0","13","0","0","0","13","NA","9","13","9","0","9","3","13","0","13","Wed Feb 17 12:00:25 2021","The main experiment item","yes","Lexical_Decision_Task.osexp","/Users/oliviahorne","no","Andale Mono","no","18","no","white","no","yes","576","legacy","9","9","3","/Users/oliviahorne/subject-5202797.csv","legacy","Lentiform Loewenfeld","3.3.7","yes","yes","600bd7cfb6416f0113b04181","602110864497cf011d9c0822","0","j","NA","return","return","return","NA","j","678","NA","3790","1621","716","NA","678","2","legacy","1024","2","48000","-16","task","5202797","odd","NA","14656","20450","16659","38004","4462","6811","6092","38506","NA","38002","38506","37962","20450","39185","12892","37462","4418","34584","Lexical Decision Task","13","11361","14","yes","1024"
"3.474361976","5.24","6","veer","word","86.66666666666667","86.66666666666667","808.6666666666666","808.6666666666666","black","no","legacy","legacy","legacy","0","uniform","0","undefined","undefined","undefined","0","j","0","0","0","0","14","0","0","0","14","NA","10","14","10","0","10","3","14","0","14","Wed Feb 17 12:00:25 2021","The main experiment item","yes","Lexical_Decision_Task.osexp","/Users/oliviahorne","no","Andale Mono","no","18","no","white","no","yes","576","legacy","10","10","3","/Users/oliviahorne/subject-5202797.csv","legacy","Lentiform Loewenfeld","3.3.7","yes","yes","600bd7cfb6416f0113b04181","602110864497cf011d9c0822","0","f","NA","return","return","return","NA","f","769","NA","3790","1621","716","NA","769","2","legacy","1024","2","48000","-16","task","5202797","odd","NA","14656","20450","16659","39736","4462","6811","6092","40238","NA","39734","40238","39694","20450","41008","12892","39194","4418","34584","Lexical Decision Task","13","12130","15","yes","1024"
"3.529815197","0","3","lerm","non-word","87.5","87.5","808.75","808.75","black","no","legacy","legacy","legacy","0","uniform","1","undefined","undefined","undefined","1","f","0","0","0","0","15","0","0","0","15","NA","11","15","11","0","11","3","15","0","15","Wed Feb 17 12:00:25 2021","The main experiment item","yes","Lexical_Decision_Task.osexp","/Users/oliviahorne","no","Andale Mono","no","18","no","white","no","yes","576","legacy","11","11","3","/Users/oliviahorne/subject-5202797.csv","legacy","Lentiform Loewenfeld","3.3.7","yes","yes","600bd7cfb6416f0113b04181","602110864497cf011d9c0822","0","f","NA","return","return","return","NA","f","810","NA","3790","1621","716","NA","810","2","legacy","1024","2","48000","-16","task","5202797","odd","NA","14656","20450","16659","42561","4462","6811","6092","43063","NA","42559","43063","42518","20450","43874","12892","39194","4418","41018","Lexical Decision Task","14","12940","16","yes","1024"
"2.80048796","0","8","pife","non-word","82.3529411764706","82.3529411764706","800.5882352941177","800.5882352941177","black","no","legacy","legacy","legacy","0","uniform","0","undefined","undefined","undefined","0","f","0","0","0","0","16","0","0","0","16","NA","12","16","12","0","12","3","16","0","16","Wed Feb 17 12:00:25 2021","The main experiment item","yes","Lexical_Decision_Task.osexp","/Users/oliviahorne","no","Andale Mono","no","18","no","white","no","yes","576","legacy","12","12","3","/Users/oliviahorne/subject-5202797.csv","legacy","Lentiform Loewenfeld","3.3.7","yes","yes","600bd7cfb6416f0113b04181","602110864497cf011d9c0822","0","j","NA","return","return","return","NA","j","670","NA","3790","1621","716","NA","670","2","legacy","1024","2","48000","-16","task","5202797","odd","NA","14656","20450","16659","44424","4462","6811","6092","44926","NA","44422","44926","44383","20450","45597","12892","43883","4418","41018","Lexical Decision Task","14","13610","17","yes","1024"
"2.668385917","5.48","4","twig","word","83.33333333333333","83.33333333333333","796.5","796.5","black","no","legacy","legacy","legacy","0","uniform","1","undefined","undefined","undefined","1","j","0","0","0","0","17","0","0","0","17","NA","13","17","13","0","13","3","17","0","17","Wed Feb 17 12:00:25 2021","The main experiment item","yes","Lexical_Decision_Task.osexp","/Users/oliviahorne","no","Andale Mono","no","18","no","white","no","yes","576","legacy","13","13","3","/Users/oliviahorne/subject-5202797.csv","legacy","Lentiform Loewenfeld","3.3.7","yes","yes","600bd7cfb6416f0113b04181","602110864497cf011d9c0822","0","j","NA","return","return","return","NA","j","727","NA","3790","1621","716","NA","727","2","legacy","1024","2","48000","-16","task","5202797","odd","NA","14656","20450","16659","47150","4462","6811","6092","47652","NA","47148","47652","47106","20450","48380","12892","43883","4418","45606","Lexical Decision Task","15","14337","18","yes","1024"
"2.895974732","6.65","5","sift","word","84.21052631578948","84.21052631578948","831.9473684210526","831.9473684210526","black","no","legacy","legacy","legacy","0","uniform","1","undefined","undefined","undefined","1","j","0","0","0","0","18","0","0","0","18","NA","14","18","14","0","14","3","18","0","18","Wed Feb 17 12:00:25 2021","The main experiment item","yes","Lexical_Decision_Task.osexp","/Users/oliviahorne","no","Andale Mono","no","18","no","white","no","yes","576","legacy","14","14","3","/Users/oliviahorne/subject-5202797.csv","legacy","Lentiform Loewenfeld","3.3.7","yes","yes","600bd7cfb6416f0113b04181","602110864497cf011d9c0822","0","j","NA","return","return","return","NA","j","1470","NA","3790","1621","716","NA","1470","2","legacy","1024","2","48000","-16","task","5202797","odd","NA","14656","20450","16659","48931","4462","6811","6092","49433","NA","48929","49433","48889","20450","50904","12892","48389","4418","45606","Lexical Decision Task","16","15807","19","yes","1024"
"3.102203805","7.21","3","drip","word","85","85","830.25","830.25","black","no","legacy","legacy","legacy","0","uniform","1","undefined","undefined","undefined","1","j","0","0","0","0","19","0","0","0","19","NA","15","19","15","0","15","3","19","0","19","Wed Feb 17 12:00:25 2021","The main experiment item","yes","Lexical_Decision_Task.osexp","/Users/oliviahorne","no","Andale Mono","no","18","no","white","no","yes","576","legacy","15","15","3","/Users/oliviahorne/subject-5202797.csv","legacy","Lentiform Loewenfeld","3.3.7","yes","yes","600bd7cfb6416f0113b04181","602110864497cf011d9c0822","0","j","NA","return","return","return","NA","j","798","NA","3790","1621","716","NA","798","2","legacy","1024","2","48000","-16","task","5202797","odd","NA","14656","20450","16659","51455","4462","6811","6092","51957","NA","51453","51957","51413","20450","52756","12892","50913","4418","45606","Lexical Decision Task","17","16605","20","yes","1024"
"2.971428938","9.86","7","spot","word","85.71428571428571","85.71428571428571","817.4761904761905","817.4761904761905","black","no","legacy","legacy","legacy","0","uniform","1","undefined","undefined","undefined","1","j","0","0","0","0","20","0","0","0","20","NA","16","20","16","0","16","3","20","0","20","Wed Feb 17 12:00:25 2021","The main experiment item","yes","Lexical_Decision_Task.osexp","/Users/oliviahorne","no","Andale Mono","no","18","no","white","no","yes","576","legacy","16","16","3","/Users/oliviahorne/subject-5202797.csv","legacy","Lentiform Loewenfeld","3.3.7","yes","yes","600bd7cfb6416f0113b04181","602110864497cf011d9c0822","0","j","NA","return","return","return","NA","j","562","NA","3790","1621","716","NA","562","2","legacy","1024","2","48000","-16","task","5202797","odd","NA","14656","20450","16659","53306","4462","6811","6092","53808","NA","53304","53808","53265","20450","54371","12892","52765","4418","45606","Lexical Decision Task","18","17167","21","yes","1024"
"2.778633532","0","3","jurp","non-word","86.36363636363636","86.36363636363636","816.4545454545455","816.4545454545455","black","no","legacy","legacy","legacy","0","uniform","1","undefined","undefined","undefined","1","f","0","0","0","0","21","0","0","0","21","NA","17","21","17","0","17","3","21","0","21","Wed Feb 17 12:00:25 2021","The main experiment item","yes","Lexical_Decision_Task.osexp","/Users/oliviahorne","no","Andale Mono","no","18","no","white","no","yes","576","legacy","17","17","3","/Users/oliviahorne/subject-5202797.csv","legacy","Lentiform Loewenfeld","3.3.7","yes","yes","600bd7cfb6416f0113b04181","602110864497cf011d9c0822","0","f","NA","return","return","return","NA","f","795","NA","3790","1621","716","NA","795","2","legacy","1024","2","48000","-16","task","5202797","odd","NA","14656","20450","16659","54922","4462","6811","6092","55424","NA","54920","55424","54880","20450","56219","12892","54380","4418","45606","Lexical Decision Task","19","17962","22","yes","1024"
"3.282244367","0","6","fute","non-word","86.95652173913044","86.95652173913044","816.9565217391304","816.9565217391304","black","no","legacy","legacy","legacy","0","uniform","1","undefined","undefined","undefined","1","f","0","0","0","0","22","0","0","0","22","NA","18","22","18","0","18","3","22","0","22","Wed Feb 17 12:00:25 2021","The main experiment item","yes","Lexical_Decision_Task.osexp","/Users/oliviahorne","no","Andale Mono","no","18","no","white","no","yes","576","legacy","18","18","3","/Users/oliviahorne/subject-5202797.csv","legacy","Lentiform Loewenfeld","3.3.7","yes","yes","600bd7cfb6416f0113b04181","602110864497cf011d9c0822","0","f","NA","return","return","return","NA","f","828","NA","3790","1621","716","NA","828","2","legacy","1024","2","48000","-16","task","5202797","odd","NA","14656","20450","16659","56771","4462","6811","6092","57273","NA","56769","57273","56729","20450","58101","12892","56228","4418","45606","Lexical Decision Task","20","18790","23","yes","1024"
"2.705007959","6.01","4","wept","word","87.5","87.5","814.3333333333334","814.3333333333334","black","no","legacy","legacy","legacy","0","uniform","1","undefined","undefined","undefined","1","j","0","0","0","0","23","0","0","0","23","NA","19","23","19","0","19","3","23","0","23","Wed Feb 17 12:00:25 2021","The main experiment item","yes","Lexical_Decision_Task.osexp","/Users/oliviahorne","no","Andale Mono","no","18","no","white","no","yes","576","legacy","19","19","3","/Users/oliviahorne/subject-5202797.csv","legacy","Lentiform Loewenfeld","3.3.7","yes","yes","600bd7cfb6416f0113b04181","602110864497cf011d9c0822","0","j","NA","return","return","return","NA","j","754","NA","3790","1621","716","NA","754","2","legacy","1024","2","48000","-16","task","5202797","odd","NA","14656","20450","16659","58653","4462","6811","6092","59155","NA","58651","59155","58611","20450","59909","12892","58111","4418","45606","Lexical Decision Task","21","19544","24","yes","1024"
"3.443783828","7.65","3","verb","word","88","88","803.96","803.96","black","no","legacy","legacy","legacy","0","uniform","1","undefined","undefined","undefined","1","j","0","0","0","0","24","0","0","0","24","NA","20","24","20","0","20","3","24","0","24","Wed Feb 17 12:00:25 2021","The main experiment item","yes","Lexical_Decision_Task.osexp","/Users/oliviahorne","no","Andale Mono","no","18","no","white","no","yes","576","legacy","20","20","3","/Users/oliviahorne/subject-5202797.csv","legacy","Lentiform Loewenfeld","3.3.7","yes","yes","600bd7cfb6416f0113b04181","602110864497cf011d9c0822","0","j","NA","return","return","return","NA","j","555","NA","3790","1621","716","NA","555","2","legacy","1024","2","48000","-16","task","5202797","odd","NA","14656","20450","16659","60460","4462","6811","6092","60962","NA","60458","60962","60418","20450","61517","12892","59918","4418","45606","Lexical Decision Task","22","20099","25","yes","1024"
"2.884795364","0","6","flob","non-word","88.46153846153847","88.46153846153847","806.5384615384615","806.5384615384615","black","no","legacy","legacy","legacy","0","uniform","1","undefined","undefined","undefined","1","f","0","0","0","0","25","0","0","0","25","NA","21","25","21","0","21","3","25","0","25","Wed Feb 17 12:00:25 2021","The main experiment item","yes","Lexical_Decision_Task.osexp","/Users/oliviahorne","no","Andale Mono","no","18","no","white","no","yes","576","legacy","21","21","3","/Users/oliviahorne/subject-5202797.csv","legacy","Lentiform Loewenfeld","3.3.7","yes","yes","600bd7cfb6416f0113b04181","602110864497cf011d9c0822","0","f","NA","return","return","return","NA","f","871","NA","3790","1621","716","NA","871","2","legacy","1024","2","48000","-16","task","5202797","odd","NA","14656","20450","16659","62067","4462","6811","6092","62569","NA","62065","62569","62026","20450","63440","12892","61526","4418","45606","Lexical Decision Task","23","20970","26","yes","1024"
"2.839898939","8.99","6","soap","word","88.88888888888889","88.88888888888889","797.6666666666666","797.6666666666666","black","no","legacy","legacy","legacy","0","uniform","1","undefined","undefined","undefined","1","j","0","0","0","0","26","0","0","0","26","NA","22","26","22","0","22","3","26","0","26","Wed Feb 17 12:00:25 2021","The main experiment item","yes","Lexical_Decision_Task.osexp","/Users/oliviahorne","no","Andale Mono","no","18","no","white","no","yes","576","legacy","22","22","3","/Users/oliviahorne/subject-5202797.csv","legacy","Lentiform Loewenfeld","3.3.7","yes","yes","600bd7cfb6416f0113b04181","602110864497cf011d9c0822","0","j","NA","return","return","return","NA","j","567","NA","3790","1621","716","NA","567","2","legacy","1024","2","48000","-16","task","5202797","odd","NA","14656","20450","16659","63987","4462","6811","6092","64490","NA","63986","64491","63946","20450","65059","12892","63445","4418","45606","Lexical Decision Task","24","21537","27","yes","1024"
"3.531734309","0","6","lerd","non-word","89.28571428571429","89.28571428571429","798.5357142857143","798.5357142857143","black","no","legacy","legacy","legacy","0","uniform","1","undefined","undefined","undefined","1","f","0","0","0","0","27","0","0","0","27","NA","23","27","23","0","23","3","27","0","27","Wed Feb 17 12:00:25 2021","The main experiment item","yes","Lexical_Decision_Task.osexp","/Users/oliviahorne","no","Andale Mono","no","18","no","white","no","yes","576","legacy","23","23","3","/Users/oliviahorne/subject-5202797.csv","legacy","Lentiform Loewenfeld","3.3.7","yes","yes","600bd7cfb6416f0113b04181","602110864497cf011d9c0822","0","f","NA","return","return","return","NA","f","822","NA","3790","1621","716","NA","822","2","legacy","1024","2","48000","-16","task","5202797","odd","NA","14656","20450","16659","65611","4462","6811","6092","66113","NA","65608","66113","65567","20450","66936","12892","65067","4418","45606","Lexical Decision Task","25","22359","28","yes","1024"
"2.664011697","8.19","4","hawk","word","89.65517241379311","89.65517241379311","795.0344827586207","795.0344827586207","black","no","legacy","legacy","legacy","0","uniform","1","undefined","undefined","undefined","1","j","0","0","0","0","28","0","0","0","28","NA","24","28","24","0","24","3","28","0","28","Wed Feb 17 12:00:25 2021","The main experiment item","yes","Lexical_Decision_Task.osexp","/Users/oliviahorne","no","Andale Mono","no","18","no","white","no","yes","576","legacy","24","24","3","/Users/oliviahorne/subject-5202797.csv","legacy","Lentiform Loewenfeld","3.3.7","yes","yes","600bd7cfb6416f0113b04181","602110864497cf011d9c0822","0","j","NA","return","return","return","NA","j","697","NA","3790","1621","716","NA","697","2","legacy","1024","2","48000","-16","task","5202797","odd","NA","14656","20450","16659","67488","4462","6811","6092","67990","NA","67486","67990","67446","20450","68688","12892","66945","4418","45606","Lexical Decision Task","26","23056","29","yes","1024"
"3.132473155","0","4","glim","non-word","90","90","796.7666666666667","796.7666666666667","black","no","legacy","legacy","legacy","0","uniform","1","undefined","undefined","undefined","1","f","0","0","0","0","29","0","0","0","29","NA","25","29","25","0","25","3","29","0","29","Wed Feb 17 12:00:25 2021","The main experiment item","yes","Lexical_Decision_Task.osexp","/Users/oliviahorne","no","Andale Mono","no","18","no","white","no","yes","576","legacy","25","25","3","/Users/oliviahorne/subject-5202797.csv","legacy","Lentiform Loewenfeld","3.3.7","yes","yes","600bd7cfb6416f0113b04181","602110864497cf011d9c0822","0","f","NA","return","return","return","NA","f","847","NA","3790","1621","716","NA","847","2","legacy","1024","2","48000","-16","task","5202797","odd","NA","14656","20450","16659","69238","4462","6811","6092","69740","NA","69236","69740","69197","20450","70588","12892","68697","4418","45606","Lexical Decision Task","27","23903","30","yes","1024"
"2.814027728","8.2","4","foam","word","90.3225806451613","90.3225806451613","789","789","black","no","legacy","legacy","legacy","0","uniform","1","undefined","undefined","undefined","1","j","0","0","0","0","30","0","0","0","30","NA","26","30","26","0","26","3","30","0","30","Wed Feb 17 12:00:25 2021","The main experiment item","yes","Lexical_Decision_Task.osexp","/Users/oliviahorne","no","Andale Mono","no","18","no","white","no","yes","576","legacy","26","26","3","/Users/oliviahorne/subject-5202797.csv","legacy","Lentiform Loewenfeld","3.3.7","yes","yes","600bd7cfb6416f0113b04181","602110864497cf011d9c0822","0","j","NA","return","return","return","NA","j","556","NA","3790","1621","716","NA","556","2","legacy","1024","2","48000","-16","task","5202797","odd","NA","14656","20450","16659","71138","4462","6811","6092","71640","NA","71136","71640","71096","20450","72197","12892","70596","4418","45606","Lexical Decision Task","28","24459","31","yes","1024"
"2.714888338","0","3","brug","non-word","90.625","90.625","791.09375","791.09375","black","no","legacy","legacy","legacy","0","uniform","1","undefined","undefined","undefined","1","f","0","0","0","0","31","0","0","0","31","NA","27","31","27","0","27","3","31","0","31","Wed Feb 17 12:00:25 2021","The main experiment item","yes","Lexical_Decision_Task.osexp","/Users/oliviahorne","no","Andale Mono","no","18","no","white","no","yes","576","legacy","27","27","3","/Users/oliviahorne/subject-5202797.csv","legacy","Lentiform Loewenfeld","3.3.7","yes","yes","600bd7cfb6416f0113b04181","602110864497cf011d9c0822","0","f","NA","return","return","return","NA","f","856","NA","3790","1621","716","NA","856","2","legacy","1024","2","48000","-16","task","5202797","odd","NA","14656","20450","16659","72748","4462","6811","6092","73250","NA","72746","73250","72706","20450","74107","12892","72206","4418","45606","Lexical Decision Task","29","25315","32","yes","1024"
"2.821076612","0","4","lult","non-word","90.9090909090909","90.9090909090909","785.3939393939394","785.3939393939394","black","no","legacy","legacy","legacy","0","uniform","1","undefined","undefined","undefined","1","f","0","0","0","0","32","0","0","0","32","NA","28","32","28","0","28","3","32","0","32","Wed Feb 17 12:00:25 2021","The main experiment item","yes","Lexical_Decision_Task.osexp","/Users/oliviahorne","no","Andale Mono","no","18","no","white","no","yes","576","legacy","28","28","3","/Users/oliviahorne/subject-5202797.csv","legacy","Lentiform Loewenfeld","3.3.7","yes","yes","600bd7cfb6416f0113b04181","602110864497cf011d9c0822","0","f","NA","return","return","return","NA","f","603","NA","3790","1621","716","NA","603","2","legacy","1024","2","48000","-16","task","5202797","odd","NA","14656","20450","16659","74657","4462","6811","6092","75159","NA","74655","75159","74615","20450","75763","12892","74115","4418","45606","Lexical Decision Task","30","25918","33","yes","1024"
"3.382617311","0","4","pret","non-word","88.23529411764706","88.23529411764706","785.8529411764706","785.8529411764706","black","no","legacy","legacy","legacy","0","uniform","0","undefined","undefined","undefined","0","f","0","0","0","0","33","0","0","0","33","NA","29","33","29","0","29","3","33","0","33","Wed Feb 17 12:00:25 2021","The main experiment item","yes","Lexical_Decision_Task.osexp","/Users/oliviahorne","no","Andale Mono","no","18","no","white","no","yes","576","legacy","29","29","3","/Users/oliviahorne/subject-5202797.csv","legacy","Lentiform Loewenfeld","3.3.7","yes","yes","600bd7cfb6416f0113b04181","602110864497cf011d9c0822","0","j","NA","return","return","return","NA","j","801","NA","3790","1621","716","NA","801","2","legacy","1024","2","48000","-16","task","5202797","odd","NA","14656","20450","16659","76312","4462","6811","6092","76814","NA","76310","76814","76272","20450","77616","12892","75772","4418","45606","Lexical Decision Task","30","26719","34","yes","1024"
"2.68604012","0","3","mulb","non-word","88.57142857142857","88.57142857142857","783.3428571428572","783.3428571428572","black","no","legacy","legacy","legacy","0","uniform","1","undefined","undefined","undefined","1","f","0","0","0","0","34","0","0","0","34","NA","30","34","30","0","30","3","34","0","34","Wed Feb 17 12:00:25 2021","The main experiment item","yes","Lexical_Decision_Task.osexp","/Users/oliviahorne","no","Andale Mono","no","18","no","white","no","yes","576","legacy","30","30","3","/Users/oliviahorne/subject-5202797.csv","legacy","Lentiform Loewenfeld","3.3.7","yes","yes","600bd7cfb6416f0113b04181","602110864497cf011d9c0822","0","f","NA","return","return","return","NA","f","698","NA","3790","1621","716","NA","698","2","legacy","1024","2","48000","-16","task","5202797","odd","NA","14656","20450","16659","79164","4462","6811","6092","79666","NA","79162","79666","79120","20450","80365","12892","75772","4418","77620","Lexical Decision Task","31","27417","35","yes","1024"
"2.983324025","9.56","2","debt","word","88.88888888888889","88.88888888888889","777.8888888888889","777.8888888888889","black","no","legacy","legacy","legacy","0","uniform","1","undefined","undefined","undefined","1","j","0","0","0","0","35","0","0","0","35","NA","31","35","31","0","31","3","35","0","35","Wed Feb 17 12:00:25 2021","The main experiment item","yes","Lexical_Decision_Task.osexp","/Users/oliviahorne","no","Andale Mono","no","18","no","white","no","yes","576","legacy","31","31","3","/Users/oliviahorne/subject-5202797.csv","legacy","Lentiform Loewenfeld","3.3.7","yes","yes","600bd7cfb6416f0113b04181","602110864497cf011d9c0822","0","j","NA","return","return","return","NA","j","587","NA","3790","1621","716","NA","587","2","legacy","1024","2","48000","-16","task","5202797","odd","NA","14656","20450","16659","80916","4462","6811","6092","81418","NA","80914","81418","80874","20450","82006","12892","80374","4418","77620","Lexical Decision Task","32","28004","36","yes","1024"
"2.6599162","0","2","saff","non-word","89.1891891891892","89.1891891891892","772.8378378378378","772.8378378378378","black","no","legacy","legacy","legacy","0","uniform","1","undefined","undefined","undefined","1","f","0","0","0","0","36","0","0","0","36","NA","32","36","32","0","32","3","36","0","36","Wed Feb 17 12:00:25 2021","The main experiment item","yes","Lexical_Decision_Task.osexp","/Users/oliviahorne","no","Andale Mono","no","18","no","white","no","yes","576","legacy","32","32","3","/Users/oliviahorne/subject-5202797.csv","legacy","Lentiform Loewenfeld","3.3.7","yes","yes","600bd7cfb6416f0113b04181","602110864497cf011d9c0822","0","f","NA","return","return","return","NA","f","591","NA","3790","1621","716","NA","591","2","legacy","1024","2","48000","-16","task","5202797","odd","NA","14656","20450","16659","82556","4462","6811","6092","83058","NA","82554","83058","82514","20450","83650","12892","82014","4418","77620","Lexical Decision Task","33","28595","37","yes","1024"
"2.996511672","0","7","hoil","non-word","89.47368421052632","89.47368421052632","770","770","black","no","legacy","legacy","legacy","0","uniform","1","undefined","undefined","undefined","1","f","0","0","0","0","37","0","0","0","37","NA","33","37","33","0","33","3","37","0","37","Wed Feb 17 12:00:25 2021","The main experiment item","yes","Lexical_Decision_Task.osexp","/Users/oliviahorne","no","Andale Mono","no","18","no","white","no","yes","576","legacy","33","33","3","/Users/oliviahorne/subject-5202797.csv","legacy","Lentiform Loewenfeld","3.3.7","yes","yes","600bd7cfb6416f0113b04181","602110864497cf011d9c0822","0","f","NA","return","return","return","NA","f","665","NA","3790","1621","716","NA","665","2","legacy","1024","2","48000","-16","task","5202797","odd","NA","14656","20450","16659","84200","4462","6811","6092","84702","NA","84198","84702","84158","20450","85368","12892","83658","4418","77620","Lexical Decision Task","34","29260","38","yes","1024"
"2.6599162","0","6","flug","non-word","89.74358974358974","89.74358974358974","776.025641025641","776.025641025641","black","no","legacy","legacy","legacy","0","uniform","1","undefined","undefined","undefined","1","f","0","0","0","0","38","0","0","0","38","NA","34","38","34","0","34","3","38","0","38","Wed Feb 17 12:00:25 2021","The main experiment item","yes","Lexical_Decision_Task.osexp","/Users/oliviahorne","no","Andale Mono","no","18","no","white","no","yes","576","legacy","34","34","3","/Users/oliviahorne/subject-5202797.csv","legacy","Lentiform Loewenfeld","3.3.7","yes","yes","600bd7cfb6416f0113b04181","602110864497cf011d9c0822","0","f","NA","return","return","return","NA","f","1005","NA","3790","1621","716","NA","1005","2","legacy","1024","2","48000","-16","task","5202797","odd","NA","14656","20450","16659","85918","4462","6811","6092","86420","NA","85916","86420","85877","20450","87425","12892","85377","4418","77620","Lexical Decision Task","35","30265","39","yes","1024"
"3.366547468","0","6","plat","non-word","90","90","772.95","772.95","black","no","legacy","legacy","legacy","0","uniform","1","undefined","undefined","undefined","1","f","0","0","0","0","39","0","0","0","39","NA","35","39","35","0","35","3","39","0","39","Wed Feb 17 12:00:25 2021","The main experiment item","yes","Lexical_Decision_Task.osexp","/Users/oliviahorne","no","Andale Mono","no","18","no","white","no","yes","576","legacy","35","35","3","/Users/oliviahorne/subject-5202797.csv","legacy","Lentiform Loewenfeld","3.3.7","yes","yes","600bd7cfb6416f0113b04181","602110864497cf011d9c0822","0","f","NA","return","return","return","NA","f","653","NA","3790","1621","716","NA","653","2","legacy","1024","2","48000","-16","task","5202797","odd","NA","14656","20450","16659","87976","4462","6811","6092","88479","NA","87975","88479","87935","20450","89133","12892","87435","4418","77620","Lexical Decision Task","36","30918","40","yes","1024"
"2.8162413","0","5","nusk","non-word","90.2439024390244","90.2439024390244","773.2439024390244","773.2439024390244","black","no","legacy","legacy","legacy","0","uniform","1","undefined","undefined","undefined","1","f","0","0","0","0","40","0","0","0","40","NA","36","40","36","0","36","3","40","0","40","Wed Feb 17 12:00:25 2021","The main experiment item","yes","Lexical_Decision_Task.osexp","/Users/oliviahorne","no","Andale Mono","no","18","no","white","no","yes","576","legacy","36","36","3","/Users/oliviahorne/subject-5202797.csv","legacy","Lentiform Loewenfeld","3.3.7","yes","yes","600bd7cfb6416f0113b04181","602110864497cf011d9c0822","0","f","NA","return","return","return","NA","f","785","NA","3790","1621","716","NA","785","2","legacy","1024","2","48000","-16","task","5202797","odd","NA","14656","20450","16659","89684","4462","6811","6092","90186","NA","89682","90186","89642","20450","90971","12892","89142","4418","77620","Lexical Decision Task","37","31703","41","yes","1024"
"3.003891166","8.05","2","frog","word","90.47619047619048","90.47619047619048","766.2857142857143","766.2857142857143","black","no","legacy","legacy","legacy","0","uniform","1","undefined","undefined","undefined","1","j","0","0","0","0","41","0","0","0","41","NA","37","41","37","0","37","3","41","0","41","Wed Feb 17 12:00:25 2021","The main experiment item","yes","Lexical_Decision_Task.osexp","/Users/oliviahorne","no","Andale Mono","no","18","no","white","no","yes","576","legacy","37","37","3","/Users/oliviahorne/subject-5202797.csv","legacy","Lentiform Loewenfeld","3.3.7","yes","yes","600bd7cfb6416f0113b04181","602110864497cf011d9c0822","0","j","NA","return","return","return","NA","j","481","NA","3790","1621","716","NA","481","2","legacy","1024","2","48000","-16","task","5202797","odd","NA","14656","20450","16659","91523","4462","6811","6092","92025","NA","91520","92025","91480","20450","92506","12892","90980","4418","77620","Lexical Decision Task","38","32184","42","yes","1024"
"3.088136089","8.32","9","worm","word","90.69767441860465","90.69767441860465","761.0232558139535","761.0232558139535","black","no","legacy","legacy","legacy","0","uniform","1","undefined","undefined","undefined","1","j","0","0","0","0","42","0","0","0","42","NA","38","42","38","0","38","3","42","0","42","Wed Feb 17 12:00:25 2021","The main experiment item","yes","Lexical_Decision_Task.osexp","/Users/oliviahorne","no","Andale Mono","no","18","no","white","no","yes","576","legacy","38","38","3","/Users/oliviahorne/subject-5202797.csv","legacy","Lentiform Loewenfeld","3.3.7","yes","yes","600bd7cfb6416f0113b04181","602110864497cf011d9c0822","0","j","NA","return","return","return","NA","j","540","NA","3790","1621","716","NA","540","2","legacy","1024","2","48000","-16","task","5202797","odd","NA","14656","20450","16659","93058","4462","6811","6092","93560","NA","93056","93560","93016","20450","94100","12892","92515","4418","77620","Lexical Decision Task","39","32724","43","yes","1024"
"2.845304797","0","6","buct","non-word","90.9090909090909","90.9090909090909","758.0681818181819","758.0681818181819","black","no","legacy","legacy","legacy","0","uniform","1","undefined","undefined","undefined","1","f","0","0","0","0","43","0","0","0","43","NA","39","43","39","0","39","3","43","0","43","Wed Feb 17 12:00:25 2021","The main experiment item","yes","Lexical_Decision_Task.osexp","/Users/oliviahorne","no","Andale Mono","no","18","no","white","no","yes","576","legacy","39","39","3","/Users/oliviahorne/subject-5202797.csv","legacy","Lentiform Loewenfeld","3.3.7","yes","yes","600bd7cfb6416f0113b04181","602110864497cf011d9c0822","0","f","NA","return","return","return","NA","f","631","NA","3790","1621","716","NA","631","2","legacy","1024","2","48000","-16","task","5202797","odd","NA","14656","20450","16659","94652","4462","6811","6092","95154","NA","94650","95154","94610","20450","95785","12892","94109","4418","77620","Lexical Decision Task","40","33355","44","yes","1024"
"3.081107167","0","6","chot","non-word","91.11111111111111","91.11111111111111","756.5111111111111","756.5111111111111","black","no","legacy","legacy","legacy","0","uniform","1","undefined","undefined","undefined","1","f","0","0","0","0","44","0","0","0","44","NA","40","44","40","0","40","3","44","0","44","Wed Feb 17 12:00:25 2021","The main experiment item","yes","Lexical_Decision_Task.osexp","/Users/oliviahorne","no","Andale Mono","no","18","no","white","no","yes","576","legacy","40","40","3","/Users/oliviahorne/subject-5202797.csv","legacy","Lentiform Loewenfeld","3.3.7","yes","yes","600bd7cfb6416f0113b04181","602110864497cf011d9c0822","0","f","NA","return","return","return","NA","f","688","NA","3790","1621","716","NA","688","2","legacy","1024","2","48000","-16","task","5202797","odd","NA","14656","20450","16659","96330","4462","6811","6092","96832","NA","96328","96832","96288","20450","97520","12892","95788","4418","77620","Lexical Decision Task","41","34043","45","yes","1024"
"3.460446784","0","5","dess","non-word","91.30434782608695","91.30434782608695","757.1304347826087","757.1304347826087","black","no","legacy","legacy","legacy","0","uniform","1","undefined","undefined","undefined","1","f","0","0","0","0","45","0","0","0","45","NA","41","45","41","0","41","3","45","0","45","Wed Feb 17 12:00:25 2021","The main experiment item","yes","Lexical_Decision_Task.osexp","/Users/oliviahorne","no","Andale Mono","no","18","no","white","no","yes","576","legacy","41","41","3","/Users/oliviahorne/subject-5202797.csv","legacy","Lentiform Loewenfeld","3.3.7","yes","yes","600bd7cfb6416f0113b04181","602110864497cf011d9c0822","0","f","NA","return","return","return","NA","f","785","NA","3790","1621","716","NA","785","2","legacy","1024","2","48000","-16","task","5202797","odd","NA","14656","20450","16659","98071","4462","6811","6092","98573","NA","98069","98573","98029","20450","99359","12892","97529","4418","77620","Lexical Decision Task","42","34828","46","yes","1024"
"2.728085817","10.02","9","bike","word","91.48936170212765","91.48936170212765","763.9148936170212","763.9148936170212","black","no","legacy","legacy","legacy","0","uniform","1","undefined","undefined","undefined","1","j","0","0","0","0","46","0","0","0","46","NA","42","46","42","0","42","3","46","0","46","Wed Feb 17 12:00:25 2021","The main experiment item","yes","Lexical_Decision_Task.osexp","/Users/oliviahorne","no","Andale Mono","no","18","no","white","no","yes","576","legacy","42","42","3","/Users/oliviahorne/subject-5202797.csv","legacy","Lentiform Loewenfeld","3.3.7","yes","yes","600bd7cfb6416f0113b04181","602110864497cf011d9c0822","0","j","NA","return","return","return","NA","j","1076","NA","3790","1621","716","NA","1076","2","legacy","1024","2","48000","-16","task","5202797","odd","NA","14656","20450","16659","99908","4462","6811","6092","100411","NA","99906","100411","99867","20450","101488","12892","99367","4418","77620","Lexical Decision Task","43","35904","47","yes","1024"
"3.062080345","0","6","tomp","non-word","91.66666666666667","91.66666666666667","760.9166666666666","760.9166666666666","black","no","legacy","legacy","legacy","0","uniform","1","undefined","undefined","undefined","1","f","0","0","0","0","47","0","0","0","47","NA","43","47","43","0","43","3","47","0","47","Wed Feb 17 12:00:25 2021","The main experiment item","yes","Lexical_Decision_Task.osexp","/Users/oliviahorne","no","Andale Mono","no","18","no","white","no","yes","576","legacy","43","43","3","/Users/oliviahorne/subject-5202797.csv","legacy","Lentiform Loewenfeld","3.3.7","yes","yes","600bd7cfb6416f0113b04181","602110864497cf011d9c0822","0","f","NA","return","return","return","NA","f","620","NA","3790","1621","716","NA","620","2","legacy","1024","2","48000","-16","task","5202797","odd","NA","14656","20450","16659","102039","4462","6811","6092","102541","NA","102037","102541","101996","20450","103162","12892","101496","4418","77620","Lexical Decision Task","44","36524","48","yes","1024"
"2.812467698","0","7","hafe","non-word","91.83673469387755","91.83673469387755","757.0204081632653","757.0204081632653","black","no","legacy","legacy","legacy","0","uniform","1","undefined","undefined","undefined","1","f","0","0","0","0","48","0","0","0","48","NA","44","48","44","0","44","3","48","0","48","Wed Feb 17 12:00:25 2021","The main experiment item","yes","Lexical_Decision_Task.osexp","/Users/oliviahorne","no","Andale Mono","no","18","no","white","no","yes","576","legacy","44","44","3","/Users/oliviahorne/subject-5202797.csv","legacy","Lentiform Loewenfeld","3.3.7","yes","yes","600bd7cfb6416f0113b04181","602110864497cf011d9c0822","0","f","NA","return","return","return","NA","f","570","NA","3790","1621","716","NA","570","2","legacy","1024","2","48000","-16","task","5202797","odd","NA","14656","20450","16659","103712","4462","6811","6092","104214","NA","103710","104214","103670","20450","104785","12892","103170","4418","77620","Lexical Decision Task","45","37094","49","yes","1024"
"3.353210739","0","9","reet","non-word","92","92","753.98","753.98","black","no","legacy","legacy","legacy","0","uniform","1","undefined","undefined","undefined","1","f","0","0","0","0","49","0","0","0","49","NA","45","49","45","0","45","3","49","0","49","Wed Feb 17 12:00:25 2021","The main experiment item","yes","Lexical_Decision_Task.osexp","/Users/oliviahorne","no","Andale Mono","no","18","no","white","no","yes","576","legacy","45","45","3","/Users/oliviahorne/subject-5202797.csv","legacy","Lentiform Loewenfeld","3.3.7","yes","yes","600bd7cfb6416f0113b04181","602110864497cf011d9c0822","0","f","NA","return","return","return","NA","f","605","NA","3790","1621","716","NA","605","2","legacy","1024","2","48000","-16","task","5202797","odd","NA","14656","20450","16659","105336","4462","6811","6092","105838","NA","105334","105838","105294","20450","106443","12892","104794","4418","77620","Lexical Decision Task","46","37699","50","yes","1024"
"3.16326079","0","5","parg","non-word","92.15686274509804","92.15686274509804","750.0392156862745","750.0392156862745","black","no","legacy","legacy","legacy","0","uniform","1","undefined","undefined","undefined","1","f","0","0","0","0","50","0","0","0","50","NA","46","50","46","0","46","3","50","0","50","Wed Feb 17 12:00:25 2021","The main experiment item","yes","Lexical_Decision_Task.osexp","/Users/oliviahorne","no","Andale Mono","no","18","no","white","no","yes","576","legacy","46","46","3","/Users/oliviahorne/subject-5202797.csv","legacy","Lentiform Loewenfeld","3.3.7","yes","yes","600bd7cfb6416f0113b04181","602110864497cf011d9c0822","0","f","NA","return","return","return","NA","f","553","NA","3790","1621","716","NA","553","2","legacy","1024","2","48000","-16","task","5202797","odd","NA","14656","20450","16659","106994","4462","6811","6092","107496","NA","106992","107496","106953","20450","108050","12892","106452","4418","77620","Lexical Decision Task","47","38252","51","yes","1024"
"2.771097306","0","9","jold","non-word","92.3076923076923","92.3076923076923","746.8846153846154","746.8846153846154","black","no","legacy","legacy","legacy","0","uniform","1","undefined","undefined","undefined","1","f","0","0","0","0","51","0","0","0","51","NA","47","51","47","0","47","3","51","0","51","Wed Feb 17 12:00:25 2021","The main experiment item","yes","Lexical_Decision_Task.osexp","/Users/oliviahorne","no","Andale Mono","no","18","no","white","no","yes","576","legacy","47","47","3","/Users/oliviahorne/subject-5202797.csv","legacy","Lentiform Loewenfeld","3.3.7","yes","yes","600bd7cfb6416f0113b04181","602110864497cf011d9c0822","0","f","NA","return","return","return","NA","f","586","NA","3790","1621","716","NA","586","2","legacy","1024","2","48000","-16","task","5202797","odd","NA","14656","20450","16659","108602","4462","6811","6092","109104","NA","108600","109104","108559","20450","109691","12892","108058","4418","77620","Lexical Decision Task","48","38838","52","yes","1024"
"3.119255889","6.63","2","itch","word","92.45283018867924","92.45283018867924","747.0566037735849","747.0566037735849","black","no","legacy","legacy","legacy","0","uniform","1","undefined","undefined","undefined","1","j","0","0","0","0","52","0","0","0","52","NA","48","52","48","0","48","3","52","0","52","Wed Feb 17 12:00:25 2021","The main experiment item","yes","Lexical_Decision_Task.osexp","/Users/oliviahorne","no","Andale Mono","no","18","no","white","no","yes","576","legacy","48","48","3","/Users/oliviahorne/subject-5202797.csv","legacy","Lentiform Loewenfeld","3.3.7","yes","yes","600bd7cfb6416f0113b04181","602110864497cf011d9c0822","0","j","NA","return","return","return","NA","j","756","NA","3790","1621","716","NA","756","2","legacy","1024","2","48000","-16","task","5202797","odd","NA","14656","20450","16659","110244","4462","6811","6092","110747","NA","110242","110747","110200","20450","111504","12892","109700","4418","77620","Lexical Decision Task","49","39594","53","yes","1024"
"3.091901331","0","9","nipe","non-word","92.5925925925926","92.5925925925926","746.3518518518518","746.3518518518518","black","no","legacy","legacy","legacy","0","uniform","1","undefined","undefined","undefined","1","f","0","0","0","0","53","0","0","0","53","NA","49","53","49","0","49","3","53","0","53","Wed Feb 17 12:00:25 2021","The main experiment item","yes","Lexical_Decision_Task.osexp","/Users/oliviahorne","no","Andale Mono","no","18","no","white","no","yes","576","legacy","49","49","3","/Users/oliviahorne/subject-5202797.csv","legacy","Lentiform Loewenfeld","3.3.7","yes","yes","600bd7cfb6416f0113b04181","602110864497cf011d9c0822","0","f","NA","return","return","return","NA","f","709","NA","3790","1621","716","NA","709","2","legacy","1024","2","48000","-16","task","5202797","odd","NA","14656","20450","16659","112055","4462","6811","6092","112557","NA","112053","112557","112013","20450","113267","12892","111513","4418","77620","Lexical Decision Task","50","40303","54","yes","1024"
"2.695481676","0","7","goke","non-word","92.72727272727273","92.72727272727273","754.2727272727273","754.2727272727273","black","no","legacy","legacy","legacy","0","uniform","1","undefined","undefined","undefined","1","f","0","0","0","0","54","0","0","0","54","0","50","54","50","0","50","3","54","0","54","Wed Feb 17 12:00:25 2021","The main experiment item","yes","Lexical_Decision_Task.osexp","/Users/oliviahorne","no","Andale Mono","no","18","no","white","no","yes","576","legacy","50","50","3","/Users/oliviahorne/subject-5202797.csv","legacy","Lentiform Loewenfeld","3.3.7","yes","yes","600bd7cfb6416f0113b04181","602110864497cf011d9c0822","0","f","NA","return","return","return","return","f","1182","NA","3790","1621","716","5380","1182","2","legacy","1024","2","48000","-16","task","5202797","odd","NA","14656","20450","16659","119219","4462","6811","6092","119721","113798","119217","119721","113776","20450","120903","12892","113276","4418","77620","Lexical Decision Task","51","41485","55","yes","1024"
"3.225825991","0","7","talm","non-word","92.85714285714286","92.85714285714286","750.9285714285714","750.9285714285714","black","no","legacy","legacy","legacy","0","uniform","1","undefined","undefined","undefined","1","f","0","0","0","0","55","0","0","0","55","0","51","55","51","0","51","3","55","0","55","Wed Feb 17 12:00:25 2021","The main experiment item","yes","Lexical_Decision_Task.osexp","/Users/oliviahorne","no","Andale Mono","no","18","no","white","no","yes","576","legacy","51","51","3","/Users/oliviahorne/subject-5202797.csv","legacy","Lentiform Loewenfeld","3.3.7","yes","yes","600bd7cfb6416f0113b04181","602110864497cf011d9c0822","0","f","NA","return","return","return","return","f","567","NA","3790","1621","716","5380","567","2","legacy","1024","2","48000","-16","task","5202797","odd","NA","14656","20450","16659","121465","4462","6811","6092","121967","113798","121462","121967","121422","20450","122535","12892","120921","4418","77620","Lexical Decision Task","52","42052","56","yes","1024"
"3.218535505","7.85","7","goat","word","92.98245614035088","92.98245614035088","752.4035087719299","752.4035087719299","black","no","legacy","legacy","legacy","0","uniform","1","undefined","undefined","undefined","1","j","0","0","0","0","56","0","0","0","56","0","52","56","52","0","52","3","56","0","56","Wed Feb 17 12:00:25 2021","The main experiment item","yes","Lexical_Decision_Task.osexp","/Users/oliviahorne","no","Andale Mono","no","18","no","white","no","yes","576","legacy","52","52","3","/Users/oliviahorne/subject-5202797.csv","legacy","Lentiform Loewenfeld","3.3.7","yes","yes","600bd7cfb6416f0113b04181","602110864497cf011d9c0822","0","j","NA","return","return","return","return","j","835","NA","3790","1621","716","5380","835","2","legacy","1024","2","48000","-16","task","5202797","odd","NA","14656","20450","16659","123085","4462","6811","6092","123587","113798","123083","123587","123044","20450","124423","12892","122544","4418","77620","Lexical Decision Task","53","42887","57","yes","1024"
"2.981215883","10.66","5","hair","word","93.10344827586206","93.10344827586206","752.5862068965517","752.5862068965517","black","no","legacy","legacy","legacy","0","uniform","1","undefined","undefined","undefined","1","j","0","0","0","0","57","0","0","0","57","0","53","57","53","0","53","3","57","0","57","Wed Feb 17 12:00:25 2021","The main experiment item","yes","Lexical_Decision_Task.osexp","/Users/oliviahorne","no","Andale Mono","no","18","no","white","no","yes","576","legacy","53","53","3","/Users/oliviahorne/subject-5202797.csv","legacy","Lentiform Loewenfeld","3.3.7","yes","yes","600bd7cfb6416f0113b04181","602110864497cf011d9c0822","0","j","NA","return","return","return","return","j","763","NA","3790","1621","716","5380","763","2","legacy","1024","2","48000","-16","task","5202797","odd","NA","14656","20450","16659","124974","4462","6811","6092","125476","113798","124972","125476","124932","20450","126240","12892","124432","4418","77620","Lexical Decision Task","54","43650","58","yes","1024"
"2.755364069","7.72","2","hoax","word","93.22033898305085","93.22033898305085","751.8813559322034","751.8813559322034","black","no","legacy","legacy","legacy","0","uniform","1","undefined","undefined","undefined","1","j","0","0","0","0","58","0","0","0","58","0","54","58","54","0","54","3","58","0","58","Wed Feb 17 12:00:25 2021","The main experiment item","yes","Lexical_Decision_Task.osexp","/Users/oliviahorne","no","Andale Mono","no","18","no","white","no","yes","576","legacy","54","54","3","/Users/oliviahorne/subject-5202797.csv","legacy","Lentiform Loewenfeld","3.3.7","yes","yes","600bd7cfb6416f0113b04181","602110864497cf011d9c0822","0","j","NA","return","return","return","return","j","711","NA","3790","1621","716","5380","711","2","legacy","1024","2","48000","-16","task","5202797","odd","NA","14656","20450","16659","126791","4462","6811","6092","127293","113798","126789","127293","126749","20450","128005","12892","126249","4418","77620","Lexical Decision Task","55","44361","59","yes","1024"
"3.705778213","0","6","stin","non-word","93.33333333333333","93.33333333333333","750.8","750.8","black","no","legacy","legacy","legacy","0","uniform","1","undefined","undefined","undefined","1","f","0","0","0","0","59","0","0","0","59","0","55","59","55","0","55","3","59","0","59","Wed Feb 17 12:00:25 2021","The main experiment item","yes","Lexical_Decision_Task.osexp","/Users/oliviahorne","no","Andale Mono","no","18","no","white","no","yes","576","legacy","55","55","3","/Users/oliviahorne/subject-5202797.csv","legacy","Lentiform Loewenfeld","3.3.7","yes","yes","600bd7cfb6416f0113b04181","602110864497cf011d9c0822","0","f","NA","return","return","return","return","f","687","NA","3790","1621","716","5380","687","2","legacy","1024","2","48000","-16","task","5202797","odd","NA","14656","20450","16659","128556","4462","6811","6092","129058","113798","128554","129058","128514","20450","129746","12892","128014","4418","77620","Lexical Decision Task","56","45048","60","yes","1024"
"3.039414119","0","9","meep","non-word","93.44262295081967","93.44262295081967","749.2622950819672","749.2622950819672","black","no","legacy","legacy","legacy","0","uniform","1","undefined","undefined","undefined","1","f","0","0","0","0","60","0","0","0","60","0","56","60","56","0","56","3","60","0","60","Wed Feb 17 12:00:25 2021","The main experiment item","yes","Lexical_Decision_Task.osexp","/Users/oliviahorne","no","Andale Mono","no","18","no","white","no","yes","576","legacy","56","56","3","/Users/oliviahorne/subject-5202797.csv","legacy","Lentiform Loewenfeld","3.3.7","yes","yes","600bd7cfb6416f0113b04181","602110864497cf011d9c0822","0","f","NA","return","return","return","return","f","657","NA","3790","1621","716","5380","657","2","legacy","1024","2","48000","-16","task","5202797","odd","NA","14656","20450","16659","130296","4462","6811","6092","130798","113798","130294","130798","130255","20450","131456","12892","129755","4418","77620","Lexical Decision Task","57","45705","61","yes","1024"
"3.248054965","7.86","5","glow","word","93.54838709677419","93.54838709677419","747.1290322580645","747.1290322580645","black","no","legacy","legacy","legacy","0","uniform","1","undefined","undefined","undefined","1","j","0","0","0","0","61","0","0","0","61","0","57","61","57","0","57","3","61","0","61","Wed Feb 17 12:00:25 2021","The main experiment item","yes","Lexical_Decision_Task.osexp","/Users/oliviahorne","no","Andale Mono","no","18","no","white","no","yes","576","legacy","57","57","3","/Users/oliviahorne/subject-5202797.csv","legacy","Lentiform Loewenfeld","3.3.7","yes","yes","600bd7cfb6416f0113b04181","602110864497cf011d9c0822","0","j","NA","return","return","return","return","j","617","NA","3790","1621","716","5380","617","2","legacy","1024","2","48000","-16","task","5202797","odd","NA","14656","20450","16659","132008","4462","6811","6092","132511","113798","132006","132511","131965","20450","133129","12892","131465","4418","77620","Lexical Decision Task","58","46322","62","yes","1024"
"3.303771854","0","9","dath","non-word","93.65079365079364","93.65079365079364","745.7301587301587","745.7301587301587","black","no","legacy","legacy","legacy","0","uniform","1","undefined","undefined","undefined","1","f","0","0","0","0","62","0","0","0","62","0","58","62","58","0","58","3","62","0","62","Wed Feb 17 12:00:25 2021","The main experiment item","yes","Lexical_Decision_Task.osexp","/Users/oliviahorne","no","Andale Mono","no","18","no","white","no","yes","576","legacy","58","58","3","/Users/oliviahorne/subject-5202797.csv","legacy","Lentiform Loewenfeld","3.3.7","yes","yes","600bd7cfb6416f0113b04181","602110864497cf011d9c0822","0","f","NA","return","return","return","return","f","659","NA","3790","1621","716","5380","659","2","legacy","1024","2","48000","-16","task","5202797","odd","NA","14656","20450","16659","133681","4462","6811","6092","134183","113798","133679","134183","133638","20450","134843","12892","133138","4418","77620","Lexical Decision Task","59","46981","63","yes","1024"
"3.372543801","9.24","8","coat","word","93.75","93.75","746.25","746.25","black","no","legacy","legacy","legacy","0","uniform","1","undefined","undefined","undefined","1","j","0","0","0","0","63","0","0","0","63","0","59","63","59","0","59","3","63","0","63","Wed Feb 17 12:00:25 2021","The main experiment item","yes","Lexical_Decision_Task.osexp","/Users/oliviahorne","no","Andale Mono","no","18","no","white","no","yes","576","legacy","59","59","3","/Users/oliviahorne/subject-5202797.csv","legacy","Lentiform Loewenfeld","3.3.7","yes","yes","600bd7cfb6416f0113b04181","602110864497cf011d9c0822","0","j","NA","return","return","return","return","j","779","NA","3790","1621","716","5380","779","2","legacy","1024","2","48000","-16","task","5202797","odd","NA","14656","20450","16659","135394","4462","6811","6092","135896","113798","135392","135896","135352","20450","136676","12892","134852","4418","77620","Lexical Decision Task","60","47760","64","yes","1024"
"2.664328519","0","4","plux","non-word","93.84615384615384","93.84615384615384","753.6923076923077","753.6923076923077","black","no","legacy","legacy","legacy","0","uniform","1","undefined","undefined","undefined","1","f","0","0","0","0","64","0","0","0","64","0","60","64","60","0","60","3","64","0","64","Wed Feb 17 12:00:25 2021","The main experiment item","yes","Lexical_Decision_Task.osexp","/Users/oliviahorne","no","Andale Mono","no","18","no","white","no","yes","576","legacy","60","60","3","/Users/oliviahorne/subject-5202797.csv","legacy","Lentiform Loewenfeld","3.3.7","yes","yes","600bd7cfb6416f0113b04181","602110864497cf011d9c0822","0","f","NA","return","return","return","return","f","1230","NA","3790","1621","716","5380","1230","2","legacy","1024","2","48000","-16","task","5202797","odd","NA","14656","20450","16659","137227","4462","6811","6092","137729","113798","137225","137729","137185","20450","138960","12892","136684","4418","77620","Lexical Decision Task","61","48990","65","yes","1024"
"2.899638141","0","3","hapt","non-word","93.93939393939394","93.93939393939394","752.9242424242424","752.9242424242424","black","no","legacy","legacy","legacy","0","uniform","1","undefined","undefined","undefined","1","f","0","0","0","0","65","0","0","0","65","0","61","65","61","0","61","3","65","0","65","Wed Feb 17 12:00:25 2021","The main experiment item","yes","Lexical_Decision_Task.osexp","/Users/oliviahorne","no","Andale Mono","no","18","no","white","no","yes","576","legacy","61","61","3","/Users/oliviahorne/subject-5202797.csv","legacy","Lentiform Loewenfeld","3.3.7","yes","yes","600bd7cfb6416f0113b04181","602110864497cf011d9c0822","0","f","NA","return","return","return","return","f","703","NA","3790","1621","716","5380","703","2","legacy","1024","2","48000","-16","task","5202797","odd","NA","14656","20450","16659","139510","4462","6811","6092","140012","113798","139508","140012","139469","20450","140716","12892","138969","4418","77620","Lexical Decision Task","62","49693","66","yes","1024"
"2.75025376","10.2","6","jump","word","94.02985074626865","94.02985074626865","752.8656716417911","752.8656716417911","black","no","legacy","legacy","legacy","0","uniform","1","undefined","undefined","undefined","1","j","0","0","0","0","66","0","0","0","66","0","62","66","62","0","62","3","66","0","66","Wed Feb 17 12:00:25 2021","The main experiment item","yes","Lexical_Decision_Task.osexp","/Users/oliviahorne","no","Andale Mono","no","18","no","white","no","yes","576","legacy","62","62","3","/Users/oliviahorne/subject-5202797.csv","legacy","Lentiform Loewenfeld","3.3.7","yes","yes","600bd7cfb6416f0113b04181","602110864497cf011d9c0822","0","j","NA","return","return","return","return","j","749","NA","3790","1621","716","5380","749","2","legacy","1024","2","48000","-16","task","5202797","odd","NA","14656","20450","16659","141266","4462","6811","6092","141768","113798","141264","141768","141225","20450","142518","12892","140725","4418","77620","Lexical Decision Task","63","50442","67","yes","1024"
"3.302475237","0","7","leel","non-word","94.11764705882354","94.11764705882354","751.8676470588235","751.8676470588235","black","no","legacy","legacy","legacy","0","uniform","1","undefined","undefined","undefined","1","f","0","0","0","0","67","0","0","0","67","0","63","67","63","0","63","3","67","0","67","Wed Feb 17 12:00:25 2021","The main experiment item","yes","Lexical_Decision_Task.osexp","/Users/oliviahorne","no","Andale Mono","no","18","no","white","no","yes","576","legacy","63","63","3","/Users/oliviahorne/subject-5202797.csv","legacy","Lentiform Loewenfeld","3.3.7","yes","yes","600bd7cfb6416f0113b04181","602110864497cf011d9c0822","0","f","NA","return","return","return","return","f","685","NA","3790","1621","716","5380","685","2","legacy","1024","2","48000","-16","task","5202797","odd","NA","14656","20450","16659","143069","4462","6811","6092","143571","113798","143067","143571","143027","20450","144257","12892","142527","4418","77620","Lexical Decision Task","64","51127","68","yes","1024"
"2.708989954","9.28","9","bowl","word","94.20289855072464","94.20289855072464","750.7246376811594","750.7246376811594","black","no","legacy","legacy","legacy","0","uniform","1","undefined","undefined","undefined","1","j","0","0","0","0","68","0","0","0","68","0","64","68","64","0","64","3","68","0","68","Wed Feb 17 12:00:25 2021","The main experiment item","yes","Lexical_Decision_Task.osexp","/Users/oliviahorne","no","Andale Mono","no","18","no","white","no","yes","576","legacy","64","64","3","/Users/oliviahorne/subject-5202797.csv","legacy","Lentiform Loewenfeld","3.3.7","yes","yes","600bd7cfb6416f0113b04181","602110864497cf011d9c0822","0","j","NA","return","return","return","return","j","673","NA","3790","1621","716","5380","673","2","legacy","1024","2","48000","-16","task","5202797","odd","NA","14656","20450","16659","144809","4462","6811","6092","145311","113798","144807","145311","144766","20450","145985","12892","144266","4418","77620","Lexical Decision Task","65","51800","69","yes","1024"
"3.149629599","0","2","cleb","non-word","94.28571428571429","94.28571428571429","749.8","749.8","black","no","legacy","legacy","legacy","0","uniform","1","undefined","undefined","undefined","1","f","0","0","0","0","69","0","0","0","69","0","65","69","65","0","65","3","69","0","69","Wed Feb 17 12:00:25 2021","The main experiment item","yes","Lexical_Decision_Task.osexp","/Users/oliviahorne","no","Andale Mono","no","18","no","white","no","yes","576","legacy","65","65","3","/Users/oliviahorne/subject-5202797.csv","legacy","Lentiform Loewenfeld","3.3.7","yes","yes","600bd7cfb6416f0113b04181","602110864497cf011d9c0822","0","f","NA","return","return","return","return","f","686","NA","3790","1621","716","5380","686","2","legacy","1024","2","48000","-16","task","5202797","odd","NA","14656","20450","16659","146536","4462","6811","6092","147038","113798","146534","147038","146494","20450","147725","12892","145994","4418","77620","Lexical Decision Task","66","52486","70","yes","1024"
"2.799799878","0","4","ciff","non-word","94.36619718309859","94.36619718309859","751.3661971830986","751.3661971830986","black","no","legacy","legacy","legacy","0","uniform","1","undefined","undefined","undefined","1","f","0","0","0","0","70","0","0","0","70","0","66","70","66","0","66","3","70","0","70","Wed Feb 17 12:00:25 2021","The main experiment item","yes","Lexical_Decision_Task.osexp","/Users/oliviahorne","no","Andale Mono","no","18","no","white","no","yes","576","legacy","66","66","3","/Users/oliviahorne/subject-5202797.csv","legacy","Lentiform Loewenfeld","3.3.7","yes","yes","600bd7cfb6416f0113b04181","602110864497cf011d9c0822","0","f","NA","return","return","return","return","f","861","NA","3790","1621","716","5380","861","2","legacy","1024","2","48000","-16","task","5202797","odd","NA","14656","20450","16659","148275","4462","6811","6092","148777","113798","148273","148777","148233","20450","149638","12892","147733","4418","77620","Lexical Decision Task","67","53347","71","yes","1024"
"3.156347201","0","8","lasp","non-word","94.44444444444444","94.44444444444444","750.7916666666666","750.7916666666666","black","no","legacy","legacy","legacy","0","uniform","1","undefined","undefined","undefined","1","f","0","0","0","0","71","0","0","0","71","0","67","71","67","0","67","3","71","0","71","Wed Feb 17 12:00:25 2021","The main experiment item","yes","Lexical_Decision_Task.osexp","/Users/oliviahorne","no","Andale Mono","no","18","no","white","no","yes","576","legacy","67","67","3","/Users/oliviahorne/subject-5202797.csv","legacy","Lentiform Loewenfeld","3.3.7","yes","yes","600bd7cfb6416f0113b04181","602110864497cf011d9c0822","0","f","NA","return","return","return","return","f","710","NA","3790","1621","716","5380","710","2","legacy","1024","2","48000","-16","task","5202797","odd","NA","14656","20450","16659","150189","4462","6811","6092","150691","113798","150187","150691","150147","20450","151401","12892","149647","4418","77620","Lexical Decision Task","68","54057","72","yes","1024"
"3.495914186","0","4","peng","non-word","93.15068493150685","93.15068493150685","748.5205479452055","748.5205479452055","black","no","legacy","legacy","legacy","0","uniform","0","undefined","undefined","undefined","0","f","0","0","0","0","72","0","0","0","72","0","68","72","68","0","68","3","72","0","72","Wed Feb 17 12:00:25 2021","The main experiment item","yes","Lexical_Decision_Task.osexp","/Users/oliviahorne","no","Andale Mono","no","18","no","white","no","yes","576","legacy","68","68","3","/Users/oliviahorne/subject-5202797.csv","legacy","Lentiform Loewenfeld","3.3.7","yes","yes","600bd7cfb6416f0113b04181","602110864497cf011d9c0822","0","j","NA","return","return","return","return","j","585","NA","3790","1621","716","5380","585","2","legacy","1024","2","48000","-16","task","5202797","odd","NA","14656","20450","16659","151952","4462","6811","6092","152454","113798","151950","152454","151910","20450","153040","12892","151409","4418","77620","Lexical Decision Task","68","54642","73","yes","1024"
"2.86332286","6.71","2","feud","word","93.24324324324324","93.24324324324324","746.7162162162163","746.7162162162163","black","no","legacy","legacy","legacy","0","uniform","1","undefined","undefined","undefined","1","j","0","0","0","0","73","0","0","0","73","0","69","73","69","0","69","3","73","0","73","Wed Feb 17 12:00:25 2021","The main experiment item","yes","Lexical_Decision_Task.osexp","/Users/oliviahorne","no","Andale Mono","no","18","no","white","no","yes","576","legacy","69","69","3","/Users/oliviahorne/subject-5202797.csv","legacy","Lentiform Loewenfeld","3.3.7","yes","yes","600bd7cfb6416f0113b04181","602110864497cf011d9c0822","0","j","NA","return","return","return","return","j","615","NA","3790","1621","716","5380","615","2","legacy","1024","2","48000","-16","task","5202797","odd","NA","14656","20450","16659","154594","4462","6811","6092","155096","113798","154592","155096","154549","20450","155712","12892","151409","4418","153049","Lexical Decision Task","69","55257","74","yes","1024"
"2.809559715","8.44","4","volt","word","93.33333333333333","93.33333333333333","747.68","747.68","black","no","legacy","legacy","legacy","0","uniform","1","undefined","undefined","undefined","1","j","0","0","0","0","74","0","0","0","74","0","70","74","70","0","70","3","74","0","74","Wed Feb 17 12:00:25 2021","The main experiment item","yes","Lexical_Decision_Task.osexp","/Users/oliviahorne","no","Andale Mono","no","18","no","white","no","yes","576","legacy","70","70","3","/Users/oliviahorne/subject-5202797.csv","legacy","Lentiform Loewenfeld","3.3.7","yes","yes","600bd7cfb6416f0113b04181","602110864497cf011d9c0822","0","j","NA","return","return","return","return","j","819","NA","3790","1621","716","5380","819","2","legacy","1024","2","48000","-16","task","5202797","odd","NA","14656","20450","16659","156264","4462","6811","6092","156766","113798","156262","156766","156222","20450","157586","12892","155722","4418","153049","Lexical Decision Task","70","56076","75","yes","1024"
"3.049218023","7.4","9","robe","word","93.42105263157895","93.42105263157895","745.3157894736842","745.3157894736842","black","no","legacy","legacy","legacy","0","uniform","1","undefined","undefined","undefined","1","j","0","0","0","0","75","0","0","0","75","0","71","75","71","0","71","3","75","0","75","Wed Feb 17 12:00:25 2021","The main experiment item","yes","Lexical_Decision_Task.osexp","/Users/oliviahorne","no","Andale Mono","no","18","no","white","no","yes","576","legacy","71","71","3","/Users/oliviahorne/subject-5202797.csv","legacy","Lentiform Loewenfeld","3.3.7","yes","yes","600bd7cfb6416f0113b04181","602110864497cf011d9c0822","0","j","NA","return","return","return","return","j","568","NA","3790","1621","716","5380","568","2","legacy","1024","2","48000","-16","task","5202797","odd","NA","14656","20450","16659","158138","4462","6811","6092","158640","113798","158136","158640","158096","20450","159209","12892","157595","4418","153049","Lexical Decision Task","71","56644","76","yes","1024"
"2.839268497","0","8","maft","non-word","93.50649350649351","93.50649350649351","742.0649350649351","742.0649350649351","black","no","legacy","legacy","legacy","0","uniform","1","undefined","undefined","undefined","1","f","0","0","0","0","76","0","0","0","76","0","72","76","72","0","72","3","76","0","76","Wed Feb 17 12:00:25 2021","The main experiment item","yes","Lexical_Decision_Task.osexp","/Users/oliviahorne","no","Andale Mono","no","18","no","white","no","yes","576","legacy","72","72","3","/Users/oliviahorne/subject-5202797.csv","legacy","Lentiform Loewenfeld","3.3.7","yes","yes","600bd7cfb6416f0113b04181","602110864497cf011d9c0822","0","f","NA","return","return","return","return","f","495","NA","3790","1621","716","5380","495","2","legacy","1024","2","48000","-16","task","5202797","odd","NA","14656","20450","16659","159777","4462","6811","6092","160279","113798","159775","160279","159735","20450","160775","12892","159235","4418","153049","Lexical Decision Task","72","57139","77","yes","1024"
"2.95456409","0","4","taud","non-word","93.58974358974359","93.58974358974359","741.9487179487179","741.9487179487179","black","no","legacy","legacy","legacy","0","uniform","1","undefined","undefined","undefined","1","f","0","0","0","0","77","0","0","0","77","0","73","77","73","0","73","3","77","0","77","Wed Feb 17 12:00:25 2021","The main experiment item","yes","Lexical_Decision_Task.osexp","/Users/oliviahorne","no","Andale Mono","no","18","no","white","no","yes","576","legacy","73","73","3","/Users/oliviahorne/subject-5202797.csv","legacy","Lentiform Loewenfeld","3.3.7","yes","yes","600bd7cfb6416f0113b04181","602110864497cf011d9c0822","0","f","NA","return","return","return","return","f","733","NA","3790","1621","716","5380","733","2","legacy","1024","2","48000","-16","task","5202797","odd","NA","14656","20450","16659","161326","4462","6811","6092","161828","113798","161324","161828","161284","20450","162562","12892","160784","4418","153049","Lexical Decision Task","73","57872","78","yes","1024"
"3.307211407","6.07","7","honk","word","93.67088607594937","93.67088607594937","739.8481012658228","739.8481012658228","black","no","legacy","legacy","legacy","0","uniform","1","undefined","undefined","undefined","1","j","0","0","0","0","78","0","0","0","78","0","74","78","74","0","74","3","78","0","78","Wed Feb 17 12:00:25 2021","The main experiment item","yes","Lexical_Decision_Task.osexp","/Users/oliviahorne","no","Andale Mono","no","18","no","white","no","yes","576","legacy","74","74","3","/Users/oliviahorne/subject-5202797.csv","legacy","Lentiform Loewenfeld","3.3.7","yes","yes","600bd7cfb6416f0113b04181","602110864497cf011d9c0822","0","j","NA","return","return","return","return","j","576","NA","3790","1621","716","5380","576","2","legacy","1024","2","48000","-16","task","5202797","odd","NA","14656","20450","16659","163113","4462","6811","6092","163615","113798","163111","163615","163071","20450","164192","12892","162571","4418","153049","Lexical Decision Task","74","58448","79","yes","1024"
"3.145920145","8.51","8","flew","word","93.75","93.75","736.7875","736.7875","black","no","legacy","legacy","legacy","0","uniform","1","undefined","undefined","undefined","1","j","0","0","0","0","79","0","0","0","79","0","75","79","75","0","75","3","79","0","79","Wed Feb 17 12:00:25 2021","The main experiment item","yes","Lexical_Decision_Task.osexp","/Users/oliviahorne","no","Andale Mono","no","18","no","white","no","yes","576","legacy","75","75","3","/Users/oliviahorne/subject-5202797.csv","legacy","Lentiform Loewenfeld","3.3.7","yes","yes","600bd7cfb6416f0113b04181","602110864497cf011d9c0822","0","j","NA","return","return","return","return","j","495","NA","3790","1621","716","5380","495","2","legacy","1024","2","48000","-16","task","5202797","odd","NA","14656","20450","16659","164742","4462","6811","6092","165244","113798","164740","165244","164700","20450","165740","12892","164200","4418","153049","Lexical Decision Task","75","58943","80","yes","1024"
"3.492014979","0","9","yine","non-word","93.82716049382717","93.82716049382717","734.3703703703703","734.3703703703703","black","no","legacy","legacy","legacy","0","uniform","1","undefined","undefined","undefined","1","f","0","0","0","0","80","0","0","0","80","0","76","80","76","0","76","3","80","0","80","Wed Feb 17 12:00:25 2021","The main experiment item","yes","Lexical_Decision_Task.osexp","/Users/oliviahorne","no","Andale Mono","no","18","no","white","no","yes","576","legacy","76","76","3","/Users/oliviahorne/subject-5202797.csv","legacy","Lentiform Loewenfeld","3.3.7","yes","yes","600bd7cfb6416f0113b04181","602110864497cf011d9c0822","0","f","NA","return","return","return","return","f","541","NA","3790","1621","716","5380","541","2","legacy","1024","2","48000","-16","task","5202797","odd","NA","14656","20450","16659","166290","4462","6811","6092","166792","113798","166288","166792","166248","20450","167334","12892","165748","4418","153049","Lexical Decision Task","76","59484","81","yes","1024"
"3.068433376","8.09","2","bulb","word","93.90243902439025","93.90243902439025","733.3048780487804","733.3048780487804","black","no","legacy","legacy","legacy","0","uniform","1","undefined","undefined","undefined","1","j","0","0","0","0","81","0","0","0","81","0","77","81","77","0","77","3","81","0","81","Wed Feb 17 12:00:25 2021","The main experiment item","yes","Lexical_Decision_Task.osexp","/Users/oliviahorne","no","Andale Mono","no","18","no","white","no","yes","576","legacy","77","77","3","/Users/oliviahorne/subject-5202797.csv","legacy","Lentiform Loewenfeld","3.3.7","yes","yes","600bd7cfb6416f0113b04181","602110864497cf011d9c0822","0","j","NA","return","return","return","return","j","647","NA","3790","1621","716","5380","647","2","legacy","1024","2","48000","-16","task","5202797","odd","NA","14656","20450","16659","167885","4462","6811","6092","168387","113798","167883","168387","167843","20450","169035","12892","167343","4418","153049","Lexical Decision Task","77","60131","82","yes","1024"
"3.488597715","0","9","nain","non-word","93.97590361445783","93.97590361445783","731.1807228915662","731.1807228915662","black","no","legacy","legacy","legacy","0","uniform","1","undefined","undefined","undefined","1","f","0","0","0","0","82","0","0","0","82","0","78","82","78","0","78","3","82","0","82","Wed Feb 17 12:00:25 2021","The main experiment item","yes","Lexical_Decision_Task.osexp","/Users/oliviahorne","no","Andale Mono","no","18","no","white","no","yes","576","legacy","78","78","3","/Users/oliviahorne/subject-5202797.csv","legacy","Lentiform Loewenfeld","3.3.7","yes","yes","600bd7cfb6416f0113b04181","602110864497cf011d9c0822","0","f","NA","return","return","return","return","f","557","NA","3790","1621","716","5380","557","2","legacy","1024","2","48000","-16","task","5202797","odd","NA","14656","20450","16659","169585","4462","6811","6092","170087","113798","169584","170088","169544","20450","170646","12892","169044","4418","153049","Lexical Decision Task","78","60688","83","yes","1024"
"2.594027722","9.08","8","skip","word","94.04761904761905","94.04761904761905","727.6666666666666","727.6666666666666","black","no","legacy","legacy","legacy","0","uniform","1","undefined","undefined","undefined","1","j","0","0","0","0","83","0","0","0","83","0","79","83","79","0","79","3","83","0","83","Wed Feb 17 12:00:25 2021","The main experiment item","yes","Lexical_Decision_Task.osexp","/Users/oliviahorne","no","Andale Mono","no","18","no","white","no","yes","576","legacy","79","79","3","/Users/oliviahorne/subject-5202797.csv","legacy","Lentiform Loewenfeld","3.3.7","yes","yes","600bd7cfb6416f0113b04181","602110864497cf011d9c0822","0","j","NA","return","return","return","return","j","436","NA","3790","1621","716","5380","436","2","legacy","1024","2","48000","-16","task","5202797","odd","NA","14656","20450","16659","171197","4462","6811","6092","171699","113798","171195","171699","171155","20450","172136","12892","170655","4418","153049","Lexical Decision Task","79","61124","84","yes","1024"
"3.197740804","6.74","3","ache","word","94.11764705882354","94.11764705882354","725.8117647058823","725.8117647058823","black","no","legacy","legacy","legacy","0","uniform","1","undefined","undefined","undefined","1","j","0","0","0","0","84","0","0","0","84","0","80","84","80","0","80","3","84","0","84","Wed Feb 17 12:00:25 2021","The main experiment item","yes","Lexical_Decision_Task.osexp","/Users/oliviahorne","no","Andale Mono","no","18","no","white","no","yes","576","legacy","80","80","3","/Users/oliviahorne/subject-5202797.csv","legacy","Lentiform Loewenfeld","3.3.7","yes","yes","600bd7cfb6416f0113b04181","602110864497cf011d9c0822","0","j","NA","return","return","return","return","j","570","NA","3790","1621","716","5380","570","2","legacy","1024","2","48000","-16","task","5202797","odd","NA","14656","20450","16659","172688","4462","6811","6092","173190","113798","172685","173190","172645","20450","173761","12892","172145","4418","153049","Lexical Decision Task","80","61694","85","yes","1024"
"3.274157849","0","8","leet","non-word","94.18604651162791","94.18604651162791","723.1627906976744","723.1627906976744","black","no","legacy","legacy","legacy","0","uniform","1","undefined","undefined","undefined","1","f","0","0","0","0","85","0","0","0","85","0","81","85","81","0","81","3","85","0","85","Wed Feb 17 12:00:25 2021","The main experiment item","yes","Lexical_Decision_Task.osexp","/Users/oliviahorne","no","Andale Mono","no","18","no","white","no","yes","576","legacy","81","81","3","/Users/oliviahorne/subject-5202797.csv","legacy","Lentiform Loewenfeld","3.3.7","yes","yes","600bd7cfb6416f0113b04181","602110864497cf011d9c0822","0","f","NA","return","return","return","return","f","498","NA","3790","1621","716","5380","498","2","legacy","1024","2","48000","-16","task","5202797","odd","NA","14656","20450","16659","174311","4462","6811","6092","174814","113798","174310","174814","174270","20450","175313","12892","173770","4418","153049","Lexical Decision Task","81","62192","86","yes","1024"
"3.374198258","0","8","vist","non-word","93.10344827586206","93.10344827586206","722.7126436781609","722.7126436781609","black","no","legacy","legacy","legacy","0","uniform","0","undefined","undefined","undefined","0","f","0","0","0","0","86","0","0","0","86","0","82","86","82","0","82","3","86","0","86","Wed Feb 17 12:00:25 2021","The main experiment item","yes","Lexical_Decision_Task.osexp","/Users/oliviahorne","no","Andale Mono","no","18","no","white","no","yes","576","legacy","82","82","3","/Users/oliviahorne/subject-5202797.csv","legacy","Lentiform Loewenfeld","3.3.7","yes","yes","600bd7cfb6416f0113b04181","602110864497cf011d9c0822","0","j","NA","return","return","return","return","j","684","NA","3790","1621","716","5380","684","2","legacy","1024","2","48000","-16","task","5202797","odd","NA","14656","20450","16659","175863","4462","6811","6092","176365","113798","175861","176365","175821","20450","177050","12892","175321","4418","153049","Lexical Decision Task","81","62876","87","yes","1024"
"3.064581521","5.51","6","cask","word","92.04545454545455","92.04545454545455","722.2954545454545","722.2954545454545","black","no","legacy","legacy","legacy","0","uniform","0","undefined","undefined","undefined","0","j","0","0","0","0","87","0","0","0","87","0","83","87","83","0","83","3","87","0","87","Wed Feb 17 12:00:25 2021","The main experiment item","yes","Lexical_Decision_Task.osexp","/Users/oliviahorne","no","Andale Mono","no","18","no","white","no","yes","576","legacy","83","83","3","/Users/oliviahorne/subject-5202797.csv","legacy","Lentiform Loewenfeld","3.3.7","yes","yes","600bd7cfb6416f0113b04181","602110864497cf011d9c0822","0","f","NA","return","return","return","return","f","686","NA","3790","1621","716","5380","686","2","legacy","1024","2","48000","-16","task","5202797","odd","NA","14656","20450","16659","178603","4462","6811","6092","179105","113798","178601","179105","178559","20450","179792","12892","175321","4418","177059","Lexical Decision Task","81","63562","88","yes","1024"
"2.937852093","0","7","bamp","non-word","92.13483146067416","92.13483146067416","725.7528089887641","725.7528089887641","black","no","legacy","legacy","legacy","0","uniform","1","undefined","undefined","undefined","1","f","0","0","0","0","88","0","0","0","88","0","84","88","84","0","84","3","88","0","88","Wed Feb 17 12:00:25 2021","The main experiment item","yes","Lexical_Decision_Task.osexp","/Users/oliviahorne","no","Andale Mono","no","18","no","white","no","yes","576","legacy","84","84","3","/Users/oliviahorne/subject-5202797.csv","legacy","Lentiform Loewenfeld","3.3.7","yes","yes","600bd7cfb6416f0113b04181","602110864497cf011d9c0822","0","f","NA","return","return","return","return","f","1030","NA","3790","1621","716","5380","1030","2","legacy","1024","2","48000","-16","task","5202797","odd","NA","14656","20450","16659","181345","4462","6811","6092","181847","113798","181343","181847","181301","20450","182878","12892","175321","4418","179801","Lexical Decision Task","82","64592","89","yes","1024"
"2.972819734","0","4","scew","non-word","92.22222222222223","92.22222222222223","732.4666666666667","732.4666666666667","black","no","legacy","legacy","legacy","0","uniform","1","undefined","undefined","undefined","1","f","0","0","0","0","89","0","0","0","89","0","85","89","85","0","85","3","89","0","89","Wed Feb 17 12:00:25 2021","The main experiment item","yes","Lexical_Decision_Task.osexp","/Users/oliviahorne","no","Andale Mono","no","18","no","white","no","yes","576","legacy","85","85","3","/Users/oliviahorne/subject-5202797.csv","legacy","Lentiform Loewenfeld","3.3.7","yes","yes","600bd7cfb6416f0113b04181","602110864497cf011d9c0822","0","f","NA","return","return","return","return","f","1330","NA","3790","1621","716","5380","1330","2","legacy","1024","2","48000","-16","task","5202797","odd","NA","14656","20450","16659","183429","4462","6811","6092","183931","113798","183427","183931","183387","20450","185262","12892","182887","4418","179801","Lexical Decision Task","83","65922","90","yes","1024"
"3.159867847","5.98","5","brim","word","92.3076923076923","92.3076923076923","732.4175824175824","732.4175824175824","black","no","legacy","legacy","legacy","0","uniform","1","undefined","undefined","undefined","1","j","0","0","0","0","90","0","0","0","90","0","86","90","86","0","86","3","90","0","90","Wed Feb 17 12:00:25 2021","The main experiment item","yes","Lexical_Decision_Task.osexp","/Users/oliviahorne","no","Andale Mono","no","18","no","white","no","yes","576","legacy","86","86","3","/Users/oliviahorne/subject-5202797.csv","legacy","Lentiform Loewenfeld","3.3.7","yes","yes","600bd7cfb6416f0113b04181","602110864497cf011d9c0822","0","j","NA","return","return","return","return","j","728","NA","3790","1621","716","5380","728","2","legacy","1024","2","48000","-16","task","5202797","odd","NA","14656","20450","16659","185813","4462","6811","6092","186315","113798","185811","186315","185771","20450","187044","12892","185271","4418","179801","Lexical Decision Task","84","66650","91","yes","1024"
"3.299579929","0","2","flis","non-word","92.3913043478261","92.3913043478261","732.8152173913044","732.8152173913044","black","no","legacy","legacy","legacy","0","uniform","1","undefined","undefined","undefined","1","f","0","0","0","0","91","0","0","0","91","0","87","91","87","0","87","3","91","0","91","Wed Feb 17 12:00:25 2021","The main experiment item","yes","Lexical_Decision_Task.osexp","/Users/oliviahorne","no","Andale Mono","no","18","no","white","no","yes","576","legacy","87","87","3","/Users/oliviahorne/subject-5202797.csv","legacy","Lentiform Loewenfeld","3.3.7","yes","yes","600bd7cfb6416f0113b04181","602110864497cf011d9c0822","0","f","NA","return","return","return","return","f","769","NA","3790","1621","716","5380","769","2","legacy","1024","2","48000","-16","task","5202797","odd","NA","14656","20450","16659","187594","4462","6811","6092","188096","113798","187592","188096","187552","20450","188866","12892","187052","4418","179801","Lexical Decision Task","85","67419","92","yes","1024"
"2.68604012","0","4","pumb","non-word","92.47311827956989","92.47311827956989","735.4086021505376","735.4086021505376","black","no","legacy","legacy","legacy","0","uniform","1","undefined","undefined","undefined","1","f","0","0","0","0","92","0","0","0","92","0","88","92","88","0","88","3","92","0","92","Wed Feb 17 12:00:25 2021","The main experiment item","yes","Lexical_Decision_Task.osexp","/Users/oliviahorne","no","Andale Mono","no","18","no","white","no","yes","576","legacy","88","88","3","/Users/oliviahorne/subject-5202797.csv","legacy","Lentiform Loewenfeld","3.3.7","yes","yes","600bd7cfb6416f0113b04181","602110864497cf011d9c0822","0","f","NA","return","return","return","return","f","974","NA","3790","1621","716","5380","974","2","legacy","1024","2","48000","-16","task","5202797","odd","NA","14656","20450","16659","189416","4462","6811","6092","189918","113798","189414","189918","189374","20450","190893","12892","188874","4418","179801","Lexical Decision Task","86","68393","93","yes","1024"
"3.066077331","0","7","vorn","non-word","92.55319148936171","92.55319148936171","734.2021276595744","734.2021276595744","black","no","legacy","legacy","legacy","0","uniform","1","undefined","undefined","undefined","1","f","0","0","0","0","93","0","0","0","93","0","89","93","89","0","89","3","93","0","93","Wed Feb 17 12:00:25 2021","The main experiment item","yes","Lexical_Decision_Task.osexp","/Users/oliviahorne","no","Andale Mono","no","18","no","white","no","yes","576","legacy","89","89","3","/Users/oliviahorne/subject-5202797.csv","legacy","Lentiform Loewenfeld","3.3.7","yes","yes","600bd7cfb6416f0113b04181","602110864497cf011d9c0822","0","f","NA","return","return","return","return","f","622","NA","3790","1621","716","5380","622","2","legacy","1024","2","48000","-16","task","5202797","odd","NA","14656","20450","16659","191444","4462","6811","6092","191946","113798","191442","191946","191402","20450","192569","12892","190902","4418","179801","Lexical Decision Task","87","69015","94","yes","1024"
"2.893578687","8.69","3","surf","word","92.63157894736842","92.63157894736842","734.3052631578947","734.3052631578947","black","no","legacy","legacy","legacy","0","uniform","1","undefined","undefined","undefined","1","j","0","0","0","0","94","0","0","0","94","0","90","94","90","0","90","3","94","0","94","Wed Feb 17 12:00:25 2021","The main experiment item","yes","Lexical_Decision_Task.osexp","/Users/oliviahorne","no","Andale Mono","no","18","no","white","no","yes","576","legacy","90","90","3","/Users/oliviahorne/subject-5202797.csv","legacy","Lentiform Loewenfeld","3.3.7","yes","yes","600bd7cfb6416f0113b04181","602110864497cf011d9c0822","0","j","NA","return","return","return","return","j","744","NA","3790","1621","716","5380","744","2","legacy","1024","2","48000","-16","task","5202797","odd","NA","14656","20450","16659","193120","4462","6811","6092","193622","113798","193118","193622","193078","20450","194367","12892","192578","4418","179801","Lexical Decision Task","88","69759","95","yes","1024"
"2.713490543","0","3","feps","non-word","92.70833333333333","92.70833333333333","732.4479166666666","732.4479166666666","black","no","legacy","legacy","legacy","0","uniform","1","undefined","undefined","undefined","1","f","0","0","0","0","95","0","0","0","95","0","91","95","91","0","91","3","95","0","95","Wed Feb 17 12:00:25 2021","The main experiment item","yes","Lexical_Decision_Task.osexp","/Users/oliviahorne","no","Andale Mono","no","18","no","white","no","yes","576","legacy","91","91","3","/Users/oliviahorne/subject-5202797.csv","legacy","Lentiform Loewenfeld","3.3.7","yes","yes","600bd7cfb6416f0113b04181","602110864497cf011d9c0822","0","f","NA","return","return","return","return","f","556","NA","3790","1621","716","5380","556","2","legacy","1024","2","48000","-16","task","5202797","odd","NA","14656","20450","16659","194918","4462","6811","6092","195420","113798","194916","195420","194876","20450","195977","12892","194376","4418","179801","Lexical Decision Task","89","70315","96","yes","1024"
"3.194328374","9.42","6","harm","word","92.78350515463917","92.78350515463917","729.8556701030927","729.8556701030927","black","no","legacy","legacy","legacy","0","uniform","1","undefined","undefined","undefined","1","j","0","0","0","0","96","0","0","0","96","0","92","96","92","0","92","3","96","0","96","Wed Feb 17 12:00:25 2021","The main experiment item","yes","Lexical_Decision_Task.osexp","/Users/oliviahorne","no","Andale Mono","no","18","no","white","no","yes","576","legacy","92","92","3","/Users/oliviahorne/subject-5202797.csv","legacy","Lentiform Loewenfeld","3.3.7","yes","yes","600bd7cfb6416f0113b04181","602110864497cf011d9c0822","0","j","NA","return","return","return","return","j","481","NA","3790","1621","716","5380","481","2","legacy","1024","2","48000","-16","task","5202797","odd","NA","14656","20450","16659","196528","4462","6811","6092","197030","113798","196526","197030","196486","20450","197512","12892","195986","4418","179801","Lexical Decision Task","90","70796","97","yes","1024"
"3.269668578","0","7","trag","non-word","92.85714285714286","92.85714285714286","728.2142857142857","728.2142857142857","black","no","legacy","legacy","legacy","0","uniform","1","undefined","undefined","undefined","1","f","0","0","0","0","97","0","0","0","97","0","93","97","93","0","93","3","97","0","97","Wed Feb 17 12:00:25 2021","The main experiment item","yes","Lexical_Decision_Task.osexp","/Users/oliviahorne","no","Andale Mono","no","18","no","white","no","yes","576","legacy","93","93","3","/Users/oliviahorne/subject-5202797.csv","legacy","Lentiform Loewenfeld","3.3.7","yes","yes","600bd7cfb6416f0113b04181","602110864497cf011d9c0822","0","f","NA","return","return","return","return","f","569","NA","3790","1621","716","5380","569","2","legacy","1024","2","48000","-16","task","5202797","odd","NA","14656","20450","16659","198063","4462","6811","6092","198565","113798","198061","198565","198021","20450","199135","12892","197521","4418","179801","Lexical Decision Task","91","71365","98","yes","1024"
"2.696644658","5.78","2","yolk","word","92.92929292929293","92.92929292929293","725.030303030303","725.030303030303","black","no","legacy","legacy","legacy","0","uniform","1","undefined","undefined","undefined","1","j","0","0","0","0","98","0","0","0","98","0","94","98","94","0","94","3","98","0","98","Wed Feb 17 12:00:25 2021","The main experiment item","yes","Lexical_Decision_Task.osexp","/Users/oliviahorne","no","Andale Mono","no","18","no","white","no","yes","576","legacy","94","94","3","/Users/oliviahorne/subject-5202797.csv","legacy","Lentiform Loewenfeld","3.3.7","yes","yes","600bd7cfb6416f0113b04181","602110864497cf011d9c0822","0","j","NA","return","return","return","return","j","413","NA","3790","1621","716","5380","413","2","legacy","1024","2","48000","-16","task","5202797","odd","NA","14656","20450","16659","199686","4462","6811","6092","200188","113798","199684","200188","199644","20450","200602","12892","199144","4418","179801","Lexical Decision Task","92","71778","99","yes","1024"
"3.230789326","5.38","5","prim","word","93","93","722.73","722.73","black","no","legacy","legacy","legacy","0","uniform","1","undefined","undefined","undefined","1","j","0","0","0","0","99","0","0","0","99","0","95","99","95","0","95","3","99","0","99","Wed Feb 17 12:00:25 2021","The main experiment item","yes","Lexical_Decision_Task.osexp","/Users/oliviahorne","no","Andale Mono","no","18","no","white","no","yes","576","legacy","95","95","3","/Users/oliviahorne/subject-5202797.csv","legacy","Lentiform Loewenfeld","3.3.7","yes","yes","600bd7cfb6416f0113b04181","602110864497cf011d9c0822","0","j","NA","return","return","return","return","j","495","NA","3790","1621","716","5380","495","2","legacy","1024","2","48000","-16","task","5202797","odd","NA","14656","20450","16659","201153","4462","6811","6092","201655","113798","201151","201655","201111","20450","202151","12892","200611","4418","179801","Lexical Decision Task","93","72273","100","yes","1024"
"2.819763221","0","2","durp","non-word","93.06930693069307","93.06930693069307","721.2871287128713","721.2871287128713","black","no","legacy","legacy","legacy","0","uniform","1","undefined","undefined","undefined","1","f","0","0","0","0","100","0","0","0","100","0","96","100","96","0","96","3","100","0","100","Wed Feb 17 12:00:25 2021","The main experiment item","yes","Lexical_Decision_Task.osexp","/Users/oliviahorne","no","Andale Mono","no","18","no","white","no","yes","576","legacy","96","96","3","/Users/oliviahorne/subject-5202797.csv","legacy","Lentiform Loewenfeld","3.3.7","yes","yes","600bd7cfb6416f0113b04181","602110864497cf011d9c0822","0","f","NA","return","return","return","return","f","577","NA","3790","1621","716","5380","577","2","legacy","1024","2","48000","-16","task","5202797","odd","NA","14656","20450","16659","202705","4462","6811","6092","203207","113798","202703","203207","202660","20450","203785","12892","202160","4418","179801","Lexical Decision Task","94","72850","101","yes","1024"
"2.784379519","0","2","snaf","non-word","93.13725490196079","93.13725490196079","721.1274509803922","721.1274509803922","black","no","legacy","legacy","legacy","0","uniform","1","undefined","undefined","undefined","1","f","0","0","0","0","101","0","0","0","101","0","97","101","97","0","97","3","101","0","101","Wed Feb 17 12:00:25 2021","The main experiment item","yes","Lexical_Decision_Task.osexp","/Users/oliviahorne","no","Andale Mono","no","18","no","white","no","yes","576","legacy","97","97","3","/Users/oliviahorne/subject-5202797.csv","legacy","Lentiform Loewenfeld","3.3.7","yes","yes","600bd7cfb6416f0113b04181","602110864497cf011d9c0822","0","f","NA","return","return","return","return","f","705","NA","3790","1621","716","5380","705","2","legacy","1024","2","48000","-16","task","5202797","odd","NA","14656","20450","16659","204337","4462","6811","6092","204839","113798","204335","204839","204294","20450","205545","12892","203794","4418","179801","Lexical Decision Task","95","73555","102","yes","1024"
