"Log_BG","Log_Freq_HAL","Ortho_N","Stimulus","Type","acc","accuracy","average_response_time","avg_rt","background","bidi","canvas_backend","clock_backend","color_backend","compensation","coordinates","correct","correct_Experimental_intro","correct_Introduction","correct_Practice_intro","correct_experimenter_kb","correct_response","count_End_Of_Experiment","count_End_Of_Practice","count_Experimental_Loop","count_Experimental_intro","count_Fixation","count_Introduction","count_Practice_Loop","count_Practice_intro","count_Stimulus","count_block_break_feedback","count_experimental_sequence","count_experimenter_kb","count_increment_trial_count","count_init_trial_count","count_logger","count_practice_sequence","count_right","count_task","count_wrong","datetime","description","disable_garbage_collection","experiment_file","experiment_path","font_bold","font_family","font_italic","font_size","font_underline","foreground","form_clicks","fullscreen","height","keyboard_backend","live_row","live_row_Experimental_Loop","live_row_Practice_Loop","logfile","mouse_backend","opensesame_codename","opensesame_version","osf_always_upload_data","osf_always_upload_experiment","osf_datanode_id","osf_id","repeat_cycle","response","response_End_Of_Experiment","response_Experimental_intro","response_Introduction","response_Practice_intro","response_block_break_feedback","response_experimenter_kb","response_time","response_time_End_Of_Experiment","response_time_Experimental_intro","response_time_Introduction","response_time_Practice_intro","response_time_block_break_feedback","response_time_experimenter_kb","round_decimals","sampler_backend","sound_buf_size","sound_channels","sound_freq","sound_sample_size","start","subject_nr","subject_parity","time_End_Of_Experiment","time_End_Of_Practice","time_Experimental_Loop","time_Experimental_intro","time_Fixation","time_Introduction","time_Practice_Loop","time_Practice_intro","time_Stimulus","time_block_break_feedback","time_experimental_sequence","time_experimenter_kb","time_increment_trial_count","time_init_trial_count","time_logger","time_practice_sequence","time_right","time_task","time_wrong","title","total_correct","total_response_time","total_responses","uniform_coordinates","width"
"3.132473155","0","4","glim","non-word","80","80","953.2","953.2","black","no","legacy","legacy","legacy","0","uniform","0","undefined","undefined","undefined","0","f","0","0","0","0","4","0","0","0","4","NA","0","4","0","0","0","3","4","0","4","Fri Feb 19 12:18:17 2021","The main experiment item","yes","Lexical_Decision_Task.osexp","C:/Users/camer","no","Andale Mono","no","18","no","white","no","yes","576","legacy","0","0","3","C:/Users/camer/subject-5220499.csv","legacy","Lentiform Loewenfeld","3.3.7","yes","yes","600bd7cfb6416f0113b04181","602110864497cf011d9c0822","0","j","NA","space","space","space","NA","j","775","NA","2829","14814","2558","NA","775","2","legacy","1024","2","48000","-16","task","5220499","odd","NA","30367","35197","32368","35233","4718","22093","19534","35733","NA","35232","35734","NA","35197","36509","28723","29846","4697","NA","Lexical Decision Task","4","4766","5","yes","1024"
"3.165936429","0","7","leps","non-word","83.33333333333333","83.33333333333333","921","921","black","no","legacy","legacy","legacy","0","uniform","1","undefined","undefined","undefined","1","f","0","0","0","0","5","0","0","0","5","NA","1","5","1","0","1","3","5","0","5","Fri Feb 19 12:18:17 2021","The main experiment item","yes","Lexical_Decision_Task.osexp","C:/Users/camer","no","Andale Mono","no","18","no","white","no","yes","576","legacy","1","1","3","C:/Users/camer/subject-5220499.csv","legacy","Lentiform Loewenfeld","3.3.7","yes","yes","600bd7cfb6416f0113b04181","602110864497cf011d9c0822","0","f","NA","space","space","space","NA","f","760","NA","2829","14814","2558","NA","760","2","legacy","1024","2","48000","-16","task","5220499","odd","NA","30367","35197","32368","38112","4718","22093","19534","38612","NA","38111","38613","38017","35197","39373","28723","29846","4697","36517","Lexical Decision Task","5","5526","6","yes","1024"
"2.858136002","0","4","phip","non-word","85.71428571428571","85.71428571428571","935.5714285714286","935.5714285714286","black","no","legacy","legacy","legacy","0","uniform","1","undefined","undefined","undefined","1","f","0","0","0","0","6","0","0","0","6","NA","2","6","2","0","2","3","6","0","6","Fri Feb 19 12:18:17 2021","The main experiment item","yes","Lexical_Decision_Task.osexp","C:/Users/camer","no","Andale Mono","no","18","no","white","no","yes","576","legacy","2","2","3","C:/Users/camer/subject-5220499.csv","legacy","Lentiform Loewenfeld","3.3.7","yes","yes","600bd7cfb6416f0113b04181","602110864497cf011d9c0822","0","f","NA","space","space","space","NA","f","1023","NA","2829","14814","2558","NA","1023","2","legacy","1024","2","48000","-16","task","5220499","odd","NA","30367","35197","32368","39927","4718","22093","19534","40428","NA","39926","40429","39878","35197","41453","28723","39378","4697","36517","Lexical Decision Task","6","6549","7","yes","1024"
"2.937852093","0","7","bamp","non-word","87.5","87.5","916.125","916.125","black","no","legacy","legacy","legacy","0","uniform","1","undefined","undefined","undefined","1","f","0","0","0","0","7","0","0","0","7","NA","3","7","3","0","3","3","7","0","7","Fri Feb 19 12:18:17 2021","The main experiment item","yes","Lexical_Decision_Task.osexp","C:/Users/camer","no","Andale Mono","no","18","no","white","no","yes","576","legacy","3","3","3","C:/Users/camer/subject-5220499.csv","legacy","Lentiform Loewenfeld","3.3.7","yes","yes","600bd7cfb6416f0113b04181","602110864497cf011d9c0822","0","f","NA","space","space","space","NA","f","780","NA","2829","14814","2558","NA","780","2","legacy","1024","2","48000","-16","task","5220499","odd","NA","30367","35197","32368","42011","4718","22093","19534","42511","NA","42010","42512","41958","35197","43293","28723","41458","4697","36517","Lexical Decision Task","7","7329","8","yes","1024"
"2.971428938","9.86","7","spot","word","88.88888888888889","88.88888888888889","867.1111111111111","867.1111111111111","black","no","legacy","legacy","legacy","0","uniform","1","undefined","undefined","undefined","1","j","0","0","0","0","8","0","0","0","8","NA","4","8","4","0","4","3","8","0","8","Fri Feb 19 12:18:17 2021","The main experiment item","yes","Lexical_Decision_Task.osexp","C:/Users/camer","no","Andale Mono","no","18","no","white","no","yes","576","legacy","4","4","3","C:/Users/camer/subject-5220499.csv","legacy","Lentiform Loewenfeld","3.3.7","yes","yes","600bd7cfb6416f0113b04181","602110864497cf011d9c0822","0","j","NA","space","space","space","NA","j","475","NA","2829","14814","2558","NA","475","2","legacy","1024","2","48000","-16","task","5220499","odd","NA","30367","35197","32368","43845","4718","22093","19534","44346","NA","43844","44346","43797","35197","44821","28723","43297","4697","36517","Lexical Decision Task","8","7804","9","yes","1024"
"3.529815197","0","3","lerm","non-word","90","90","835.9","835.9","black","no","legacy","legacy","legacy","0","uniform","1","undefined","undefined","undefined","1","f","0","0","0","0","9","0","0","0","9","NA","5","9","5","0","5","3","9","0","9","Fri Feb 19 12:18:17 2021","The main experiment item","yes","Lexical_Decision_Task.osexp","C:/Users/camer","no","Andale Mono","no","18","no","white","no","yes","576","legacy","5","5","3","C:/Users/camer/subject-5220499.csv","legacy","Lentiform Loewenfeld","3.3.7","yes","yes","600bd7cfb6416f0113b04181","602110864497cf011d9c0822","0","f","NA","space","space","space","NA","f","555","NA","2829","14814","2558","NA","555","2","legacy","1024","2","48000","-16","task","5220499","odd","NA","30367","35197","32368","45373","4718","22093","19534","45873","NA","45372","45873","45324","35197","46428","28723","44824","4697","36517","Lexical Decision Task","9","8359","10","yes","1024"
"2.843025032","0","9","pusk","non-word","90.9090909090909","90.9090909090909","805.3636363636364","805.3636363636364","black","no","legacy","legacy","legacy","0","uniform","1","undefined","undefined","undefined","1","f","0","0","0","0","10","0","0","0","10","NA","6","10","6","0","6","3","10","0","10","Fri Feb 19 12:18:17 2021","The main experiment item","yes","Lexical_Decision_Task.osexp","C:/Users/camer","no","Andale Mono","no","18","no","white","no","yes","576","legacy","6","6","3","C:/Users/camer/subject-5220499.csv","legacy","Lentiform Loewenfeld","3.3.7","yes","yes","600bd7cfb6416f0113b04181","602110864497cf011d9c0822","0","f","NA","space","space","space","NA","f","500","NA","2829","14814","2558","NA","500","2","legacy","1024","2","48000","-16","task","5220499","odd","NA","30367","35197","32368","46980","4718","22093","19534","47480","NA","46978","47481","46932","35197","48015","28723","46432","4697","36517","Lexical Decision Task","10","8859","11","yes","1024"
"3.261341392","5.08","8","reek","word","91.66666666666667","91.66666666666667","780.5833333333334","780.5833333333334","black","no","legacy","legacy","legacy","0","uniform","1","undefined","undefined","undefined","1","j","0","0","0","0","11","0","0","0","11","NA","7","11","7","0","7","3","11","0","11","Fri Feb 19 12:18:17 2021","The main experiment item","yes","Lexical_Decision_Task.osexp","C:/Users/camer","no","Andale Mono","no","18","no","white","no","yes","576","legacy","7","7","3","C:/Users/camer/subject-5220499.csv","legacy","Lentiform Loewenfeld","3.3.7","yes","yes","600bd7cfb6416f0113b04181","602110864497cf011d9c0822","0","j","NA","space","space","space","NA","j","508","NA","2829","14814","2558","NA","508","2","legacy","1024","2","48000","-16","task","5220499","odd","NA","30367","35197","32368","48587","4718","22093","19534","49088","NA","48586","49088","48523","35197","49597","28723","48023","4697","36517","Lexical Decision Task","11","9367","12","yes","1024"
"3.100255637","0","6","brax","non-word","92.3076923076923","92.3076923076923","759.4615384615385","759.4615384615385","black","no","legacy","legacy","legacy","0","uniform","1","undefined","undefined","undefined","1","f","0","0","0","0","12","0","0","0","12","NA","8","12","8","0","8","3","12","0","12","Fri Feb 19 12:18:17 2021","The main experiment item","yes","Lexical_Decision_Task.osexp","C:/Users/camer","no","Andale Mono","no","18","no","white","no","yes","576","legacy","8","8","3","C:/Users/camer/subject-5220499.csv","legacy","Lentiform Loewenfeld","3.3.7","yes","yes","600bd7cfb6416f0113b04181","602110864497cf011d9c0822","0","f","NA","space","space","space","NA","f","506","NA","2829","14814","2558","NA","506","2","legacy","1024","2","48000","-16","task","5220499","odd","NA","30367","35197","32368","50150","4718","22093","19534","50650","NA","50148","50650","50100","35197","51157","28723","49600","4697","36517","Lexical Decision Task","12","9873","13","yes","1024"
"2.812467698","0","7","hafe","non-word","92.85714285714286","92.85714285714286","744","744","black","no","legacy","legacy","legacy","0","uniform","1","undefined","undefined","undefined","1","f","0","0","0","0","13","0","0","0","13","NA","9","13","9","0","9","3","13","0","13","Fri Feb 19 12:18:17 2021","The main experiment item","yes","Lexical_Decision_Task.osexp","C:/Users/camer","no","Andale Mono","no","18","no","white","no","yes","576","legacy","9","9","3","C:/Users/camer/subject-5220499.csv","legacy","Lentiform Loewenfeld","3.3.7","yes","yes","600bd7cfb6416f0113b04181","602110864497cf011d9c0822","0","f","NA","space","space","space","NA","f","543","NA","2829","14814","2558","NA","543","2","legacy","1024","2","48000","-16","task","5220499","odd","NA","30367","35197","32368","51713","4718","22093","19534","52214","NA","51712","52214","51662","35197","52757","28723","51162","4697","36517","Lexical Decision Task","13","10416","14","yes","1024"
"3.168400243","9.12","6","horn","word","93.33333333333333","93.33333333333333","733.7333333333333","733.7333333333333","black","no","legacy","legacy","legacy","0","uniform","1","undefined","undefined","undefined","1","j","0","0","0","0","14","0","0","0","14","NA","10","14","10","0","10","3","14","0","14","Fri Feb 19 12:18:17 2021","The main experiment item","yes","Lexical_Decision_Task.osexp","C:/Users/camer","no","Andale Mono","no","18","no","white","no","yes","576","legacy","10","10","3","C:/Users/camer/subject-5220499.csv","legacy","Lentiform Loewenfeld","3.3.7","yes","yes","600bd7cfb6416f0113b04181","602110864497cf011d9c0822","0","j","NA","space","space","space","NA","j","590","NA","2829","14814","2558","NA","590","2","legacy","1024","2","48000","-16","task","5220499","odd","NA","30367","35197","32368","53313","4718","22093","19534","53815","NA","53312","53815","53262","35197","54405","28723","52762","4697","36517","Lexical Decision Task","14","11006","15","yes","1024"
"3.22685757","9.99","7","roll","word","93.75","93.75","725.5","725.5","black","no","legacy","legacy","legacy","0","uniform","1","undefined","undefined","undefined","1","j","0","0","0","0","15","0","0","0","15","NA","11","15","11","0","11","3","15","0","15","Fri Feb 19 12:18:17 2021","The main experiment item","yes","Lexical_Decision_Task.osexp","C:/Users/camer","no","Andale Mono","no","18","no","white","no","yes","576","legacy","11","11","3","C:/Users/camer/subject-5220499.csv","legacy","Lentiform Loewenfeld","3.3.7","yes","yes","600bd7cfb6416f0113b04181","602110864497cf011d9c0822","0","j","NA","space","space","space","NA","j","602","NA","2829","14814","2558","NA","602","2","legacy","1024","2","48000","-16","task","5220499","odd","NA","30367","35197","32368","54957","4718","22093","19534","55457","NA","54955","55458","54910","35197","56061","28723","54410","4697","36517","Lexical Decision Task","15","11608","16","yes","1024"
"3.066077331","0","7","vorn","non-word","94.11764705882354","94.11764705882354","720.9411764705883","720.9411764705883","black","no","legacy","legacy","legacy","0","uniform","1","undefined","undefined","undefined","1","f","0","0","0","0","16","0","0","0","16","NA","12","16","12","0","12","3","16","0","16","Fri Feb 19 12:18:17 2021","The main experiment item","yes","Lexical_Decision_Task.osexp","C:/Users/camer","no","Andale Mono","no","18","no","white","no","yes","576","legacy","12","12","3","C:/Users/camer/subject-5220499.csv","legacy","Lentiform Loewenfeld","3.3.7","yes","yes","600bd7cfb6416f0113b04181","602110864497cf011d9c0822","0","f","NA","space","space","space","NA","f","648","NA","2829","14814","2558","NA","648","2","legacy","1024","2","48000","-16","task","5220499","odd","NA","30367","35197","32368","56616","4718","22093","19534","57117","NA","56615","57117","56567","35197","57766","28723","56067","4697","36517","Lexical Decision Task","16","12256","17","yes","1024"
"2.68604012","0","3","mulb","non-word","94.44444444444444","94.44444444444444","712.7222222222222","712.7222222222222","black","no","legacy","legacy","legacy","0","uniform","1","undefined","undefined","undefined","1","f","0","0","0","0","17","0","0","0","17","NA","13","17","13","0","13","3","17","0","17","Fri Feb 19 12:18:17 2021","The main experiment item","yes","Lexical_Decision_Task.osexp","C:/Users/camer","no","Andale Mono","no","18","no","white","no","yes","576","legacy","13","13","3","C:/Users/camer/subject-5220499.csv","legacy","Lentiform Loewenfeld","3.3.7","yes","yes","600bd7cfb6416f0113b04181","602110864497cf011d9c0822","0","f","NA","space","space","space","NA","f","573","NA","2829","14814","2558","NA","573","2","legacy","1024","2","48000","-16","task","5220499","odd","NA","30367","35197","32368","58323","4718","22093","19534","58823","NA","58322","58824","58271","35197","59397","28723","57771","4697","36517","Lexical Decision Task","17","12829","18","yes","1024"
"3.16326079","0","5","parg","non-word","94.73684210526316","94.73684210526316","710.8421052631579","710.8421052631579","black","no","legacy","legacy","legacy","0","uniform","1","undefined","undefined","undefined","1","f","0","0","0","0","18","0","0","0","18","NA","14","18","14","0","14","3","18","0","18","Fri Feb 19 12:18:17 2021","The main experiment item","yes","Lexical_Decision_Task.osexp","C:/Users/camer","no","Andale Mono","no","18","no","white","no","yes","576","legacy","14","14","3","C:/Users/camer/subject-5220499.csv","legacy","Lentiform Loewenfeld","3.3.7","yes","yes","600bd7cfb6416f0113b04181","602110864497cf011d9c0822","0","f","NA","space","space","space","NA","f","677","NA","2829","14814","2558","NA","677","2","legacy","1024","2","48000","-16","task","5220499","odd","NA","30367","35197","32368","59948","4718","22093","19534","60448","NA","59947","60448","59902","35197","61126","28723","59402","4697","36517","Lexical Decision Task","18","13506","19","yes","1024"
"3.225825991","0","7","talm","non-word","95","95","708.7","708.7","black","no","legacy","legacy","legacy","0","uniform","1","undefined","undefined","undefined","1","f","0","0","0","0","19","0","0","0","19","NA","15","19","15","0","15","3","19","0","19","Fri Feb 19 12:18:17 2021","The main experiment item","yes","Lexical_Decision_Task.osexp","C:/Users/camer","no","Andale Mono","no","18","no","white","no","yes","576","legacy","15","15","3","C:/Users/camer/subject-5220499.csv","legacy","Lentiform Loewenfeld","3.3.7","yes","yes","600bd7cfb6416f0113b04181","602110864497cf011d9c0822","0","f","NA","space","space","space","NA","f","668","NA","2829","14814","2558","NA","668","2","legacy","1024","2","48000","-16","task","5220499","odd","NA","30367","35197","32368","61683","4718","22093","19534","62184","NA","61681","62184","61635","35197","62853","28723","61135","4697","36517","Lexical Decision Task","19","14174","20","yes","1024"
"2.839268497","0","8","maft","non-word","95.23809523809524","95.23809523809524","702.5238095238095","702.5238095238095","black","no","legacy","legacy","legacy","0","uniform","1","undefined","undefined","undefined","1","f","0","0","0","0","20","0","0","0","20","NA","16","20","16","0","16","3","20","0","20","Fri Feb 19 12:18:17 2021","The main experiment item","yes","Lexical_Decision_Task.osexp","C:/Users/camer","no","Andale Mono","no","18","no","white","no","yes","576","legacy","16","16","3","C:/Users/camer/subject-5220499.csv","legacy","Lentiform Loewenfeld","3.3.7","yes","yes","600bd7cfb6416f0113b04181","602110864497cf011d9c0822","0","f","NA","space","space","space","NA","f","579","NA","2829","14814","2558","NA","579","2","legacy","1024","2","48000","-16","task","5220499","odd","NA","30367","35197","32368","63412","4718","22093","19534","63912","NA","63411","63913","63358","35197","64493","28723","62858","4697","36517","Lexical Decision Task","20","14753","21","yes","1024"
"3.077974404","10.41","8","tool","word","95.45454545454545","95.45454545454545","698.0454545454545","698.0454545454545","black","no","legacy","legacy","legacy","0","uniform","1","undefined","undefined","undefined","1","j","0","0","0","0","21","0","0","0","21","NA","17","21","17","0","17","3","21","0","21","Fri Feb 19 12:18:17 2021","The main experiment item","yes","Lexical_Decision_Task.osexp","C:/Users/camer","no","Andale Mono","no","18","no","white","no","yes","576","legacy","17","17","3","C:/Users/camer/subject-5220499.csv","legacy","Lentiform Loewenfeld","3.3.7","yes","yes","600bd7cfb6416f0113b04181","602110864497cf011d9c0822","0","j","NA","space","space","space","NA","j","604","NA","2829","14814","2558","NA","604","2","legacy","1024","2","48000","-16","task","5220499","odd","NA","30367","35197","32368","65044","4718","22093","19534","65544","NA","65043","65544","64996","35197","66149","28723","64496","4697","36517","Lexical Decision Task","21","15357","22","yes","1024"
"3.276537627","9.15","5","trap","word","95.65217391304348","95.65217391304348","691.4347826086956","691.4347826086956","black","no","legacy","legacy","legacy","0","uniform","1","undefined","undefined","undefined","1","j","0","0","0","0","22","0","0","0","22","NA","18","22","18","0","18","3","22","0","22","Fri Feb 19 12:18:17 2021","The main experiment item","yes","Lexical_Decision_Task.osexp","C:/Users/camer","no","Andale Mono","no","18","no","white","no","yes","576","legacy","18","18","3","C:/Users/camer/subject-5220499.csv","legacy","Lentiform Loewenfeld","3.3.7","yes","yes","600bd7cfb6416f0113b04181","602110864497cf011d9c0822","0","j","NA","space","space","space","NA","j","546","NA","2829","14814","2558","NA","546","2","legacy","1024","2","48000","-16","task","5220499","odd","NA","30367","35197","32368","66701","4718","22093","19534","67202","NA","66700","67202","66654","35197","67749","28723","66154","4697","36517","Lexical Decision Task","22","15903","23","yes","1024"
"2.696644658","5.78","2","yolk","word","95.83333333333333","95.83333333333333","686","686","black","no","legacy","legacy","legacy","0","uniform","1","undefined","undefined","undefined","1","j","0","0","0","0","23","0","0","0","23","NA","19","23","19","0","19","3","23","0","23","Fri Feb 19 12:18:17 2021","The main experiment item","yes","Lexical_Decision_Task.osexp","C:/Users/camer","no","Andale Mono","no","18","no","white","no","yes","576","legacy","19","19","3","C:/Users/camer/subject-5220499.csv","legacy","Lentiform Loewenfeld","3.3.7","yes","yes","600bd7cfb6416f0113b04181","602110864497cf011d9c0822","0","j","NA","space","space","space","NA","j","561","NA","2829","14814","2558","NA","561","2","legacy","1024","2","48000","-16","task","5220499","odd","NA","30367","35197","32368","68310","4718","22093","19534","68810","NA","68308","68811","68253","35197","69372","28723","67753","4697","36517","Lexical Decision Task","23","16464","24","yes","1024"
"3.353210739","0","9","reet","non-word","92","92","684.12","684.12","black","no","legacy","legacy","legacy","0","uniform","0","undefined","undefined","undefined","0","f","0","0","0","0","24","0","0","0","24","NA","20","24","20","0","20","3","24","0","24","Fri Feb 19 12:18:17 2021","The main experiment item","yes","Lexical_Decision_Task.osexp","C:/Users/camer","no","Andale Mono","no","18","no","white","no","yes","576","legacy","20","20","3","C:/Users/camer/subject-5220499.csv","legacy","Lentiform Loewenfeld","3.3.7","yes","yes","600bd7cfb6416f0113b04181","602110864497cf011d9c0822","0","j","NA","space","space","space","NA","j","639","NA","2829","14814","2558","NA","639","2","legacy","1024","2","48000","-16","task","5220499","odd","NA","30367","35197","32368","69927","4718","22093","19534","70429","NA","69926","70429","69879","35197","71070","28723","69379","4697","36517","Lexical Decision Task","23","17103","25","yes","1024"
"2.873320602","0","4","lurg","non-word","92.3076923076923","92.3076923076923","681.1153846153846","681.1153846153846","black","no","legacy","legacy","legacy","0","uniform","1","undefined","undefined","undefined","1","f","0","0","0","0","25","0","0","0","25","NA","21","25","21","0","21","3","25","0","25","Fri Feb 19 12:18:17 2021","The main experiment item","yes","Lexical_Decision_Task.osexp","C:/Users/camer","no","Andale Mono","no","18","no","white","no","yes","576","legacy","21","21","3","C:/Users/camer/subject-5220499.csv","legacy","Lentiform Loewenfeld","3.3.7","yes","yes","600bd7cfb6416f0113b04181","602110864497cf011d9c0822","0","f","NA","space","space","space","NA","f","606","NA","2829","14814","2558","NA","606","2","legacy","1024","2","48000","-16","task","5220499","odd","NA","30367","35197","32368","72625","4718","22093","19534","73126","NA","72624","73126","72577","35197","73733","28723","69379","4697","71077","Lexical Decision Task","24","17709","26","yes","1024"
"2.809559715","8.44","4","volt","word","92.5925925925926","92.5925925925926","678","678","black","no","legacy","legacy","legacy","0","uniform","1","undefined","undefined","undefined","1","j","0","0","0","0","26","0","0","0","26","NA","22","26","22","0","22","3","26","0","26","Fri Feb 19 12:18:17 2021","The main experiment item","yes","Lexical_Decision_Task.osexp","C:/Users/camer","no","Andale Mono","no","18","no","white","no","yes","576","legacy","22","22","3","C:/Users/camer/subject-5220499.csv","legacy","Lentiform Loewenfeld","3.3.7","yes","yes","600bd7cfb6416f0113b04181","602110864497cf011d9c0822","0","j","NA","space","space","space","NA","j","597","NA","2829","14814","2558","NA","597","2","legacy","1024","2","48000","-16","task","5220499","odd","NA","30367","35197","32368","74291","4718","22093","19534","74792","NA","74290","74792","74239","35197","75389","28723","73739","4697","71077","Lexical Decision Task","25","18306","27","yes","1024"
"2.67699827","0","6","hulf","non-word","92.85714285714286","92.85714285714286","673.9285714285714","673.9285714285714","black","no","legacy","legacy","legacy","0","uniform","1","undefined","undefined","undefined","1","f","0","0","0","0","27","0","0","0","27","NA","23","27","23","0","23","3","27","0","27","Fri Feb 19 12:18:17 2021","The main experiment item","yes","Lexical_Decision_Task.osexp","C:/Users/camer","no","Andale Mono","no","18","no","white","no","yes","576","legacy","23","23","3","C:/Users/camer/subject-5220499.csv","legacy","Lentiform Loewenfeld","3.3.7","yes","yes","600bd7cfb6416f0113b04181","602110864497cf011d9c0822","0","f","NA","space","space","space","NA","f","564","NA","2829","14814","2558","NA","564","2","legacy","1024","2","48000","-16","task","5220499","odd","NA","30367","35197","32368","75940","4718","22093","19534","76440","NA","75939","76440","75893","35197","77005","28723","75393","4697","71077","Lexical Decision Task","26","18870","28","yes","1024"
"2.980911938","7.15","7","hoop","word","93.10344827586206","93.10344827586206","669.6551724137931","669.6551724137931","black","no","legacy","legacy","legacy","0","uniform","1","undefined","undefined","undefined","1","j","0","0","0","0","28","0","0","0","28","NA","24","28","24","0","24","3","28","0","28","Fri Feb 19 12:18:17 2021","The main experiment item","yes","Lexical_Decision_Task.osexp","C:/Users/camer","no","Andale Mono","no","18","no","white","no","yes","576","legacy","24","24","3","C:/Users/camer/subject-5220499.csv","legacy","Lentiform Loewenfeld","3.3.7","yes","yes","600bd7cfb6416f0113b04181","602110864497cf011d9c0822","0","j","NA","space","space","space","NA","j","550","NA","2829","14814","2558","NA","550","2","legacy","1024","2","48000","-16","task","5220499","odd","NA","30367","35197","32368","77562","4718","22093","19534","78063","NA","77560","78063","77513","35197","78613","28723","77013","4697","71077","Lexical Decision Task","27","19420","29","yes","1024"
"2.966923697","5.4","2","fume","word","90","90","666.7","666.7","black","no","legacy","legacy","legacy","0","uniform","0","undefined","undefined","undefined","0","j","0","0","0","0","29","0","0","0","29","NA","25","29","25","0","25","3","29","0","29","Fri Feb 19 12:18:17 2021","The main experiment item","yes","Lexical_Decision_Task.osexp","C:/Users/camer","no","Andale Mono","no","18","no","white","no","yes","576","legacy","25","25","3","C:/Users/camer/subject-5220499.csv","legacy","Lentiform Loewenfeld","3.3.7","yes","yes","600bd7cfb6416f0113b04181","602110864497cf011d9c0822","0","f","NA","space","space","space","NA","f","581","NA","2829","14814","2558","NA","581","2","legacy","1024","2","48000","-16","task","5220499","odd","NA","30367","35197","32368","79172","4718","22093","19534","79672","NA","79171","79672","79122","35197","80253","28723","78622","4697","71077","Lexical Decision Task","27","20001","30","yes","1024"
"2.868644438","10.52","4","town","word","90.3225806451613","90.3225806451613","663.8709677419355","663.8709677419355","black","no","legacy","legacy","legacy","0","uniform","1","undefined","undefined","undefined","1","j","0","0","0","0","30","0","0","0","30","NA","26","30","26","0","26","3","30","0","30","Fri Feb 19 12:18:17 2021","The main experiment item","yes","Lexical_Decision_Task.osexp","C:/Users/camer","no","Andale Mono","no","18","no","white","no","yes","576","legacy","26","26","3","C:/Users/camer/subject-5220499.csv","legacy","Lentiform Loewenfeld","3.3.7","yes","yes","600bd7cfb6416f0113b04181","602110864497cf011d9c0822","0","j","NA","space","space","space","NA","j","579","NA","2829","14814","2558","NA","579","2","legacy","1024","2","48000","-16","task","5220499","odd","NA","30367","35197","32368","81813","4718","22093","19534","82313","NA","81811","82314","81756","35197","82893","28723","78622","4697","80256","Lexical Decision Task","28","20580","31","yes","1024"
"2.793790385","5.67","9","swab","word","90.625","90.625","663.3125","663.3125","black","no","legacy","legacy","legacy","0","uniform","1","undefined","undefined","undefined","1","j","0","0","0","0","31","0","0","0","31","NA","27","31","27","0","27","3","31","0","31","Fri Feb 19 12:18:17 2021","The main experiment item","yes","Lexical_Decision_Task.osexp","C:/Users/camer","no","Andale Mono","no","18","no","white","no","yes","576","legacy","27","27","3","C:/Users/camer/subject-5220499.csv","legacy","Lentiform Loewenfeld","3.3.7","yes","yes","600bd7cfb6416f0113b04181","602110864497cf011d9c0822","0","j","NA","space","space","space","NA","j","646","NA","2829","14814","2558","NA","646","2","legacy","1024","2","48000","-16","task","5220499","odd","NA","30367","35197","32368","83449","4718","22093","19534","83950","NA","83447","83950","83400","35197","84597","28723","82900","4697","80256","Lexical Decision Task","29","21226","32","yes","1024"
"3.049218023","7.4","9","robe","word","90.9090909090909","90.9090909090909","659.8787878787879","659.8787878787879","black","no","legacy","legacy","legacy","0","uniform","1","undefined","undefined","undefined","1","j","0","0","0","0","32","0","0","0","32","NA","28","32","28","0","28","3","32","0","32","Fri Feb 19 12:18:17 2021","The main experiment item","yes","Lexical_Decision_Task.osexp","C:/Users/camer","no","Andale Mono","no","18","no","white","no","yes","576","legacy","28","28","3","C:/Users/camer/subject-5220499.csv","legacy","Lentiform Loewenfeld","3.3.7","yes","yes","600bd7cfb6416f0113b04181","602110864497cf011d9c0822","0","j","NA","space","space","space","NA","j","550","NA","2829","14814","2558","NA","550","2","legacy","1024","2","48000","-16","task","5220499","odd","NA","30367","35197","32368","85147","4718","22093","19534","85647","NA","85146","85647","85100","35197","86198","28723","84600","4697","80256","Lexical Decision Task","30","21776","33","yes","1024"
"2.895974732","6.65","5","sift","word","88.23529411764706","88.23529411764706","658.1764705882352","658.1764705882352","black","no","legacy","legacy","legacy","0","uniform","0","undefined","undefined","undefined","0","j","0","0","0","0","33","0","0","0","33","NA","29","33","29","0","29","3","33","0","33","Fri Feb 19 12:18:17 2021","The main experiment item","yes","Lexical_Decision_Task.osexp","C:/Users/camer","no","Andale Mono","no","18","no","white","no","yes","576","legacy","29","29","3","C:/Users/camer/subject-5220499.csv","legacy","Lentiform Loewenfeld","3.3.7","yes","yes","600bd7cfb6416f0113b04181","602110864497cf011d9c0822","0","f","NA","space","space","space","NA","f","602","NA","2829","14814","2558","NA","602","2","legacy","1024","2","48000","-16","task","5220499","odd","NA","30367","35197","32368","86750","4718","22093","19534","87251","NA","86749","87251","86703","35197","87853","28723","86203","4697","80256","Lexical Decision Task","30","22378","34","yes","1024"
"2.75025376","10.2","6","jump","word","88.57142857142857","88.57142857142857","657.6285714285714","657.6285714285714","black","no","legacy","legacy","legacy","0","uniform","1","undefined","undefined","undefined","1","j","0","0","0","0","34","0","0","0","34","NA","30","34","30","0","30","3","34","0","34","Fri Feb 19 12:18:17 2021","The main experiment item","yes","Lexical_Decision_Task.osexp","C:/Users/camer","no","Andale Mono","no","18","no","white","no","yes","576","legacy","30","30","3","C:/Users/camer/subject-5220499.csv","legacy","Lentiform Loewenfeld","3.3.7","yes","yes","600bd7cfb6416f0113b04181","602110864497cf011d9c0822","0","j","NA","space","space","space","NA","j","639","NA","2829","14814","2558","NA","639","2","legacy","1024","2","48000","-16","task","5220499","odd","NA","30367","35197","32368","89408","4718","22093","19534","89910","NA","89407","89910","89356","35197","90549","28723","86203","4697","87856","Lexical Decision Task","31","23017","35","yes","1024"
"2.706148589","0","4","hube","non-word","86.11111111111111","86.11111111111111","657.4166666666666","657.4166666666666","black","no","legacy","legacy","legacy","0","uniform","0","undefined","undefined","undefined","0","f","0","0","0","0","35","0","0","0","35","NA","31","35","31","0","31","3","35","0","35","Fri Feb 19 12:18:17 2021","The main experiment item","yes","Lexical_Decision_Task.osexp","C:/Users/camer","no","Andale Mono","no","18","no","white","no","yes","576","legacy","31","31","3","C:/Users/camer/subject-5220499.csv","legacy","Lentiform Loewenfeld","3.3.7","yes","yes","600bd7cfb6416f0113b04181","602110864497cf011d9c0822","0","j","NA","space","space","space","NA","j","650","NA","2829","14814","2558","NA","650","2","legacy","1024","2","48000","-16","task","5220499","odd","NA","30367","35197","32368","91101","4718","22093","19534","91601","NA","91101","91602","91054","35197","92253","28723","90554","4697","87856","Lexical Decision Task","31","23667","36","yes","1024"
"3.120025233","0","2","nyst","non-word","86.48648648648648","86.48648648648648","657.6486486486486","657.6486486486486","black","no","legacy","legacy","legacy","0","uniform","1","undefined","undefined","undefined","1","f","0","0","0","0","36","0","0","0","36","NA","32","36","32","0","32","3","36","0","36","Fri Feb 19 12:18:17 2021","The main experiment item","yes","Lexical_Decision_Task.osexp","C:/Users/camer","no","Andale Mono","no","18","no","white","no","yes","576","legacy","32","32","3","C:/Users/camer/subject-5220499.csv","legacy","Lentiform Loewenfeld","3.3.7","yes","yes","600bd7cfb6416f0113b04181","602110864497cf011d9c0822","0","f","NA","space","space","space","NA","f","666","NA","2829","14814","2558","NA","666","2","legacy","1024","2","48000","-16","task","5220499","odd","NA","30367","35197","32368","93806","4718","22093","19534","94307","NA","93805","94307","93758","35197","94973","28723","90554","4697","92258","Lexical Decision Task","32","24333","37","yes","1024"
"3.028977705","0","7","frow","non-word","84.21052631578948","84.21052631578948","653.4473684210526","653.4473684210526","black","no","legacy","legacy","legacy","0","uniform","0","undefined","undefined","undefined","0","f","0","0","0","0","37","0","0","0","37","NA","33","37","33","0","33","3","37","0","37","Fri Feb 19 12:18:17 2021","The main experiment item","yes","Lexical_Decision_Task.osexp","C:/Users/camer","no","Andale Mono","no","18","no","white","no","yes","576","legacy","33","33","3","C:/Users/camer/subject-5220499.csv","legacy","Lentiform Loewenfeld","3.3.7","yes","yes","600bd7cfb6416f0113b04181","602110864497cf011d9c0822","0","j","NA","space","space","space","NA","j","498","NA","2829","14814","2558","NA","498","2","legacy","1024","2","48000","-16","task","5220499","odd","NA","30367","35197","32368","95526","4718","22093","19534","96027","NA","95525","96027","95477","35197","96525","28723","94976","4697","92258","Lexical Decision Task","32","24831","38","yes","1024"
"3.120135028","0","3","vals","non-word","84.61538461538461","84.61538461538461","650.974358974359","650.974358974359","black","no","legacy","legacy","legacy","0","uniform","1","undefined","undefined","undefined","1","f","0","0","0","0","38","0","0","0","38","NA","34","38","34","0","34","3","38","0","38","Fri Feb 19 12:18:17 2021","The main experiment item","yes","Lexical_Decision_Task.osexp","C:/Users/camer","no","Andale Mono","no","18","no","white","no","yes","576","legacy","34","34","3","C:/Users/camer/subject-5220499.csv","legacy","Lentiform Loewenfeld","3.3.7","yes","yes","600bd7cfb6416f0113b04181","602110864497cf011d9c0822","0","f","NA","space","space","space","NA","f","557","NA","2829","14814","2558","NA","557","2","legacy","1024","2","48000","-16","task","5220499","odd","NA","30367","35197","32368","98089","4718","22093","19534","98590","NA","98088","98591","98030","35197","99148","28723","94976","4697","96530","Lexical Decision Task","33","25388","39","yes","1024"
"2.980306438","0","7","slun","non-word","85","85","647.325","647.325","black","no","legacy","legacy","legacy","0","uniform","1","undefined","undefined","undefined","1","f","0","0","0","0","39","0","0","0","39","NA","35","39","35","0","35","3","39","0","39","Fri Feb 19 12:18:17 2021","The main experiment item","yes","Lexical_Decision_Task.osexp","C:/Users/camer","no","Andale Mono","no","18","no","white","no","yes","576","legacy","35","35","3","C:/Users/camer/subject-5220499.csv","legacy","Lentiform Loewenfeld","3.3.7","yes","yes","600bd7cfb6416f0113b04181","602110864497cf011d9c0822","0","f","NA","space","space","space","NA","f","505","NA","2829","14814","2558","NA","505","2","legacy","1024","2","48000","-16","task","5220499","odd","NA","30367","35197","32368","99702","4718","22093","19534","100203","NA","99701","100203","99656","35197","100709","28723","99156","4697","96530","Lexical Decision Task","34","25893","40","yes","1024"
"2.981215883","10.66","5","hair","word","85.36585365853658","85.36585365853658","644.1219512195122","644.1219512195122","black","no","legacy","legacy","legacy","0","uniform","1","undefined","undefined","undefined","1","j","0","0","0","0","40","0","0","0","40","NA","36","40","36","0","36","3","40","0","40","Fri Feb 19 12:18:17 2021","The main experiment item","yes","Lexical_Decision_Task.osexp","C:/Users/camer","no","Andale Mono","no","18","no","white","no","yes","576","legacy","36","36","3","C:/Users/camer/subject-5220499.csv","legacy","Lentiform Loewenfeld","3.3.7","yes","yes","600bd7cfb6416f0113b04181","602110864497cf011d9c0822","0","j","NA","space","space","space","NA","j","516","NA","2829","14814","2558","NA","516","2","legacy","1024","2","48000","-16","task","5220499","odd","NA","30367","35197","32368","101259","4718","22093","19534","101759","NA","101257","101760","101213","35197","102277","28723","100713","4697","96530","Lexical Decision Task","35","26409","41","yes","1024"
"2.892836167","10.01","5","soft","word","85.71428571428571","85.71428571428571","642.7857142857143","642.7857142857143","black","no","legacy","legacy","legacy","0","uniform","1","undefined","undefined","undefined","1","j","0","0","0","0","41","0","0","0","41","NA","37","41","37","0","37","3","41","0","41","Fri Feb 19 12:18:17 2021","The main experiment item","yes","Lexical_Decision_Task.osexp","C:/Users/camer","no","Andale Mono","no","18","no","white","no","yes","576","legacy","37","37","3","C:/Users/camer/subject-5220499.csv","legacy","Lentiform Loewenfeld","3.3.7","yes","yes","600bd7cfb6416f0113b04181","602110864497cf011d9c0822","0","j","NA","space","space","space","NA","j","588","NA","2829","14814","2558","NA","588","2","legacy","1024","2","48000","-16","task","5220499","odd","NA","30367","35197","32368","102827","4718","22093","19534","103329","NA","102826","103329","102781","35197","103918","28723","102281","4697","96530","Lexical Decision Task","36","26997","42","yes","1024"
"3.15462682","0","6","noal","non-word","86.04651162790698","86.04651162790698","640.3953488372093","640.3953488372093","black","no","legacy","legacy","legacy","0","uniform","1","undefined","undefined","undefined","1","f","0","0","0","0","42","0","0","0","42","NA","38","42","38","0","38","3","42","0","42","Fri Feb 19 12:18:17 2021","The main experiment item","yes","Lexical_Decision_Task.osexp","C:/Users/camer","no","Andale Mono","no","18","no","white","no","yes","576","legacy","38","38","3","C:/Users/camer/subject-5220499.csv","legacy","Lentiform Loewenfeld","3.3.7","yes","yes","600bd7cfb6416f0113b04181","602110864497cf011d9c0822","0","f","NA","space","space","space","NA","f","540","NA","2829","14814","2558","NA","540","2","legacy","1024","2","48000","-16","task","5220499","odd","NA","30367","35197","32368","104475","4718","22093","19534","104976","NA","104473","104976","104424","35197","105517","28723","103924","4697","96530","Lexical Decision Task","37","27537","43","yes","1024"
"3.460446784","0","5","dess","non-word","86.36363636363636","86.36363636363636","640.1363636363636","640.1363636363636","black","no","legacy","legacy","legacy","0","uniform","1","undefined","undefined","undefined","1","f","0","0","0","0","43","0","0","0","43","NA","39","43","39","0","39","3","43","0","43","Fri Feb 19 12:18:17 2021","The main experiment item","yes","Lexical_Decision_Task.osexp","C:/Users/camer","no","Andale Mono","no","18","no","white","no","yes","576","legacy","39","39","3","C:/Users/camer/subject-5220499.csv","legacy","Lentiform Loewenfeld","3.3.7","yes","yes","600bd7cfb6416f0113b04181","602110864497cf011d9c0822","0","f","NA","space","space","space","NA","f","629","NA","2829","14814","2558","NA","629","2","legacy","1024","2","48000","-16","task","5220499","odd","NA","30367","35197","32368","106067","4718","22093","19534","106568","NA","106066","106568","106020","35197","107197","28723","105520","4697","96530","Lexical Decision Task","38","28166","44","yes","1024"
"3.076883066","0","8","mout","non-word","86.66666666666667","86.66666666666667","640.8666666666667","640.8666666666667","black","no","legacy","legacy","legacy","0","uniform","1","undefined","undefined","undefined","1","f","0","0","0","0","44","0","0","0","44","NA","40","44","40","0","40","3","44","0","44","Fri Feb 19 12:18:17 2021","The main experiment item","yes","Lexical_Decision_Task.osexp","C:/Users/camer","no","Andale Mono","no","18","no","white","no","yes","576","legacy","40","40","3","C:/Users/camer/subject-5220499.csv","legacy","Lentiform Loewenfeld","3.3.7","yes","yes","600bd7cfb6416f0113b04181","602110864497cf011d9c0822","0","f","NA","space","space","space","NA","f","673","NA","2829","14814","2558","NA","673","2","legacy","1024","2","48000","-16","task","5220499","odd","NA","30367","35197","32368","107749","4718","22093","19534","108250","NA","107748","108251","107702","35197","108925","28723","107202","4697","96530","Lexical Decision Task","39","28839","45","yes","1024"
"3.119255889","6.63","2","itch","word","86.95652173913044","86.95652173913044","642.2391304347826","642.2391304347826","black","no","legacy","legacy","legacy","0","uniform","1","undefined","undefined","undefined","1","j","0","0","0","0","45","0","0","0","45","NA","41","45","41","0","41","3","45","0","45","Fri Feb 19 12:18:17 2021","The main experiment item","yes","Lexical_Decision_Task.osexp","C:/Users/camer","no","Andale Mono","no","18","no","white","no","yes","576","legacy","41","41","3","C:/Users/camer/subject-5220499.csv","legacy","Lentiform Loewenfeld","3.3.7","yes","yes","600bd7cfb6416f0113b04181","602110864497cf011d9c0822","0","j","NA","space","space","space","NA","j","704","NA","2829","14814","2558","NA","704","2","legacy","1024","2","48000","-16","task","5220499","odd","NA","30367","35197","32368","109479","4718","22093","19534","109980","NA","109478","109980","109430","35197","110685","28723","108930","4697","96530","Lexical Decision Task","40","29543","46","yes","1024"
"3.311895072","0","9","gung","non-word","87.23404255319149","87.23404255319149","649.3829787234042","649.3829787234042","black","no","legacy","legacy","legacy","0","uniform","1","undefined","undefined","undefined","1","f","0","0","0","0","46","0","0","0","46","NA","42","46","42","0","42","3","46","0","46","Fri Feb 19 12:18:17 2021","The main experiment item","yes","Lexical_Decision_Task.osexp","C:/Users/camer","no","Andale Mono","no","18","no","white","no","yes","576","legacy","42","42","3","C:/Users/camer/subject-5220499.csv","legacy","Lentiform Loewenfeld","3.3.7","yes","yes","600bd7cfb6416f0113b04181","602110864497cf011d9c0822","0","f","NA","space","space","space","NA","f","978","NA","2829","14814","2558","NA","978","2","legacy","1024","2","48000","-16","task","5220499","odd","NA","30367","35197","32368","111237","4718","22093","19534","111737","NA","111236","111738","111190","35197","112717","28723","110690","4697","96530","Lexical Decision Task","41","30521","47","yes","1024"
"3.195807436","0","6","stup","non-word","87.5","87.5","653.4166666666666","653.4166666666666","black","no","legacy","legacy","legacy","0","uniform","1","undefined","undefined","undefined","1","f","0","0","0","0","47","0","0","0","47","NA","43","47","43","0","43","3","47","0","47","Fri Feb 19 12:18:17 2021","The main experiment item","yes","Lexical_Decision_Task.osexp","C:/Users/camer","no","Andale Mono","no","18","no","white","no","yes","576","legacy","43","43","3","C:/Users/camer/subject-5220499.csv","legacy","Lentiform Loewenfeld","3.3.7","yes","yes","600bd7cfb6416f0113b04181","602110864497cf011d9c0822","0","f","NA","space","space","space","NA","f","843","NA","2829","14814","2558","NA","843","2","legacy","1024","2","48000","-16","task","5220499","odd","NA","30367","35197","32368","113269","4718","22093","19534","113770","NA","113268","113770","113222","35197","114613","28723","112722","4697","96530","Lexical Decision Task","42","31364","48","yes","1024"
"3.384413096","10.15","3","glad","word","87.75510204081633","87.75510204081633","652.0816326530612","652.0816326530612","black","no","legacy","legacy","legacy","0","uniform","1","undefined","undefined","undefined","1","j","0","0","0","0","48","0","0","0","48","NA","44","48","44","0","44","3","48","0","48","Fri Feb 19 12:18:17 2021","The main experiment item","yes","Lexical_Decision_Task.osexp","C:/Users/camer","no","Andale Mono","no","18","no","white","no","yes","576","legacy","44","44","3","C:/Users/camer/subject-5220499.csv","legacy","Lentiform Loewenfeld","3.3.7","yes","yes","600bd7cfb6416f0113b04181","602110864497cf011d9c0822","0","j","NA","space","space","space","NA","j","588","NA","2829","14814","2558","NA","588","2","legacy","1024","2","48000","-16","task","5220499","odd","NA","30367","35197","32368","115164","4718","22093","19534","115664","NA","115162","115665","115116","35197","116253","28723","114616","4697","96530","Lexical Decision Task","43","31952","49","yes","1024"
"3.440331212","7.35","6","stew","word","88","88","651.86","651.86","black","no","legacy","legacy","legacy","0","uniform","1","undefined","undefined","undefined","1","j","0","0","0","0","49","0","0","0","49","NA","45","49","45","0","45","3","49","0","49","Fri Feb 19 12:18:17 2021","The main experiment item","yes","Lexical_Decision_Task.osexp","C:/Users/camer","no","Andale Mono","no","18","no","white","no","yes","576","legacy","45","45","3","C:/Users/camer/subject-5220499.csv","legacy","Lentiform Loewenfeld","3.3.7","yes","yes","600bd7cfb6416f0113b04181","602110864497cf011d9c0822","0","j","NA","space","space","space","NA","j","641","NA","2829","14814","2558","NA","641","2","legacy","1024","2","48000","-16","task","5220499","odd","NA","30367","35197","32368","116806","4718","22093","19534","117307","NA","116804","117307","116758","35197","117949","28723","116258","4697","96530","Lexical Decision Task","44","32593","50","yes","1024"
"3.347850856","10.51","2","rich","word","88.23529411764706","88.23529411764706","651.3333333333334","651.3333333333334","black","no","legacy","legacy","legacy","0","uniform","1","undefined","undefined","undefined","1","j","0","0","0","0","50","0","0","0","50","NA","46","50","46","0","46","3","50","0","50","Fri Feb 19 12:18:17 2021","The main experiment item","yes","Lexical_Decision_Task.osexp","C:/Users/camer","no","Andale Mono","no","18","no","white","no","yes","576","legacy","46","46","3","C:/Users/camer/subject-5220499.csv","legacy","Lentiform Loewenfeld","3.3.7","yes","yes","600bd7cfb6416f0113b04181","602110864497cf011d9c0822","0","j","NA","space","space","space","NA","j","625","NA","2829","14814","2558","NA","625","2","legacy","1024","2","48000","-16","task","5220499","odd","NA","30367","35197","32368","118502","4718","22093","19534","119003","NA","118501","119003","118454","35197","119629","28723","117954","4697","96530","Lexical Decision Task","45","33218","51","yes","1024"
"2.821076612","0","4","lult","non-word","88.46153846153847","88.46153846153847","649.9423076923077","649.9423076923077","black","no","legacy","legacy","legacy","0","uniform","1","undefined","undefined","undefined","1","f","0","0","0","0","51","0","0","0","51","NA","47","51","47","0","47","3","51","0","51","Fri Feb 19 12:18:17 2021","The main experiment item","yes","Lexical_Decision_Task.osexp","C:/Users/camer","no","Andale Mono","no","18","no","white","no","yes","576","legacy","47","47","3","C:/Users/camer/subject-5220499.csv","legacy","Lentiform Loewenfeld","3.3.7","yes","yes","600bd7cfb6416f0113b04181","602110864497cf011d9c0822","0","f","NA","space","space","space","NA","f","579","NA","2829","14814","2558","NA","579","2","legacy","1024","2","48000","-16","task","5220499","odd","NA","30367","35197","32368","120180","4718","22093","19534","120681","NA","120178","120681","120132","35197","121261","28723","119632","4697","96530","Lexical Decision Task","46","33797","52","yes","1024"
"2.972357144","0","5","dasp","non-word","88.67924528301887","88.67924528301887","649.0566037735849","649.0566037735849","black","no","legacy","legacy","legacy","0","uniform","1","undefined","undefined","undefined","1","f","0","0","0","0","52","0","0","0","52","NA","48","52","48","0","48","3","52","0","52","Fri Feb 19 12:18:17 2021","The main experiment item","yes","Lexical_Decision_Task.osexp","C:/Users/camer","no","Andale Mono","no","18","no","white","no","yes","576","legacy","48","48","3","C:/Users/camer/subject-5220499.csv","legacy","Lentiform Loewenfeld","3.3.7","yes","yes","600bd7cfb6416f0113b04181","602110864497cf011d9c0822","0","f","NA","space","space","space","NA","f","603","NA","2829","14814","2558","NA","603","2","legacy","1024","2","48000","-16","task","5220499","odd","NA","30367","35197","32368","121813","4718","22093","19534","122314","NA","121811","122314","121766","35197","122918","28723","121266","4697","96530","Lexical Decision Task","47","34400","53","yes","1024"
"2.875447132","0","9","jelt","non-word","88.88888888888889","88.88888888888889","650.3703703703703","650.3703703703703","black","no","legacy","legacy","legacy","0","uniform","1","undefined","undefined","undefined","1","f","0","0","0","0","53","0","0","0","53","NA","49","53","49","0","49","3","53","0","53","Fri Feb 19 12:18:17 2021","The main experiment item","yes","Lexical_Decision_Task.osexp","C:/Users/camer","no","Andale Mono","no","18","no","white","no","yes","576","legacy","49","49","3","C:/Users/camer/subject-5220499.csv","legacy","Lentiform Loewenfeld","3.3.7","yes","yes","600bd7cfb6416f0113b04181","602110864497cf011d9c0822","0","f","NA","space","space","space","NA","f","720","NA","2829","14814","2558","NA","720","2","legacy","1024","2","48000","-16","task","5220499","odd","NA","30367","35197","32368","123472","4718","22093","19534","123973","NA","123471","123973","123422","35197","124693","28723","122922","4697","96530","Lexical Decision Task","48","35120","54","yes","1024"
"3.257359335","8","6","brew","word","89.0909090909091","89.0909090909091","648.7818181818182","648.7818181818182","black","no","legacy","legacy","legacy","0","uniform","1","undefined","undefined","undefined","1","j","0","0","0","0","54","0","0","0","54","0","50","54","50","0","50","3","54","0","54","Fri Feb 19 12:18:17 2021","The main experiment item","yes","Lexical_Decision_Task.osexp","C:/Users/camer","no","Andale Mono","no","18","no","white","no","yes","576","legacy","50","50","3","C:/Users/camer/subject-5220499.csv","legacy","Lentiform Loewenfeld","3.3.7","yes","yes","600bd7cfb6416f0113b04181","602110864497cf011d9c0822","0","j","NA","space","space","space","space","j","563","NA","2829","14814","2558","7819","563","2","legacy","1024","2","48000","-16","task","5220499","odd","NA","30367","35197","32368","133116","4718","22093","19534","133617","125225","133115","133617","125196","35197","134181","28723","124696","4697","96530","Lexical Decision Task","49","35683","55","yes","1024"
"2.880623071","0","9","curp","non-word","89.28571428571429","89.28571428571429","646.25","646.25","black","no","legacy","legacy","legacy","0","uniform","1","undefined","undefined","undefined","1","f","0","0","0","0","55","0","0","0","55","0","51","55","51","0","51","3","55","0","55","Fri Feb 19 12:18:17 2021","The main experiment item","yes","Lexical_Decision_Task.osexp","C:/Users/camer","no","Andale Mono","no","18","no","white","no","yes","576","legacy","51","51","3","C:/Users/camer/subject-5220499.csv","legacy","Lentiform Loewenfeld","3.3.7","yes","yes","600bd7cfb6416f0113b04181","602110864497cf011d9c0822","0","f","NA","space","space","space","space","f","507","NA","2829","14814","2558","7819","507","2","legacy","1024","2","48000","-16","task","5220499","odd","NA","30367","35197","32368","134733","4718","22093","19534","135234","125225","134732","135234","134686","35197","135741","28723","134186","4697","96530","Lexical Decision Task","50","36190","56","yes","1024"
"2.920123326","7.43","4","duel","word","87.71929824561404","87.71929824561404","643.4561403508771","643.4561403508771","black","no","legacy","legacy","legacy","0","uniform","0","undefined","undefined","undefined","0","j","0","0","0","0","56","0","0","0","56","0","52","56","52","0","52","3","56","0","56","Fri Feb 19 12:18:17 2021","The main experiment item","yes","Lexical_Decision_Task.osexp","C:/Users/camer","no","Andale Mono","no","18","no","white","no","yes","576","legacy","52","52","3","C:/Users/camer/subject-5220499.csv","legacy","Lentiform Loewenfeld","3.3.7","yes","yes","600bd7cfb6416f0113b04181","602110864497cf011d9c0822","0","f","NA","space","space","space","space","f","487","NA","2829","14814","2558","7819","487","2","legacy","1024","2","48000","-16","task","5220499","odd","NA","30367","35197","32368","136296","4718","22093","19534","136797","125225","136295","136797","136246","35197","137285","28723","135746","4697","96530","Lexical Decision Task","50","36677","57","yes","1024"
"3.378276681","6.39","8","bran","word","87.93103448275862","87.93103448275862","643.551724137931","643.551724137931","black","no","legacy","legacy","legacy","0","uniform","1","undefined","undefined","undefined","1","j","0","0","0","0","57","0","0","0","57","0","53","57","53","0","53","3","57","0","57","Fri Feb 19 12:18:17 2021","The main experiment item","yes","Lexical_Decision_Task.osexp","C:/Users/camer","no","Andale Mono","no","18","no","white","no","yes","576","legacy","53","53","3","C:/Users/camer/subject-5220499.csv","legacy","Lentiform Loewenfeld","3.3.7","yes","yes","600bd7cfb6416f0113b04181","602110864497cf011d9c0822","0","j","NA","space","space","space","space","j","649","NA","2829","14814","2558","7819","649","2","legacy","1024","2","48000","-16","task","5220499","odd","NA","30367","35197","32368","138838","4718","22093","19534","139339","125225","138837","139339","138790","35197","139989","28723","135746","4697","137290","Lexical Decision Task","51","37326","58","yes","1024"
"3.705778213","0","6","stin","non-word","88.13559322033899","88.13559322033899","642.4406779661017","642.4406779661017","black","no","legacy","legacy","legacy","0","uniform","1","undefined","undefined","undefined","1","f","0","0","0","0","58","0","0","0","58","0","54","58","54","0","54","3","58","0","58","Fri Feb 19 12:18:17 2021","The main experiment item","yes","Lexical_Decision_Task.osexp","C:/Users/camer","no","Andale Mono","no","18","no","white","no","yes","576","legacy","54","54","3","C:/Users/camer/subject-5220499.csv","legacy","Lentiform Loewenfeld","3.3.7","yes","yes","600bd7cfb6416f0113b04181","602110864497cf011d9c0822","0","f","NA","space","space","space","space","f","578","NA","2829","14814","2558","7819","578","2","legacy","1024","2","48000","-16","task","5220499","odd","NA","30367","35197","32368","140542","4718","22093","19534","141043","125225","140540","141043","140493","35197","141622","28723","139993","4697","137290","Lexical Decision Task","52","37904","59","yes","1024"
"3.174641193","0","3","ramb","non-word","88.33333333333333","88.33333333333333","644.8","644.8","black","no","legacy","legacy","legacy","0","uniform","1","undefined","undefined","undefined","1","f","0","0","0","0","59","0","0","0","59","0","55","59","55","0","55","3","59","0","59","Fri Feb 19 12:18:17 2021","The main experiment item","yes","Lexical_Decision_Task.osexp","C:/Users/camer","no","Andale Mono","no","18","no","white","no","yes","576","legacy","55","55","3","C:/Users/camer/subject-5220499.csv","legacy","Lentiform Loewenfeld","3.3.7","yes","yes","600bd7cfb6416f0113b04181","602110864497cf011d9c0822","0","f","NA","space","space","space","space","f","784","NA","2829","14814","2558","7819","784","2","legacy","1024","2","48000","-16","task","5220499","odd","NA","30367","35197","32368","142175","4718","22093","19534","142676","125225","142174","142676","142126","35197","143461","28723","141626","4697","137290","Lexical Decision Task","53","38688","60","yes","1024"
"3.134602053","0","8","jart","non-word","88.52459016393442","88.52459016393442","646.3770491803278","646.3770491803278","black","no","legacy","legacy","legacy","0","uniform","1","undefined","undefined","undefined","1","f","0","0","0","0","60","0","0","0","60","0","56","60","56","0","56","3","60","0","60","Fri Feb 19 12:18:17 2021","The main experiment item","yes","Lexical_Decision_Task.osexp","C:/Users/camer","no","Andale Mono","no","18","no","white","no","yes","576","legacy","56","56","3","C:/Users/camer/subject-5220499.csv","legacy","Lentiform Loewenfeld","3.3.7","yes","yes","600bd7cfb6416f0113b04181","602110864497cf011d9c0822","0","f","NA","space","space","space","space","f","741","NA","2829","14814","2558","7819","741","2","legacy","1024","2","48000","-16","task","5220499","odd","NA","30367","35197","32368","144018","4718","22093","19534","144519","125225","144017","144519","143970","35197","145261","28723","143469","4697","137290","Lexical Decision Task","54","39429","61","yes","1024"
"2.838639236","0","4","furg","non-word","88.70967741935483","88.70967741935483","645.5322580645161","645.5322580645161","black","no","legacy","legacy","legacy","0","uniform","1","undefined","undefined","undefined","1","f","0","0","0","0","61","0","0","0","61","0","57","61","57","0","57","3","61","0","61","Fri Feb 19 12:18:17 2021","The main experiment item","yes","Lexical_Decision_Task.osexp","C:/Users/camer","no","Andale Mono","no","18","no","white","no","yes","576","legacy","57","57","3","C:/Users/camer/subject-5220499.csv","legacy","Lentiform Loewenfeld","3.3.7","yes","yes","600bd7cfb6416f0113b04181","602110864497cf011d9c0822","0","f","NA","space","space","space","space","f","594","NA","2829","14814","2558","7819","594","2","legacy","1024","2","48000","-16","task","5220499","odd","NA","30367","35197","32368","145814","4718","22093","19534","146314","125225","145812","146314","145765","35197","146909","28723","145265","4697","137290","Lexical Decision Task","55","40023","62","yes","1024"
"2.6599162","0","2","saff","non-word","88.88888888888889","88.88888888888889","646.2380952380952","646.2380952380952","black","no","legacy","legacy","legacy","0","uniform","1","undefined","undefined","undefined","1","f","0","0","0","0","62","0","0","0","62","0","58","62","58","0","58","3","62","0","62","Fri Feb 19 12:18:17 2021","The main experiment item","yes","Lexical_Decision_Task.osexp","C:/Users/camer","no","Andale Mono","no","18","no","white","no","yes","576","legacy","58","58","3","C:/Users/camer/subject-5220499.csv","legacy","Lentiform Loewenfeld","3.3.7","yes","yes","600bd7cfb6416f0113b04181","602110864497cf011d9c0822","0","f","NA","space","space","space","space","f","690","NA","2829","14814","2558","7819","690","2","legacy","1024","2","48000","-16","task","5220499","odd","NA","30367","35197","32368","147462","4718","22093","19534","147962","125225","147461","147962","147414","35197","148653","28723","146914","4697","137290","Lexical Decision Task","56","40713","63","yes","1024"
"2.693726949","5.08","3","swig","word","89.0625","89.0625","646.296875","646.296875","black","no","legacy","legacy","legacy","0","uniform","1","undefined","undefined","undefined","1","j","0","0","0","0","63","0","0","0","63","0","59","63","59","0","59","3","63","0","63","Fri Feb 19 12:18:17 2021","The main experiment item","yes","Lexical_Decision_Task.osexp","C:/Users/camer","no","Andale Mono","no","18","no","white","no","yes","576","legacy","59","59","3","C:/Users/camer/subject-5220499.csv","legacy","Lentiform Loewenfeld","3.3.7","yes","yes","600bd7cfb6416f0113b04181","602110864497cf011d9c0822","0","j","NA","space","space","space","space","j","650","NA","2829","14814","2558","7819","650","2","legacy","1024","2","48000","-16","task","5220499","odd","NA","30367","35197","32368","149213","4718","22093","19534","149714","125225","149212","149714","149160","35197","150365","28723","148660","4697","137290","Lexical Decision Task","57","41363","64","yes","1024"
"3.488597715","0","9","nain","non-word","89.23076923076923","89.23076923076923","645.9692307692308","645.9692307692308","black","no","legacy","legacy","legacy","0","uniform","1","undefined","undefined","undefined","1","f","0","0","0","0","64","0","0","0","64","0","60","64","60","0","60","3","64","0","64","Fri Feb 19 12:18:17 2021","The main experiment item","yes","Lexical_Decision_Task.osexp","C:/Users/camer","no","Andale Mono","no","18","no","white","no","yes","576","legacy","60","60","3","C:/Users/camer/subject-5220499.csv","legacy","Lentiform Loewenfeld","3.3.7","yes","yes","600bd7cfb6416f0113b04181","602110864497cf011d9c0822","0","f","NA","space","space","space","space","f","625","NA","2829","14814","2558","7819","625","2","legacy","1024","2","48000","-16","task","5220499","odd","NA","30367","35197","32368","150920","4718","22093","19534","151420","125225","150919","151420","150873","35197","152045","28723","150373","4697","137290","Lexical Decision Task","58","41988","65","yes","1024"
"3.145920145","8.51","8","flew","word","89.39393939393939","89.39393939393939","645.1666666666666","645.1666666666666","black","no","legacy","legacy","legacy","0","uniform","1","undefined","undefined","undefined","1","j","0","0","0","0","65","0","0","0","65","0","61","65","61","0","61","3","65","0","65","Fri Feb 19 12:18:17 2021","The main experiment item","yes","Lexical_Decision_Task.osexp","C:/Users/camer","no","Andale Mono","no","18","no","white","no","yes","576","legacy","61","61","3","C:/Users/camer/subject-5220499.csv","legacy","Lentiform Loewenfeld","3.3.7","yes","yes","600bd7cfb6416f0113b04181","602110864497cf011d9c0822","0","j","NA","space","space","space","space","j","593","NA","2829","14814","2558","7819","593","2","legacy","1024","2","48000","-16","task","5220499","odd","NA","30367","35197","32368","152598","4718","22093","19534","153099","125225","152597","153099","152550","35197","153693","28723","152050","4697","137290","Lexical Decision Task","59","42581","66","yes","1024"
"2.979548375","8.71","4","soup","word","89.55223880597015","89.55223880597015","644.2835820895523","644.2835820895523","black","no","legacy","legacy","legacy","0","uniform","1","undefined","undefined","undefined","1","j","0","0","0","0","66","0","0","0","66","0","62","66","62","0","62","3","66","0","66","Fri Feb 19 12:18:17 2021","The main experiment item","yes","Lexical_Decision_Task.osexp","C:/Users/camer","no","Andale Mono","no","18","no","white","no","yes","576","legacy","62","62","3","C:/Users/camer/subject-5220499.csv","legacy","Lentiform Loewenfeld","3.3.7","yes","yes","600bd7cfb6416f0113b04181","602110864497cf011d9c0822","0","j","NA","space","space","space","space","j","586","NA","2829","14814","2558","7819","586","2","legacy","1024","2","48000","-16","task","5220499","odd","NA","30367","35197","32368","154252","4718","22093","19534","154754","125225","154251","154754","154198","35197","155341","28723","153698","4697","137290","Lexical Decision Task","60","43167","67","yes","1024"
"2.744553742","0","2","nawk","non-word","89.70588235294117","89.70588235294117","641.1911764705883","641.1911764705883","black","no","legacy","legacy","legacy","0","uniform","1","undefined","undefined","undefined","1","f","0","0","0","0","67","0","0","0","67","0","63","67","63","0","63","3","67","0","67","Fri Feb 19 12:18:17 2021","The main experiment item","yes","Lexical_Decision_Task.osexp","C:/Users/camer","no","Andale Mono","no","18","no","white","no","yes","576","legacy","63","63","3","C:/Users/camer/subject-5220499.csv","legacy","Lentiform Loewenfeld","3.3.7","yes","yes","600bd7cfb6416f0113b04181","602110864497cf011d9c0822","0","f","NA","space","space","space","space","f","434","NA","2829","14814","2558","7819","434","2","legacy","1024","2","48000","-16","task","5220499","odd","NA","30367","35197","32368","155894","4718","22093","19534","156395","125225","155893","156395","155847","35197","156829","28723","155347","4697","137290","Lexical Decision Task","61","43601","68","yes","1024"
"3.303771854","0","9","dath","non-word","89.85507246376811","89.85507246376811","641.5797101449275","641.5797101449275","black","no","legacy","legacy","legacy","0","uniform","1","undefined","undefined","undefined","1","f","0","0","0","0","68","0","0","0","68","0","64","68","64","0","64","3","68","0","68","Fri Feb 19 12:18:17 2021","The main experiment item","yes","Lexical_Decision_Task.osexp","C:/Users/camer","no","Andale Mono","no","18","no","white","no","yes","576","legacy","64","64","3","C:/Users/camer/subject-5220499.csv","legacy","Lentiform Loewenfeld","3.3.7","yes","yes","600bd7cfb6416f0113b04181","602110864497cf011d9c0822","0","f","NA","space","space","space","space","f","668","NA","2829","14814","2558","7819","668","2","legacy","1024","2","48000","-16","task","5220499","odd","NA","30367","35197","32368","157381","4718","22093","19534","157881","125225","157380","157881","157334","35197","158550","28723","156834","4697","137290","Lexical Decision Task","62","44269","69","yes","1024"
"3.091901331","0","9","nipe","non-word","90","90","641.9","641.9","black","no","legacy","legacy","legacy","0","uniform","1","undefined","undefined","undefined","1","f","0","0","0","0","69","0","0","0","69","0","65","69","65","0","65","3","69","0","69","Fri Feb 19 12:18:17 2021","The main experiment item","yes","Lexical_Decision_Task.osexp","C:/Users/camer","no","Andale Mono","no","18","no","white","no","yes","576","legacy","65","65","3","C:/Users/camer/subject-5220499.csv","legacy","Lentiform Loewenfeld","3.3.7","yes","yes","600bd7cfb6416f0113b04181","602110864497cf011d9c0822","0","f","NA","space","space","space","space","f","664","NA","2829","14814","2558","7819","664","2","legacy","1024","2","48000","-16","task","5220499","odd","NA","30367","35197","32368","159104","4718","22093","19534","159604","125225","159103","159605","159056","35197","160269","28723","158556","4697","137290","Lexical Decision Task","63","44933","70","yes","1024"
"2.695481676","0","7","goke","non-word","90.14084507042253","90.14084507042253","642.0985915492957","642.0985915492957","black","no","legacy","legacy","legacy","0","uniform","1","undefined","undefined","undefined","1","f","0","0","0","0","70","0","0","0","70","0","66","70","66","0","66","3","70","0","70","Fri Feb 19 12:18:17 2021","The main experiment item","yes","Lexical_Decision_Task.osexp","C:/Users/camer","no","Andale Mono","no","18","no","white","no","yes","576","legacy","66","66","3","C:/Users/camer/subject-5220499.csv","legacy","Lentiform Loewenfeld","3.3.7","yes","yes","600bd7cfb6416f0113b04181","602110864497cf011d9c0822","0","f","NA","space","space","space","space","f","656","NA","2829","14814","2558","7819","656","2","legacy","1024","2","48000","-16","task","5220499","odd","NA","30367","35197","32368","160823","4718","22093","19534","161324","125225","160822","161324","160774","35197","161981","28723","160274","4697","137290","Lexical Decision Task","64","45589","71","yes","1024"
"3.269668578","0","7","trag","non-word","90.27777777777777","90.27777777777777","643.2916666666666","643.2916666666666","black","no","legacy","legacy","legacy","0","uniform","1","undefined","undefined","undefined","1","f","0","0","0","0","71","0","0","0","71","0","67","71","67","0","67","3","71","0","71","Fri Feb 19 12:18:17 2021","The main experiment item","yes","Lexical_Decision_Task.osexp","C:/Users/camer","no","Andale Mono","no","18","no","white","no","yes","576","legacy","67","67","3","C:/Users/camer/subject-5220499.csv","legacy","Lentiform Loewenfeld","3.3.7","yes","yes","600bd7cfb6416f0113b04181","602110864497cf011d9c0822","0","f","NA","space","space","space","space","f","728","NA","2829","14814","2558","7819","728","2","legacy","1024","2","48000","-16","task","5220499","odd","NA","30367","35197","32368","162535","4718","22093","19534","163036","125225","162534","163036","162486","35197","163765","28723","161985","4697","137290","Lexical Decision Task","65","46317","72","yes","1024"
"2.594027722","9.08","8","skip","word","90.41095890410959","90.41095890410959","642.082191780822","642.082191780822","black","no","legacy","legacy","legacy","0","uniform","1","undefined","undefined","undefined","1","j","0","0","0","0","72","0","0","0","72","0","68","72","68","0","68","3","72","0","72","Fri Feb 19 12:18:17 2021","The main experiment item","yes","Lexical_Decision_Task.osexp","C:/Users/camer","no","Andale Mono","no","18","no","white","no","yes","576","legacy","68","68","3","C:/Users/camer/subject-5220499.csv","legacy","Lentiform Loewenfeld","3.3.7","yes","yes","600bd7cfb6416f0113b04181","602110864497cf011d9c0822","0","j","NA","space","space","space","space","j","555","NA","2829","14814","2558","7819","555","2","legacy","1024","2","48000","-16","task","5220499","odd","NA","30367","35197","32368","164324","4718","22093","19534","164825","125225","164323","164825","164270","35197","165381","28723","163770","4697","137290","Lexical Decision Task","66","46872","73","yes","1024"
"3.363486562","6.93","9","lush","word","90.54054054054055","90.54054054054055","641.0945945945946","641.0945945945946","black","no","legacy","legacy","legacy","0","uniform","1","undefined","undefined","undefined","1","j","0","0","0","0","73","0","0","0","73","0","69","73","69","0","69","3","73","0","73","Fri Feb 19 12:18:17 2021","The main experiment item","yes","Lexical_Decision_Task.osexp","C:/Users/camer","no","Andale Mono","no","18","no","white","no","yes","576","legacy","69","69","3","C:/Users/camer/subject-5220499.csv","legacy","Lentiform Loewenfeld","3.3.7","yes","yes","600bd7cfb6416f0113b04181","602110864497cf011d9c0822","0","j","NA","space","space","space","space","j","569","NA","2829","14814","2558","7819","569","2","legacy","1024","2","48000","-16","task","5220499","odd","NA","30367","35197","32368","165934","4718","22093","19534","166435","125225","165933","166435","165886","35197","167005","28723","165386","4697","137290","Lexical Decision Task","67","47441","74","yes","1024"
"2.719886232","7.98","2","quiz","word","90.66666666666667","90.66666666666667","640.2933333333333","640.2933333333333","black","no","legacy","legacy","legacy","0","uniform","1","undefined","undefined","undefined","1","j","0","0","0","0","74","0","0","0","74","0","70","74","70","0","70","3","74","0","74","Fri Feb 19 12:18:17 2021","The main experiment item","yes","Lexical_Decision_Task.osexp","C:/Users/camer","no","Andale Mono","no","18","no","white","no","yes","576","legacy","70","70","3","C:/Users/camer/subject-5220499.csv","legacy","Lentiform Loewenfeld","3.3.7","yes","yes","600bd7cfb6416f0113b04181","602110864497cf011d9c0822","0","j","NA","space","space","space","space","j","581","NA","2829","14814","2558","7819","581","2","legacy","1024","2","48000","-16","task","5220499","odd","NA","30367","35197","32368","167563","4718","22093","19534","168064","125225","167562","168064","167510","35197","168646","28723","167010","4697","137290","Lexical Decision Task","68","48022","75","yes","1024"
"3.299579929","0","2","flis","non-word","90.78947368421052","90.78947368421052","639.25","639.25","black","no","legacy","legacy","legacy","0","uniform","1","undefined","undefined","undefined","1","f","0","0","0","0","75","0","0","0","75","0","71","75","71","0","71","3","75","0","75","Fri Feb 19 12:18:17 2021","The main experiment item","yes","Lexical_Decision_Task.osexp","C:/Users/camer","no","Andale Mono","no","18","no","white","no","yes","576","legacy","71","71","3","C:/Users/camer/subject-5220499.csv","legacy","Lentiform Loewenfeld","3.3.7","yes","yes","600bd7cfb6416f0113b04181","602110864497cf011d9c0822","0","f","NA","space","space","space","space","f","561","NA","2829","14814","2558","7819","561","2","legacy","1024","2","48000","-16","task","5220499","odd","NA","30367","35197","32368","169207","4718","22093","19534","169707","125225","169206","169708","169154","35197","170269","28723","168654","4697","137290","Lexical Decision Task","69","48583","76","yes","1024"
"3.29439347","8.6","9","wand","word","90.9090909090909","90.9090909090909","638.4675324675325","638.4675324675325","black","no","legacy","legacy","legacy","0","uniform","1","undefined","undefined","undefined","1","j","0","0","0","0","76","0","0","0","76","0","72","76","72","0","72","3","76","0","76","Fri Feb 19 12:18:17 2021","The main experiment item","yes","Lexical_Decision_Task.osexp","C:/Users/camer","no","Andale Mono","no","18","no","white","no","yes","576","legacy","72","72","3","C:/Users/camer/subject-5220499.csv","legacy","Lentiform Loewenfeld","3.3.7","yes","yes","600bd7cfb6416f0113b04181","602110864497cf011d9c0822","0","j","NA","space","space","space","space","j","579","NA","2829","14814","2558","7819","579","2","legacy","1024","2","48000","-16","task","5220499","odd","NA","30367","35197","32368","170828","4718","22093","19534","171329","125225","170826","171329","170774","35197","171909","28723","170274","4697","137290","Lexical Decision Task","70","49162","77","yes","1024"
"3.531734309","0","6","lerd","non-word","91.02564102564102","91.02564102564102","636.3846153846154","636.3846153846154","black","no","legacy","legacy","legacy","0","uniform","1","undefined","undefined","undefined","1","f","0","0","0","0","77","0","0","0","77","0","73","77","73","0","73","3","77","0","77","Fri Feb 19 12:18:17 2021","The main experiment item","yes","Lexical_Decision_Task.osexp","C:/Users/camer","no","Andale Mono","no","18","no","white","no","yes","576","legacy","73","73","3","C:/Users/camer/subject-5220499.csv","legacy","Lentiform Loewenfeld","3.3.7","yes","yes","600bd7cfb6416f0113b04181","602110864497cf011d9c0822","0","f","NA","space","space","space","space","f","476","NA","2829","14814","2558","7819","476","2","legacy","1024","2","48000","-16","task","5220499","odd","NA","30367","35197","32368","172460","4718","22093","19534","172960","125225","172458","172960","172412","35197","173437","28723","171912","4697","137290","Lexical Decision Task","71","49638","78","yes","1024"
"3.366547468","0","6","plat","non-word","91.13924050632912","91.13924050632912","635.8354430379746","635.8354430379746","black","no","legacy","legacy","legacy","0","uniform","1","undefined","undefined","undefined","1","f","0","0","0","0","78","0","0","0","78","0","74","78","74","0","74","3","78","0","78","Fri Feb 19 12:18:17 2021","The main experiment item","yes","Lexical_Decision_Task.osexp","C:/Users/camer","no","Andale Mono","no","18","no","white","no","yes","576","legacy","74","74","3","C:/Users/camer/subject-5220499.csv","legacy","Lentiform Loewenfeld","3.3.7","yes","yes","600bd7cfb6416f0113b04181","602110864497cf011d9c0822","0","f","NA","space","space","space","space","f","593","NA","2829","14814","2558","7819","593","2","legacy","1024","2","48000","-16","task","5220499","odd","NA","30367","35197","32368","173990","4718","22093","19534","174490","125225","173989","174491","173941","35197","175085","28723","173440","4697","137290","Lexical Decision Task","72","50231","79","yes","1024"
"3.382617311","0","4","pret","non-word","91.25","91.25","636.975","636.975","black","no","legacy","legacy","legacy","0","uniform","1","undefined","undefined","undefined","1","f","0","0","0","0","79","0","0","0","79","0","75","79","75","0","75","3","79","0","79","Fri Feb 19 12:18:17 2021","The main experiment item","yes","Lexical_Decision_Task.osexp","C:/Users/camer","no","Andale Mono","no","18","no","white","no","yes","576","legacy","75","75","3","C:/Users/camer/subject-5220499.csv","legacy","Lentiform Loewenfeld","3.3.7","yes","yes","600bd7cfb6416f0113b04181","602110864497cf011d9c0822","0","f","NA","space","space","space","space","f","727","NA","2829","14814","2558","7819","727","2","legacy","1024","2","48000","-16","task","5220499","odd","NA","30367","35197","32368","175641","4718","22093","19534","176141","125225","175640","176142","175594","35197","176869","28723","175094","4697","137290","Lexical Decision Task","73","50958","80","yes","1024"
"2.68604012","0","4","pumb","non-word","90.12345679012346","90.12345679012346","636.1604938271605","636.1604938271605","black","no","legacy","legacy","legacy","0","uniform","0","undefined","undefined","undefined","0","f","0","0","0","0","80","0","0","0","80","0","76","80","76","0","76","3","80","0","80","Fri Feb 19 12:18:17 2021","The main experiment item","yes","Lexical_Decision_Task.osexp","C:/Users/camer","no","Andale Mono","no","18","no","white","no","yes","576","legacy","76","76","3","C:/Users/camer/subject-5220499.csv","legacy","Lentiform Loewenfeld","3.3.7","yes","yes","600bd7cfb6416f0113b04181","602110864497cf011d9c0822","0","j","NA","space","space","space","space","j","571","NA","2829","14814","2558","7819","571","2","legacy","1024","2","48000","-16","task","5220499","odd","NA","30367","35197","32368","177421","4718","22093","19534","177921","125225","177420","177922","177374","35197","178494","28723","176874","4697","137290","Lexical Decision Task","73","51529","81","yes","1024"
"3.039414119","0","9","meep","non-word","90.2439024390244","90.2439024390244","634.6829268292682","634.6829268292682","black","no","legacy","legacy","legacy","0","uniform","1","undefined","undefined","undefined","1","f","0","0","0","0","81","0","0","0","81","0","77","81","77","0","77","3","81","0","81","Fri Feb 19 12:18:17 2021","The main experiment item","yes","Lexical_Decision_Task.osexp","C:/Users/camer","no","Andale Mono","no","18","no","white","no","yes","576","legacy","77","77","3","C:/Users/camer/subject-5220499.csv","legacy","Lentiform Loewenfeld","3.3.7","yes","yes","600bd7cfb6416f0113b04181","602110864497cf011d9c0822","0","f","NA","space","space","space","space","f","515","NA","2829","14814","2558","7819","515","2","legacy","1024","2","48000","-16","task","5220499","odd","NA","30367","35197","32368","180045","4718","22093","19534","180545","125225","180043","180546","179997","35197","181062","28723","176874","4697","178497","Lexical Decision Task","74","52044","82","yes","1024"
"2.784379519","0","2","snaf","non-word","90.36144578313252","90.36144578313252","634.0240963855422","634.0240963855422","black","no","legacy","legacy","legacy","0","uniform","1","undefined","undefined","undefined","1","f","0","0","0","0","82","0","0","0","82","0","78","82","78","0","78","3","82","0","82","Fri Feb 19 12:18:17 2021","The main experiment item","yes","Lexical_Decision_Task.osexp","C:/Users/camer","no","Andale Mono","no","18","no","white","no","yes","576","legacy","78","78","3","C:/Users/camer/subject-5220499.csv","legacy","Lentiform Loewenfeld","3.3.7","yes","yes","600bd7cfb6416f0113b04181","602110864497cf011d9c0822","0","f","NA","space","space","space","space","f","580","NA","2829","14814","2558","7819","580","2","legacy","1024","2","48000","-16","task","5220499","odd","NA","30367","35197","32368","181612","4718","22093","19534","182112","125225","181611","182113","181565","35197","182693","28723","181065","4697","178497","Lexical Decision Task","75","52624","83","yes","1024"
"2.778633532","0","3","jurp","non-word","90.47619047619048","90.47619047619048","633.0238095238095","633.0238095238095","black","no","legacy","legacy","legacy","0","uniform","1","undefined","undefined","undefined","1","f","0","0","0","0","83","0","0","0","83","0","79","83","79","0","79","3","83","0","83","Fri Feb 19 12:18:17 2021","The main experiment item","yes","Lexical_Decision_Task.osexp","C:/Users/camer","no","Andale Mono","no","18","no","white","no","yes","576","legacy","79","79","3","C:/Users/camer/subject-5220499.csv","legacy","Lentiform Loewenfeld","3.3.7","yes","yes","600bd7cfb6416f0113b04181","602110864497cf011d9c0822","0","f","NA","space","space","space","space","f","550","NA","2829","14814","2558","7819","550","2","legacy","1024","2","48000","-16","task","5220499","odd","NA","30367","35197","32368","183258","4718","22093","19534","183758","125225","183257","183758","183199","35197","184309","28723","182699","4697","178497","Lexical Decision Task","76","53174","84","yes","1024"
"2.986323777","10.85","8","ship","word","90.58823529411765","90.58823529411765","632.8470588235294","632.8470588235294","black","no","legacy","legacy","legacy","0","uniform","1","undefined","undefined","undefined","1","j","0","0","0","0","84","0","0","0","84","0","80","84","80","0","80","3","84","0","84","Fri Feb 19 12:18:17 2021","The main experiment item","yes","Lexical_Decision_Task.osexp","C:/Users/camer","no","Andale Mono","no","18","no","white","no","yes","576","legacy","80","80","3","C:/Users/camer/subject-5220499.csv","legacy","Lentiform Loewenfeld","3.3.7","yes","yes","600bd7cfb6416f0113b04181","602110864497cf011d9c0822","0","j","NA","space","space","space","space","j","618","NA","2829","14814","2558","7819","618","2","legacy","1024","2","48000","-16","task","5220499","odd","NA","30367","35197","32368","184862","4718","22093","19534","185362","125225","184860","185362","184815","35197","185981","28723","184315","4697","178497","Lexical Decision Task","77","53792","85","yes","1024"
"2.842815106","7.86","8","lump","word","89.53488372093024","89.53488372093024","632.4651162790698","632.4651162790698","black","no","legacy","legacy","legacy","0","uniform","0","undefined","undefined","undefined","0","j","0","0","0","0","85","0","0","0","85","0","81","85","81","0","81","3","85","0","85","Fri Feb 19 12:18:17 2021","The main experiment item","yes","Lexical_Decision_Task.osexp","C:/Users/camer","no","Andale Mono","no","18","no","white","no","yes","576","legacy","81","81","3","C:/Users/camer/subject-5220499.csv","legacy","Lentiform Loewenfeld","3.3.7","yes","yes","600bd7cfb6416f0113b04181","602110864497cf011d9c0822","0","f","NA","space","space","space","space","f","600","NA","2829","14814","2558","7819","600","2","legacy","1024","2","48000","-16","task","5220499","odd","NA","30367","35197","32368","186535","4718","22093","19534","187035","125225","186534","187036","186487","35197","187637","28723","185987","4697","178497","Lexical Decision Task","77","54392","86","yes","1024"
"2.675164031","8.57","6","glue","word","89.65517241379311","89.65517241379311","632.1379310344828","632.1379310344828","black","no","legacy","legacy","legacy","0","uniform","1","undefined","undefined","undefined","1","j","0","0","0","0","86","0","0","0","86","0","82","86","82","0","82","3","86","0","86","Fri Feb 19 12:18:17 2021","The main experiment item","yes","Lexical_Decision_Task.osexp","C:/Users/camer","no","Andale Mono","no","18","no","white","no","yes","576","legacy","82","82","3","C:/Users/camer/subject-5220499.csv","legacy","Lentiform Loewenfeld","3.3.7","yes","yes","600bd7cfb6416f0113b04181","602110864497cf011d9c0822","0","j","NA","space","space","space","space","j","604","NA","2829","14814","2558","7819","604","2","legacy","1024","2","48000","-16","task","5220499","odd","NA","30367","35197","32368","189202","4718","22093","19534","189704","125225","189201","189704","189145","35197","190309","28723","185987","4697","187645","Lexical Decision Task","78","54996","87","yes","1024"
"3.149629599","0","2","cleb","non-word","89.77272727272727","89.77272727272727","631.3977272727273","631.3977272727273","black","no","legacy","legacy","legacy","0","uniform","1","undefined","undefined","undefined","1","f","0","0","0","0","87","0","0","0","87","0","83","87","83","0","83","3","87","0","87","Fri Feb 19 12:18:17 2021","The main experiment item","yes","Lexical_Decision_Task.osexp","C:/Users/camer","no","Andale Mono","no","18","no","white","no","yes","576","legacy","83","83","3","C:/Users/camer/subject-5220499.csv","legacy","Lentiform Loewenfeld","3.3.7","yes","yes","600bd7cfb6416f0113b04181","602110864497cf011d9c0822","0","f","NA","space","space","space","space","f","567","NA","2829","14814","2558","7819","567","2","legacy","1024","2","48000","-16","task","5220499","odd","NA","30367","35197","32368","190864","4718","22093","19534","191365","125225","190863","191365","190817","35197","191933","28723","190317","4697","187645","Lexical Decision Task","79","55563","88","yes","1024"
"3.374137706","10.21","4","tree","word","89.88764044943821","89.88764044943821","631.4269662921348","631.4269662921348","black","no","legacy","legacy","legacy","0","uniform","1","undefined","undefined","undefined","1","j","0","0","0","0","88","0","0","0","88","0","84","88","84","0","84","3","88","0","88","Fri Feb 19 12:18:17 2021","The main experiment item","yes","Lexical_Decision_Task.osexp","C:/Users/camer","no","Andale Mono","no","18","no","white","no","yes","576","legacy","84","84","3","C:/Users/camer/subject-5220499.csv","legacy","Lentiform Loewenfeld","3.3.7","yes","yes","600bd7cfb6416f0113b04181","602110864497cf011d9c0822","0","j","NA","space","space","space","space","j","634","NA","2829","14814","2558","7819","634","2","legacy","1024","2","48000","-16","task","5220499","odd","NA","30367","35197","32368","192486","4718","22093","19534","192988","125225","192485","192994","192437","35197","193629","28723","191937","4697","187645","Lexical Decision Task","80","56197","89","yes","1024"
"3.282244367","0","6","fute","non-word","90","90","632.9888888888889","632.9888888888889","black","no","legacy","legacy","legacy","0","uniform","1","undefined","undefined","undefined","1","f","0","0","0","0","89","0","0","0","89","0","85","89","85","0","85","3","89","0","89","Fri Feb 19 12:18:17 2021","The main experiment item","yes","Lexical_Decision_Task.osexp","C:/Users/camer","no","Andale Mono","no","18","no","white","no","yes","576","legacy","85","85","3","C:/Users/camer/subject-5220499.csv","legacy","Lentiform Loewenfeld","3.3.7","yes","yes","600bd7cfb6416f0113b04181","602110864497cf011d9c0822","0","f","NA","space","space","space","space","f","772","NA","2829","14814","2558","7819","772","2","legacy","1024","2","48000","-16","task","5220499","odd","NA","30367","35197","32368","194187","4718","22093","19534","194688","125225","194185","194688","194134","35197","195461","28723","193634","4697","187645","Lexical Decision Task","81","56969","90","yes","1024"
"3.043885998","0","9","gome","non-word","90.10989010989012","90.10989010989012","634.2967032967033","634.2967032967033","black","no","legacy","legacy","legacy","0","uniform","1","undefined","undefined","undefined","1","f","0","0","0","0","90","0","0","0","90","0","86","90","86","0","86","3","90","0","90","Fri Feb 19 12:18:17 2021","The main experiment item","yes","Lexical_Decision_Task.osexp","C:/Users/camer","no","Andale Mono","no","18","no","white","no","yes","576","legacy","86","86","3","C:/Users/camer/subject-5220499.csv","legacy","Lentiform Loewenfeld","3.3.7","yes","yes","600bd7cfb6416f0113b04181","602110864497cf011d9c0822","0","f","NA","space","space","space","space","f","752","NA","2829","14814","2558","7819","752","2","legacy","1024","2","48000","-16","task","5220499","odd","NA","30367","35197","32368","196015","4718","22093","19534","196516","125225","196014","196516","195967","35197","197269","28723","195467","4697","187645","Lexical Decision Task","82","57721","91","yes","1024"
"2.897810299","0","5","glur","non-word","90.21739130434783","90.21739130434783","633.945652173913","633.945652173913","black","no","legacy","legacy","legacy","0","uniform","1","undefined","undefined","undefined","1","f","0","0","0","0","91","0","0","0","91","0","87","91","87","0","87","3","91","0","91","Fri Feb 19 12:18:17 2021","The main experiment item","yes","Lexical_Decision_Task.osexp","C:/Users/camer","no","Andale Mono","no","18","no","white","no","yes","576","legacy","87","87","3","C:/Users/camer/subject-5220499.csv","legacy","Lentiform Loewenfeld","3.3.7","yes","yes","600bd7cfb6416f0113b04181","602110864497cf011d9c0822","0","f","NA","space","space","space","space","f","602","NA","2829","14814","2558","7819","602","2","legacy","1024","2","48000","-16","task","5220499","odd","NA","30367","35197","32368","197821","4718","22093","19534","198322","125225","197820","198322","197774","35197","198925","28723","197274","4697","187645","Lexical Decision Task","83","58323","92","yes","1024"
"2.803231716","5.26","3","kiln","word","89.24731182795699","89.24731182795699","632.4623655913979","632.4623655913979","black","no","legacy","legacy","legacy","0","uniform","0","undefined","undefined","undefined","0","j","0","0","0","0","92","0","0","0","92","0","88","92","88","0","88","3","92","0","92","Fri Feb 19 12:18:17 2021","The main experiment item","yes","Lexical_Decision_Task.osexp","C:/Users/camer","no","Andale Mono","no","18","no","white","no","yes","576","legacy","88","88","3","C:/Users/camer/subject-5220499.csv","legacy","Lentiform Loewenfeld","3.3.7","yes","yes","600bd7cfb6416f0113b04181","602110864497cf011d9c0822","0","f","NA","space","space","space","space","f","496","NA","2829","14814","2558","7819","496","2","legacy","1024","2","48000","-16","task","5220499","odd","NA","30367","35197","32368","199481","4718","22093","19534","199981","125225","199479","199981","199432","35197","200478","28723","198932","4697","187645","Lexical Decision Task","83","58819","93","yes","1024"
"3.307211407","6.07","7","honk","word","89.36170212765957","89.36170212765957","635.5212765957447","635.5212765957447","black","no","legacy","legacy","legacy","0","uniform","1","undefined","undefined","undefined","1","j","0","0","0","0","93","0","0","0","93","0","89","93","89","0","89","3","93","0","93","Fri Feb 19 12:18:17 2021","The main experiment item","yes","Lexical_Decision_Task.osexp","C:/Users/camer","no","Andale Mono","no","18","no","white","no","yes","576","legacy","89","89","3","C:/Users/camer/subject-5220499.csv","legacy","Lentiform Loewenfeld","3.3.7","yes","yes","600bd7cfb6416f0113b04181","602110864497cf011d9c0822","0","j","NA","space","space","space","space","j","920","NA","2829","14814","2558","7819","920","2","legacy","1024","2","48000","-16","task","5220499","odd","NA","30367","35197","32368","202031","4718","22093","19534","202531","125225","202029","202532","201983","35197","203453","28723","198932","4697","200483","Lexical Decision Task","84","59739","94","yes","1024"
"3.263399331","0","8","cour","non-word","89.47368421052632","89.47368421052632","634.7368421052631","634.7368421052631","black","no","legacy","legacy","legacy","0","uniform","1","undefined","undefined","undefined","1","f","0","0","0","0","94","0","0","0","94","0","90","94","90","0","90","3","94","0","94","Fri Feb 19 12:18:17 2021","The main experiment item","yes","Lexical_Decision_Task.osexp","C:/Users/camer","no","Andale Mono","no","18","no","white","no","yes","576","legacy","90","90","3","C:/Users/camer/subject-5220499.csv","legacy","Lentiform Loewenfeld","3.3.7","yes","yes","600bd7cfb6416f0113b04181","602110864497cf011d9c0822","0","f","NA","space","space","space","space","f","561","NA","2829","14814","2558","7819","561","2","legacy","1024","2","48000","-16","task","5220499","odd","NA","30367","35197","32368","204007","4718","22093","19534","204507","125225","204005","204508","203958","35197","205069","28723","203458","4697","200483","Lexical Decision Task","85","60300","95","yes","1024"
"3.248054965","7.86","5","glow","word","88.54166666666667","88.54166666666667","634.3958333333334","634.3958333333334","black","no","legacy","legacy","legacy","0","uniform","0","undefined","undefined","undefined","0","j","0","0","0","0","95","0","0","0","95","0","91","95","91","0","91","3","95","0","95","Fri Feb 19 12:18:17 2021","The main experiment item","yes","Lexical_Decision_Task.osexp","C:/Users/camer","no","Andale Mono","no","18","no","white","no","yes","576","legacy","91","91","3","C:/Users/camer/subject-5220499.csv","legacy","Lentiform Loewenfeld","3.3.7","yes","yes","600bd7cfb6416f0113b04181","602110864497cf011d9c0822","0","f","NA","space","space","space","space","f","602","NA","2829","14814","2558","7819","602","2","legacy","1024","2","48000","-16","task","5220499","odd","NA","30367","35197","32368","205621","4718","22093","19534","206122","125225","205620","206122","205575","35197","206725","28723","205075","4697","200483","Lexical Decision Task","85","60902","96","yes","1024"
"3.159867847","5.98","5","brim","word","87.62886597938144","87.62886597938144","636.5257731958762","636.5257731958762","black","no","legacy","legacy","legacy","0","uniform","0","undefined","undefined","undefined","0","j","0","0","0","0","96","0","0","0","96","0","92","96","92","0","92","3","96","0","96","Fri Feb 19 12:18:17 2021","The main experiment item","yes","Lexical_Decision_Task.osexp","C:/Users/camer","no","Andale Mono","no","18","no","white","no","yes","576","legacy","92","92","3","C:/Users/camer/subject-5220499.csv","legacy","Lentiform Loewenfeld","3.3.7","yes","yes","600bd7cfb6416f0113b04181","602110864497cf011d9c0822","0","f","NA","space","space","space","space","f","841","NA","2829","14814","2558","7819","841","2","legacy","1024","2","48000","-16","task","5220499","odd","NA","30367","35197","32368","208286","4718","22093","19534","208788","125225","208285","208788","208230","35197","209630","28723","205075","4697","206730","Lexical Decision Task","85","61743","97","yes","1024"
"2.952953801","0","8","clax","non-word","87.75510204081633","87.75510204081633","636.1020408163265","636.1020408163265","black","no","legacy","legacy","legacy","0","uniform","1","undefined","undefined","undefined","1","f","0","0","0","0","97","0","0","0","97","0","93","97","93","0","93","3","97","0","97","Fri Feb 19 12:18:17 2021","The main experiment item","yes","Lexical_Decision_Task.osexp","C:/Users/camer","no","Andale Mono","no","18","no","white","no","yes","576","legacy","93","93","3","C:/Users/camer/subject-5220499.csv","legacy","Lentiform Loewenfeld","3.3.7","yes","yes","600bd7cfb6416f0113b04181","602110864497cf011d9c0822","0","f","NA","space","space","space","space","f","595","NA","2829","14814","2558","7819","595","2","legacy","1024","2","48000","-16","task","5220499","odd","NA","30367","35197","32368","211181","4718","22093","19534","211681","125225","211179","211682","211132","35197","212277","28723","205075","4697","209632","Lexical Decision Task","86","62338","98","yes","1024"
"3.156347201","0","8","lasp","non-word","87.87878787878788","87.87878787878788","637.4848484848485","637.4848484848485","black","no","legacy","legacy","legacy","0","uniform","1","undefined","undefined","undefined","1","f","0","0","0","0","98","0","0","0","98","0","94","98","94","0","94","3","98","0","98","Fri Feb 19 12:18:17 2021","The main experiment item","yes","Lexical_Decision_Task.osexp","C:/Users/camer","no","Andale Mono","no","18","no","white","no","yes","576","legacy","94","94","3","C:/Users/camer/subject-5220499.csv","legacy","Lentiform Loewenfeld","3.3.7","yes","yes","600bd7cfb6416f0113b04181","602110864497cf011d9c0822","0","f","NA","space","space","space","space","f","773","NA","2829","14814","2558","7819","773","2","legacy","1024","2","48000","-16","task","5220499","odd","NA","30367","35197","32368","212834","4718","22093","19534","213335","125225","212832","213335","212787","35197","214109","28723","212287","4697","209632","Lexical Decision Task","87","63111","99","yes","1024"
"2.893578687","8.69","3","surf","word","88","88","637.35","637.35","black","no","legacy","legacy","legacy","0","uniform","1","undefined","undefined","undefined","1","j","0","0","0","0","99","0","0","0","99","0","95","99","95","0","95","3","99","0","99","Fri Feb 19 12:18:17 2021","The main experiment item","yes","Lexical_Decision_Task.osexp","C:/Users/camer","no","Andale Mono","no","18","no","white","no","yes","576","legacy","95","95","3","C:/Users/camer/subject-5220499.csv","legacy","Lentiform Loewenfeld","3.3.7","yes","yes","600bd7cfb6416f0113b04181","602110864497cf011d9c0822","0","j","NA","space","space","space","space","j","624","NA","2829","14814","2558","7819","624","2","legacy","1024","2","48000","-16","task","5220499","odd","NA","30367","35197","32368","214663","4718","22093","19534","215163","125225","214662","215164","214615","35197","215789","28723","214115","4697","209632","Lexical Decision Task","88","63735","100","yes","1024"
"3.105055783","0","2","norp","non-word","88.11881188118812","88.11881188118812","636.5544554455446","636.5544554455446","black","no","legacy","legacy","legacy","0","uniform","1","undefined","undefined","undefined","1","f","0","0","0","0","100","0","0","0","100","0","96","100","96","0","96","3","100","0","100","Fri Feb 19 12:18:17 2021","The main experiment item","yes","Lexical_Decision_Task.osexp","C:/Users/camer","no","Andale Mono","no","18","no","white","no","yes","576","legacy","96","96","3","C:/Users/camer/subject-5220499.csv","legacy","Lentiform Loewenfeld","3.3.7","yes","yes","600bd7cfb6416f0113b04181","602110864497cf011d9c0822","0","f","NA","space","space","space","space","f","557","NA","2829","14814","2558","7819","557","2","legacy","1024","2","48000","-16","task","5220499","odd","NA","30367","35197","32368","216346","4718","22093","19534","216846","125225","216344","216847","216298","35197","217405","28723","215798","4697","209632","Lexical Decision Task","89","64292","101","yes","1024"
"2.616654026","9.37","5","gift","word","88.23529411764706","88.23529411764706","637.2254901960785","637.2254901960785","black","no","legacy","legacy","legacy","0","uniform","1","undefined","undefined","undefined","1","j","0","0","0","0","101","0","0","0","101","0","97","101","97","0","97","3","101","0","101","Fri Feb 19 12:18:17 2021","The main experiment item","yes","Lexical_Decision_Task.osexp","C:/Users/camer","no","Andale Mono","no","18","no","white","no","yes","576","legacy","97","97","3","C:/Users/camer/subject-5220499.csv","legacy","Lentiform Loewenfeld","3.3.7","yes","yes","600bd7cfb6416f0113b04181","602110864497cf011d9c0822","0","j","NA","space","space","space","space","j","705","NA","2829","14814","2558","7819","705","2","legacy","1024","2","48000","-16","task","5220499","odd","NA","30367","35197","32368","217958","4718","22093","19534","218459","125225","217957","218459","217909","35197","219166","28723","217409","4697","209632","Lexical Decision Task","90","64997","102","yes","1024"
