"Log_BG","Log_Freq_HAL","Ortho_N","Stimulus","Type","acc","accuracy","average_response_time","avg_rt","background","bidi","canvas_backend","clock_backend","color_backend","compensation","coordinates","correct","correct_Experimental_intro","correct_Introduction","correct_Practice_intro","correct_experimenter_kb","correct_response","count_End_Of_Experiment","count_End_Of_Practice","count_Experimental_Loop","count_Experimental_intro","count_Fixation","count_Introduction","count_Practice_Loop","count_Practice_intro","count_Stimulus","count_block_break_feedback","count_experimental_sequence","count_experimenter_kb","count_increment_trial_count","count_init_trial_count","count_logger","count_practice_sequence","count_right","count_task","count_wrong","datetime","description","disable_garbage_collection","experiment_file","experiment_path","font_bold","font_family","font_italic","font_size","font_underline","foreground","form_clicks","fullscreen","height","keyboard_backend","live_row","live_row_Experimental_Loop","live_row_Practice_Loop","logfile","mouse_backend","opensesame_codename","opensesame_version","osf_always_upload_data","osf_always_upload_experiment","osf_datanode_id","osf_id","repeat_cycle","response","response_End_Of_Experiment","response_Experimental_intro","response_Introduction","response_Practice_intro","response_block_break_feedback","response_experimenter_kb","response_time","response_time_End_Of_Experiment","response_time_Experimental_intro","response_time_Introduction","response_time_Practice_intro","response_time_block_break_feedback","response_time_experimenter_kb","round_decimals","sampler_backend","sound_buf_size","sound_channels","sound_freq","sound_sample_size","start","subject_nr","subject_parity","time_End_Of_Experiment","time_End_Of_Practice","time_Experimental_Loop","time_Experimental_intro","time_Fixation","time_Introduction","time_Practice_Loop","time_Practice_intro","time_Stimulus","time_block_break_feedback","time_experimental_sequence","time_experimenter_kb","time_increment_trial_count","time_init_trial_count","time_logger","time_practice_sequence","time_right","time_task","time_wrong","title","total_correct","total_response_time","total_responses","uniform_coordinates","width"
"3.374198258","0","8","vist","non-word","80","80","728.6","728.6","black","no","legacy","legacy","legacy","0","uniform","0","undefined","undefined","undefined","0","f","0","0","0","0","4","0","0","0","4","NA","0","4","0","0","0","3","4","0","4","Wed Feb 17 10:58:48 2021","The main experiment item","yes","Lexical_Decision_Task.osexp","/Users/josieking/Documents","no","Andale Mono","no","18","no","white","no","yes","576","legacy","0","0","3","/Users/josieking/Documents/subject-5203061.csv","legacy","Lentiform Loewenfeld","3.3.7","yes","yes","600bd7cfb6416f0113b04181","602110864497cf011d9c0822","0","j","NA","return","space","return","NA","j","539","NA","3102","8437","11448","NA","539","2","legacy","1024","2","48000","-16","task","5203061","odd","NA","31500","36605","33503","36630","4188","24094","12645","37133","NA","36628","37133","NA","36605","37673","29951","30969","4178","NA","Lexical Decision Task","4","3643","5","yes","1024"
"3.531734309","0","6","lerd","non-word","66.66666666666667","66.66666666666667","812.3333333333334","812.3333333333334","black","no","legacy","legacy","legacy","0","uniform","0","undefined","undefined","undefined","0","f","0","0","0","0","5","0","0","0","5","NA","1","5","1","0","1","3","5","0","5","Wed Feb 17 10:58:48 2021","The main experiment item","yes","Lexical_Decision_Task.osexp","/Users/josieking/Documents","no","Andale Mono","no","18","no","white","no","yes","576","legacy","1","1","3","/Users/josieking/Documents/subject-5203061.csv","legacy","Lentiform Loewenfeld","3.3.7","yes","yes","600bd7cfb6416f0113b04181","602110864497cf011d9c0822","0","j","NA","return","space","return","NA","j","1231","NA","3102","8437","11448","NA","1231","2","legacy","1024","2","48000","-16","task","5203061","odd","NA","31500","36605","33503","39246","4188","24094","12645","39750","NA","39243","39750","39179","36605","40986","29951","30969","4178","37679","Lexical Decision Task","4","4874","6","yes","1024"
"2.664328519","0","4","plux","non-word","71.42857142857143","71.42857142857143","873.1428571428571","873.1428571428571","black","no","legacy","legacy","legacy","0","uniform","1","undefined","undefined","undefined","1","f","0","0","0","0","6","0","0","0","6","NA","2","6","2","0","2","3","6","0","6","Wed Feb 17 10:58:48 2021","The main experiment item","yes","Lexical_Decision_Task.osexp","/Users/josieking/Documents","no","Andale Mono","no","18","no","white","no","yes","576","legacy","2","2","3","/Users/josieking/Documents/subject-5203061.csv","legacy","Lentiform Loewenfeld","3.3.7","yes","yes","600bd7cfb6416f0113b04181","602110864497cf011d9c0822","0","f","NA","return","space","return","NA","f","1238","NA","3102","8437","11448","NA","1238","2","legacy","1024","2","48000","-16","task","5203061","odd","NA","31500","36605","33503","42553","4188","24094","12645","43056","NA","42550","43056","42489","36605","44295","29951","30969","4178","40989","Lexical Decision Task","5","6112","7","yes","1024"
"3.077974404","10.41","8","tool","word","75","75","837","837","black","no","legacy","legacy","legacy","0","uniform","1","undefined","undefined","undefined","1","j","0","0","0","0","7","0","0","0","7","NA","3","7","3","0","3","3","7","0","7","Wed Feb 17 10:58:48 2021","The main experiment item","yes","Lexical_Decision_Task.osexp","/Users/josieking/Documents","no","Andale Mono","no","18","no","white","no","yes","576","legacy","3","3","3","/Users/josieking/Documents/subject-5203061.csv","legacy","Lentiform Loewenfeld","3.3.7","yes","yes","600bd7cfb6416f0113b04181","602110864497cf011d9c0822","0","j","NA","return","space","return","NA","j","584","NA","3102","8437","11448","NA","584","2","legacy","1024","2","48000","-16","task","5203061","odd","NA","31500","36605","33503","44859","4188","24094","12645","45362","NA","44856","45362","44798","36605","45947","29951","44298","4178","40989","Lexical Decision Task","6","6696","8","yes","1024"
"3.282244367","0","6","fute","non-word","66.66666666666667","66.66666666666667","816","816","black","no","legacy","legacy","legacy","0","uniform","0","undefined","undefined","undefined","0","f","0","0","0","0","8","0","0","0","8","NA","4","8","4","0","4","3","8","0","8","Wed Feb 17 10:58:48 2021","The main experiment item","yes","Lexical_Decision_Task.osexp","/Users/josieking/Documents","no","Andale Mono","no","18","no","white","no","yes","576","legacy","4","4","3","/Users/josieking/Documents/subject-5203061.csv","legacy","Lentiform Loewenfeld","3.3.7","yes","yes","600bd7cfb6416f0113b04181","602110864497cf011d9c0822","0","j","NA","return","space","return","NA","j","648","NA","3102","8437","11448","NA","648","2","legacy","1024","2","48000","-16","task","5203061","odd","NA","31500","36605","33503","46510","4188","24094","12645","47013","NA","46508","47013","46451","36605","47662","29951","45951","4178","40989","Lexical Decision Task","6","7344","9","yes","1024"
"3.168400243","9.12","6","horn","word","70","70","826.4","826.4","black","no","legacy","legacy","legacy","0","uniform","1","undefined","undefined","undefined","1","j","0","0","0","0","9","0","0","0","9","NA","5","9","5","0","5","3","9","0","9","Wed Feb 17 10:58:48 2021","The main experiment item","yes","Lexical_Decision_Task.osexp","/Users/josieking/Documents","no","Andale Mono","no","18","no","white","no","yes","576","legacy","5","5","3","/Users/josieking/Documents/subject-5203061.csv","legacy","Lentiform Loewenfeld","3.3.7","yes","yes","600bd7cfb6416f0113b04181","602110864497cf011d9c0822","0","j","NA","return","space","return","NA","j","920","NA","3102","8437","11448","NA","920","2","legacy","1024","2","48000","-16","task","5203061","odd","NA","31500","36605","33503","49228","4188","24094","12645","49731","NA","49225","49731","49166","36605","50652","29951","45951","4178","47666","Lexical Decision Task","7","8264","10","yes","1024"
"3.299579929","0","2","flis","non-word","72.72727272727273","72.72727272727273","845.1818181818181","845.1818181818181","black","no","legacy","legacy","legacy","0","uniform","1","undefined","undefined","undefined","1","f","0","0","0","0","10","0","0","0","10","NA","6","10","6","0","6","3","10","0","10","Wed Feb 17 10:58:48 2021","The main experiment item","yes","Lexical_Decision_Task.osexp","/Users/josieking/Documents","no","Andale Mono","no","18","no","white","no","yes","576","legacy","6","6","3","/Users/josieking/Documents/subject-5203061.csv","legacy","Lentiform Loewenfeld","3.3.7","yes","yes","600bd7cfb6416f0113b04181","602110864497cf011d9c0822","0","f","NA","return","space","return","NA","f","1033","NA","3102","8437","11448","NA","1033","2","legacy","1024","2","48000","-16","task","5203061","odd","NA","31500","36605","33503","51214","4188","24094","12645","51717","NA","51211","51717","51155","36605","52751","29951","50655","4178","47666","Lexical Decision Task","8","9297","11","yes","1024"
"3.257359335","8","6","brew","word","75","75","829.1666666666666","829.1666666666666","black","no","legacy","legacy","legacy","0","uniform","1","undefined","undefined","undefined","1","j","0","0","0","0","11","0","0","0","11","NA","7","11","7","0","7","3","11","0","11","Wed Feb 17 10:58:48 2021","The main experiment item","yes","Lexical_Decision_Task.osexp","/Users/josieking/Documents","no","Andale Mono","no","18","no","white","no","yes","576","legacy","7","7","3","/Users/josieking/Documents/subject-5203061.csv","legacy","Lentiform Loewenfeld","3.3.7","yes","yes","600bd7cfb6416f0113b04181","602110864497cf011d9c0822","0","j","NA","return","space","return","NA","j","653","NA","3102","8437","11448","NA","653","2","legacy","1024","2","48000","-16","task","5203061","odd","NA","31500","36605","33503","53313","4188","24094","12645","53816","NA","53310","53816","53254","36605","54470","29951","52754","4178","47666","Lexical Decision Task","9","9950","12","yes","1024"
"2.95456409","0","4","taud","non-word","76.92307692307692","76.92307692307692","812.6153846153846","812.6153846153846","black","no","legacy","legacy","legacy","0","uniform","1","undefined","undefined","undefined","1","f","0","0","0","0","12","0","0","0","12","NA","8","12","8","0","8","3","12","0","12","Wed Feb 17 10:58:48 2021","The main experiment item","yes","Lexical_Decision_Task.osexp","/Users/josieking/Documents","no","Andale Mono","no","18","no","white","no","yes","576","legacy","8","8","3","/Users/josieking/Documents/subject-5203061.csv","legacy","Lentiform Loewenfeld","3.3.7","yes","yes","600bd7cfb6416f0113b04181","602110864497cf011d9c0822","0","f","NA","return","space","return","NA","f","614","NA","3102","8437","11448","NA","614","2","legacy","1024","2","48000","-16","task","5203061","odd","NA","31500","36605","33503","55033","4188","24094","12645","55536","NA","55030","55536","54973","36605","56150","29951","54473","4178","47666","Lexical Decision Task","10","10564","13","yes","1024"
"3.156347201","0","8","lasp","non-word","78.57142857142857","78.57142857142857","821.1428571428571","821.1428571428571","black","no","legacy","legacy","legacy","0","uniform","1","undefined","undefined","undefined","1","f","0","0","0","0","13","0","0","0","13","NA","9","13","9","0","9","3","13","0","13","Wed Feb 17 10:58:48 2021","The main experiment item","yes","Lexical_Decision_Task.osexp","/Users/josieking/Documents","no","Andale Mono","no","18","no","white","no","yes","576","legacy","9","9","3","/Users/josieking/Documents/subject-5203061.csv","legacy","Lentiform Loewenfeld","3.3.7","yes","yes","600bd7cfb6416f0113b04181","602110864497cf011d9c0822","0","f","NA","return","space","return","NA","f","932","NA","3102","8437","11448","NA","932","2","legacy","1024","2","48000","-16","task","5203061","odd","NA","31500","36605","33503","56713","4188","24094","12645","57216","NA","56710","57216","56654","36605","58148","29951","56154","4178","47666","Lexical Decision Task","11","11496","14","yes","1024"
"2.897810299","0","5","glur","non-word","80","80","802.5333333333333","802.5333333333333","black","no","legacy","legacy","legacy","0","uniform","1","undefined","undefined","undefined","1","f","0","0","0","0","14","0","0","0","14","NA","10","14","10","0","10","3","14","0","14","Wed Feb 17 10:58:48 2021","The main experiment item","yes","Lexical_Decision_Task.osexp","/Users/josieking/Documents","no","Andale Mono","no","18","no","white","no","yes","576","legacy","10","10","3","/Users/josieking/Documents/subject-5203061.csv","legacy","Lentiform Loewenfeld","3.3.7","yes","yes","600bd7cfb6416f0113b04181","602110864497cf011d9c0822","0","f","NA","return","space","return","NA","f","542","NA","3102","8437","11448","NA","542","2","legacy","1024","2","48000","-16","task","5203061","odd","NA","31500","36605","33503","58711","4188","24094","12645","59214","NA","58709","59215","58652","36605","59757","29951","58152","4178","47666","Lexical Decision Task","12","12038","15","yes","1024"
"3.276537627","9.15","5","trap","word","81.25","81.25","776.75","776.75","black","no","legacy","legacy","legacy","0","uniform","1","undefined","undefined","undefined","1","j","0","0","0","0","15","0","0","0","15","NA","11","15","11","0","11","3","15","0","15","Wed Feb 17 10:58:48 2021","The main experiment item","yes","Lexical_Decision_Task.osexp","/Users/josieking/Documents","no","Andale Mono","no","18","no","white","no","yes","576","legacy","11","11","3","/Users/josieking/Documents/subject-5203061.csv","legacy","Lentiform Loewenfeld","3.3.7","yes","yes","600bd7cfb6416f0113b04181","602110864497cf011d9c0822","0","j","NA","return","space","return","NA","j","390","NA","3102","8437","11448","NA","390","2","legacy","1024","2","48000","-16","task","5203061","odd","NA","31500","36605","33503","60321","4188","24094","12645","60824","NA","60318","60824","60260","36605","61215","29951","59760","4178","47666","Lexical Decision Task","13","12428","16","yes","1024"
"2.68604012","0","3","mulb","non-word","82.3529411764706","82.3529411764706","772.7647058823529","772.7647058823529","black","no","legacy","legacy","legacy","0","uniform","1","undefined","undefined","undefined","1","f","0","0","0","0","16","0","0","0","16","NA","12","16","12","0","12","3","16","0","16","Wed Feb 17 10:58:48 2021","The main experiment item","yes","Lexical_Decision_Task.osexp","/Users/josieking/Documents","no","Andale Mono","no","18","no","white","no","yes","576","legacy","12","12","3","/Users/josieking/Documents/subject-5203061.csv","legacy","Lentiform Loewenfeld","3.3.7","yes","yes","600bd7cfb6416f0113b04181","602110864497cf011d9c0822","0","f","NA","return","space","return","NA","f","709","NA","3102","8437","11448","NA","709","2","legacy","1024","2","48000","-16","task","5203061","odd","NA","31500","36605","33503","61778","4188","24094","12645","62281","NA","61776","62281","61719","36605","62991","29951","61219","4178","47666","Lexical Decision Task","14","13137","17","yes","1024"
"3.094121596","0","8","fode","non-word","83.33333333333333","83.33333333333333","771.3888888888889","771.3888888888889","black","no","legacy","legacy","legacy","0","uniform","1","undefined","undefined","undefined","1","f","0","0","0","0","17","0","0","0","17","NA","13","17","13","0","13","3","17","0","17","Wed Feb 17 10:58:48 2021","The main experiment item","yes","Lexical_Decision_Task.osexp","/Users/josieking/Documents","no","Andale Mono","no","18","no","white","no","yes","576","legacy","13","13","3","/Users/josieking/Documents/subject-5203061.csv","legacy","Lentiform Loewenfeld","3.3.7","yes","yes","600bd7cfb6416f0113b04181","602110864497cf011d9c0822","0","f","NA","return","space","return","NA","f","748","NA","3102","8437","11448","NA","748","2","legacy","1024","2","48000","-16","task","5203061","odd","NA","31500","36605","33503","63554","4188","24094","12645","64057","NA","63551","64057","63494","36605","64805","29951","62994","4178","47666","Lexical Decision Task","15","13885","18","yes","1024"
"3.145920145","8.51","8","flew","word","84.21052631578948","84.21052631578948","754.6315789473684","754.6315789473684","black","no","legacy","legacy","legacy","0","uniform","1","undefined","undefined","undefined","1","j","0","0","0","0","18","0","0","0","18","NA","14","18","14","0","14","3","18","0","18","Wed Feb 17 10:58:48 2021","The main experiment item","yes","Lexical_Decision_Task.osexp","/Users/josieking/Documents","no","Andale Mono","no","18","no","white","no","yes","576","legacy","14","14","3","/Users/josieking/Documents/subject-5203061.csv","legacy","Lentiform Loewenfeld","3.3.7","yes","yes","600bd7cfb6416f0113b04181","602110864497cf011d9c0822","0","j","NA","return","space","return","NA","j","453","NA","3102","8437","11448","NA","453","2","legacy","1024","2","48000","-16","task","5203061","odd","NA","31500","36605","33503","65368","4188","24094","12645","65871","NA","65366","65871","65309","36605","66325","29951","64809","4178","47666","Lexical Decision Task","16","14338","19","yes","1024"
"2.838639236","0","4","furg","non-word","85","85","747.55","747.55","black","no","legacy","legacy","legacy","0","uniform","1","undefined","undefined","undefined","1","f","0","0","0","0","19","0","0","0","19","NA","15","19","15","0","15","3","19","0","19","Wed Feb 17 10:58:48 2021","The main experiment item","yes","Lexical_Decision_Task.osexp","/Users/josieking/Documents","no","Andale Mono","no","18","no","white","no","yes","576","legacy","15","15","3","/Users/josieking/Documents/subject-5203061.csv","legacy","Lentiform Loewenfeld","3.3.7","yes","yes","600bd7cfb6416f0113b04181","602110864497cf011d9c0822","0","f","NA","return","space","return","NA","f","613","NA","3102","8437","11448","NA","613","2","legacy","1024","2","48000","-16","task","5203061","odd","NA","31500","36605","33503","66888","4188","24094","12645","67391","NA","66885","67391","66829","36605","68005","29951","66329","4178","47666","Lexical Decision Task","17","14951","20","yes","1024"
"2.839898939","8.99","6","soap","word","85.71428571428571","85.71428571428571","735","735","black","no","legacy","legacy","legacy","0","uniform","1","undefined","undefined","undefined","1","j","0","0","0","0","20","0","0","0","20","NA","16","20","16","0","16","3","20","0","20","Wed Feb 17 10:58:48 2021","The main experiment item","yes","Lexical_Decision_Task.osexp","/Users/josieking/Documents","no","Andale Mono","no","18","no","white","no","yes","576","legacy","16","16","3","/Users/josieking/Documents/subject-5203061.csv","legacy","Lentiform Loewenfeld","3.3.7","yes","yes","600bd7cfb6416f0113b04181","602110864497cf011d9c0822","0","j","NA","return","space","return","NA","j","484","NA","3102","8437","11448","NA","484","2","legacy","1024","2","48000","-16","task","5203061","odd","NA","31500","36605","33503","68568","4188","24094","12645","69071","NA","68566","69071","68509","36605","69556","29951","68009","4178","47666","Lexical Decision Task","18","15435","21","yes","1024"
"3.031408464","0","7","drow","non-word","86.36363636363636","86.36363636363636","730.9090909090909","730.9090909090909","black","no","legacy","legacy","legacy","0","uniform","1","undefined","undefined","undefined","1","f","0","0","0","0","21","0","0","0","21","NA","17","21","17","0","17","3","21","0","21","Wed Feb 17 10:58:48 2021","The main experiment item","yes","Lexical_Decision_Task.osexp","/Users/josieking/Documents","no","Andale Mono","no","18","no","white","no","yes","576","legacy","17","17","3","/Users/josieking/Documents/subject-5203061.csv","legacy","Lentiform Loewenfeld","3.3.7","yes","yes","600bd7cfb6416f0113b04181","602110864497cf011d9c0822","0","f","NA","return","space","return","NA","f","645","NA","3102","8437","11448","NA","645","2","legacy","1024","2","48000","-16","task","5203061","odd","NA","31500","36605","33503","70119","4188","24094","12645","70622","NA","70117","70622","70060","36605","71268","29951","69560","4178","47666","Lexical Decision Task","19","16080","22","yes","1024"
"2.709837904","6.85","8","skim","word","86.95652173913044","86.95652173913044","721.5217391304348","721.5217391304348","black","no","legacy","legacy","legacy","0","uniform","1","undefined","undefined","undefined","1","j","0","0","0","0","22","0","0","0","22","NA","18","22","18","0","18","3","22","0","22","Wed Feb 17 10:58:48 2021","The main experiment item","yes","Lexical_Decision_Task.osexp","/Users/josieking/Documents","no","Andale Mono","no","18","no","white","no","yes","576","legacy","18","18","3","/Users/josieking/Documents/subject-5203061.csv","legacy","Lentiform Loewenfeld","3.3.7","yes","yes","600bd7cfb6416f0113b04181","602110864497cf011d9c0822","0","j","NA","return","space","return","NA","j","515","NA","3102","8437","11448","NA","515","2","legacy","1024","2","48000","-16","task","5203061","odd","NA","31500","36605","33503","71831","4188","24094","12645","72334","NA","71828","72334","71772","36605","72850","29951","71272","4178","47666","Lexical Decision Task","20","16595","23","yes","1024"
"2.675164031","8.57","6","glue","word","87.5","87.5","716.7916666666666","716.7916666666666","black","no","legacy","legacy","legacy","0","uniform","1","undefined","undefined","undefined","1","j","0","0","0","0","23","0","0","0","23","NA","19","23","19","0","19","3","23","0","23","Wed Feb 17 10:58:48 2021","The main experiment item","yes","Lexical_Decision_Task.osexp","/Users/josieking/Documents","no","Andale Mono","no","18","no","white","no","yes","576","legacy","19","19","3","/Users/josieking/Documents/subject-5203061.csv","legacy","Lentiform Loewenfeld","3.3.7","yes","yes","600bd7cfb6416f0113b04181","602110864497cf011d9c0822","0","j","NA","return","space","return","NA","j","608","NA","3102","8437","11448","NA","608","2","legacy","1024","2","48000","-16","task","5203061","odd","NA","31500","36605","33503","73412","4188","24094","12645","73915","NA","73409","73915","73353","36605","74524","29951","72853","4178","47666","Lexical Decision Task","21","17203","24","yes","1024"
"3.374137706","10.21","4","tree","word","88","88","706.44","706.44","black","no","legacy","legacy","legacy","0","uniform","1","undefined","undefined","undefined","1","j","0","0","0","0","24","0","0","0","24","NA","20","24","20","0","20","3","24","0","24","Wed Feb 17 10:58:48 2021","The main experiment item","yes","Lexical_Decision_Task.osexp","/Users/josieking/Documents","no","Andale Mono","no","18","no","white","no","yes","576","legacy","20","20","3","/Users/josieking/Documents/subject-5203061.csv","legacy","Lentiform Loewenfeld","3.3.7","yes","yes","600bd7cfb6416f0113b04181","602110864497cf011d9c0822","0","j","NA","return","space","return","NA","j","458","NA","3102","8437","11448","NA","458","2","legacy","1024","2","48000","-16","task","5203061","odd","NA","31500","36605","33503","75086","4188","24094","12645","75589","NA","75083","75589","75027","36605","76048","29951","74527","4178","47666","Lexical Decision Task","22","17661","25","yes","1024"
"3.2757719","0","5","slea","non-word","88.46153846153847","88.46153846153847","706.8846153846154","706.8846153846154","black","no","legacy","legacy","legacy","0","uniform","1","undefined","undefined","undefined","1","f","0","0","0","0","25","0","0","0","25","NA","21","25","21","0","21","3","25","0","25","Wed Feb 17 10:58:48 2021","The main experiment item","yes","Lexical_Decision_Task.osexp","/Users/josieking/Documents","no","Andale Mono","no","18","no","white","no","yes","576","legacy","21","21","3","/Users/josieking/Documents/subject-5203061.csv","legacy","Lentiform Loewenfeld","3.3.7","yes","yes","600bd7cfb6416f0113b04181","602110864497cf011d9c0822","0","f","NA","return","space","return","NA","f","718","NA","3102","8437","11448","NA","718","2","legacy","1024","2","48000","-16","task","5203061","odd","NA","31500","36605","33503","76610","4188","24094","12645","77113","NA","76607","77113","76551","36605","77832","29951","76051","4178","47666","Lexical Decision Task","23","18379","26","yes","1024"
"3.165936429","0","7","leps","non-word","88.88888888888889","88.88888888888889","698.8888888888889","698.8888888888889","black","no","legacy","legacy","legacy","0","uniform","1","undefined","undefined","undefined","1","f","0","0","0","0","26","0","0","0","26","NA","22","26","22","0","22","3","26","0","26","Wed Feb 17 10:58:48 2021","The main experiment item","yes","Lexical_Decision_Task.osexp","/Users/josieking/Documents","no","Andale Mono","no","18","no","white","no","yes","576","legacy","22","22","3","/Users/josieking/Documents/subject-5203061.csv","legacy","Lentiform Loewenfeld","3.3.7","yes","yes","600bd7cfb6416f0113b04181","602110864497cf011d9c0822","0","f","NA","return","space","return","NA","f","491","NA","3102","8437","11448","NA","491","2","legacy","1024","2","48000","-16","task","5203061","odd","NA","31500","36605","33503","78395","4188","24094","12645","78898","NA","78392","78898","78335","36605","79390","29951","77835","4178","47666","Lexical Decision Task","24","18870","27","yes","1024"
"3.131833513","7.66","4","limb","word","89.28571428571429","89.28571428571429","689.7142857142857","689.7142857142857","black","no","legacy","legacy","legacy","0","uniform","1","undefined","undefined","undefined","1","j","0","0","0","0","27","0","0","0","27","NA","23","27","23","0","23","3","27","0","27","Wed Feb 17 10:58:48 2021","The main experiment item","yes","Lexical_Decision_Task.osexp","/Users/josieking/Documents","no","Andale Mono","no","18","no","white","no","yes","576","legacy","23","23","3","/Users/josieking/Documents/subject-5203061.csv","legacy","Lentiform Loewenfeld","3.3.7","yes","yes","600bd7cfb6416f0113b04181","602110864497cf011d9c0822","0","j","NA","return","space","return","NA","j","442","NA","3102","8437","11448","NA","442","2","legacy","1024","2","48000","-16","task","5203061","odd","NA","31500","36605","33503","79954","4188","24094","12645","80457","NA","79951","80457","79894","36605","80900","29951","79394","4178","47666","Lexical Decision Task","25","19312","28","yes","1024"
"3.440331212","7.35","6","stew","word","89.65517241379311","89.65517241379311","682.2413793103449","682.2413793103449","black","no","legacy","legacy","legacy","0","uniform","1","undefined","undefined","undefined","1","j","0","0","0","0","28","0","0","0","28","NA","24","28","24","0","24","3","28","0","28","Wed Feb 17 10:58:48 2021","The main experiment item","yes","Lexical_Decision_Task.osexp","/Users/josieking/Documents","no","Andale Mono","no","18","no","white","no","yes","576","legacy","24","24","3","/Users/josieking/Documents/subject-5203061.csv","legacy","Lentiform Loewenfeld","3.3.7","yes","yes","600bd7cfb6416f0113b04181","602110864497cf011d9c0822","0","j","NA","return","space","return","NA","j","473","NA","3102","8437","11448","NA","473","2","legacy","1024","2","48000","-16","task","5203061","odd","NA","31500","36605","33503","81462","4188","24094","12645","81965","NA","81459","81965","81403","36605","82438","29951","80903","4178","47666","Lexical Decision Task","26","19785","29","yes","1024"
"3.062080345","0","6","tomp","non-word","90","90","684.7","684.7","black","no","legacy","legacy","legacy","0","uniform","1","undefined","undefined","undefined","1","f","0","0","0","0","29","0","0","0","29","NA","25","29","25","0","25","3","29","0","29","Wed Feb 17 10:58:48 2021","The main experiment item","yes","Lexical_Decision_Task.osexp","/Users/josieking/Documents","no","Andale Mono","no","18","no","white","no","yes","576","legacy","25","25","3","/Users/josieking/Documents/subject-5203061.csv","legacy","Lentiform Loewenfeld","3.3.7","yes","yes","600bd7cfb6416f0113b04181","602110864497cf011d9c0822","0","f","NA","return","space","return","NA","f","756","NA","3102","8437","11448","NA","756","2","legacy","1024","2","48000","-16","task","5203061","odd","NA","31500","36605","33503","83002","4188","24094","12645","83505","NA","82999","83505","82942","36605","84262","29951","82442","4178","47666","Lexical Decision Task","27","20541","30","yes","1024"
"2.668385917","5.48","4","twig","word","90.3225806451613","90.3225806451613","676.0967741935484","676.0967741935484","black","no","legacy","legacy","legacy","0","uniform","1","undefined","undefined","undefined","1","j","0","0","0","0","30","0","0","0","30","NA","26","30","26","0","26","3","30","0","30","Wed Feb 17 10:58:48 2021","The main experiment item","yes","Lexical_Decision_Task.osexp","/Users/josieking/Documents","no","Andale Mono","no","18","no","white","no","yes","576","legacy","26","26","3","/Users/josieking/Documents/subject-5203061.csv","legacy","Lentiform Loewenfeld","3.3.7","yes","yes","600bd7cfb6416f0113b04181","602110864497cf011d9c0822","0","j","NA","return","space","return","NA","j","418","NA","3102","8437","11448","NA","418","2","legacy","1024","2","48000","-16","task","5203061","odd","NA","31500","36605","33503","84824","4188","24094","12645","85327","NA","84822","85327","84765","36605","85745","29951","84265","4178","47666","Lexical Decision Task","28","20959","31","yes","1024"
"2.858136002","0","4","phip","non-word","90.625","90.625","667.375","667.375","black","no","legacy","legacy","legacy","0","uniform","1","undefined","undefined","undefined","1","f","0","0","0","0","31","0","0","0","31","NA","27","31","27","0","27","3","31","0","31","Wed Feb 17 10:58:48 2021","The main experiment item","yes","Lexical_Decision_Task.osexp","/Users/josieking/Documents","no","Andale Mono","no","18","no","white","no","yes","576","legacy","27","27","3","/Users/josieking/Documents/subject-5203061.csv","legacy","Lentiform Loewenfeld","3.3.7","yes","yes","600bd7cfb6416f0113b04181","602110864497cf011d9c0822","0","f","NA","return","space","return","NA","f","397","NA","3102","8437","11448","NA","397","2","legacy","1024","2","48000","-16","task","5203061","odd","NA","31500","36605","33503","86308","4188","24094","12645","86812","NA","86306","86813","86249","36605","87210","29951","85749","4178","47666","Lexical Decision Task","29","21356","32","yes","1024"
"2.69019608","9.01","2","myth","word","90.9090909090909","90.9090909090909","658.7272727272727","658.7272727272727","black","no","legacy","legacy","legacy","0","uniform","1","undefined","undefined","undefined","1","j","0","0","0","0","32","0","0","0","32","NA","28","32","28","0","28","3","32","0","32","Wed Feb 17 10:58:48 2021","The main experiment item","yes","Lexical_Decision_Task.osexp","/Users/josieking/Documents","no","Andale Mono","no","18","no","white","no","yes","576","legacy","28","28","3","/Users/josieking/Documents/subject-5203061.csv","legacy","Lentiform Loewenfeld","3.3.7","yes","yes","600bd7cfb6416f0113b04181","602110864497cf011d9c0822","0","j","NA","return","space","return","NA","j","382","NA","3102","8437","11448","NA","382","2","legacy","1024","2","48000","-16","task","5203061","odd","NA","31500","36605","33503","87774","4188","24094","12645","88277","NA","87771","88277","87715","36605","88659","29951","87215","4178","47666","Lexical Decision Task","30","21738","33","yes","1024"
"2.713490543","0","3","feps","non-word","88.23529411764706","88.23529411764706","657.3235294117648","657.3235294117648","black","no","legacy","legacy","legacy","0","uniform","0","undefined","undefined","undefined","0","f","0","0","0","0","33","0","0","0","33","NA","29","33","29","0","29","3","33","0","33","Wed Feb 17 10:58:48 2021","The main experiment item","yes","Lexical_Decision_Task.osexp","/Users/josieking/Documents","no","Andale Mono","no","18","no","white","no","yes","576","legacy","29","29","3","/Users/josieking/Documents/subject-5203061.csv","legacy","Lentiform Loewenfeld","3.3.7","yes","yes","600bd7cfb6416f0113b04181","602110864497cf011d9c0822","0","j","NA","return","space","return","NA","j","611","NA","3102","8437","11448","NA","611","2","legacy","1024","2","48000","-16","task","5203061","odd","NA","31500","36605","33503","89216","4188","24094","12645","89719","NA","89214","89719","89163","36605","90330","29951","88662","4178","47666","Lexical Decision Task","30","22349","34","yes","1024"
"3.049218023","7.4","9","robe","word","88.57142857142857","88.57142857142857","657.1428571428571","657.1428571428571","black","no","legacy","legacy","legacy","0","uniform","1","undefined","undefined","undefined","1","j","0","0","0","0","34","0","0","0","34","NA","30","34","30","0","30","3","34","0","34","Wed Feb 17 10:58:48 2021","The main experiment item","yes","Lexical_Decision_Task.osexp","/Users/josieking/Documents","no","Andale Mono","no","18","no","white","no","yes","576","legacy","30","30","3","/Users/josieking/Documents/subject-5203061.csv","legacy","Lentiform Loewenfeld","3.3.7","yes","yes","600bd7cfb6416f0113b04181","602110864497cf011d9c0822","0","j","NA","return","space","return","NA","j","651","NA","3102","8437","11448","NA","651","2","legacy","1024","2","48000","-16","task","5203061","odd","NA","31500","36605","33503","91896","4188","24094","12645","92399","NA","91893","92399","91834","36605","93050","29951","88662","4178","90334","Lexical Decision Task","31","23000","35","yes","1024"
"3.16326079","0","5","parg","non-word","88.88888888888889","88.88888888888889","650.0277777777778","650.0277777777778","black","no","legacy","legacy","legacy","0","uniform","1","undefined","undefined","undefined","1","f","0","0","0","0","35","0","0","0","35","NA","31","35","31","0","31","3","35","0","35","Wed Feb 17 10:58:48 2021","The main experiment item","yes","Lexical_Decision_Task.osexp","/Users/josieking/Documents","no","Andale Mono","no","18","no","white","no","yes","576","legacy","31","31","3","/Users/josieking/Documents/subject-5203061.csv","legacy","Lentiform Loewenfeld","3.3.7","yes","yes","600bd7cfb6416f0113b04181","602110864497cf011d9c0822","0","f","NA","return","space","return","NA","f","401","NA","3102","8437","11448","NA","401","2","legacy","1024","2","48000","-16","task","5203061","odd","NA","31500","36605","33503","93614","4188","24094","12645","94117","NA","93611","94117","93555","36605","94518","29951","93055","4178","90334","Lexical Decision Task","32","23401","36","yes","1024"
"3.076883066","0","8","mout","non-word","89.1891891891892","89.1891891891892","670.7297297297297","670.7297297297297","black","no","legacy","legacy","legacy","0","uniform","1","undefined","undefined","undefined","1","f","0","0","0","0","36","0","0","0","36","NA","32","36","32","0","32","3","36","0","36","Wed Feb 17 10:58:48 2021","The main experiment item","yes","Lexical_Decision_Task.osexp","/Users/josieking/Documents","no","Andale Mono","no","18","no","white","no","yes","576","legacy","32","32","3","/Users/josieking/Documents/subject-5203061.csv","legacy","Lentiform Loewenfeld","3.3.7","yes","yes","600bd7cfb6416f0113b04181","602110864497cf011d9c0822","0","f","NA","return","space","return","NA","f","1416","NA","3102","8437","11448","NA","1416","2","legacy","1024","2","48000","-16","task","5203061","odd","NA","31500","36605","33503","95081","4188","24094","12645","95585","NA","95079","95585","95022","36605","97002","29951","94522","4178","90334","Lexical Decision Task","33","24817","37","yes","1024"
"2.80048796","0","8","pife","non-word","89.47368421052632","89.47368421052632","671.6578947368421","671.6578947368421","black","no","legacy","legacy","legacy","0","uniform","1","undefined","undefined","undefined","1","f","0","0","0","0","37","0","0","0","37","NA","33","37","33","0","33","3","37","0","37","Wed Feb 17 10:58:48 2021","The main experiment item","yes","Lexical_Decision_Task.osexp","/Users/josieking/Documents","no","Andale Mono","no","18","no","white","no","yes","576","legacy","33","33","3","/Users/josieking/Documents/subject-5203061.csv","legacy","Lentiform Loewenfeld","3.3.7","yes","yes","600bd7cfb6416f0113b04181","602110864497cf011d9c0822","0","f","NA","return","space","return","NA","f","706","NA","3102","8437","11448","NA","706","2","legacy","1024","2","48000","-16","task","5203061","odd","NA","31500","36605","33503","97565","4188","24094","12645","98068","NA","97562","98068","97506","36605","98775","29951","97006","4178","90334","Lexical Decision Task","34","25523","38","yes","1024"
"3.353210739","0","9","reet","non-word","87.17948717948718","87.17948717948718","673.6410256410256","673.6410256410256","black","no","legacy","legacy","legacy","0","uniform","0","undefined","undefined","undefined","0","f","0","0","0","0","38","0","0","0","38","NA","34","38","34","0","34","3","38","0","38","Wed Feb 17 10:58:48 2021","The main experiment item","yes","Lexical_Decision_Task.osexp","/Users/josieking/Documents","no","Andale Mono","no","18","no","white","no","yes","576","legacy","34","34","3","/Users/josieking/Documents/subject-5203061.csv","legacy","Lentiform Loewenfeld","3.3.7","yes","yes","600bd7cfb6416f0113b04181","602110864497cf011d9c0822","0","j","NA","return","space","return","NA","j","749","NA","3102","8437","11448","NA","749","2","legacy","1024","2","48000","-16","task","5203061","odd","NA","31500","36605","33503","99339","4188","24094","12645","99842","NA","99336","99842","99278","36605","100592","29951","98778","4178","90334","Lexical Decision Task","34","26272","39","yes","1024"
"2.784379519","0","2","snaf","non-word","87.5","87.5","675.05","675.05","black","no","legacy","legacy","legacy","0","uniform","1","undefined","undefined","undefined","1","f","0","0","0","0","39","0","0","0","39","NA","35","39","35","0","35","3","39","0","39","Wed Feb 17 10:58:48 2021","The main experiment item","yes","Lexical_Decision_Task.osexp","/Users/josieking/Documents","no","Andale Mono","no","18","no","white","no","yes","576","legacy","35","35","3","/Users/josieking/Documents/subject-5203061.csv","legacy","Lentiform Loewenfeld","3.3.7","yes","yes","600bd7cfb6416f0113b04181","602110864497cf011d9c0822","0","f","NA","return","space","return","NA","f","730","NA","3102","8437","11448","NA","730","2","legacy","1024","2","48000","-16","task","5203061","odd","NA","31500","36605","33503","102161","4188","24094","12645","102664","NA","102158","102664","102096","36605","103395","29951","98778","4178","100596","Lexical Decision Task","35","27002","40","yes","1024"
"2.771097306","0","9","jold","non-word","87.8048780487805","87.8048780487805","674.9268292682926","674.9268292682926","black","no","legacy","legacy","legacy","0","uniform","1","undefined","undefined","undefined","1","f","0","0","0","0","40","0","0","0","40","NA","36","40","36","0","36","3","40","0","40","Wed Feb 17 10:58:48 2021","The main experiment item","yes","Lexical_Decision_Task.osexp","/Users/josieking/Documents","no","Andale Mono","no","18","no","white","no","yes","576","legacy","36","36","3","/Users/josieking/Documents/subject-5203061.csv","legacy","Lentiform Loewenfeld","3.3.7","yes","yes","600bd7cfb6416f0113b04181","602110864497cf011d9c0822","0","f","NA","return","space","return","NA","f","670","NA","3102","8437","11448","NA","670","2","legacy","1024","2","48000","-16","task","5203061","odd","NA","31500","36605","33503","103958","4188","24094","12645","104461","NA","103955","104461","103899","36605","105132","29951","103399","4178","100596","Lexical Decision Task","36","27672","41","yes","1024"
"2.813801082","5.47","7","nook","word","85.71428571428571","85.71428571428571","671.0238095238095","671.0238095238095","black","no","legacy","legacy","legacy","0","uniform","0","undefined","undefined","undefined","0","j","0","0","0","0","41","0","0","0","41","NA","37","41","37","0","37","3","41","0","41","Wed Feb 17 10:58:48 2021","The main experiment item","yes","Lexical_Decision_Task.osexp","/Users/josieking/Documents","no","Andale Mono","no","18","no","white","no","yes","576","legacy","37","37","3","/Users/josieking/Documents/subject-5203061.csv","legacy","Lentiform Loewenfeld","3.3.7","yes","yes","600bd7cfb6416f0113b04181","602110864497cf011d9c0822","0","f","NA","return","space","return","NA","f","511","NA","3102","8437","11448","NA","511","2","legacy","1024","2","48000","-16","task","5203061","odd","NA","31500","36605","33503","105694","4188","24094","12645","106197","NA","105692","106197","105635","36605","106709","29951","105135","4178","100596","Lexical Decision Task","36","28183","42","yes","1024"
"2.892836167","10.01","5","soft","word","83.72093023255815","83.72093023255815","669.1162790697674","669.1162790697674","black","no","legacy","legacy","legacy","0","uniform","0","undefined","undefined","undefined","0","j","0","0","0","0","42","0","0","0","42","NA","38","42","38","0","38","3","42","0","42","Wed Feb 17 10:58:48 2021","The main experiment item","yes","Lexical_Decision_Task.osexp","/Users/josieking/Documents","no","Andale Mono","no","18","no","white","no","yes","576","legacy","38","38","3","/Users/josieking/Documents/subject-5203061.csv","legacy","Lentiform Loewenfeld","3.3.7","yes","yes","600bd7cfb6416f0113b04181","602110864497cf011d9c0822","0","f","NA","return","space","return","NA","f","589","NA","3102","8437","11448","NA","589","2","legacy","1024","2","48000","-16","task","5203061","odd","NA","31500","36605","33503","108277","4188","24094","12645","108780","NA","108274","108780","108213","36605","109370","29951","105135","4178","106713","Lexical Decision Task","36","28772","43","yes","1024"
"3.043885998","0","9","gome","non-word","84.0909090909091","84.0909090909091","670.5454545454545","670.5454545454545","black","no","legacy","legacy","legacy","0","uniform","1","undefined","undefined","undefined","1","f","0","0","0","0","43","0","0","0","43","NA","39","43","39","0","39","3","43","0","43","Wed Feb 17 10:58:48 2021","The main experiment item","yes","Lexical_Decision_Task.osexp","/Users/josieking/Documents","no","Andale Mono","no","18","no","white","no","yes","576","legacy","39","39","3","/Users/josieking/Documents/subject-5203061.csv","legacy","Lentiform Loewenfeld","3.3.7","yes","yes","600bd7cfb6416f0113b04181","602110864497cf011d9c0822","0","f","NA","return","space","return","NA","f","732","NA","3102","8437","11448","NA","732","2","legacy","1024","2","48000","-16","task","5203061","odd","NA","31500","36605","33503","110961","4188","24094","12645","111464","NA","110933","111464","110874","36605","112197","29951","105135","4178","109374","Lexical Decision Task","37","29504","44","yes","1024"
"2.708989954","9.28","9","bowl","word","84.44444444444444","84.44444444444444","669.5333333333333","669.5333333333333","black","no","legacy","legacy","legacy","0","uniform","1","undefined","undefined","undefined","1","j","0","0","0","0","44","0","0","0","44","NA","40","44","40","0","40","3","44","0","44","Wed Feb 17 10:58:48 2021","The main experiment item","yes","Lexical_Decision_Task.osexp","/Users/josieking/Documents","no","Andale Mono","no","18","no","white","no","yes","576","legacy","40","40","3","/Users/josieking/Documents/subject-5203061.csv","legacy","Lentiform Loewenfeld","3.3.7","yes","yes","600bd7cfb6416f0113b04181","602110864497cf011d9c0822","0","j","NA","return","space","return","NA","j","625","NA","3102","8437","11448","NA","625","2","legacy","1024","2","48000","-16","task","5203061","odd","NA","31500","36605","33503","112761","4188","24094","12645","113265","NA","112758","113265","112700","36605","113891","29951","112200","4178","109374","Lexical Decision Task","38","30129","45","yes","1024"
"3.311895072","0","9","gung","non-word","84.78260869565217","84.78260869565217","669.4782608695652","669.4782608695652","black","no","legacy","legacy","legacy","0","uniform","1","undefined","undefined","undefined","1","f","0","0","0","0","45","0","0","0","45","NA","41","45","41","0","41","3","45","0","45","Wed Feb 17 10:58:48 2021","The main experiment item","yes","Lexical_Decision_Task.osexp","/Users/josieking/Documents","no","Andale Mono","no","18","no","white","no","yes","576","legacy","41","41","3","/Users/josieking/Documents/subject-5203061.csv","legacy","Lentiform Loewenfeld","3.3.7","yes","yes","600bd7cfb6416f0113b04181","602110864497cf011d9c0822","0","f","NA","return","space","return","NA","f","667","NA","3102","8437","11448","NA","667","2","legacy","1024","2","48000","-16","task","5203061","odd","NA","31500","36605","33503","114454","4188","24094","12645","114957","NA","114452","114957","114395","36605","115624","29951","113895","4178","109374","Lexical Decision Task","39","30796","46","yes","1024"
"3.363486562","6.93","9","lush","word","85.1063829787234","85.1063829787234","667.8936170212766","667.8936170212766","black","no","legacy","legacy","legacy","0","uniform","1","undefined","undefined","undefined","1","j","0","0","0","0","46","0","0","0","46","NA","42","46","42","0","42","3","46","0","46","Wed Feb 17 10:58:48 2021","The main experiment item","yes","Lexical_Decision_Task.osexp","/Users/josieking/Documents","no","Andale Mono","no","18","no","white","no","yes","576","legacy","42","42","3","/Users/josieking/Documents/subject-5203061.csv","legacy","Lentiform Loewenfeld","3.3.7","yes","yes","600bd7cfb6416f0113b04181","602110864497cf011d9c0822","0","j","NA","return","space","return","NA","j","595","NA","3102","8437","11448","NA","595","2","legacy","1024","2","48000","-16","task","5203061","odd","NA","31500","36605","33503","116187","4188","24094","12645","116690","NA","116184","116690","116128","36605","117285","29951","115628","4178","109374","Lexical Decision Task","40","31391","47","yes","1024"
"3.216517684","10.87","3","film","word","85.41666666666667","85.41666666666667","666.1458333333334","666.1458333333334","black","no","legacy","legacy","legacy","0","uniform","1","undefined","undefined","undefined","1","j","0","0","0","0","47","0","0","0","47","NA","43","47","43","0","43","3","47","0","47","Wed Feb 17 10:58:48 2021","The main experiment item","yes","Lexical_Decision_Task.osexp","/Users/josieking/Documents","no","Andale Mono","no","18","no","white","no","yes","576","legacy","43","43","3","/Users/josieking/Documents/subject-5203061.csv","legacy","Lentiform Loewenfeld","3.3.7","yes","yes","600bd7cfb6416f0113b04181","602110864497cf011d9c0822","0","j","NA","return","space","return","NA","j","584","NA","3102","8437","11448","NA","584","2","legacy","1024","2","48000","-16","task","5203061","odd","NA","31500","36605","33503","117850","4188","24094","12645","118353","NA","117846","118353","117789","36605","118938","29951","117289","4178","109374","Lexical Decision Task","41","31975","48","yes","1024"
"2.899638141","0","3","hapt","non-word","85.71428571428571","85.71428571428571","665.9591836734694","665.9591836734694","black","no","legacy","legacy","legacy","0","uniform","1","undefined","undefined","undefined","1","f","0","0","0","0","48","0","0","0","48","NA","44","48","44","0","44","3","48","0","48","Wed Feb 17 10:58:48 2021","The main experiment item","yes","Lexical_Decision_Task.osexp","/Users/josieking/Documents","no","Andale Mono","no","18","no","white","no","yes","576","legacy","44","44","3","/Users/josieking/Documents/subject-5203061.csv","legacy","Lentiform Loewenfeld","3.3.7","yes","yes","600bd7cfb6416f0113b04181","602110864497cf011d9c0822","0","f","NA","return","space","return","NA","f","657","NA","3102","8437","11448","NA","657","2","legacy","1024","2","48000","-16","task","5203061","odd","NA","31500","36605","33503","119501","4188","24094","12645","120004","NA","119498","120004","119441","36605","120661","29951","118941","4178","109374","Lexical Decision Task","42","32632","49","yes","1024"
"2.744553742","0","2","nawk","non-word","86","86","666.32","666.32","black","no","legacy","legacy","legacy","0","uniform","1","undefined","undefined","undefined","1","f","0","0","0","0","49","0","0","0","49","NA","45","49","45","0","45","3","49","0","49","Wed Feb 17 10:58:48 2021","The main experiment item","yes","Lexical_Decision_Task.osexp","/Users/josieking/Documents","no","Andale Mono","no","18","no","white","no","yes","576","legacy","45","45","3","/Users/josieking/Documents/subject-5203061.csv","legacy","Lentiform Loewenfeld","3.3.7","yes","yes","600bd7cfb6416f0113b04181","602110864497cf011d9c0822","0","f","NA","return","space","return","NA","f","684","NA","3102","8437","11448","NA","684","2","legacy","1024","2","48000","-16","task","5203061","odd","NA","31500","36605","33503","121224","4188","24094","12645","121727","NA","121221","121727","121165","36605","122412","29951","120665","4178","109374","Lexical Decision Task","43","33316","50","yes","1024"
"2.966923697","5.4","2","fume","word","86.27450980392157","86.27450980392157","664.2549019607843","664.2549019607843","black","no","legacy","legacy","legacy","0","uniform","1","undefined","undefined","undefined","1","j","0","0","0","0","50","0","0","0","50","NA","46","50","46","0","46","3","50","0","50","Wed Feb 17 10:58:48 2021","The main experiment item","yes","Lexical_Decision_Task.osexp","/Users/josieking/Documents","no","Andale Mono","no","18","no","white","no","yes","576","legacy","46","46","3","/Users/josieking/Documents/subject-5203061.csv","legacy","Lentiform Loewenfeld","3.3.7","yes","yes","600bd7cfb6416f0113b04181","602110864497cf011d9c0822","0","j","NA","return","space","return","NA","j","561","NA","3102","8437","11448","NA","561","2","legacy","1024","2","48000","-16","task","5203061","odd","NA","31500","36605","33503","122977","4188","24094","12645","123480","NA","122974","123480","122916","36605","124042","29951","122415","4178","109374","Lexical Decision Task","44","33877","51","yes","1024"
"3.307211407","6.07","7","honk","word","86.53846153846153","86.53846153846153","663.6923076923077","663.6923076923077","black","no","legacy","legacy","legacy","0","uniform","1","undefined","undefined","undefined","1","j","0","0","0","0","51","0","0","0","51","NA","47","51","47","0","47","3","51","0","51","Wed Feb 17 10:58:48 2021","The main experiment item","yes","Lexical_Decision_Task.osexp","/Users/josieking/Documents","no","Andale Mono","no","18","no","white","no","yes","576","legacy","47","47","3","/Users/josieking/Documents/subject-5203061.csv","legacy","Lentiform Loewenfeld","3.3.7","yes","yes","600bd7cfb6416f0113b04181","602110864497cf011d9c0822","0","j","NA","return","space","return","NA","j","635","NA","3102","8437","11448","NA","635","2","legacy","1024","2","48000","-16","task","5203061","odd","NA","31500","36605","33503","124605","4188","24094","12645","125108","NA","124602","125108","124546","36605","125743","29951","124046","4178","109374","Lexical Decision Task","45","34512","52","yes","1024"
"3.218535505","7.85","7","goat","word","86.79245283018868","86.79245283018868","662.377358490566","662.377358490566","black","no","legacy","legacy","legacy","0","uniform","1","undefined","undefined","undefined","1","j","0","0","0","0","52","0","0","0","52","NA","48","52","48","0","48","3","52","0","52","Wed Feb 17 10:58:48 2021","The main experiment item","yes","Lexical_Decision_Task.osexp","/Users/josieking/Documents","no","Andale Mono","no","18","no","white","no","yes","576","legacy","48","48","3","/Users/josieking/Documents/subject-5203061.csv","legacy","Lentiform Loewenfeld","3.3.7","yes","yes","600bd7cfb6416f0113b04181","602110864497cf011d9c0822","0","j","NA","return","space","return","NA","j","594","NA","3102","8437","11448","NA","594","2","legacy","1024","2","48000","-16","task","5203061","odd","NA","31500","36605","33503","126310","4188","24094","12645","126813","NA","126307","126813","126247","36605","127407","29951","125747","4178","109374","Lexical Decision Task","46","35106","53","yes","1024"
"2.799799878","0","4","ciff","non-word","87.03703703703704","87.03703703703704","660.3518518518518","660.3518518518518","black","no","legacy","legacy","legacy","0","uniform","1","undefined","undefined","undefined","1","f","0","0","0","0","53","0","0","0","53","NA","49","53","49","0","49","3","53","0","53","Wed Feb 17 10:58:48 2021","The main experiment item","yes","Lexical_Decision_Task.osexp","/Users/josieking/Documents","no","Andale Mono","no","18","no","white","no","yes","576","legacy","49","49","3","/Users/josieking/Documents/subject-5203061.csv","legacy","Lentiform Loewenfeld","3.3.7","yes","yes","600bd7cfb6416f0113b04181","602110864497cf011d9c0822","0","f","NA","return","space","return","NA","f","553","NA","3102","8437","11448","NA","553","2","legacy","1024","2","48000","-16","task","5203061","odd","NA","31500","36605","33503","127972","4188","24094","12645","128475","NA","127969","128475","127911","36605","129029","29951","127411","4178","109374","Lexical Decision Task","47","35659","54","yes","1024"
"2.979548375","8.71","4","soup","word","87.27272727272727","87.27272727272727","658.6181818181818","658.6181818181818","black","no","legacy","legacy","legacy","0","uniform","1","undefined","undefined","undefined","1","j","0","0","0","0","54","0","0","0","54","0","50","54","50","0","50","3","54","0","54","Wed Feb 17 10:58:48 2021","The main experiment item","yes","Lexical_Decision_Task.osexp","/Users/josieking/Documents","no","Andale Mono","no","18","no","white","no","yes","576","legacy","50","50","3","/Users/josieking/Documents/subject-5203061.csv","legacy","Lentiform Loewenfeld","3.3.7","yes","yes","600bd7cfb6416f0113b04181","602110864497cf011d9c0822","0","j","NA","return","space","return","space","j","565","NA","3102","8437","11448","5682","565","2","legacy","1024","2","48000","-16","task","5203061","odd","NA","31500","36605","33503","135294","4188","24094","12645","135799","129557","135292","135799","129533","36605","136365","29951","129033","4178","109374","Lexical Decision Task","48","36224","55","yes","1024"
"2.696644658","5.78","2","yolk","word","87.5","87.5","657.6785714285714","657.6785714285714","black","no","legacy","legacy","legacy","0","uniform","1","undefined","undefined","undefined","1","j","0","0","0","0","55","0","0","0","55","0","51","55","51","0","51","3","55","0","55","Wed Feb 17 10:58:48 2021","The main experiment item","yes","Lexical_Decision_Task.osexp","/Users/josieking/Documents","no","Andale Mono","no","18","no","white","no","yes","576","legacy","51","51","3","/Users/josieking/Documents/subject-5203061.csv","legacy","Lentiform Loewenfeld","3.3.7","yes","yes","600bd7cfb6416f0113b04181","602110864497cf011d9c0822","0","j","NA","return","space","return","space","j","606","NA","3102","8437","11448","5682","606","2","legacy","1024","2","48000","-16","task","5203061","odd","NA","31500","36605","33503","136929","4188","24094","12645","137432","129557","136926","137432","136869","36605","138039","29951","136369","4178","109374","Lexical Decision Task","49","36830","56","yes","1024"
"2.895974732","6.65","5","sift","word","87.71929824561404","87.71929824561404","653.8070175438596","653.8070175438596","black","no","legacy","legacy","legacy","0","uniform","1","undefined","undefined","undefined","1","j","0","0","0","0","56","0","0","0","56","0","52","56","52","0","52","3","56","0","56","Wed Feb 17 10:58:48 2021","The main experiment item","yes","Lexical_Decision_Task.osexp","/Users/josieking/Documents","no","Andale Mono","no","18","no","white","no","yes","576","legacy","52","52","3","/Users/josieking/Documents/subject-5203061.csv","legacy","Lentiform Loewenfeld","3.3.7","yes","yes","600bd7cfb6416f0113b04181","602110864497cf011d9c0822","0","j","NA","return","space","return","space","j","437","NA","3102","8437","11448","5682","437","2","legacy","1024","2","48000","-16","task","5203061","odd","NA","31500","36605","33503","138603","4188","24094","12645","139106","129557","138600","139106","138543","36605","139544","29951","138043","4178","109374","Lexical Decision Task","50","37267","57","yes","1024"
"3.168890155","0","6","thet","non-word","87.93103448275862","87.93103448275862","650.9827586206897","650.9827586206897","black","no","legacy","legacy","legacy","0","uniform","1","undefined","undefined","undefined","1","f","0","0","0","0","57","0","0","0","57","0","53","57","53","0","53","3","57","0","57","Wed Feb 17 10:58:48 2021","The main experiment item","yes","Lexical_Decision_Task.osexp","/Users/josieking/Documents","no","Andale Mono","no","18","no","white","no","yes","576","legacy","53","53","3","/Users/josieking/Documents/subject-5203061.csv","legacy","Lentiform Loewenfeld","3.3.7","yes","yes","600bd7cfb6416f0113b04181","602110864497cf011d9c0822","0","f","NA","return","space","return","space","f","490","NA","3102","8437","11448","5682","490","2","legacy","1024","2","48000","-16","task","5203061","odd","NA","31500","36605","33503","140108","4188","24094","12645","140611","129557","140105","140611","140047","36605","141102","29951","139547","4178","109374","Lexical Decision Task","51","37757","58","yes","1024"
"2.812467698","0","7","hafe","non-word","86.44067796610169","86.44067796610169","645.7796610169491","645.7796610169491","black","no","legacy","legacy","legacy","0","uniform","0","undefined","undefined","undefined","0","f","0","0","0","0","58","0","0","0","58","0","54","58","54","0","54","3","58","0","58","Wed Feb 17 10:58:48 2021","The main experiment item","yes","Lexical_Decision_Task.osexp","/Users/josieking/Documents","no","Andale Mono","no","18","no","white","no","yes","576","legacy","54","54","3","/Users/josieking/Documents/subject-5203061.csv","legacy","Lentiform Loewenfeld","3.3.7","yes","yes","600bd7cfb6416f0113b04181","602110864497cf011d9c0822","0","j","NA","return","space","return","space","j","344","NA","3102","8437","11448","5682","344","2","legacy","1024","2","48000","-16","task","5203061","odd","NA","31500","36605","33503","141666","4188","24094","12645","142169","129557","141663","142169","141606","36605","142514","29951","141105","4178","109374","Lexical Decision Task","51","38101","59","yes","1024"
"3.209246849","0","7","slem","non-word","86.66666666666667","86.66666666666667","647.2333333333333","647.2333333333333","black","no","legacy","legacy","legacy","0","uniform","1","undefined","undefined","undefined","1","f","0","0","0","0","59","0","0","0","59","0","55","59","55","0","55","3","59","0","59","Wed Feb 17 10:58:48 2021","The main experiment item","yes","Lexical_Decision_Task.osexp","/Users/josieking/Documents","no","Andale Mono","no","18","no","white","no","yes","576","legacy","55","55","3","/Users/josieking/Documents/subject-5203061.csv","legacy","Lentiform Loewenfeld","3.3.7","yes","yes","600bd7cfb6416f0113b04181","602110864497cf011d9c0822","0","f","NA","return","space","return","space","f","733","NA","3102","8437","11448","5682","733","2","legacy","1024","2","48000","-16","task","5203061","odd","NA","31500","36605","33503","144081","4188","24094","12645","144584","129557","144078","144584","144018","36605","145317","29951","141105","4178","142518","Lexical Decision Task","52","38834","60","yes","1024"
"2.714888338","0","3","brug","non-word","86.88524590163935","86.88524590163935","645.5573770491803","645.5573770491803","black","no","legacy","legacy","legacy","0","uniform","1","undefined","undefined","undefined","1","f","0","0","0","0","60","0","0","0","60","0","56","60","56","0","56","3","60","0","60","Wed Feb 17 10:58:48 2021","The main experiment item","yes","Lexical_Decision_Task.osexp","/Users/josieking/Documents","no","Andale Mono","no","18","no","white","no","yes","576","legacy","56","56","3","/Users/josieking/Documents/subject-5203061.csv","legacy","Lentiform Loewenfeld","3.3.7","yes","yes","600bd7cfb6416f0113b04181","602110864497cf011d9c0822","0","f","NA","return","space","return","space","f","545","NA","3102","8437","11448","5682","545","2","legacy","1024","2","48000","-16","task","5203061","odd","NA","31500","36605","33503","145880","4188","24094","12645","146383","129557","145878","146383","145821","36605","146929","29951","145321","4178","142518","Lexical Decision Task","53","39379","61","yes","1024"
"3.174641193","0","3","ramb","non-word","87.09677419354838","87.09677419354838","645.016129032258","645.016129032258","black","no","legacy","legacy","legacy","0","uniform","1","undefined","undefined","undefined","1","f","0","0","0","0","61","0","0","0","61","0","57","61","57","0","57","3","61","0","61","Wed Feb 17 10:58:48 2021","The main experiment item","yes","Lexical_Decision_Task.osexp","/Users/josieking/Documents","no","Andale Mono","no","18","no","white","no","yes","576","legacy","57","57","3","/Users/josieking/Documents/subject-5203061.csv","legacy","Lentiform Loewenfeld","3.3.7","yes","yes","600bd7cfb6416f0113b04181","602110864497cf011d9c0822","0","f","NA","return","space","return","space","f","612","NA","3102","8437","11448","5682","612","2","legacy","1024","2","48000","-16","task","5203061","odd","NA","31500","36605","33503","147491","4188","24094","12645","147995","129557","147488","147995","147432","36605","148607","29951","146932","4178","142518","Lexical Decision Task","54","39991","62","yes","1024"
"3.197740804","6.74","3","ache","word","87.3015873015873","87.3015873015873","642.7619047619048","642.7619047619048","black","no","legacy","legacy","legacy","0","uniform","1","undefined","undefined","undefined","1","j","0","0","0","0","62","0","0","0","62","0","58","62","58","0","58","3","62","0","62","Wed Feb 17 10:58:48 2021","The main experiment item","yes","Lexical_Decision_Task.osexp","/Users/josieking/Documents","no","Andale Mono","no","18","no","white","no","yes","576","legacy","58","58","3","/Users/josieking/Documents/subject-5203061.csv","legacy","Lentiform Loewenfeld","3.3.7","yes","yes","600bd7cfb6416f0113b04181","602110864497cf011d9c0822","0","j","NA","return","space","return","space","j","503","NA","3102","8437","11448","5682","503","2","legacy","1024","2","48000","-16","task","5203061","odd","NA","31500","36605","33503","149172","4188","24094","12645","149675","129557","149169","149675","149111","36605","150179","29951","148611","4178","142518","Lexical Decision Task","55","40494","63","yes","1024"
"2.696356389","0","1","pizz","non-word","87.5","87.5","643","643","black","no","legacy","legacy","legacy","0","uniform","1","undefined","undefined","undefined","1","f","0","0","0","0","63","0","0","0","63","0","59","63","59","0","59","3","63","0","63","Wed Feb 17 10:58:48 2021","The main experiment item","yes","Lexical_Decision_Task.osexp","/Users/josieking/Documents","no","Andale Mono","no","18","no","white","no","yes","576","legacy","59","59","3","/Users/josieking/Documents/subject-5203061.csv","legacy","Lentiform Loewenfeld","3.3.7","yes","yes","600bd7cfb6416f0113b04181","602110864497cf011d9c0822","0","f","NA","return","space","return","space","f","658","NA","3102","8437","11448","5682","658","2","legacy","1024","2","48000","-16","task","5203061","odd","NA","31500","36605","33503","150741","4188","24094","12645","151244","129557","150739","151244","150682","36605","151903","29951","150182","4178","142518","Lexical Decision Task","56","41152","64","yes","1024"
"2.703007489","8.37","3","pulp","word","86.15384615384616","86.15384615384616","642.7692307692307","642.7692307692307","black","no","legacy","legacy","legacy","0","uniform","0","undefined","undefined","undefined","0","j","0","0","0","0","64","0","0","0","64","0","60","64","60","0","60","3","64","0","64","Wed Feb 17 10:58:48 2021","The main experiment item","yes","Lexical_Decision_Task.osexp","/Users/josieking/Documents","no","Andale Mono","no","18","no","white","no","yes","576","legacy","60","60","3","/Users/josieking/Documents/subject-5203061.csv","legacy","Lentiform Loewenfeld","3.3.7","yes","yes","600bd7cfb6416f0113b04181","602110864497cf011d9c0822","0","f","NA","return","space","return","space","f","628","NA","3102","8437","11448","5682","628","2","legacy","1024","2","48000","-16","task","5203061","odd","NA","31500","36605","33503","152466","4188","24094","12645","152969","129557","152463","152969","152407","36605","153598","29951","151907","4178","142518","Lexical Decision Task","56","41780","65","yes","1024"
"2.7084209","0","8","vump","non-word","86.36363636363636","86.36363636363636","643.7575757575758","643.7575757575758","black","no","legacy","legacy","legacy","0","uniform","1","undefined","undefined","undefined","1","f","0","0","0","0","65","0","0","0","65","0","61","65","61","0","61","3","65","0","65","Wed Feb 17 10:58:48 2021","The main experiment item","yes","Lexical_Decision_Task.osexp","/Users/josieking/Documents","no","Andale Mono","no","18","no","white","no","yes","576","legacy","61","61","3","/Users/josieking/Documents/subject-5203061.csv","legacy","Lentiform Loewenfeld","3.3.7","yes","yes","600bd7cfb6416f0113b04181","602110864497cf011d9c0822","0","f","NA","return","space","return","space","f","708","NA","3102","8437","11448","5682","708","2","legacy","1024","2","48000","-16","task","5203061","odd","NA","31500","36605","33503","155167","4188","24094","12645","155669","129557","155164","155669","155102","36605","156378","29951","151907","4178","153602","Lexical Decision Task","57","42488","66","yes","1024"
"3.397302518","7.01","2","knit","word","86.56716417910448","86.56716417910448","642.0746268656717","642.0746268656717","black","no","legacy","legacy","legacy","0","uniform","1","undefined","undefined","undefined","1","j","0","0","0","0","66","0","0","0","66","0","62","66","62","0","62","3","66","0","66","Wed Feb 17 10:58:48 2021","The main experiment item","yes","Lexical_Decision_Task.osexp","/Users/josieking/Documents","no","Andale Mono","no","18","no","white","no","yes","576","legacy","62","62","3","/Users/josieking/Documents/subject-5203061.csv","legacy","Lentiform Loewenfeld","3.3.7","yes","yes","600bd7cfb6416f0113b04181","602110864497cf011d9c0822","0","j","NA","return","space","return","space","j","531","NA","3102","8437","11448","5682","531","2","legacy","1024","2","48000","-16","task","5203061","odd","NA","31500","36605","33503","156939","4188","24094","12645","157443","129557","156937","157443","156882","36605","157975","29951","156382","4178","153602","Lexical Decision Task","58","43019","67","yes","1024"
"3.529815197","0","3","lerm","non-word","86.76470588235294","86.76470588235294","642.5882352941177","642.5882352941177","black","no","legacy","legacy","legacy","0","uniform","1","undefined","undefined","undefined","1","f","0","0","0","0","67","0","0","0","67","0","63","67","63","0","63","3","67","0","67","Wed Feb 17 10:58:48 2021","The main experiment item","yes","Lexical_Decision_Task.osexp","/Users/josieking/Documents","no","Andale Mono","no","18","no","white","no","yes","576","legacy","63","63","3","/Users/josieking/Documents/subject-5203061.csv","legacy","Lentiform Loewenfeld","3.3.7","yes","yes","600bd7cfb6416f0113b04181","602110864497cf011d9c0822","0","f","NA","return","space","return","space","f","677","NA","3102","8437","11448","5682","677","2","legacy","1024","2","48000","-16","task","5203061","odd","NA","31500","36605","33503","158539","4188","24094","12645","159042","129557","158537","159042","158479","36605","159720","29951","157979","4178","153602","Lexical Decision Task","59","43696","68","yes","1024"
"3.120025233","0","2","nyst","non-word","86.95652173913044","86.95652173913044","641.5797101449275","641.5797101449275","black","no","legacy","legacy","legacy","0","uniform","1","undefined","undefined","undefined","1","f","0","0","0","0","68","0","0","0","68","0","64","68","64","0","64","3","68","0","68","Wed Feb 17 10:58:48 2021","The main experiment item","yes","Lexical_Decision_Task.osexp","/Users/josieking/Documents","no","Andale Mono","no","18","no","white","no","yes","576","legacy","64","64","3","/Users/josieking/Documents/subject-5203061.csv","legacy","Lentiform Loewenfeld","3.3.7","yes","yes","600bd7cfb6416f0113b04181","602110864497cf011d9c0822","0","f","NA","return","space","return","space","f","573","NA","3102","8437","11448","5682","573","2","legacy","1024","2","48000","-16","task","5203061","odd","NA","31500","36605","33503","160283","4188","24094","12645","160786","129557","160280","160786","160224","36605","161360","29951","159724","4178","153602","Lexical Decision Task","60","44269","69","yes","1024"
"3.081107167","0","6","chot","non-word","87.14285714285714","87.14285714285714","641.9285714285714","641.9285714285714","black","no","legacy","legacy","legacy","0","uniform","1","undefined","undefined","undefined","1","f","0","0","0","0","69","0","0","0","69","0","65","69","65","0","65","3","69","0","69","Wed Feb 17 10:58:48 2021","The main experiment item","yes","Lexical_Decision_Task.osexp","/Users/josieking/Documents","no","Andale Mono","no","18","no","white","no","yes","576","legacy","65","65","3","/Users/josieking/Documents/subject-5203061.csv","legacy","Lentiform Loewenfeld","3.3.7","yes","yes","600bd7cfb6416f0113b04181","602110864497cf011d9c0822","0","f","NA","return","space","return","space","f","666","NA","3102","8437","11448","5682","666","2","legacy","1024","2","48000","-16","task","5203061","odd","NA","31500","36605","33503","161923","4188","24094","12645","162426","129557","161920","162426","161864","36605","163093","29951","161364","4178","153602","Lexical Decision Task","61","44935","70","yes","1024"
"3.705778213","0","6","stin","non-word","85.91549295774648","85.91549295774648","640.1408450704225","640.1408450704225","black","no","legacy","legacy","legacy","0","uniform","0","undefined","undefined","undefined","0","f","0","0","0","0","70","0","0","0","70","0","66","70","66","0","66","3","70","0","70","Wed Feb 17 10:58:48 2021","The main experiment item","yes","Lexical_Decision_Task.osexp","/Users/josieking/Documents","no","Andale Mono","no","18","no","white","no","yes","576","legacy","66","66","3","/Users/josieking/Documents/subject-5203061.csv","legacy","Lentiform Loewenfeld","3.3.7","yes","yes","600bd7cfb6416f0113b04181","602110864497cf011d9c0822","0","j","NA","return","space","return","space","j","515","NA","3102","8437","11448","5682","515","2","legacy","1024","2","48000","-16","task","5203061","odd","NA","31500","36605","33503","163658","4188","24094","12645","164161","129557","163655","164161","163597","36605","164677","29951","163097","4178","153602","Lexical Decision Task","61","45450","71","yes","1024"
"2.972819734","0","4","scew","non-word","86.11111111111111","86.11111111111111","645.9166666666666","645.9166666666666","black","no","legacy","legacy","legacy","0","uniform","1","undefined","undefined","undefined","1","f","0","0","0","0","71","0","0","0","71","0","67","71","67","0","67","3","71","0","71","Wed Feb 17 10:58:48 2021","The main experiment item","yes","Lexical_Decision_Task.osexp","/Users/josieking/Documents","no","Andale Mono","no","18","no","white","no","yes","576","legacy","67","67","3","/Users/josieking/Documents/subject-5203061.csv","legacy","Lentiform Loewenfeld","3.3.7","yes","yes","600bd7cfb6416f0113b04181","602110864497cf011d9c0822","0","f","NA","return","space","return","space","f","1056","NA","3102","8437","11448","5682","1056","2","legacy","1024","2","48000","-16","task","5203061","odd","NA","31500","36605","33503","166244","4188","24094","12645","166747","129557","166242","166747","166181","36605","167804","29951","163097","4178","164681","Lexical Decision Task","62","46506","72","yes","1024"
"3.003891166","8.05","2","frog","word","86.3013698630137","86.3013698630137","644.6027397260274","644.6027397260274","black","no","legacy","legacy","legacy","0","uniform","1","undefined","undefined","undefined","1","j","0","0","0","0","72","0","0","0","72","0","68","72","68","0","68","3","72","0","72","Wed Feb 17 10:58:48 2021","The main experiment item","yes","Lexical_Decision_Task.osexp","/Users/josieking/Documents","no","Andale Mono","no","18","no","white","no","yes","576","legacy","68","68","3","/Users/josieking/Documents/subject-5203061.csv","legacy","Lentiform Loewenfeld","3.3.7","yes","yes","600bd7cfb6416f0113b04181","602110864497cf011d9c0822","0","j","NA","return","space","return","space","j","550","NA","3102","8437","11448","5682","550","2","legacy","1024","2","48000","-16","task","5203061","odd","NA","31500","36605","33503","168366","4188","24094","12645","168869","129557","168364","168869","168307","36605","169420","29951","167807","4178","164681","Lexical Decision Task","63","47056","73","yes","1024"
"2.952953801","0","8","clax","non-word","86.48648648648648","86.48648648648648","643.4324324324324","643.4324324324324","black","no","legacy","legacy","legacy","0","uniform","1","undefined","undefined","undefined","1","f","0","0","0","0","73","0","0","0","73","0","69","73","69","0","69","3","73","0","73","Wed Feb 17 10:58:48 2021","The main experiment item","yes","Lexical_Decision_Task.osexp","/Users/josieking/Documents","no","Andale Mono","no","18","no","white","no","yes","576","legacy","69","69","3","/Users/josieking/Documents/subject-5203061.csv","legacy","Lentiform Loewenfeld","3.3.7","yes","yes","600bd7cfb6416f0113b04181","602110864497cf011d9c0822","0","f","NA","return","space","return","space","f","558","NA","3102","8437","11448","5682","558","2","legacy","1024","2","48000","-16","task","5203061","odd","NA","31500","36605","33503","169983","4188","24094","12645","170486","129557","169981","170486","169924","36605","171045","29951","169424","4178","164681","Lexical Decision Task","64","47614","74","yes","1024"
"3.248054965","7.86","5","glow","word","86.66666666666667","86.66666666666667","641.2133333333334","641.2133333333334","black","no","legacy","legacy","legacy","0","uniform","1","undefined","undefined","undefined","1","j","0","0","0","0","74","0","0","0","74","0","70","74","70","0","70","3","74","0","74","Wed Feb 17 10:58:48 2021","The main experiment item","yes","Lexical_Decision_Task.osexp","/Users/josieking/Documents","no","Andale Mono","no","18","no","white","no","yes","576","legacy","70","70","3","/Users/josieking/Documents/subject-5203061.csv","legacy","Lentiform Loewenfeld","3.3.7","yes","yes","600bd7cfb6416f0113b04181","602110864497cf011d9c0822","0","j","NA","return","space","return","space","j","477","NA","3102","8437","11448","5682","477","2","legacy","1024","2","48000","-16","task","5203061","odd","NA","31500","36605","33503","171608","4188","24094","12645","172111","129557","171606","172111","171548","36605","172589","29951","171048","4178","164681","Lexical Decision Task","65","48091","75","yes","1024"
"3.492014979","0","9","yine","non-word","86.84210526315789","86.84210526315789","642.0657894736842","642.0657894736842","black","no","legacy","legacy","legacy","0","uniform","1","undefined","undefined","undefined","1","f","0","0","0","0","75","0","0","0","75","0","71","75","71","0","71","3","75","0","75","Wed Feb 17 10:58:48 2021","The main experiment item","yes","Lexical_Decision_Task.osexp","/Users/josieking/Documents","no","Andale Mono","no","18","no","white","no","yes","576","legacy","71","71","3","/Users/josieking/Documents/subject-5203061.csv","legacy","Lentiform Loewenfeld","3.3.7","yes","yes","600bd7cfb6416f0113b04181","602110864497cf011d9c0822","0","f","NA","return","space","return","space","f","706","NA","3102","8437","11448","5682","706","2","legacy","1024","2","48000","-16","task","5203061","odd","NA","31500","36605","33503","173152","4188","24094","12645","173655","129557","173150","173655","173092","36605","174362","29951","172592","4178","164681","Lexical Decision Task","66","48797","76","yes","1024"
"2.807758206","6.25","4","hurl","word","85.71428571428571","85.71428571428571","641.4415584415584","641.4415584415584","black","no","legacy","legacy","legacy","0","uniform","0","undefined","undefined","undefined","0","j","0","0","0","0","76","0","0","0","76","0","72","76","72","0","72","3","76","0","76","Wed Feb 17 10:58:48 2021","The main experiment item","yes","Lexical_Decision_Task.osexp","/Users/josieking/Documents","no","Andale Mono","no","18","no","white","no","yes","576","legacy","72","72","3","/Users/josieking/Documents/subject-5203061.csv","legacy","Lentiform Loewenfeld","3.3.7","yes","yes","600bd7cfb6416f0113b04181","602110864497cf011d9c0822","0","f","NA","return","space","return","space","f","594","NA","3102","8437","11448","5682","594","2","legacy","1024","2","48000","-16","task","5203061","odd","NA","31500","36605","33503","174925","4188","24094","12645","175429","129557","174923","175429","174866","36605","176024","29951","174366","4178","164681","Lexical Decision Task","66","49391","77","yes","1024"
"2.794720352","0","9","koot","non-word","85.8974358974359","85.8974358974359","642.8589743589744","642.8589743589744","black","no","legacy","legacy","legacy","0","uniform","1","undefined","undefined","undefined","1","f","0","0","0","0","77","0","0","0","77","0","73","77","73","0","73","3","77","0","77","Wed Feb 17 10:58:48 2021","The main experiment item","yes","Lexical_Decision_Task.osexp","/Users/josieking/Documents","no","Andale Mono","no","18","no","white","no","yes","576","legacy","73","73","3","/Users/josieking/Documents/subject-5203061.csv","legacy","Lentiform Loewenfeld","3.3.7","yes","yes","600bd7cfb6416f0113b04181","602110864497cf011d9c0822","0","f","NA","return","space","return","space","f","752","NA","3102","8437","11448","5682","752","2","legacy","1024","2","48000","-16","task","5203061","odd","NA","31500","36605","33503","177590","4188","24094","12645","178093","129557","177588","178093","177528","36605","178847","29951","174366","4178","176027","Lexical Decision Task","67","50143","78","yes","1024"
"3.068433376","8.09","2","bulb","word","86.07594936708861","86.07594936708861","646.2278481012659","646.2278481012659","black","no","legacy","legacy","legacy","0","uniform","1","undefined","undefined","undefined","1","j","0","0","0","0","78","0","0","0","78","0","74","78","74","0","74","3","78","0","78","Wed Feb 17 10:58:48 2021","The main experiment item","yes","Lexical_Decision_Task.osexp","/Users/josieking/Documents","no","Andale Mono","no","18","no","white","no","yes","576","legacy","74","74","3","/Users/josieking/Documents/subject-5203061.csv","legacy","Lentiform Loewenfeld","3.3.7","yes","yes","600bd7cfb6416f0113b04181","602110864497cf011d9c0822","0","j","NA","return","space","return","space","j","909","NA","3102","8437","11448","5682","909","2","legacy","1024","2","48000","-16","task","5203061","odd","NA","31500","36605","33503","179413","4188","24094","12645","179916","129557","179410","179916","179350","36605","180826","29951","178850","4178","176027","Lexical Decision Task","68","51052","79","yes","1024"
"3.14849993","10.75","7","hour","word","86.25","86.25","645.6","645.6","black","no","legacy","legacy","legacy","0","uniform","1","undefined","undefined","undefined","1","j","0","0","0","0","79","0","0","0","79","0","75","79","75","0","75","3","79","0","79","Wed Feb 17 10:58:48 2021","The main experiment item","yes","Lexical_Decision_Task.osexp","/Users/josieking/Documents","no","Andale Mono","no","18","no","white","no","yes","576","legacy","75","75","3","/Users/josieking/Documents/subject-5203061.csv","legacy","Lentiform Loewenfeld","3.3.7","yes","yes","600bd7cfb6416f0113b04181","602110864497cf011d9c0822","0","j","NA","return","space","return","space","j","596","NA","3102","8437","11448","5682","596","2","legacy","1024","2","48000","-16","task","5203061","odd","NA","31500","36605","33503","181389","4188","24094","12645","181892","129557","181386","181892","181329","36605","182489","29951","180829","4178","176027","Lexical Decision Task","69","51648","80","yes","1024"
"3.378276681","6.39","8","bran","word","86.41975308641975","86.41975308641975","645.0246913580247","645.0246913580247","black","no","legacy","legacy","legacy","0","uniform","1","undefined","undefined","undefined","1","j","0","0","0","0","80","0","0","0","80","0","76","80","76","0","76","3","80","0","80","Wed Feb 17 10:58:48 2021","The main experiment item","yes","Lexical_Decision_Task.osexp","/Users/josieking/Documents","no","Andale Mono","no","18","no","white","no","yes","576","legacy","76","76","3","/Users/josieking/Documents/subject-5203061.csv","legacy","Lentiform Loewenfeld","3.3.7","yes","yes","600bd7cfb6416f0113b04181","602110864497cf011d9c0822","0","j","NA","return","space","return","space","j","599","NA","3102","8437","11448","5682","599","2","legacy","1024","2","48000","-16","task","5203061","odd","NA","31500","36605","33503","183052","4188","24094","12645","183555","129557","183050","183555","182993","36605","184155","29951","182493","4178","176027","Lexical Decision Task","70","52247","81","yes","1024"
"2.728085817","10.02","9","bike","word","86.58536585365853","86.58536585365853","643.2073170731708","643.2073170731708","black","no","legacy","legacy","legacy","0","uniform","1","undefined","undefined","undefined","1","j","0","0","0","0","81","0","0","0","81","0","77","81","77","0","77","3","81","0","81","Wed Feb 17 10:58:48 2021","The main experiment item","yes","Lexical_Decision_Task.osexp","/Users/josieking/Documents","no","Andale Mono","no","18","no","white","no","yes","576","legacy","77","77","3","/Users/josieking/Documents/subject-5203061.csv","legacy","Lentiform Loewenfeld","3.3.7","yes","yes","600bd7cfb6416f0113b04181","602110864497cf011d9c0822","0","j","NA","return","space","return","space","j","496","NA","3102","8437","11448","5682","496","2","legacy","1024","2","48000","-16","task","5203061","odd","NA","31500","36605","33503","184719","4188","24094","12645","185222","129557","184717","185222","184659","36605","185720","29951","184159","4178","176027","Lexical Decision Task","71","52743","82","yes","1024"
"2.843025032","0","9","pusk","non-word","86.74698795180723","86.74698795180723","641.3975903614457","641.3975903614457","black","no","legacy","legacy","legacy","0","uniform","1","undefined","undefined","undefined","1","f","0","0","0","0","82","0","0","0","82","0","78","82","78","0","78","3","82","0","82","Wed Feb 17 10:58:48 2021","The main experiment item","yes","Lexical_Decision_Task.osexp","/Users/josieking/Documents","no","Andale Mono","no","18","no","white","no","yes","576","legacy","78","78","3","/Users/josieking/Documents/subject-5203061.csv","legacy","Lentiform Loewenfeld","3.3.7","yes","yes","600bd7cfb6416f0113b04181","602110864497cf011d9c0822","0","f","NA","return","space","return","space","f","493","NA","3102","8437","11448","5682","493","2","legacy","1024","2","48000","-16","task","5203061","odd","NA","31500","36605","33503","186282","4188","24094","12645","186785","129557","186279","186785","186223","36605","187278","29951","185723","4178","176027","Lexical Decision Task","72","53236","83","yes","1024"
"2.695770526","7.34","6","pawn","word","86.9047619047619","86.9047619047619","640.6547619047619","640.6547619047619","black","no","legacy","legacy","legacy","0","uniform","1","undefined","undefined","undefined","1","j","0","0","0","0","83","0","0","0","83","0","79","83","79","0","79","3","83","0","83","Wed Feb 17 10:58:48 2021","The main experiment item","yes","Lexical_Decision_Task.osexp","/Users/josieking/Documents","no","Andale Mono","no","18","no","white","no","yes","576","legacy","79","79","3","/Users/josieking/Documents/subject-5203061.csv","legacy","Lentiform Loewenfeld","3.3.7","yes","yes","600bd7cfb6416f0113b04181","602110864497cf011d9c0822","0","j","NA","return","space","return","space","j","579","NA","3102","8437","11448","5682","579","2","legacy","1024","2","48000","-16","task","5203061","odd","NA","31500","36605","33503","187842","4188","24094","12645","188346","129557","187840","188346","187782","36605","188926","29951","187282","4178","176027","Lexical Decision Task","73","53815","84","yes","1024"
"3.105055783","0","2","norp","non-word","87.05882352941177","87.05882352941177","640.964705882353","640.964705882353","black","no","legacy","legacy","legacy","0","uniform","1","undefined","undefined","undefined","1","f","0","0","0","0","84","0","0","0","84","0","80","84","80","0","80","3","84","0","84","Wed Feb 17 10:58:48 2021","The main experiment item","yes","Lexical_Decision_Task.osexp","/Users/josieking/Documents","no","Andale Mono","no","18","no","white","no","yes","576","legacy","80","80","3","/Users/josieking/Documents/subject-5203061.csv","legacy","Lentiform Loewenfeld","3.3.7","yes","yes","600bd7cfb6416f0113b04181","602110864497cf011d9c0822","0","f","NA","return","space","return","space","f","667","NA","3102","8437","11448","5682","667","2","legacy","1024","2","48000","-16","task","5203061","odd","NA","31500","36605","33503","189491","4188","24094","12645","189994","129557","189488","189994","189430","36605","190662","29951","188930","4178","176027","Lexical Decision Task","74","54482","85","yes","1024"
"2.899092422","7.27","6","snag","word","87.20930232558139","87.20930232558139","639.3139534883721","639.3139534883721","black","no","legacy","legacy","legacy","0","uniform","1","undefined","undefined","undefined","1","j","0","0","0","0","85","0","0","0","85","0","81","85","81","0","81","3","85","0","85","Wed Feb 17 10:58:48 2021","The main experiment item","yes","Lexical_Decision_Task.osexp","/Users/josieking/Documents","no","Andale Mono","no","18","no","white","no","yes","576","legacy","81","81","3","/Users/josieking/Documents/subject-5203061.csv","legacy","Lentiform Loewenfeld","3.3.7","yes","yes","600bd7cfb6416f0113b04181","602110864497cf011d9c0822","0","j","NA","return","space","return","space","j","499","NA","3102","8437","11448","5682","499","2","legacy","1024","2","48000","-16","task","5203061","odd","NA","31500","36605","33503","191226","4188","24094","12645","191729","129557","191223","191729","191166","36605","192229","29951","190666","4178","176027","Lexical Decision Task","75","54981","86","yes","1024"
"2.698387659","6.66","7","skid","word","86.20689655172414","86.20689655172414","637.8505747126437","637.8505747126437","black","no","legacy","legacy","legacy","0","uniform","0","undefined","undefined","undefined","0","j","0","0","0","0","86","0","0","0","86","0","82","86","82","0","82","3","86","0","86","Wed Feb 17 10:58:48 2021","The main experiment item","yes","Lexical_Decision_Task.osexp","/Users/josieking/Documents","no","Andale Mono","no","18","no","white","no","yes","576","legacy","82","82","3","/Users/josieking/Documents/subject-5203061.csv","legacy","Lentiform Loewenfeld","3.3.7","yes","yes","600bd7cfb6416f0113b04181","602110864497cf011d9c0822","0","f","NA","return","space","return","space","f","512","NA","3102","8437","11448","5682","512","2","legacy","1024","2","48000","-16","task","5203061","odd","NA","31500","36605","33503","192793","4188","24094","12645","193295","129557","192790","193296","192734","36605","193809","29951","192233","4178","176027","Lexical Decision Task","75","55493","87","yes","1024"
"3.133964479","0","8","graw","non-word","86.36363636363636","86.36363636363636","637.7272727272727","637.7272727272727","black","no","legacy","legacy","legacy","0","uniform","1","undefined","undefined","undefined","1","f","0","0","0","0","87","0","0","0","87","0","83","87","83","0","83","3","87","0","87","Wed Feb 17 10:58:48 2021","The main experiment item","yes","Lexical_Decision_Task.osexp","/Users/josieking/Documents","no","Andale Mono","no","18","no","white","no","yes","576","legacy","83","83","3","/Users/josieking/Documents/subject-5203061.csv","legacy","Lentiform Loewenfeld","3.3.7","yes","yes","600bd7cfb6416f0113b04181","602110864497cf011d9c0822","0","f","NA","return","space","return","space","f","627","NA","3102","8437","11448","5682","627","2","legacy","1024","2","48000","-16","task","5203061","odd","NA","31500","36605","33503","195377","4188","24094","12645","195880","129557","195374","195880","195313","36605","196508","29951","192233","4178","193813","Lexical Decision Task","76","56120","88","yes","1024"
"3.119255889","6.63","2","itch","word","86.51685393258427","86.51685393258427","637.9775280898876","637.9775280898876","black","no","legacy","legacy","legacy","0","uniform","1","undefined","undefined","undefined","1","j","0","0","0","0","88","0","0","0","88","0","84","88","84","0","84","3","88","0","88","Wed Feb 17 10:58:48 2021","The main experiment item","yes","Lexical_Decision_Task.osexp","/Users/josieking/Documents","no","Andale Mono","no","18","no","white","no","yes","576","legacy","84","84","3","/Users/josieking/Documents/subject-5203061.csv","legacy","Lentiform Loewenfeld","3.3.7","yes","yes","600bd7cfb6416f0113b04181","602110864497cf011d9c0822","0","j","NA","return","space","return","space","j","660","NA","3102","8437","11448","5682","660","2","legacy","1024","2","48000","-16","task","5203061","odd","NA","31500","36605","33503","197072","4188","24094","12645","197575","129557","197069","197575","197012","36605","198236","29951","196512","4178","193813","Lexical Decision Task","77","56780","89","yes","1024"
"3.443783828","7.65","3","verb","word","86.66666666666667","86.66666666666667","637.4","637.4","black","no","legacy","legacy","legacy","0","uniform","1","undefined","undefined","undefined","1","j","0","0","0","0","89","0","0","0","89","0","85","89","85","0","85","3","89","0","89","Wed Feb 17 10:58:48 2021","The main experiment item","yes","Lexical_Decision_Task.osexp","/Users/josieking/Documents","no","Andale Mono","no","18","no","white","no","yes","576","legacy","85","85","3","/Users/josieking/Documents/subject-5203061.csv","legacy","Lentiform Loewenfeld","3.3.7","yes","yes","600bd7cfb6416f0113b04181","602110864497cf011d9c0822","0","j","NA","return","space","return","space","j","586","NA","3102","8437","11448","5682","586","2","legacy","1024","2","48000","-16","task","5203061","odd","NA","31500","36605","33503","198798","4188","24094","12645","199302","129557","198796","199302","198739","36605","199889","29951","198239","4178","193813","Lexical Decision Task","78","57366","90","yes","1024"
"3.368162872","0","4","ferk","non-word","86.81318681318682","86.81318681318682","638.3186813186813","638.3186813186813","black","no","legacy","legacy","legacy","0","uniform","1","undefined","undefined","undefined","1","f","0","0","0","0","90","0","0","0","90","0","86","90","86","0","86","3","90","0","90","Wed Feb 17 10:58:48 2021","The main experiment item","yes","Lexical_Decision_Task.osexp","/Users/josieking/Documents","no","Andale Mono","no","18","no","white","no","yes","576","legacy","86","86","3","/Users/josieking/Documents/subject-5203061.csv","legacy","Lentiform Loewenfeld","3.3.7","yes","yes","600bd7cfb6416f0113b04181","602110864497cf011d9c0822","0","f","NA","return","space","return","space","f","721","NA","3102","8437","11448","5682","721","2","legacy","1024","2","48000","-16","task","5203061","odd","NA","31500","36605","33503","200451","4188","24094","12645","200954","129557","200449","200954","200392","36605","201676","29951","199892","4178","193813","Lexical Decision Task","79","58087","91","yes","1024"
"3.316948329","0","1","besc","non-word","86.95652173913044","86.95652173913044","639.0217391304348","639.0217391304348","black","no","legacy","legacy","legacy","0","uniform","1","undefined","undefined","undefined","1","f","0","0","0","0","91","0","0","0","91","0","87","91","87","0","87","3","91","0","91","Wed Feb 17 10:58:48 2021","The main experiment item","yes","Lexical_Decision_Task.osexp","/Users/josieking/Documents","no","Andale Mono","no","18","no","white","no","yes","576","legacy","87","87","3","/Users/josieking/Documents/subject-5203061.csv","legacy","Lentiform Loewenfeld","3.3.7","yes","yes","600bd7cfb6416f0113b04181","602110864497cf011d9c0822","0","f","NA","return","space","return","space","f","703","NA","3102","8437","11448","5682","703","2","legacy","1024","2","48000","-16","task","5203061","odd","NA","31500","36605","33503","202239","4188","24094","12645","202742","129557","202236","202742","202180","36605","203446","29951","201680","4178","193813","Lexical Decision Task","80","58790","92","yes","1024"
"2.9737419","7.69","7","claw","word","87.09677419354838","87.09677419354838","639.5913978494624","639.5913978494624","black","no","legacy","legacy","legacy","0","uniform","1","undefined","undefined","undefined","1","j","0","0","0","0","92","0","0","0","92","0","88","92","88","0","88","3","92","0","92","Wed Feb 17 10:58:48 2021","The main experiment item","yes","Lexical_Decision_Task.osexp","/Users/josieking/Documents","no","Andale Mono","no","18","no","white","no","yes","576","legacy","88","88","3","/Users/josieking/Documents/subject-5203061.csv","legacy","Lentiform Loewenfeld","3.3.7","yes","yes","600bd7cfb6416f0113b04181","602110864497cf011d9c0822","0","j","NA","return","space","return","space","j","692","NA","3102","8437","11448","5682","692","2","legacy","1024","2","48000","-16","task","5203061","odd","NA","31500","36605","33503","204009","4188","24094","12645","204512","129557","204007","204512","203950","36605","205205","29951","203450","4178","193813","Lexical Decision Task","81","59482","93","yes","1024"
"3.252447662","9.67","9","boat","word","87.23404255319149","87.23404255319149","638.5957446808511","638.5957446808511","black","no","legacy","legacy","legacy","0","uniform","1","undefined","undefined","undefined","1","j","0","0","0","0","93","0","0","0","93","0","89","93","89","0","89","3","93","0","93","Wed Feb 17 10:58:48 2021","The main experiment item","yes","Lexical_Decision_Task.osexp","/Users/josieking/Documents","no","Andale Mono","no","18","no","white","no","yes","576","legacy","89","89","3","/Users/josieking/Documents/subject-5203061.csv","legacy","Lentiform Loewenfeld","3.3.7","yes","yes","600bd7cfb6416f0113b04181","602110864497cf011d9c0822","0","j","NA","return","space","return","space","j","546","NA","3102","8437","11448","5682","546","2","legacy","1024","2","48000","-16","task","5203061","odd","NA","31500","36605","33503","205770","4188","24094","12645","206273","129557","205767","206273","205709","36605","206820","29951","205208","4178","193813","Lexical Decision Task","82","60028","94","yes","1024"
"2.898725182","0","7","turl","non-word","87.36842105263158","87.36842105263158","638.1473684210526","638.1473684210526","black","no","legacy","legacy","legacy","0","uniform","1","undefined","undefined","undefined","1","f","0","0","0","0","94","0","0","0","94","0","90","94","90","0","90","3","94","0","94","Wed Feb 17 10:58:48 2021","The main experiment item","yes","Lexical_Decision_Task.osexp","/Users/josieking/Documents","no","Andale Mono","no","18","no","white","no","yes","576","legacy","90","90","3","/Users/josieking/Documents/subject-5203061.csv","legacy","Lentiform Loewenfeld","3.3.7","yes","yes","600bd7cfb6416f0113b04181","602110864497cf011d9c0822","0","f","NA","return","space","return","space","f","596","NA","3102","8437","11448","5682","596","2","legacy","1024","2","48000","-16","task","5203061","odd","NA","31500","36605","33503","207383","4188","24094","12645","207887","129557","207381","207887","207324","36605","208484","29951","206823","4178","193813","Lexical Decision Task","83","60624","95","yes","1024"
"2.705007959","6.01","4","wept","word","86.45833333333333","86.45833333333333","636.6354166666666","636.6354166666666","black","no","legacy","legacy","legacy","0","uniform","0","undefined","undefined","undefined","0","j","0","0","0","0","95","0","0","0","95","0","91","95","91","0","91","3","95","0","95","Wed Feb 17 10:58:48 2021","The main experiment item","yes","Lexical_Decision_Task.osexp","/Users/josieking/Documents","no","Andale Mono","no","18","no","white","no","yes","576","legacy","91","91","3","/Users/josieking/Documents/subject-5203061.csv","legacy","Lentiform Loewenfeld","3.3.7","yes","yes","600bd7cfb6416f0113b04181","602110864497cf011d9c0822","0","f","NA","return","space","return","space","f","493","NA","3102","8437","11448","5682","493","2","legacy","1024","2","48000","-16","task","5203061","odd","NA","31500","36605","33503","209047","4188","24094","12645","209551","129557","209045","209551","208988","36605","210045","29951","208488","4178","193813","Lexical Decision Task","83","61117","96","yes","1024"
"2.803231716","5.26","3","kiln","word","85.56701030927834","85.56701030927834","635.9072164948453","635.9072164948453","black","no","legacy","legacy","legacy","0","uniform","0","undefined","undefined","undefined","0","j","0","0","0","0","96","0","0","0","96","0","92","96","92","0","92","3","96","0","96","Wed Feb 17 10:58:48 2021","The main experiment item","yes","Lexical_Decision_Task.osexp","/Users/josieking/Documents","no","Andale Mono","no","18","no","white","no","yes","576","legacy","92","92","3","/Users/josieking/Documents/subject-5203061.csv","legacy","Lentiform Loewenfeld","3.3.7","yes","yes","600bd7cfb6416f0113b04181","602110864497cf011d9c0822","0","f","NA","return","space","return","space","f","566","NA","3102","8437","11448","5682","566","2","legacy","1024","2","48000","-16","task","5203061","odd","NA","31500","36605","33503","211612","4188","24094","12645","212115","129557","211609","212115","211548","36605","212682","29951","208488","4178","210048","Lexical Decision Task","83","61683","97","yes","1024"
"3.194328374","9.42","6","harm","word","85.71428571428571","85.71428571428571","634.8265306122449","634.8265306122449","black","no","legacy","legacy","legacy","0","uniform","1","undefined","undefined","undefined","1","j","0","0","0","0","97","0","0","0","97","0","93","97","93","0","93","3","97","0","97","Wed Feb 17 10:58:48 2021","The main experiment item","yes","Lexical_Decision_Task.osexp","/Users/josieking/Documents","no","Andale Mono","no","18","no","white","no","yes","576","legacy","93","93","3","/Users/josieking/Documents/subject-5203061.csv","legacy","Lentiform Loewenfeld","3.3.7","yes","yes","600bd7cfb6416f0113b04181","602110864497cf011d9c0822","0","j","NA","return","space","return","space","j","530","NA","3102","8437","11448","5682","530","2","legacy","1024","2","48000","-16","task","5203061","odd","NA","31500","36605","33503","214248","4188","24094","12645","214752","129557","214246","214752","214186","36605","215284","29951","208488","4178","212686","Lexical Decision Task","84","62213","98","yes","1024"
"3.460446784","0","5","dess","non-word","85.85858585858585","85.85858585858585","634.7979797979798","634.7979797979798","black","no","legacy","legacy","legacy","0","uniform","1","undefined","undefined","undefined","1","f","0","0","0","0","98","0","0","0","98","0","94","98","94","0","94","3","98","0","98","Wed Feb 17 10:58:48 2021","The main experiment item","yes","Lexical_Decision_Task.osexp","/Users/josieking/Documents","no","Andale Mono","no","18","no","white","no","yes","576","legacy","94","94","3","/Users/josieking/Documents/subject-5203061.csv","legacy","Lentiform Loewenfeld","3.3.7","yes","yes","600bd7cfb6416f0113b04181","602110864497cf011d9c0822","0","f","NA","return","space","return","space","f","632","NA","3102","8437","11448","5682","632","2","legacy","1024","2","48000","-16","task","5203061","odd","NA","31500","36605","33503","215848","4188","24094","12645","216352","129557","215846","216352","215788","36605","216985","29951","215288","4178","212686","Lexical Decision Task","85","62845","99","yes","1024"
"3.153001286","8.7","5","palm","word","85","85","634.35","634.35","black","no","legacy","legacy","legacy","0","uniform","0","undefined","undefined","undefined","0","j","0","0","0","0","99","0","0","0","99","0","95","99","95","0","95","3","99","0","99","Wed Feb 17 10:58:48 2021","The main experiment item","yes","Lexical_Decision_Task.osexp","/Users/josieking/Documents","no","Andale Mono","no","18","no","white","no","yes","576","legacy","95","95","3","/Users/josieking/Documents/subject-5203061.csv","legacy","Lentiform Loewenfeld","3.3.7","yes","yes","600bd7cfb6416f0113b04181","602110864497cf011d9c0822","0","f","NA","return","space","return","space","f","590","NA","3102","8437","11448","5682","590","2","legacy","1024","2","48000","-16","task","5203061","odd","NA","31500","36605","33503","217549","4188","24094","12645","218052","129557","217547","218053","217489","36605","218644","29951","216989","4178","212686","Lexical Decision Task","85","63435","100","yes","1024"
