"Log_BG","Log_Freq_HAL","Ortho_N","Stimulus","Type","acc","accuracy","average_response_time","avg_rt","background","bidi","canvas_backend","clock_backend","color_backend","compensation","coordinates","correct","correct_Experimental_intro","correct_Introduction","correct_Practice_intro","correct_experimenter_kb","correct_response","count_End_Of_Experiment","count_End_Of_Practice","count_Experimental_Loop","count_Experimental_intro","count_Fixation","count_Introduction","count_Practice_Loop","count_Practice_intro","count_Stimulus","count_block_break_feedback","count_experimental_sequence","count_experimenter_kb","count_increment_trial_count","count_init_trial_count","count_logger","count_practice_sequence","count_right","count_task","count_wrong","datetime","description","disable_garbage_collection","experiment_file","experiment_path","font_bold","font_family","font_italic","font_size","font_underline","foreground","form_clicks","fullscreen","height","keyboard_backend","live_row","live_row_Experimental_Loop","live_row_Practice_Loop","logfile","mouse_backend","opensesame_codename","opensesame_version","osf_always_upload_data","osf_always_upload_experiment","osf_datanode_id","osf_id","repeat_cycle","response","response_End_Of_Experiment","response_Experimental_intro","response_Introduction","response_Practice_intro","response_block_break_feedback","response_experimenter_kb","response_time","response_time_End_Of_Experiment","response_time_Experimental_intro","response_time_Introduction","response_time_Practice_intro","response_time_block_break_feedback","response_time_experimenter_kb","round_decimals","sampler_backend","sound_buf_size","sound_channels","sound_freq","sound_sample_size","start","subject_nr","subject_parity","time_End_Of_Experiment","time_End_Of_Practice","time_Experimental_Loop","time_Experimental_intro","time_Fixation","time_Introduction","time_Practice_Loop","time_Practice_intro","time_Stimulus","time_block_break_feedback","time_experimental_sequence","time_experimenter_kb","time_increment_trial_count","time_init_trial_count","time_logger","time_practice_sequence","time_right","time_task","time_wrong","title","total_correct","total_response_time","total_responses","uniform_coordinates","width"
"2.668385917","5.48","4","twig","word","100","100","1040.2","1040.2","black","no","legacy","legacy","legacy","0","uniform","1","undefined","undefined","undefined","1","j","0","0","0","0","4","0","0","0","4","NA","0","4","0","0","0","3","4","0","4","Wed Feb 24 10:13:33 2021","The main experiment item","yes","Lexical_Decision_Task.osexp","C:/Users/sover","no","Andale Mono","no","18","no","white","no","yes","576","legacy","0","0","3","C:/Users/sover/subject-7907630.csv","legacy","Lentiform Loewenfeld","3.3.7","yes","yes","600bd7cfb6416f0113b04181","602110864497cf011d9c0822","0","j","NA","space","space","space","NA","j","642","NA","3090","15860","8094","NA","642","2","legacy","1024","2","48000","-16","task","7907630","even","NA","34228","39318","36228","39343","1522","25478","17383","39843","NA","39342","39844","NA","39318","40486","32375","33711","1518","NA","Lexical Decision Task","5","5201","5","yes","1024"
"2.972357144","0","5","dasp","non-word","100","100","1009","1009","black","no","legacy","legacy","legacy","0","uniform","1","undefined","undefined","undefined","1","f","0","0","0","0","5","0","0","0","5","NA","1","5","1","0","1","3","5","0","5","Wed Feb 24 10:13:33 2021","The main experiment item","yes","Lexical_Decision_Task.osexp","C:/Users/sover","no","Andale Mono","no","18","no","white","no","yes","576","legacy","1","1","3","C:/Users/sover/subject-7907630.csv","legacy","Lentiform Loewenfeld","3.3.7","yes","yes","600bd7cfb6416f0113b04181","602110864497cf011d9c0822","0","f","NA","space","space","space","NA","f","853","NA","3090","15860","8094","NA","853","2","legacy","1024","2","48000","-16","task","7907630","even","NA","34228","39318","36228","41036","1522","25478","17383","41536","NA","41035","41536","40991","39318","42390","32375","40491","1518","NA","Lexical Decision Task","6","6054","6","yes","1024"
"3.263399331","0","8","cour","non-word","100","100","1066","1066","black","no","legacy","legacy","legacy","0","uniform","1","undefined","undefined","undefined","1","f","0","0","0","0","6","0","0","0","6","NA","2","6","2","0","2","3","6","0","6","Wed Feb 24 10:13:33 2021","The main experiment item","yes","Lexical_Decision_Task.osexp","C:/Users/sover","no","Andale Mono","no","18","no","white","no","yes","576","legacy","2","2","3","C:/Users/sover/subject-7907630.csv","legacy","Lentiform Loewenfeld","3.3.7","yes","yes","600bd7cfb6416f0113b04181","602110864497cf011d9c0822","0","f","NA","space","space","space","NA","f","1408","NA","3090","15860","8094","NA","1408","2","legacy","1024","2","48000","-16","task","7907630","even","NA","34228","39318","36228","42930","1522","25478","17383","43430","NA","42929","43430","42892","39318","44838","32375","42392","1518","NA","Lexical Decision Task","7","7462","7","yes","1024"
"2.68604012","0","4","pumb","non-word","100","100","1060.625","1060.625","black","no","legacy","legacy","legacy","0","uniform","1","undefined","undefined","undefined","1","f","0","0","0","0","7","0","0","0","7","NA","3","7","3","0","3","3","7","0","7","Wed Feb 24 10:13:33 2021","The main experiment item","yes","Lexical_Decision_Task.osexp","C:/Users/sover","no","Andale Mono","no","18","no","white","no","yes","576","legacy","3","3","3","C:/Users/sover/subject-7907630.csv","legacy","Lentiform Loewenfeld","3.3.7","yes","yes","600bd7cfb6416f0113b04181","602110864497cf011d9c0822","0","f","NA","space","space","space","NA","f","1023","NA","3090","15860","8094","NA","1023","2","legacy","1024","2","48000","-16","task","7907630","even","NA","34228","39318","36228","45377","1522","25478","17383","45878","NA","45376","45879","45340","39318","46902","32375","44840","1518","NA","Lexical Decision Task","8","8485","8","yes","1024"
"2.698100546","0","9","mulk","non-word","100","100","1014","1014","black","no","legacy","legacy","legacy","0","uniform","1","undefined","undefined","undefined","1","f","0","0","0","0","8","0","0","0","8","NA","4","8","4","0","4","3","8","0","8","Wed Feb 24 10:13:33 2021","The main experiment item","yes","Lexical_Decision_Task.osexp","C:/Users/sover","no","Andale Mono","no","18","no","white","no","yes","576","legacy","4","4","3","C:/Users/sover/subject-7907630.csv","legacy","Lentiform Loewenfeld","3.3.7","yes","yes","600bd7cfb6416f0113b04181","602110864497cf011d9c0822","0","f","NA","space","space","space","NA","f","641","NA","3090","15860","8094","NA","641","2","legacy","1024","2","48000","-16","task","7907630","even","NA","34228","39318","36228","47441","1522","25478","17383","47941","NA","47440","47941","47404","39318","48582","32375","46904","1518","NA","Lexical Decision Task","9","9126","9","yes","1024"
"3.225825991","0","7","talm","non-word","100","100","986.3","986.3","black","no","legacy","legacy","legacy","0","uniform","1","undefined","undefined","undefined","1","f","0","0","0","0","9","0","0","0","9","NA","5","9","5","0","5","3","9","0","9","Wed Feb 24 10:13:33 2021","The main experiment item","yes","Lexical_Decision_Task.osexp","C:/Users/sover","no","Andale Mono","no","18","no","white","no","yes","576","legacy","5","5","3","C:/Users/sover/subject-7907630.csv","legacy","Lentiform Loewenfeld","3.3.7","yes","yes","600bd7cfb6416f0113b04181","602110864497cf011d9c0822","0","f","NA","space","space","space","NA","f","737","NA","3090","15860","8094","NA","737","2","legacy","1024","2","48000","-16","task","7907630","even","NA","34228","39318","36228","49121","1522","25478","17383","49621","NA","49120","49621","49084","39318","50358","32375","48584","1518","NA","Lexical Decision Task","10","9863","10","yes","1024"
"2.95456409","0","4","taud","non-word","100","100","960","960","black","no","legacy","legacy","legacy","0","uniform","1","undefined","undefined","undefined","1","f","0","0","0","0","10","0","0","0","10","NA","6","10","6","0","6","3","10","0","10","Wed Feb 24 10:13:33 2021","The main experiment item","yes","Lexical_Decision_Task.osexp","C:/Users/sover","no","Andale Mono","no","18","no","white","no","yes","576","legacy","6","6","3","C:/Users/sover/subject-7907630.csv","legacy","Lentiform Loewenfeld","3.3.7","yes","yes","600bd7cfb6416f0113b04181","602110864497cf011d9c0822","0","f","NA","space","space","space","NA","f","697","NA","3090","15860","8094","NA","697","2","legacy","1024","2","48000","-16","task","7907630","even","NA","34228","39318","36228","50897","1522","25478","17383","51397","NA","50896","51397","50860","39318","52094","32375","50360","1518","NA","Lexical Decision Task","11","10560","11","yes","1024"
"3.257359335","8","6","brew","word","100","100","949.4166666666666","949.4166666666666","black","no","legacy","legacy","legacy","0","uniform","1","undefined","undefined","undefined","1","j","0","0","0","0","11","0","0","0","11","NA","7","11","7","0","7","3","11","0","11","Wed Feb 24 10:13:33 2021","The main experiment item","yes","Lexical_Decision_Task.osexp","C:/Users/sover","no","Andale Mono","no","18","no","white","no","yes","576","legacy","7","7","3","C:/Users/sover/subject-7907630.csv","legacy","Lentiform Loewenfeld","3.3.7","yes","yes","600bd7cfb6416f0113b04181","602110864497cf011d9c0822","0","j","NA","space","space","space","NA","j","833","NA","3090","15860","8094","NA","833","2","legacy","1024","2","48000","-16","task","7907630","even","NA","34228","39318","36228","52633","1522","25478","17383","53133","NA","52632","53133","52596","39318","53966","32375","52096","1518","NA","Lexical Decision Task","12","11393","12","yes","1024"
"3.067193647","6.73","6","raft","word","100","100","928.0769230769231","928.0769230769231","black","no","legacy","legacy","legacy","0","uniform","1","undefined","undefined","undefined","1","j","0","0","0","0","12","0","0","0","12","NA","8","12","8","0","8","3","12","0","12","Wed Feb 24 10:13:33 2021","The main experiment item","yes","Lexical_Decision_Task.osexp","C:/Users/sover","no","Andale Mono","no","18","no","white","no","yes","576","legacy","8","8","3","C:/Users/sover/subject-7907630.csv","legacy","Lentiform Loewenfeld","3.3.7","yes","yes","600bd7cfb6416f0113b04181","602110864497cf011d9c0822","0","j","NA","space","space","space","NA","j","672","NA","3090","15860","8094","NA","672","2","legacy","1024","2","48000","-16","task","7907630","even","NA","34228","39318","36228","54506","1522","25478","17383","55006","NA","54505","55006","54468","39318","55678","32375","53968","1518","NA","Lexical Decision Task","13","12065","13","yes","1024"
"2.6599162","0","6","flug","non-word","100","100","919","919","black","no","legacy","legacy","legacy","0","uniform","1","undefined","undefined","undefined","1","f","0","0","0","0","13","0","0","0","13","NA","9","13","9","0","9","3","13","0","13","Wed Feb 24 10:13:33 2021","The main experiment item","yes","Lexical_Decision_Task.osexp","C:/Users/sover","no","Andale Mono","no","18","no","white","no","yes","576","legacy","9","9","3","C:/Users/sover/subject-7907630.csv","legacy","Lentiform Loewenfeld","3.3.7","yes","yes","600bd7cfb6416f0113b04181","602110864497cf011d9c0822","0","f","NA","space","space","space","NA","f","801","NA","3090","15860","8094","NA","801","2","legacy","1024","2","48000","-16","task","7907630","even","NA","34228","39318","36228","56217","1522","25478","17383","56717","NA","56216","56717","56180","39318","57518","32375","55680","1518","NA","Lexical Decision Task","14","12866","14","yes","1024"
"2.839898939","8.99","6","soap","word","100","100","900.4","900.4","black","no","legacy","legacy","legacy","0","uniform","1","undefined","undefined","undefined","1","j","0","0","0","0","14","0","0","0","14","NA","10","14","10","0","10","3","14","0","14","Wed Feb 24 10:13:33 2021","The main experiment item","yes","Lexical_Decision_Task.osexp","C:/Users/sover","no","Andale Mono","no","18","no","white","no","yes","576","legacy","10","10","3","C:/Users/sover/subject-7907630.csv","legacy","Lentiform Loewenfeld","3.3.7","yes","yes","600bd7cfb6416f0113b04181","602110864497cf011d9c0822","0","j","NA","space","space","space","NA","j","640","NA","3090","15860","8094","NA","640","2","legacy","1024","2","48000","-16","task","7907630","even","NA","34228","39318","36228","58057","1522","25478","17383","58557","NA","58056","58558","58020","39318","59198","32375","57520","1518","NA","Lexical Decision Task","15","13506","15","yes","1024"
"3.081107167","0","6","chot","non-word","100","100","896.125","896.125","black","no","legacy","legacy","legacy","0","uniform","1","undefined","undefined","undefined","1","f","0","0","0","0","15","0","0","0","15","NA","11","15","11","0","11","3","15","0","15","Wed Feb 24 10:13:33 2021","The main experiment item","yes","Lexical_Decision_Task.osexp","C:/Users/sover","no","Andale Mono","no","18","no","white","no","yes","576","legacy","11","11","3","C:/Users/sover/subject-7907630.csv","legacy","Lentiform Loewenfeld","3.3.7","yes","yes","600bd7cfb6416f0113b04181","602110864497cf011d9c0822","0","f","NA","space","space","space","NA","f","832","NA","3090","15860","8094","NA","832","2","legacy","1024","2","48000","-16","task","7907630","even","NA","34228","39318","36228","59738","1522","25478","17383","60238","NA","59737","60238","59701","39318","61070","32375","59201","1518","NA","Lexical Decision Task","16","14338","16","yes","1024"
"2.793790385","5.67","9","swab","word","100","100","891.8823529411765","891.8823529411765","black","no","legacy","legacy","legacy","0","uniform","1","undefined","undefined","undefined","1","j","0","0","0","0","16","0","0","0","16","NA","12","16","12","0","12","3","16","0","16","Wed Feb 24 10:13:33 2021","The main experiment item","yes","Lexical_Decision_Task.osexp","C:/Users/sover","no","Andale Mono","no","18","no","white","no","yes","576","legacy","12","12","3","C:/Users/sover/subject-7907630.csv","legacy","Lentiform Loewenfeld","3.3.7","yes","yes","600bd7cfb6416f0113b04181","602110864497cf011d9c0822","0","j","NA","space","space","space","NA","j","824","NA","3090","15860","8094","NA","824","2","legacy","1024","2","48000","-16","task","7907630","even","NA","34228","39318","36228","61609","1522","25478","17383","62109","NA","61608","62109","61572","39318","62934","32375","61072","1518","NA","Lexical Decision Task","17","15162","17","yes","1024"
"3.010582609","0","2","drod","non-word","100","100","886.8333333333334","886.8333333333334","black","no","legacy","legacy","legacy","0","uniform","1","undefined","undefined","undefined","1","f","0","0","0","0","17","0","0","0","17","NA","13","17","13","0","13","3","17","0","17","Wed Feb 24 10:13:33 2021","The main experiment item","yes","Lexical_Decision_Task.osexp","C:/Users/sover","no","Andale Mono","no","18","no","white","no","yes","576","legacy","13","13","3","C:/Users/sover/subject-7907630.csv","legacy","Lentiform Loewenfeld","3.3.7","yes","yes","600bd7cfb6416f0113b04181","602110864497cf011d9c0822","0","f","NA","space","space","space","NA","f","801","NA","3090","15860","8094","NA","801","2","legacy","1024","2","48000","-16","task","7907630","even","NA","34228","39318","36228","63473","1522","25478","17383","63973","NA","63472","63973","63436","39318","64774","32375","62936","1518","NA","Lexical Decision Task","18","15963","18","yes","1024"
"3.153001286","8.7","5","palm","word","100","100","878.9473684210526","878.9473684210526","black","no","legacy","legacy","legacy","0","uniform","1","undefined","undefined","undefined","1","j","0","0","0","0","18","0","0","0","18","NA","14","18","14","0","14","3","18","0","18","Wed Feb 24 10:13:33 2021","The main experiment item","yes","Lexical_Decision_Task.osexp","C:/Users/sover","no","Andale Mono","no","18","no","white","no","yes","576","legacy","14","14","3","C:/Users/sover/subject-7907630.csv","legacy","Lentiform Loewenfeld","3.3.7","yes","yes","600bd7cfb6416f0113b04181","602110864497cf011d9c0822","0","j","NA","space","space","space","NA","j","737","NA","3090","15860","8094","NA","737","2","legacy","1024","2","48000","-16","task","7907630","even","NA","34228","39318","36228","65313","1522","25478","17383","65813","NA","65312","65813","65276","39318","66550","32375","64776","1518","NA","Lexical Decision Task","19","16700","19","yes","1024"
"2.843025032","0","9","pusk","non-word","100","100","871.85","871.85","black","no","legacy","legacy","legacy","0","uniform","1","undefined","undefined","undefined","1","f","0","0","0","0","19","0","0","0","19","NA","15","19","15","0","15","3","19","0","19","Wed Feb 24 10:13:33 2021","The main experiment item","yes","Lexical_Decision_Task.osexp","C:/Users/sover","no","Andale Mono","no","18","no","white","no","yes","576","legacy","15","15","3","C:/Users/sover/subject-7907630.csv","legacy","Lentiform Loewenfeld","3.3.7","yes","yes","600bd7cfb6416f0113b04181","602110864497cf011d9c0822","0","f","NA","space","space","space","NA","f","737","NA","3090","15860","8094","NA","737","2","legacy","1024","2","48000","-16","task","7907630","even","NA","34228","39318","36228","67089","1522","25478","17383","67589","NA","67088","67589","67052","39318","68326","32375","66552","1518","NA","Lexical Decision Task","20","17437","20","yes","1024"
"2.803231716","5.26","3","kiln","word","100","100","888.2380952380952","888.2380952380952","black","no","legacy","legacy","legacy","0","uniform","1","undefined","undefined","undefined","1","j","0","0","0","0","20","0","0","0","20","NA","16","20","16","0","16","3","20","0","20","Wed Feb 24 10:13:33 2021","The main experiment item","yes","Lexical_Decision_Task.osexp","C:/Users/sover","no","Andale Mono","no","18","no","white","no","yes","576","legacy","16","16","3","C:/Users/sover/subject-7907630.csv","legacy","Lentiform Loewenfeld","3.3.7","yes","yes","600bd7cfb6416f0113b04181","602110864497cf011d9c0822","0","j","NA","space","space","space","NA","j","1216","NA","3090","15860","8094","NA","1216","2","legacy","1024","2","48000","-16","task","7907630","even","NA","34228","39318","36228","68866","1522","25478","17383","69366","NA","68865","69366","68828","39318","70582","32375","68328","1518","NA","Lexical Decision Task","21","18653","21","yes","1024"
"2.75025376","10.2","6","jump","word","100","100","879.8636363636364","879.8636363636364","black","no","legacy","legacy","legacy","0","uniform","1","undefined","undefined","undefined","1","j","0","0","0","0","21","0","0","0","21","NA","17","21","17","0","17","3","21","0","21","Wed Feb 24 10:13:33 2021","The main experiment item","yes","Lexical_Decision_Task.osexp","C:/Users/sover","no","Andale Mono","no","18","no","white","no","yes","576","legacy","17","17","3","C:/Users/sover/subject-7907630.csv","legacy","Lentiform Loewenfeld","3.3.7","yes","yes","600bd7cfb6416f0113b04181","602110864497cf011d9c0822","0","j","NA","space","space","space","NA","j","704","NA","3090","15860","8094","NA","704","2","legacy","1024","2","48000","-16","task","7907630","even","NA","34228","39318","36228","71122","1522","25478","17383","71622","NA","71120","71622","71084","39318","72326","32375","70584","1518","NA","Lexical Decision Task","22","19357","22","yes","1024"
"2.895974732","6.65","5","sift","word","100","100","882","882","black","no","legacy","legacy","legacy","0","uniform","1","undefined","undefined","undefined","1","j","0","0","0","0","22","0","0","0","22","NA","18","22","18","0","18","3","22","0","22","Wed Feb 24 10:13:33 2021","The main experiment item","yes","Lexical_Decision_Task.osexp","C:/Users/sover","no","Andale Mono","no","18","no","white","no","yes","576","legacy","18","18","3","C:/Users/sover/subject-7907630.csv","legacy","Lentiform Loewenfeld","3.3.7","yes","yes","600bd7cfb6416f0113b04181","602110864497cf011d9c0822","0","j","NA","space","space","space","NA","j","929","NA","3090","15860","8094","NA","929","2","legacy","1024","2","48000","-16","task","7907630","even","NA","34228","39318","36228","72865","1522","25478","17383","73365","NA","72864","73365","72828","39318","74294","32375","72328","1518","NA","Lexical Decision Task","23","20286","23","yes","1024"
"2.986323777","10.85","8","ship","word","100","100","871.9583333333334","871.9583333333334","black","no","legacy","legacy","legacy","0","uniform","1","undefined","undefined","undefined","1","j","0","0","0","0","23","0","0","0","23","NA","19","23","19","0","19","3","23","0","23","Wed Feb 24 10:13:33 2021","The main experiment item","yes","Lexical_Decision_Task.osexp","C:/Users/sover","no","Andale Mono","no","18","no","white","no","yes","576","legacy","19","19","3","C:/Users/sover/subject-7907630.csv","legacy","Lentiform Loewenfeld","3.3.7","yes","yes","600bd7cfb6416f0113b04181","602110864497cf011d9c0822","0","j","NA","space","space","space","NA","j","641","NA","3090","15860","8094","NA","641","2","legacy","1024","2","48000","-16","task","7907630","even","NA","34228","39318","36228","74833","1522","25478","17383","75333","NA","74832","75333","74796","39318","75974","32375","74296","1518","NA","Lexical Decision Task","24","20927","24","yes","1024"
"2.924968096","0","4","phim","non-word","100","100","869.08","869.08","black","no","legacy","legacy","legacy","0","uniform","1","undefined","undefined","undefined","1","f","0","0","0","0","24","0","0","0","24","NA","20","24","20","0","20","3","24","0","24","Wed Feb 24 10:13:33 2021","The main experiment item","yes","Lexical_Decision_Task.osexp","C:/Users/sover","no","Andale Mono","no","18","no","white","no","yes","576","legacy","20","20","3","C:/Users/sover/subject-7907630.csv","legacy","Lentiform Loewenfeld","3.3.7","yes","yes","600bd7cfb6416f0113b04181","602110864497cf011d9c0822","0","f","NA","space","space","space","NA","f","800","NA","3090","15860","8094","NA","800","2","legacy","1024","2","48000","-16","task","7907630","even","NA","34228","39318","36228","76514","1522","25478","17383","77014","NA","76513","77014","76477","39318","77814","32375","75977","1518","NA","Lexical Decision Task","25","21727","25","yes","1024"
"3.145920145","8.51","8","flew","word","100","100","864","864","black","no","legacy","legacy","legacy","0","uniform","1","undefined","undefined","undefined","1","j","0","0","0","0","25","0","0","0","25","NA","21","25","21","0","21","3","25","0","25","Wed Feb 24 10:13:33 2021","The main experiment item","yes","Lexical_Decision_Task.osexp","C:/Users/sover","no","Andale Mono","no","18","no","white","no","yes","576","legacy","21","21","3","C:/Users/sover/subject-7907630.csv","legacy","Lentiform Loewenfeld","3.3.7","yes","yes","600bd7cfb6416f0113b04181","602110864497cf011d9c0822","0","j","NA","space","space","space","NA","j","737","NA","3090","15860","8094","NA","737","2","legacy","1024","2","48000","-16","task","7907630","even","NA","34228","39318","36228","78353","1522","25478","17383","78853","NA","78352","78853","78316","39318","79590","32375","77816","1518","NA","Lexical Decision Task","26","22464","26","yes","1024"
"3.153104174","10.89","6","door","word","100","100","853.0370370370371","853.0370370370371","black","no","legacy","legacy","legacy","0","uniform","1","undefined","undefined","undefined","1","j","0","0","0","0","26","0","0","0","26","NA","22","26","22","0","22","3","26","0","26","Wed Feb 24 10:13:33 2021","The main experiment item","yes","Lexical_Decision_Task.osexp","C:/Users/sover","no","Andale Mono","no","18","no","white","no","yes","576","legacy","22","22","3","C:/Users/sover/subject-7907630.csv","legacy","Lentiform Loewenfeld","3.3.7","yes","yes","600bd7cfb6416f0113b04181","602110864497cf011d9c0822","0","j","NA","space","space","space","NA","j","568","NA","3090","15860","8094","NA","568","2","legacy","1024","2","48000","-16","task","7907630","even","NA","34228","39318","36228","80129","1522","25478","17383","80630","NA","80128","80630","80092","39318","81198","32375","79592","1518","NA","Lexical Decision Task","27","23032","27","yes","1024"
"3.382617311","0","4","pret","non-word","100","100","847.75","847.75","black","no","legacy","legacy","legacy","0","uniform","1","undefined","undefined","undefined","1","f","0","0","0","0","27","0","0","0","27","NA","23","27","23","0","23","3","27","0","27","Wed Feb 24 10:13:33 2021","The main experiment item","yes","Lexical_Decision_Task.osexp","C:/Users/sover","no","Andale Mono","no","18","no","white","no","yes","576","legacy","23","23","3","C:/Users/sover/subject-7907630.csv","legacy","Lentiform Loewenfeld","3.3.7","yes","yes","600bd7cfb6416f0113b04181","602110864497cf011d9c0822","0","f","NA","space","space","space","NA","f","705","NA","3090","15860","8094","NA","705","2","legacy","1024","2","48000","-16","task","7907630","even","NA","34228","39318","36228","81737","1522","25478","17383","82237","NA","81736","82237","81700","39318","82942","32375","81200","1518","NA","Lexical Decision Task","28","23737","28","yes","1024"
"2.82129731","6.72","5","plum","word","100","100","850.551724137931","850.551724137931","black","no","legacy","legacy","legacy","0","uniform","1","undefined","undefined","undefined","1","j","0","0","0","0","28","0","0","0","28","NA","24","28","24","0","24","3","28","0","28","Wed Feb 24 10:13:33 2021","The main experiment item","yes","Lexical_Decision_Task.osexp","C:/Users/sover","no","Andale Mono","no","18","no","white","no","yes","576","legacy","24","24","3","C:/Users/sover/subject-7907630.csv","legacy","Lentiform Loewenfeld","3.3.7","yes","yes","600bd7cfb6416f0113b04181","602110864497cf011d9c0822","0","j","NA","space","space","space","NA","j","929","NA","3090","15860","8094","NA","929","2","legacy","1024","2","48000","-16","task","7907630","even","NA","34228","39318","36228","83481","1522","25478","17383","83981","NA","83480","83981","83444","39318","84910","32375","82944","1518","NA","Lexical Decision Task","29","24666","29","yes","1024"
"3.194328374","9.42","6","harm","word","100","100","843.5","843.5","black","no","legacy","legacy","legacy","0","uniform","1","undefined","undefined","undefined","1","j","0","0","0","0","29","0","0","0","29","NA","25","29","25","0","25","3","29","0","29","Wed Feb 24 10:13:33 2021","The main experiment item","yes","Lexical_Decision_Task.osexp","C:/Users/sover","no","Andale Mono","no","18","no","white","no","yes","576","legacy","25","25","3","C:/Users/sover/subject-7907630.csv","legacy","Lentiform Loewenfeld","3.3.7","yes","yes","600bd7cfb6416f0113b04181","602110864497cf011d9c0822","0","j","NA","space","space","space","NA","j","639","NA","3090","15860","8094","NA","639","2","legacy","1024","2","48000","-16","task","7907630","even","NA","34228","39318","36228","85451","1522","25478","17383","85951","NA","85450","85951","85413","39318","86590","32375","84913","1518","NA","Lexical Decision Task","30","25305","30","yes","1024"
"3.208172527","10.27","7","deck","word","100","100","835.6451612903226","835.6451612903226","black","no","legacy","legacy","legacy","0","uniform","1","undefined","undefined","undefined","1","j","0","0","0","0","30","0","0","0","30","NA","26","30","26","0","26","3","30","0","30","Wed Feb 24 10:13:33 2021","The main experiment item","yes","Lexical_Decision_Task.osexp","C:/Users/sover","no","Andale Mono","no","18","no","white","no","yes","576","legacy","26","26","3","C:/Users/sover/subject-7907630.csv","legacy","Lentiform Loewenfeld","3.3.7","yes","yes","600bd7cfb6416f0113b04181","602110864497cf011d9c0822","0","j","NA","space","space","space","NA","j","600","NA","3090","15860","8094","NA","600","2","legacy","1024","2","48000","-16","task","7907630","even","NA","34228","39318","36228","87130","1522","25478","17383","87630","NA","87129","87630","87092","39318","88230","32375","86592","1518","NA","Lexical Decision Task","31","25905","31","yes","1024"
"2.884795364","0","6","flob","non-word","100","100","838.5625","838.5625","black","no","legacy","legacy","legacy","0","uniform","1","undefined","undefined","undefined","1","f","0","0","0","0","31","0","0","0","31","NA","27","31","27","0","27","3","31","0","31","Wed Feb 24 10:13:33 2021","The main experiment item","yes","Lexical_Decision_Task.osexp","C:/Users/sover","no","Andale Mono","no","18","no","white","no","yes","576","legacy","27","27","3","C:/Users/sover/subject-7907630.csv","legacy","Lentiform Loewenfeld","3.3.7","yes","yes","600bd7cfb6416f0113b04181","602110864497cf011d9c0822","0","f","NA","space","space","space","NA","f","929","NA","3090","15860","8094","NA","929","2","legacy","1024","2","48000","-16","task","7907630","even","NA","34228","39318","36228","88769","1522","25478","17383","89269","NA","88768","89269","88732","39318","90198","32375","88232","1518","NA","Lexical Decision Task","32","26834","32","yes","1024"
"3.20996159","0","4","clee","non-word","100","100","831.5757575757576","831.5757575757576","black","no","legacy","legacy","legacy","0","uniform","1","undefined","undefined","undefined","1","f","0","0","0","0","32","0","0","0","32","NA","28","32","28","0","28","3","32","0","32","Wed Feb 24 10:13:33 2021","The main experiment item","yes","Lexical_Decision_Task.osexp","C:/Users/sover","no","Andale Mono","no","18","no","white","no","yes","576","legacy","28","28","3","C:/Users/sover/subject-7907630.csv","legacy","Lentiform Loewenfeld","3.3.7","yes","yes","600bd7cfb6416f0113b04181","602110864497cf011d9c0822","0","f","NA","space","space","space","NA","f","608","NA","3090","15860","8094","NA","608","2","legacy","1024","2","48000","-16","task","7907630","even","NA","34228","39318","36228","90738","1522","25478","17383","91238","NA","90737","91238","90701","39318","91846","32375","90201","1518","NA","Lexical Decision Task","33","27442","33","yes","1024"
"3.492014979","0","9","yine","non-word","100","100","827.8529411764706","827.8529411764706","black","no","legacy","legacy","legacy","0","uniform","1","undefined","undefined","undefined","1","f","0","0","0","0","33","0","0","0","33","NA","29","33","29","0","29","3","33","0","33","Wed Feb 24 10:13:33 2021","The main experiment item","yes","Lexical_Decision_Task.osexp","C:/Users/sover","no","Andale Mono","no","18","no","white","no","yes","576","legacy","29","29","3","C:/Users/sover/subject-7907630.csv","legacy","Lentiform Loewenfeld","3.3.7","yes","yes","600bd7cfb6416f0113b04181","602110864497cf011d9c0822","0","f","NA","space","space","space","NA","f","705","NA","3090","15860","8094","NA","705","2","legacy","1024","2","48000","-16","task","7907630","even","NA","34228","39318","36228","92385","1522","25478","17383","92885","NA","92384","92885","92348","39318","93590","32375","91848","1518","NA","Lexical Decision Task","34","28147","34","yes","1024"
"3.230789326","5.38","5","prim","word","97.14285714285714","97.14285714285714","828","828","black","no","legacy","legacy","legacy","0","uniform","0","undefined","undefined","undefined","0","j","0","0","0","0","34","0","0","0","34","NA","30","34","30","0","30","3","34","0","34","Wed Feb 24 10:13:33 2021","The main experiment item","yes","Lexical_Decision_Task.osexp","C:/Users/sover","no","Andale Mono","no","18","no","white","no","yes","576","legacy","30","30","3","C:/Users/sover/subject-7907630.csv","legacy","Lentiform Loewenfeld","3.3.7","yes","yes","600bd7cfb6416f0113b04181","602110864497cf011d9c0822","0","f","NA","space","space","space","NA","f","833","NA","3090","15860","8094","NA","833","2","legacy","1024","2","48000","-16","task","7907630","even","NA","34228","39318","36228","94129","1522","25478","17383","94629","NA","94128","94629","94092","39318","95462","32375","93592","1518","NA","Lexical Decision Task","34","28980","35","yes","1024"
"3.216517684","10.87","3","film","word","97.22222222222223","97.22222222222223","822.8055555555555","822.8055555555555","black","no","legacy","legacy","legacy","0","uniform","1","undefined","undefined","undefined","1","j","0","0","0","0","35","0","0","0","35","NA","31","35","31","0","31","3","35","0","35","Wed Feb 24 10:13:33 2021","The main experiment item","yes","Lexical_Decision_Task.osexp","C:/Users/sover","no","Andale Mono","no","18","no","white","no","yes","576","legacy","31","31","3","C:/Users/sover/subject-7907630.csv","legacy","Lentiform Loewenfeld","3.3.7","yes","yes","600bd7cfb6416f0113b04181","602110864497cf011d9c0822","0","j","NA","space","space","space","NA","j","641","NA","3090","15860","8094","NA","641","2","legacy","1024","2","48000","-16","task","7907630","even","NA","34228","39318","36228","97001","1522","25478","17383","97501","NA","97000","97501","96964","39318","98142","32375","93592","1518","95464","Lexical Decision Task","35","29621","36","yes","1024"
"2.744553742","0","2","nawk","non-word","97.29729729729729","97.29729729729729","819.3243243243244","819.3243243243244","black","no","legacy","legacy","legacy","0","uniform","1","undefined","undefined","undefined","1","f","0","0","0","0","36","0","0","0","36","NA","32","36","32","0","32","3","36","0","36","Wed Feb 24 10:13:33 2021","The main experiment item","yes","Lexical_Decision_Task.osexp","C:/Users/sover","no","Andale Mono","no","18","no","white","no","yes","576","legacy","32","32","3","C:/Users/sover/subject-7907630.csv","legacy","Lentiform Loewenfeld","3.3.7","yes","yes","600bd7cfb6416f0113b04181","602110864497cf011d9c0822","0","f","NA","space","space","space","NA","f","694","NA","3090","15860","8094","NA","694","2","legacy","1024","2","48000","-16","task","7907630","even","NA","34228","39318","36228","98684","1522","25478","17383","99184","NA","98683","99184","98644","39318","99878","32375","98144","1518","95464","Lexical Decision Task","36","30315","37","yes","1024"
"3.121778632","0","9","sark","non-word","97.36842105263158","97.36842105263158","826.6315789473684","826.6315789473684","black","no","legacy","legacy","legacy","0","uniform","1","undefined","undefined","undefined","1","f","0","0","0","0","37","0","0","0","37","NA","33","37","33","0","33","3","37","0","37","Wed Feb 24 10:13:33 2021","The main experiment item","yes","Lexical_Decision_Task.osexp","C:/Users/sover","no","Andale Mono","no","18","no","white","no","yes","576","legacy","33","33","3","C:/Users/sover/subject-7907630.csv","legacy","Lentiform Loewenfeld","3.3.7","yes","yes","600bd7cfb6416f0113b04181","602110864497cf011d9c0822","0","f","NA","space","space","space","NA","f","1097","NA","3090","15860","8094","NA","1097","2","legacy","1024","2","48000","-16","task","7907630","even","NA","34228","39318","36228","100417","1522","25478","17383","100917","NA","100416","100917","100380","39318","102014","32375","99880","1518","95464","Lexical Decision Task","37","31412","38","yes","1024"
"3.140404328","10.66","9","deep","word","97.43589743589743","97.43589743589743","820","820","black","no","legacy","legacy","legacy","0","uniform","1","undefined","undefined","undefined","1","j","0","0","0","0","38","0","0","0","38","NA","34","38","34","0","34","3","38","0","38","Wed Feb 24 10:13:33 2021","The main experiment item","yes","Lexical_Decision_Task.osexp","C:/Users/sover","no","Andale Mono","no","18","no","white","no","yes","576","legacy","34","34","3","C:/Users/sover/subject-7907630.csv","legacy","Lentiform Loewenfeld","3.3.7","yes","yes","600bd7cfb6416f0113b04181","602110864497cf011d9c0822","0","j","NA","space","space","space","NA","j","568","NA","3090","15860","8094","NA","568","2","legacy","1024","2","48000","-16","task","7907630","even","NA","34228","39318","36228","102554","1522","25478","17383","103054","NA","102553","103054","102517","39318","103622","32375","102017","1518","95464","Lexical Decision Task","38","31980","39","yes","1024"
"3.440331212","7.35","6","stew","word","97.5","97.5","828.325","828.325","black","no","legacy","legacy","legacy","0","uniform","1","undefined","undefined","undefined","1","j","0","0","0","0","39","0","0","0","39","NA","35","39","35","0","35","3","39","0","39","Wed Feb 24 10:13:33 2021","The main experiment item","yes","Lexical_Decision_Task.osexp","C:/Users/sover","no","Andale Mono","no","18","no","white","no","yes","576","legacy","35","35","3","C:/Users/sover/subject-7907630.csv","legacy","Lentiform Loewenfeld","3.3.7","yes","yes","600bd7cfb6416f0113b04181","602110864497cf011d9c0822","0","j","NA","space","space","space","NA","j","1153","NA","3090","15860","8094","NA","1153","2","legacy","1024","2","48000","-16","task","7907630","even","NA","34228","39318","36228","104161","1522","25478","17383","104661","NA","104160","104661","104124","39318","105814","32375","103624","1518","95464","Lexical Decision Task","39","33133","40","yes","1024"
"2.821076612","0","4","lult","non-word","97.5609756097561","97.5609756097561","824.5365853658536","824.5365853658536","black","no","legacy","legacy","legacy","0","uniform","1","undefined","undefined","undefined","1","f","0","0","0","0","40","0","0","0","40","NA","36","40","36","0","36","3","40","0","40","Wed Feb 24 10:13:33 2021","The main experiment item","yes","Lexical_Decision_Task.osexp","C:/Users/sover","no","Andale Mono","no","18","no","white","no","yes","576","legacy","36","36","3","C:/Users/sover/subject-7907630.csv","legacy","Lentiform Loewenfeld","3.3.7","yes","yes","600bd7cfb6416f0113b04181","602110864497cf011d9c0822","0","f","NA","space","space","space","NA","f","673","NA","3090","15860","8094","NA","673","2","legacy","1024","2","48000","-16","task","7907630","even","NA","34228","39318","36228","106353","1522","25478","17383","106853","NA","106352","106853","106316","39318","107526","32375","105816","1518","95464","Lexical Decision Task","40","33806","41","yes","1024"
"2.703007489","8.37","3","pulp","word","97.61904761904762","97.61904761904762","825.4761904761905","825.4761904761905","black","no","legacy","legacy","legacy","0","uniform","1","undefined","undefined","undefined","1","j","0","0","0","0","41","0","0","0","41","NA","37","41","37","0","37","3","41","0","41","Wed Feb 24 10:13:33 2021","The main experiment item","yes","Lexical_Decision_Task.osexp","C:/Users/sover","no","Andale Mono","no","18","no","white","no","yes","576","legacy","37","37","3","C:/Users/sover/subject-7907630.csv","legacy","Lentiform Loewenfeld","3.3.7","yes","yes","600bd7cfb6416f0113b04181","602110864497cf011d9c0822","0","j","NA","space","space","space","NA","j","864","NA","3090","15860","8094","NA","864","2","legacy","1024","2","48000","-16","task","7907630","even","NA","34228","39318","36228","108066","1522","25478","17383","108566","NA","108065","108566","108029","39318","109430","32375","107529","1518","95464","Lexical Decision Task","41","34670","42","yes","1024"
"2.7084209","0","8","vump","non-word","97.67441860465117","97.67441860465117","823.3953488372093","823.3953488372093","black","no","legacy","legacy","legacy","0","uniform","1","undefined","undefined","undefined","1","f","0","0","0","0","42","0","0","0","42","NA","38","42","38","0","38","3","42","0","42","Wed Feb 24 10:13:33 2021","The main experiment item","yes","Lexical_Decision_Task.osexp","C:/Users/sover","no","Andale Mono","no","18","no","white","no","yes","576","legacy","38","38","3","C:/Users/sover/subject-7907630.csv","legacy","Lentiform Loewenfeld","3.3.7","yes","yes","600bd7cfb6416f0113b04181","602110864497cf011d9c0822","0","f","NA","space","space","space","NA","f","736","NA","3090","15860","8094","NA","736","2","legacy","1024","2","48000","-16","task","7907630","even","NA","34228","39318","36228","109970","1522","25478","17383","110470","NA","109969","110470","109933","39318","111206","32375","109433","1518","95464","Lexical Decision Task","42","35406","43","yes","1024"
"3.481012421","8.34","5","teen","word","97.72727272727273","97.72727272727273","818.5","818.5","black","no","legacy","legacy","legacy","0","uniform","1","undefined","undefined","undefined","1","j","0","0","0","0","43","0","0","0","43","NA","39","43","39","0","39","3","43","0","43","Wed Feb 24 10:13:33 2021","The main experiment item","yes","Lexical_Decision_Task.osexp","C:/Users/sover","no","Andale Mono","no","18","no","white","no","yes","576","legacy","39","39","3","C:/Users/sover/subject-7907630.csv","legacy","Lentiform Loewenfeld","3.3.7","yes","yes","600bd7cfb6416f0113b04181","602110864497cf011d9c0822","0","j","NA","space","space","space","NA","j","608","NA","3090","15860","8094","NA","608","2","legacy","1024","2","48000","-16","task","7907630","even","NA","34228","39318","36228","111746","1522","25478","17383","112246","NA","111745","112246","111709","39318","112854","32375","111209","1518","95464","Lexical Decision Task","43","36014","44","yes","1024"
"2.979548375","8.71","4","soup","word","97.77777777777777","97.77777777777777","814.3555555555556","814.3555555555556","black","no","legacy","legacy","legacy","0","uniform","1","undefined","undefined","undefined","1","j","0","0","0","0","44","0","0","0","44","NA","40","44","40","0","40","3","44","0","44","Wed Feb 24 10:13:33 2021","The main experiment item","yes","Lexical_Decision_Task.osexp","C:/Users/sover","no","Andale Mono","no","18","no","white","no","yes","576","legacy","40","40","3","C:/Users/sover/subject-7907630.csv","legacy","Lentiform Loewenfeld","3.3.7","yes","yes","600bd7cfb6416f0113b04181","602110864497cf011d9c0822","0","j","NA","space","space","space","NA","j","632","NA","3090","15860","8094","NA","632","2","legacy","1024","2","48000","-16","task","7907630","even","NA","34228","39318","36228","113394","1522","25478","17383","113894","NA","113393","113894","113357","39318","114526","32375","112857","1518","95464","Lexical Decision Task","44","36646","45","yes","1024"
"3.028977705","0","7","frow","non-word","95.65217391304348","95.65217391304348","849.1739130434783","849.1739130434783","black","no","legacy","legacy","legacy","0","uniform","0","undefined","undefined","undefined","0","f","0","0","0","0","45","0","0","0","45","NA","41","45","41","0","41","3","45","0","45","Wed Feb 24 10:13:33 2021","The main experiment item","yes","Lexical_Decision_Task.osexp","C:/Users/sover","no","Andale Mono","no","18","no","white","no","yes","576","legacy","41","41","3","C:/Users/sover/subject-7907630.csv","legacy","Lentiform Loewenfeld","3.3.7","yes","yes","600bd7cfb6416f0113b04181","602110864497cf011d9c0822","0","j","NA","space","space","space","NA","j","2416","NA","3090","15860","8094","NA","2416","2","legacy","1024","2","48000","-16","task","7907630","even","NA","34228","39318","36228","115066","1522","25478","17383","115566","NA","115065","115566","115029","39318","117982","32375","114529","1518","95464","Lexical Decision Task","44","39062","46","yes","1024"
"3.043885998","0","9","gome","non-word","95.74468085106383","95.74468085106383","845.4042553191489","845.4042553191489","black","no","legacy","legacy","legacy","0","uniform","1","undefined","undefined","undefined","1","f","0","0","0","0","46","0","0","0","46","NA","42","46","42","0","42","3","46","0","46","Wed Feb 24 10:13:33 2021","The main experiment item","yes","Lexical_Decision_Task.osexp","C:/Users/sover","no","Andale Mono","no","18","no","white","no","yes","576","legacy","42","42","3","C:/Users/sover/subject-7907630.csv","legacy","Lentiform Loewenfeld","3.3.7","yes","yes","600bd7cfb6416f0113b04181","602110864497cf011d9c0822","0","f","NA","space","space","space","NA","f","672","NA","3090","15860","8094","NA","672","2","legacy","1024","2","48000","-16","task","7907630","even","NA","34228","39318","36228","119522","1522","25478","17383","120022","NA","119521","120022","119485","39318","120694","32375","114529","1518","117985","Lexical Decision Task","45","39734","47","yes","1024"
"2.709837904","6.85","8","skim","word","95.83333333333333","95.83333333333333","844.4583333333334","844.4583333333334","black","no","legacy","legacy","legacy","0","uniform","1","undefined","undefined","undefined","1","j","0","0","0","0","47","0","0","0","47","NA","43","47","43","0","43","3","47","0","47","Wed Feb 24 10:13:33 2021","The main experiment item","yes","Lexical_Decision_Task.osexp","C:/Users/sover","no","Andale Mono","no","18","no","white","no","yes","576","legacy","43","43","3","C:/Users/sover/subject-7907630.csv","legacy","Lentiform Loewenfeld","3.3.7","yes","yes","600bd7cfb6416f0113b04181","602110864497cf011d9c0822","0","j","NA","space","space","space","NA","j","800","NA","3090","15860","8094","NA","800","2","legacy","1024","2","48000","-16","task","7907630","even","NA","34228","39318","36228","121234","1522","25478","17383","121734","NA","121233","121734","121197","39318","122534","32375","120697","1518","117985","Lexical Decision Task","46","40534","48","yes","1024"
"2.594027722","9.08","8","skip","word","95.91836734693878","95.91836734693878","842.1020408163265","842.1020408163265","black","no","legacy","legacy","legacy","0","uniform","1","undefined","undefined","undefined","1","j","0","0","0","0","48","0","0","0","48","NA","44","48","44","0","44","3","48","0","48","Wed Feb 24 10:13:33 2021","The main experiment item","yes","Lexical_Decision_Task.osexp","C:/Users/sover","no","Andale Mono","no","18","no","white","no","yes","576","legacy","44","44","3","C:/Users/sover/subject-7907630.csv","legacy","Lentiform Loewenfeld","3.3.7","yes","yes","600bd7cfb6416f0113b04181","602110864497cf011d9c0822","0","j","NA","space","space","space","NA","j","729","NA","3090","15860","8094","NA","729","2","legacy","1024","2","48000","-16","task","7907630","even","NA","34228","39318","36228","123073","1522","25478","17383","123573","NA","123072","123573","123036","39318","124302","32375","122536","1518","117985","Lexical Decision Task","47","41263","49","yes","1024"
"2.616654026","9.37","5","gift","word","96","96","840.62","840.62","black","no","legacy","legacy","legacy","0","uniform","1","undefined","undefined","undefined","1","j","0","0","0","0","49","0","0","0","49","NA","45","49","45","0","45","3","49","0","49","Wed Feb 24 10:13:33 2021","The main experiment item","yes","Lexical_Decision_Task.osexp","C:/Users/sover","no","Andale Mono","no","18","no","white","no","yes","576","legacy","45","45","3","C:/Users/sover/subject-7907630.csv","legacy","Lentiform Loewenfeld","3.3.7","yes","yes","600bd7cfb6416f0113b04181","602110864497cf011d9c0822","0","j","NA","space","space","space","NA","j","768","NA","3090","15860","8094","NA","768","2","legacy","1024","2","48000","-16","task","7907630","even","NA","34228","39318","36228","124842","1522","25478","17383","125342","NA","124841","125342","124805","39318","126111","32375","124305","1518","117985","Lexical Decision Task","48","42031","50","yes","1024"
"3.090140555","5.81","8","pout","word","96.07843137254902","96.07843137254902","846.0980392156863","846.0980392156863","black","no","legacy","legacy","legacy","0","uniform","1","undefined","undefined","undefined","1","j","0","0","0","0","50","0","0","0","50","NA","46","50","46","0","46","3","50","0","50","Wed Feb 24 10:13:33 2021","The main experiment item","yes","Lexical_Decision_Task.osexp","C:/Users/sover","no","Andale Mono","no","18","no","white","no","yes","576","legacy","46","46","3","C:/Users/sover/subject-7907630.csv","legacy","Lentiform Loewenfeld","3.3.7","yes","yes","600bd7cfb6416f0113b04181","602110864497cf011d9c0822","0","j","NA","space","space","space","NA","j","1120","NA","3090","15860","8094","NA","1120","2","legacy","1024","2","48000","-16","task","7907630","even","NA","34228","39318","36228","126650","1522","25478","17383","127150","NA","126649","127150","126613","39318","128271","32375","126113","1518","117985","Lexical Decision Task","49","43151","51","yes","1024"
"2.69019608","9.01","2","myth","word","96.15384615384616","96.15384615384616","842.75","842.75","black","no","legacy","legacy","legacy","0","uniform","1","undefined","undefined","undefined","1","j","0","0","0","0","51","0","0","0","51","NA","47","51","47","0","47","3","51","0","51","Wed Feb 24 10:13:33 2021","The main experiment item","yes","Lexical_Decision_Task.osexp","C:/Users/sover","no","Andale Mono","no","18","no","white","no","yes","576","legacy","47","47","3","C:/Users/sover/subject-7907630.csv","legacy","Lentiform Loewenfeld","3.3.7","yes","yes","600bd7cfb6416f0113b04181","602110864497cf011d9c0822","0","j","NA","space","space","space","NA","j","672","NA","3090","15860","8094","NA","672","2","legacy","1024","2","48000","-16","task","7907630","even","NA","34228","39318","36228","128810","1522","25478","17383","129310","NA","128809","129310","128773","39318","129983","32375","128273","1518","117985","Lexical Decision Task","50","43823","52","yes","1024"
"2.873320602","0","4","lurg","non-word","96.22641509433963","96.22641509433963","853.566037735849","853.566037735849","black","no","legacy","legacy","legacy","0","uniform","1","undefined","undefined","undefined","1","f","0","0","0","0","52","0","0","0","52","NA","48","52","48","0","48","3","52","0","52","Wed Feb 24 10:13:33 2021","The main experiment item","yes","Lexical_Decision_Task.osexp","C:/Users/sover","no","Andale Mono","no","18","no","white","no","yes","576","legacy","48","48","3","C:/Users/sover/subject-7907630.csv","legacy","Lentiform Loewenfeld","3.3.7","yes","yes","600bd7cfb6416f0113b04181","602110864497cf011d9c0822","0","f","NA","space","space","space","NA","f","1416","NA","3090","15860","8094","NA","1416","2","legacy","1024","2","48000","-16","task","7907630","even","NA","34228","39318","36228","130522","1522","25478","17383","131022","NA","130521","131022","130485","39318","132438","32375","129985","1518","117985","Lexical Decision Task","51","45239","53","yes","1024"
"3.133964479","0","8","graw","non-word","96.29629629629629","96.29629629629629","855.5370370370371","855.5370370370371","black","no","legacy","legacy","legacy","0","uniform","1","undefined","undefined","undefined","1","f","0","0","0","0","53","0","0","0","53","NA","49","53","49","0","49","3","53","0","53","Wed Feb 24 10:13:33 2021","The main experiment item","yes","Lexical_Decision_Task.osexp","C:/Users/sover","no","Andale Mono","no","18","no","white","no","yes","576","legacy","49","49","3","C:/Users/sover/subject-7907630.csv","legacy","Lentiform Loewenfeld","3.3.7","yes","yes","600bd7cfb6416f0113b04181","602110864497cf011d9c0822","0","f","NA","space","space","space","NA","f","960","NA","3090","15860","8094","NA","960","2","legacy","1024","2","48000","-16","task","7907630","even","NA","34228","39318","36228","132978","1522","25478","17383","133478","NA","132977","133478","132941","39318","134439","32375","132441","1518","117985","Lexical Decision Task","52","46199","54","yes","1024"
"3.269668578","0","7","trag","non-word","96.36363636363636","96.36363636363636","854.7636363636364","854.7636363636364","black","no","legacy","legacy","legacy","0","uniform","1","undefined","undefined","undefined","1","f","0","0","0","0","54","0","0","0","54","0","50","54","50","0","50","3","54","0","54","Wed Feb 24 10:13:33 2021","The main experiment item","yes","Lexical_Decision_Task.osexp","C:/Users/sover","no","Andale Mono","no","18","no","white","no","yes","576","legacy","50","50","3","C:/Users/sover/subject-7907630.csv","legacy","Lentiform Loewenfeld","3.3.7","yes","yes","600bd7cfb6416f0113b04181","602110864497cf011d9c0822","0","f","NA","space","space","space","space","f","813","NA","3090","15860","8094","4253","813","2","legacy","1024","2","48000","-16","task","7907630","even","NA","34228","39318","36228","139252","1522","25478","17383","139752","134961","139252","139753","134941","39318","140567","32375","134441","1518","117985","Lexical Decision Task","53","47012","55","yes","1024"
"3.16326079","0","5","parg","non-word","96.42857142857143","96.42857142857143","854.3571428571429","854.3571428571429","black","no","legacy","legacy","legacy","0","uniform","1","undefined","undefined","undefined","1","f","0","0","0","0","55","0","0","0","55","0","51","55","51","0","51","3","55","0","55","Wed Feb 24 10:13:33 2021","The main experiment item","yes","Lexical_Decision_Task.osexp","C:/Users/sover","no","Andale Mono","no","18","no","white","no","yes","576","legacy","51","51","3","C:/Users/sover/subject-7907630.csv","legacy","Lentiform Loewenfeld","3.3.7","yes","yes","600bd7cfb6416f0113b04181","602110864497cf011d9c0822","0","f","NA","space","space","space","space","f","832","NA","3090","15860","8094","4253","832","2","legacy","1024","2","48000","-16","task","7907630","even","NA","34228","39318","36228","141106","1522","25478","17383","141606","134961","141105","141606","141069","39318","142438","32375","140569","1518","117985","Lexical Decision Task","54","47844","56","yes","1024"
"3.082307743","9.68","8","camp","word","96.49122807017544","96.49122807017544","849.4736842105264","849.4736842105264","black","no","legacy","legacy","legacy","0","uniform","1","undefined","undefined","undefined","1","j","0","0","0","0","56","0","0","0","56","0","52","56","52","0","52","3","56","0","56","Wed Feb 24 10:13:33 2021","The main experiment item","yes","Lexical_Decision_Task.osexp","C:/Users/sover","no","Andale Mono","no","18","no","white","no","yes","576","legacy","52","52","3","C:/Users/sover/subject-7907630.csv","legacy","Lentiform Loewenfeld","3.3.7","yes","yes","600bd7cfb6416f0113b04181","602110864497cf011d9c0822","0","j","NA","space","space","space","space","j","576","NA","3090","15860","8094","4253","576","2","legacy","1024","2","48000","-16","task","7907630","even","NA","34228","39318","36228","142978","1522","25478","17383","143478","134961","142977","143478","142941","39318","144054","32375","142441","1518","117985","Lexical Decision Task","55","48420","57","yes","1024"
"3.374137706","10.21","4","tree","word","96.55172413793103","96.55172413793103","844.6206896551724","844.6206896551724","black","no","legacy","legacy","legacy","0","uniform","1","undefined","undefined","undefined","1","j","0","0","0","0","57","0","0","0","57","0","53","57","53","0","53","3","57","0","57","Wed Feb 24 10:13:33 2021","The main experiment item","yes","Lexical_Decision_Task.osexp","C:/Users/sover","no","Andale Mono","no","18","no","white","no","yes","576","legacy","53","53","3","C:/Users/sover/subject-7907630.csv","legacy","Lentiform Loewenfeld","3.3.7","yes","yes","600bd7cfb6416f0113b04181","602110864497cf011d9c0822","0","j","NA","space","space","space","space","j","568","NA","3090","15860","8094","4253","568","2","legacy","1024","2","48000","-16","task","7907630","even","NA","34228","39318","36228","144594","1522","25478","17383","145094","134961","144593","145094","144557","39318","145662","32375","144057","1518","117985","Lexical Decision Task","56","48988","58","yes","1024"
"3.529815197","0","3","lerm","non-word","96.61016949152543","96.61016949152543","841.1525423728814","841.1525423728814","black","no","legacy","legacy","legacy","0","uniform","1","undefined","undefined","undefined","1","f","0","0","0","0","58","0","0","0","58","0","54","58","54","0","54","3","58","0","58","Wed Feb 24 10:13:33 2021","The main experiment item","yes","Lexical_Decision_Task.osexp","C:/Users/sover","no","Andale Mono","no","18","no","white","no","yes","576","legacy","54","54","3","C:/Users/sover/subject-7907630.csv","legacy","Lentiform Loewenfeld","3.3.7","yes","yes","600bd7cfb6416f0113b04181","602110864497cf011d9c0822","0","f","NA","space","space","space","space","f","640","NA","3090","15860","8094","4253","640","2","legacy","1024","2","48000","-16","task","7907630","even","NA","34228","39318","36228","146202","1522","25478","17383","146702","134961","146201","146702","146165","39318","147342","32375","145665","1518","117985","Lexical Decision Task","57","49628","59","yes","1024"
"3.132473155","0","4","glim","non-word","96.66666666666667","96.66666666666667","841.5333333333333","841.5333333333333","black","no","legacy","legacy","legacy","0","uniform","1","undefined","undefined","undefined","1","f","0","0","0","0","59","0","0","0","59","0","55","59","55","0","55","3","59","0","59","Wed Feb 24 10:13:33 2021","The main experiment item","yes","Lexical_Decision_Task.osexp","C:/Users/sover","no","Andale Mono","no","18","no","white","no","yes","576","legacy","55","55","3","C:/Users/sover/subject-7907630.csv","legacy","Lentiform Loewenfeld","3.3.7","yes","yes","600bd7cfb6416f0113b04181","602110864497cf011d9c0822","0","f","NA","space","space","space","space","f","864","NA","3090","15860","8094","4253","864","2","legacy","1024","2","48000","-16","task","7907630","even","NA","34228","39318","36228","147882","1522","25478","17383","148382","134961","147881","148382","147845","39318","149246","32375","147345","1518","117985","Lexical Decision Task","58","50492","60","yes","1024"
"2.952953801","0","8","clax","non-word","96.72131147540983","96.72131147540983","838.2295081967213","838.2295081967213","black","no","legacy","legacy","legacy","0","uniform","1","undefined","undefined","undefined","1","f","0","0","0","0","60","0","0","0","60","0","56","60","56","0","56","3","60","0","60","Wed Feb 24 10:13:33 2021","The main experiment item","yes","Lexical_Decision_Task.osexp","C:/Users/sover","no","Andale Mono","no","18","no","white","no","yes","576","legacy","56","56","3","C:/Users/sover/subject-7907630.csv","legacy","Lentiform Loewenfeld","3.3.7","yes","yes","600bd7cfb6416f0113b04181","602110864497cf011d9c0822","0","f","NA","space","space","space","space","f","640","NA","3090","15860","8094","4253","640","2","legacy","1024","2","48000","-16","task","7907630","even","NA","34228","39318","36228","149786","1522","25478","17383","150286","134961","149785","150286","149749","39318","150927","32375","149249","1518","117985","Lexical Decision Task","59","51132","61","yes","1024"
"2.755364069","7.72","2","hoax","word","96.7741935483871","96.7741935483871","834.8870967741935","834.8870967741935","black","no","legacy","legacy","legacy","0","uniform","1","undefined","undefined","undefined","1","j","0","0","0","0","61","0","0","0","61","0","57","61","57","0","57","3","61","0","61","Wed Feb 24 10:13:33 2021","The main experiment item","yes","Lexical_Decision_Task.osexp","C:/Users/sover","no","Andale Mono","no","18","no","white","no","yes","576","legacy","57","57","3","C:/Users/sover/subject-7907630.csv","legacy","Lentiform Loewenfeld","3.3.7","yes","yes","600bd7cfb6416f0113b04181","602110864497cf011d9c0822","0","j","NA","space","space","space","space","j","631","NA","3090","15860","8094","4253","631","2","legacy","1024","2","48000","-16","task","7907630","even","NA","34228","39318","36228","151466","1522","25478","17383","151966","134961","151465","151967","151429","39318","152599","32375","150929","1518","117985","Lexical Decision Task","60","51763","62","yes","1024"
"3.248054965","7.86","5","glow","word","96.82539682539682","96.82539682539682","830.2698412698413","830.2698412698413","black","no","legacy","legacy","legacy","0","uniform","1","undefined","undefined","undefined","1","j","0","0","0","0","62","0","0","0","62","0","58","62","58","0","58","3","62","0","62","Wed Feb 24 10:13:33 2021","The main experiment item","yes","Lexical_Decision_Task.osexp","C:/Users/sover","no","Andale Mono","no","18","no","white","no","yes","576","legacy","58","58","3","C:/Users/sover/subject-7907630.csv","legacy","Lentiform Loewenfeld","3.3.7","yes","yes","600bd7cfb6416f0113b04181","602110864497cf011d9c0822","0","j","NA","space","space","space","space","j","544","NA","3090","15860","8094","4253","544","2","legacy","1024","2","48000","-16","task","7907630","even","NA","34228","39318","36228","153138","1522","25478","17383","153638","134961","153137","153638","153101","39318","154182","32375","152601","1518","117985","Lexical Decision Task","61","52307","63","yes","1024"
"3.14849993","10.75","7","hour","word","96.875","96.875","825.671875","825.671875","black","no","legacy","legacy","legacy","0","uniform","1","undefined","undefined","undefined","1","j","0","0","0","0","63","0","0","0","63","0","59","63","59","0","59","3","63","0","63","Wed Feb 24 10:13:33 2021","The main experiment item","yes","Lexical_Decision_Task.osexp","C:/Users/sover","no","Andale Mono","no","18","no","white","no","yes","576","legacy","59","59","3","C:/Users/sover/subject-7907630.csv","legacy","Lentiform Loewenfeld","3.3.7","yes","yes","600bd7cfb6416f0113b04181","602110864497cf011d9c0822","0","j","NA","space","space","space","space","j","536","NA","3090","15860","8094","4253","536","2","legacy","1024","2","48000","-16","task","7907630","even","NA","34228","39318","36228","154722","1522","25478","17383","155222","134961","154721","155222","154685","39318","155758","32375","154185","1518","117985","Lexical Decision Task","62","52843","64","yes","1024"
"2.6599162","0","2","saff","non-word","96.92307692307692","96.92307692307692","823.2923076923076","823.2923076923076","black","no","legacy","legacy","legacy","0","uniform","1","undefined","undefined","undefined","1","f","0","0","0","0","64","0","0","0","64","0","60","64","60","0","60","3","64","0","64","Wed Feb 24 10:13:33 2021","The main experiment item","yes","Lexical_Decision_Task.osexp","C:/Users/sover","no","Andale Mono","no","18","no","white","no","yes","576","legacy","60","60","3","C:/Users/sover/subject-7907630.csv","legacy","Lentiform Loewenfeld","3.3.7","yes","yes","600bd7cfb6416f0113b04181","602110864497cf011d9c0822","0","f","NA","space","space","space","space","f","671","NA","3090","15860","8094","4253","671","2","legacy","1024","2","48000","-16","task","7907630","even","NA","34228","39318","36228","156298","1522","25478","17383","156798","134961","156297","156799","156261","39318","157471","32375","155761","1518","117985","Lexical Decision Task","63","53514","65","yes","1024"
"2.983324025","9.56","2","debt","word","96.96969696969697","96.96969696969697","819.5454545454545","819.5454545454545","black","no","legacy","legacy","legacy","0","uniform","1","undefined","undefined","undefined","1","j","0","0","0","0","65","0","0","0","65","0","61","65","61","0","61","3","65","0","65","Wed Feb 24 10:13:33 2021","The main experiment item","yes","Lexical_Decision_Task.osexp","C:/Users/sover","no","Andale Mono","no","18","no","white","no","yes","576","legacy","61","61","3","C:/Users/sover/subject-7907630.csv","legacy","Lentiform Loewenfeld","3.3.7","yes","yes","600bd7cfb6416f0113b04181","602110864497cf011d9c0822","0","j","NA","space","space","space","space","j","576","NA","3090","15860","8094","4253","576","2","legacy","1024","2","48000","-16","task","7907630","even","NA","34228","39318","36228","158010","1522","25478","17383","158510","134961","158009","158510","157973","39318","159087","32375","157473","1518","117985","Lexical Decision Task","64","54090","66","yes","1024"
"2.838639236","0","4","furg","non-word","97.01492537313433","97.01492537313433","815.2985074626865","815.2985074626865","black","no","legacy","legacy","legacy","0","uniform","1","undefined","undefined","undefined","1","f","0","0","0","0","66","0","0","0","66","0","62","66","62","0","62","3","66","0","66","Wed Feb 24 10:13:33 2021","The main experiment item","yes","Lexical_Decision_Task.osexp","C:/Users/sover","no","Andale Mono","no","18","no","white","no","yes","576","legacy","62","62","3","C:/Users/sover/subject-7907630.csv","legacy","Lentiform Loewenfeld","3.3.7","yes","yes","600bd7cfb6416f0113b04181","602110864497cf011d9c0822","0","f","NA","space","space","space","space","f","535","NA","3090","15860","8094","4253","535","2","legacy","1024","2","48000","-16","task","7907630","even","NA","34228","39318","36228","159627","1522","25478","17383","160127","134961","159626","160127","159589","39318","160663","32375","159089","1518","117985","Lexical Decision Task","65","54625","67","yes","1024"
"3.049218023","7.4","9","robe","word","97.05882352941177","97.05882352941177","810.3676470588235","810.3676470588235","black","no","legacy","legacy","legacy","0","uniform","1","undefined","undefined","undefined","1","j","0","0","0","0","67","0","0","0","67","0","63","67","63","0","63","3","67","0","67","Wed Feb 24 10:13:33 2021","The main experiment item","yes","Lexical_Decision_Task.osexp","C:/Users/sover","no","Andale Mono","no","18","no","white","no","yes","576","legacy","63","63","3","C:/Users/sover/subject-7907630.csv","legacy","Lentiform Loewenfeld","3.3.7","yes","yes","600bd7cfb6416f0113b04181","602110864497cf011d9c0822","0","j","NA","space","space","space","space","j","480","NA","3090","15860","8094","4253","480","2","legacy","1024","2","48000","-16","task","7907630","even","NA","34228","39318","36228","161202","1522","25478","17383","161702","134961","161201","161702","161165","39318","162182","32375","160665","1518","117985","Lexical Decision Task","66","55105","68","yes","1024"
"3.064581521","5.51","6","cask","word","97.10144927536231","97.10144927536231","806.3913043478261","806.3913043478261","black","no","legacy","legacy","legacy","0","uniform","1","undefined","undefined","undefined","1","j","0","0","0","0","68","0","0","0","68","0","64","68","64","0","64","3","68","0","68","Wed Feb 24 10:13:33 2021","The main experiment item","yes","Lexical_Decision_Task.osexp","C:/Users/sover","no","Andale Mono","no","18","no","white","no","yes","576","legacy","64","64","3","C:/Users/sover/subject-7907630.csv","legacy","Lentiform Loewenfeld","3.3.7","yes","yes","600bd7cfb6416f0113b04181","602110864497cf011d9c0822","0","j","NA","space","space","space","space","j","536","NA","3090","15860","8094","4253","536","2","legacy","1024","2","48000","-16","task","7907630","even","NA","34228","39318","36228","162722","1522","25478","17383","163222","134961","162721","163222","162685","39318","163759","32375","162185","1518","117985","Lexical Decision Task","67","55641","69","yes","1024"
"2.708989954","9.28","9","bowl","word","97.14285714285714","97.14285714285714","804.0142857142857","804.0142857142857","black","no","legacy","legacy","legacy","0","uniform","1","undefined","undefined","undefined","1","j","0","0","0","0","69","0","0","0","69","0","65","69","65","0","65","3","69","0","69","Wed Feb 24 10:13:33 2021","The main experiment item","yes","Lexical_Decision_Task.osexp","C:/Users/sover","no","Andale Mono","no","18","no","white","no","yes","576","legacy","65","65","3","C:/Users/sover/subject-7907630.csv","legacy","Lentiform Loewenfeld","3.3.7","yes","yes","600bd7cfb6416f0113b04181","602110864497cf011d9c0822","0","j","NA","space","space","space","space","j","640","NA","3090","15860","8094","4253","640","2","legacy","1024","2","48000","-16","task","7907630","even","NA","34228","39318","36228","164298","1522","25478","17383","164798","134961","164297","164798","164261","39318","165439","32375","163761","1518","117985","Lexical Decision Task","68","56281","70","yes","1024"
"2.813801082","5.47","7","nook","word","97.1830985915493","97.1830985915493","801.7042253521126","801.7042253521126","black","no","legacy","legacy","legacy","0","uniform","1","undefined","undefined","undefined","1","j","0","0","0","0","70","0","0","0","70","0","66","70","66","0","66","3","70","0","70","Wed Feb 24 10:13:33 2021","The main experiment item","yes","Lexical_Decision_Task.osexp","C:/Users/sover","no","Andale Mono","no","18","no","white","no","yes","576","legacy","66","66","3","C:/Users/sover/subject-7907630.csv","legacy","Lentiform Loewenfeld","3.3.7","yes","yes","600bd7cfb6416f0113b04181","602110864497cf011d9c0822","0","j","NA","space","space","space","space","j","640","NA","3090","15860","8094","4253","640","2","legacy","1024","2","48000","-16","task","7907630","even","NA","34228","39318","36228","165978","1522","25478","17383","166478","134961","165977","166478","165941","39318","167118","32375","165441","1518","117985","Lexical Decision Task","69","56921","71","yes","1024"
"3.705778213","0","6","stin","non-word","97.22222222222223","97.22222222222223","801.2361111111111","801.2361111111111","black","no","legacy","legacy","legacy","0","uniform","1","undefined","undefined","undefined","1","f","0","0","0","0","71","0","0","0","71","0","67","71","67","0","67","3","71","0","71","Wed Feb 24 10:13:33 2021","The main experiment item","yes","Lexical_Decision_Task.osexp","C:/Users/sover","no","Andale Mono","no","18","no","white","no","yes","576","legacy","67","67","3","C:/Users/sover/subject-7907630.csv","legacy","Lentiform Loewenfeld","3.3.7","yes","yes","600bd7cfb6416f0113b04181","602110864497cf011d9c0822","0","f","NA","space","space","space","space","f","768","NA","3090","15860","8094","4253","768","2","legacy","1024","2","48000","-16","task","7907630","even","NA","34228","39318","36228","167658","1522","25478","17383","168158","134961","167657","168158","167621","39318","168927","32375","167121","1518","117985","Lexical Decision Task","70","57689","72","yes","1024"
"3.100255637","0","6","brax","non-word","97.26027397260275","97.26027397260275","800.7808219178082","800.7808219178082","black","no","legacy","legacy","legacy","0","uniform","1","undefined","undefined","undefined","1","f","0","0","0","0","72","0","0","0","72","0","68","72","68","0","68","3","72","0","72","Wed Feb 24 10:13:33 2021","The main experiment item","yes","Lexical_Decision_Task.osexp","C:/Users/sover","no","Andale Mono","no","18","no","white","no","yes","576","legacy","68","68","3","C:/Users/sover/subject-7907630.csv","legacy","Lentiform Loewenfeld","3.3.7","yes","yes","600bd7cfb6416f0113b04181","602110864497cf011d9c0822","0","f","NA","space","space","space","space","f","768","NA","3090","15860","8094","4253","768","2","legacy","1024","2","48000","-16","task","7907630","even","NA","34228","39318","36228","169466","1522","25478","17383","169966","134961","169465","169966","169429","39318","170735","32375","168929","1518","117985","Lexical Decision Task","71","58457","73","yes","1024"
"3.094121596","0","8","fode","non-word","97.29729729729729","97.29729729729729","798.5","798.5","black","no","legacy","legacy","legacy","0","uniform","1","undefined","undefined","undefined","1","f","0","0","0","0","73","0","0","0","73","0","69","73","69","0","69","3","73","0","73","Wed Feb 24 10:13:33 2021","The main experiment item","yes","Lexical_Decision_Task.osexp","C:/Users/sover","no","Andale Mono","no","18","no","white","no","yes","576","legacy","69","69","3","C:/Users/sover/subject-7907630.csv","legacy","Lentiform Loewenfeld","3.3.7","yes","yes","600bd7cfb6416f0113b04181","602110864497cf011d9c0822","0","f","NA","space","space","space","space","f","632","NA","3090","15860","8094","4253","632","2","legacy","1024","2","48000","-16","task","7907630","even","NA","34228","39318","36228","171274","1522","25478","17383","171774","134961","171273","171774","171237","39318","172407","32375","170737","1518","117985","Lexical Decision Task","72","59089","74","yes","1024"
"3.137775856","7.39","5","comb","word","97.33333333333333","97.33333333333333","798.9333333333333","798.9333333333333","black","no","legacy","legacy","legacy","0","uniform","1","undefined","undefined","undefined","1","j","0","0","0","0","74","0","0","0","74","0","70","74","70","0","70","3","74","0","74","Wed Feb 24 10:13:33 2021","The main experiment item","yes","Lexical_Decision_Task.osexp","C:/Users/sover","no","Andale Mono","no","18","no","white","no","yes","576","legacy","70","70","3","C:/Users/sover/subject-7907630.csv","legacy","Lentiform Loewenfeld","3.3.7","yes","yes","600bd7cfb6416f0113b04181","602110864497cf011d9c0822","0","j","NA","space","space","space","space","j","831","NA","3090","15860","8094","4253","831","2","legacy","1024","2","48000","-16","task","7907630","even","NA","34228","39318","36228","172946","1522","25478","17383","173446","134961","172945","173447","172909","39318","174279","32375","172409","1518","117985","Lexical Decision Task","73","59920","75","yes","1024"
"3.374198258","0","8","vist","non-word","97.36842105263158","97.36842105263158","801.0526315789474","801.0526315789474","black","no","legacy","legacy","legacy","0","uniform","1","undefined","undefined","undefined","1","f","0","0","0","0","75","0","0","0","75","0","71","75","71","0","71","3","75","0","75","Wed Feb 24 10:13:33 2021","The main experiment item","yes","Lexical_Decision_Task.osexp","C:/Users/sover","no","Andale Mono","no","18","no","white","no","yes","576","legacy","71","71","3","C:/Users/sover/subject-7907630.csv","legacy","Lentiform Loewenfeld","3.3.7","yes","yes","600bd7cfb6416f0113b04181","602110864497cf011d9c0822","0","f","NA","space","space","space","space","f","960","NA","3090","15860","8094","4253","960","2","legacy","1024","2","48000","-16","task","7907630","even","NA","34228","39318","36228","174818","1522","25478","17383","175318","134961","174817","175318","174781","39318","176279","32375","174281","1518","117985","Lexical Decision Task","74","60880","76","yes","1024"
"2.990042563","6.64","9","plow","word","97.40259740259741","97.40259740259741","798.1298701298701","798.1298701298701","black","no","legacy","legacy","legacy","0","uniform","1","undefined","undefined","undefined","1","j","0","0","0","0","76","0","0","0","76","0","72","76","72","0","72","3","76","0","76","Wed Feb 24 10:13:33 2021","The main experiment item","yes","Lexical_Decision_Task.osexp","C:/Users/sover","no","Andale Mono","no","18","no","white","no","yes","576","legacy","72","72","3","C:/Users/sover/subject-7907630.csv","legacy","Lentiform Loewenfeld","3.3.7","yes","yes","600bd7cfb6416f0113b04181","602110864497cf011d9c0822","0","j","NA","space","space","space","space","j","576","NA","3090","15860","8094","4253","576","2","legacy","1024","2","48000","-16","task","7907630","even","NA","34228","39318","36228","176818","1522","25478","17383","177318","134961","176817","177318","176781","39318","177895","32375","176281","1518","117985","Lexical Decision Task","75","61456","77","yes","1024"
"3.218535505","7.85","7","goat","word","97.43589743589743","97.43589743589743","794.7692307692307","794.7692307692307","black","no","legacy","legacy","legacy","0","uniform","1","undefined","undefined","undefined","1","j","0","0","0","0","77","0","0","0","77","0","73","77","73","0","73","3","77","0","77","Wed Feb 24 10:13:33 2021","The main experiment item","yes","Lexical_Decision_Task.osexp","C:/Users/sover","no","Andale Mono","no","18","no","white","no","yes","576","legacy","73","73","3","C:/Users/sover/subject-7907630.csv","legacy","Lentiform Loewenfeld","3.3.7","yes","yes","600bd7cfb6416f0113b04181","602110864497cf011d9c0822","0","j","NA","space","space","space","space","j","536","NA","3090","15860","8094","4253","536","2","legacy","1024","2","48000","-16","task","7907630","even","NA","34228","39318","36228","178434","1522","25478","17383","178934","134961","178433","178934","178397","39318","179471","32375","177897","1518","117985","Lexical Decision Task","76","61992","78","yes","1024"
"3.299579929","0","2","flis","non-word","97.46835443037975","97.46835443037975","791.1772151898734","791.1772151898734","black","no","legacy","legacy","legacy","0","uniform","1","undefined","undefined","undefined","1","f","0","0","0","0","78","0","0","0","78","0","74","78","74","0","74","3","78","0","78","Wed Feb 24 10:13:33 2021","The main experiment item","yes","Lexical_Decision_Task.osexp","C:/Users/sover","no","Andale Mono","no","18","no","white","no","yes","576","legacy","74","74","3","C:/Users/sover/subject-7907630.csv","legacy","Lentiform Loewenfeld","3.3.7","yes","yes","600bd7cfb6416f0113b04181","602110864497cf011d9c0822","0","f","NA","space","space","space","space","f","511","NA","3090","15860","8094","4253","511","2","legacy","1024","2","48000","-16","task","7907630","even","NA","34228","39318","36228","180011","1522","25478","17383","180511","134961","180010","180511","179973","39318","181023","32375","179473","1518","117985","Lexical Decision Task","77","62503","79","yes","1024"
"3.031408464","0","7","drow","non-word","96.25","96.25","789.2875","789.2875","black","no","legacy","legacy","legacy","0","uniform","0","undefined","undefined","undefined","0","f","0","0","0","0","79","0","0","0","79","0","75","79","75","0","75","3","79","0","79","Wed Feb 24 10:13:33 2021","The main experiment item","yes","Lexical_Decision_Task.osexp","C:/Users/sover","no","Andale Mono","no","18","no","white","no","yes","576","legacy","75","75","3","C:/Users/sover/subject-7907630.csv","legacy","Lentiform Loewenfeld","3.3.7","yes","yes","600bd7cfb6416f0113b04181","602110864497cf011d9c0822","0","j","NA","space","space","space","space","j","640","NA","3090","15860","8094","4253","640","2","legacy","1024","2","48000","-16","task","7907630","even","NA","34228","39318","36228","181562","1522","25478","17383","182062","134961","181561","182062","181525","39318","182702","32375","181025","1518","117985","Lexical Decision Task","77","63143","80","yes","1024"
"2.8162413","0","5","nusk","non-word","96.29629629629629","96.29629629629629","788.1358024691358","788.1358024691358","black","no","legacy","legacy","legacy","0","uniform","1","undefined","undefined","undefined","1","f","0","0","0","0","80","0","0","0","80","0","76","80","76","0","76","3","80","0","80","Wed Feb 24 10:13:33 2021","The main experiment item","yes","Lexical_Decision_Task.osexp","C:/Users/sover","no","Andale Mono","no","18","no","white","no","yes","576","legacy","76","76","3","C:/Users/sover/subject-7907630.csv","legacy","Lentiform Loewenfeld","3.3.7","yes","yes","600bd7cfb6416f0113b04181","602110864497cf011d9c0822","0","f","NA","space","space","space","space","f","696","NA","3090","15860","8094","4253","696","2","legacy","1024","2","48000","-16","task","7907630","even","NA","34228","39318","36228","184242","1522","25478","17383","184742","134961","184241","184742","184205","39318","185438","32375","181025","1518","182705","Lexical Decision Task","78","63839","81","yes","1024"
"2.9737419","7.69","7","claw","word","96.34146341463415","96.34146341463415","788.280487804878","788.280487804878","black","no","legacy","legacy","legacy","0","uniform","1","undefined","undefined","undefined","1","j","0","0","0","0","81","0","0","0","81","0","77","81","77","0","77","3","81","0","81","Wed Feb 24 10:13:33 2021","The main experiment item","yes","Lexical_Decision_Task.osexp","C:/Users/sover","no","Andale Mono","no","18","no","white","no","yes","576","legacy","77","77","3","C:/Users/sover/subject-7907630.csv","legacy","Lentiform Loewenfeld","3.3.7","yes","yes","600bd7cfb6416f0113b04181","602110864497cf011d9c0822","0","j","NA","space","space","space","space","j","800","NA","3090","15860","8094","4253","800","2","legacy","1024","2","48000","-16","task","7907630","even","NA","34228","39318","36228","185978","1522","25478","17383","186478","134961","185977","186478","185941","39318","187279","32375","185441","1518","182705","Lexical Decision Task","79","64639","82","yes","1024"
"2.696356389","0","1","pizz","non-word","96.3855421686747","96.3855421686747","786.8674698795181","786.8674698795181","black","no","legacy","legacy","legacy","0","uniform","1","undefined","undefined","undefined","1","f","0","0","0","0","82","0","0","0","82","0","78","82","78","0","78","3","82","0","82","Wed Feb 24 10:13:33 2021","The main experiment item","yes","Lexical_Decision_Task.osexp","C:/Users/sover","no","Andale Mono","no","18","no","white","no","yes","576","legacy","78","78","3","C:/Users/sover/subject-7907630.csv","legacy","Lentiform Loewenfeld","3.3.7","yes","yes","600bd7cfb6416f0113b04181","602110864497cf011d9c0822","0","f","NA","space","space","space","space","f","671","NA","3090","15860","8094","4253","671","2","legacy","1024","2","48000","-16","task","7907630","even","NA","34228","39318","36228","187819","1522","25478","17383","188319","134961","187818","188319","187781","39318","188991","32375","187281","1518","182705","Lexical Decision Task","80","65310","83","yes","1024"
"2.981215883","10.66","5","hair","word","96.42857142857143","96.42857142857143","784.7261904761905","784.7261904761905","black","no","legacy","legacy","legacy","0","uniform","1","undefined","undefined","undefined","1","j","0","0","0","0","83","0","0","0","83","0","79","83","79","0","79","3","83","0","83","Wed Feb 24 10:13:33 2021","The main experiment item","yes","Lexical_Decision_Task.osexp","C:/Users/sover","no","Andale Mono","no","18","no","white","no","yes","576","legacy","79","79","3","C:/Users/sover/subject-7907630.csv","legacy","Lentiform Loewenfeld","3.3.7","yes","yes","600bd7cfb6416f0113b04181","602110864497cf011d9c0822","0","j","NA","space","space","space","space","j","607","NA","3090","15860","8094","4253","607","2","legacy","1024","2","48000","-16","task","7907630","even","NA","34228","39318","36228","189530","1522","25478","17383","190030","134961","189529","190031","189493","39318","190638","32375","188993","1518","182705","Lexical Decision Task","81","65917","84","yes","1024"
"3.353210739","0","9","reet","non-word","96.47058823529412","96.47058823529412","784.5294117647059","784.5294117647059","black","no","legacy","legacy","legacy","0","uniform","1","undefined","undefined","undefined","1","f","0","0","0","0","84","0","0","0","84","0","80","84","80","0","80","3","84","0","84","Wed Feb 24 10:13:33 2021","The main experiment item","yes","Lexical_Decision_Task.osexp","C:/Users/sover","no","Andale Mono","no","18","no","white","no","yes","576","legacy","80","80","3","C:/Users/sover/subject-7907630.csv","legacy","Lentiform Loewenfeld","3.3.7","yes","yes","600bd7cfb6416f0113b04181","602110864497cf011d9c0822","0","f","NA","space","space","space","space","f","768","NA","3090","15860","8094","4253","768","2","legacy","1024","2","48000","-16","task","7907630","even","NA","34228","39318","36228","191178","1522","25478","17383","191678","134961","191177","191678","191141","39318","192447","32375","190641","1518","182705","Lexical Decision Task","82","66685","85","yes","1024"
"2.771097306","0","9","jold","non-word","96.51162790697674","96.51162790697674","784.2325581395348","784.2325581395348","black","no","legacy","legacy","legacy","0","uniform","1","undefined","undefined","undefined","1","f","0","0","0","0","85","0","0","0","85","0","81","85","81","0","81","3","85","0","85","Wed Feb 24 10:13:33 2021","The main experiment item","yes","Lexical_Decision_Task.osexp","C:/Users/sover","no","Andale Mono","no","18","no","white","no","yes","576","legacy","81","81","3","C:/Users/sover/subject-7907630.csv","legacy","Lentiform Loewenfeld","3.3.7","yes","yes","600bd7cfb6416f0113b04181","602110864497cf011d9c0822","0","f","NA","space","space","space","space","f","759","NA","3090","15860","8094","4253","759","2","legacy","1024","2","48000","-16","task","7907630","even","NA","34228","39318","36228","192987","1522","25478","17383","193487","134961","192986","193487","192949","39318","194247","32375","192449","1518","182705","Lexical Decision Task","83","67444","86","yes","1024"
"2.996511672","0","7","hoil","non-word","96.55172413793103","96.55172413793103","787.080459770115","787.080459770115","black","no","legacy","legacy","legacy","0","uniform","1","undefined","undefined","undefined","1","f","0","0","0","0","86","0","0","0","86","0","82","86","82","0","82","3","86","0","86","Wed Feb 24 10:13:33 2021","The main experiment item","yes","Lexical_Decision_Task.osexp","C:/Users/sover","no","Andale Mono","no","18","no","white","no","yes","576","legacy","82","82","3","C:/Users/sover/subject-7907630.csv","legacy","Lentiform Loewenfeld","3.3.7","yes","yes","600bd7cfb6416f0113b04181","602110864497cf011d9c0822","0","f","NA","space","space","space","space","f","1032","NA","3090","15860","8094","4253","1032","2","legacy","1024","2","48000","-16","task","7907630","even","NA","34228","39318","36228","194786","1522","25478","17383","195286","134961","194785","195286","194749","39318","196319","32375","194249","1518","182705","Lexical Decision Task","84","68476","87","yes","1024"
"2.972819734","0","4","scew","non-word","96.5909090909091","96.5909090909091","786.4090909090909","786.4090909090909","black","no","legacy","legacy","legacy","0","uniform","1","undefined","undefined","undefined","1","f","0","0","0","0","87","0","0","0","87","0","83","87","83","0","83","3","87","0","87","Wed Feb 24 10:13:33 2021","The main experiment item","yes","Lexical_Decision_Task.osexp","C:/Users/sover","no","Andale Mono","no","18","no","white","no","yes","576","legacy","83","83","3","C:/Users/sover/subject-7907630.csv","legacy","Lentiform Loewenfeld","3.3.7","yes","yes","600bd7cfb6416f0113b04181","602110864497cf011d9c0822","0","f","NA","space","space","space","space","f","728","NA","3090","15860","8094","4253","728","2","legacy","1024","2","48000","-16","task","7907630","even","NA","34228","39318","36228","196858","1522","25478","17383","197358","134961","196857","197358","196821","39318","198087","32375","196321","1518","182705","Lexical Decision Task","85","69204","88","yes","1024"
"3.119255889","6.63","2","itch","word","96.62921348314607","96.62921348314607","784.7640449438202","784.7640449438202","black","no","legacy","legacy","legacy","0","uniform","1","undefined","undefined","undefined","1","j","0","0","0","0","88","0","0","0","88","0","84","88","84","0","84","3","88","0","88","Wed Feb 24 10:13:33 2021","The main experiment item","yes","Lexical_Decision_Task.osexp","C:/Users/sover","no","Andale Mono","no","18","no","white","no","yes","576","legacy","84","84","3","C:/Users/sover/subject-7907630.csv","legacy","Lentiform Loewenfeld","3.3.7","yes","yes","600bd7cfb6416f0113b04181","602110864497cf011d9c0822","0","j","NA","space","space","space","space","j","640","NA","3090","15860","8094","4253","640","2","legacy","1024","2","48000","-16","task","7907630","even","NA","34228","39318","36228","198626","1522","25478","17383","199126","134961","198625","199126","198589","39318","199767","32375","198089","1518","182705","Lexical Decision Task","86","69844","89","yes","1024"
"3.2757719","0","5","slea","non-word","96.66666666666667","96.66666666666667","783.5","783.5","black","no","legacy","legacy","legacy","0","uniform","1","undefined","undefined","undefined","1","f","0","0","0","0","89","0","0","0","89","0","85","89","85","0","85","3","89","0","89","Wed Feb 24 10:13:33 2021","The main experiment item","yes","Lexical_Decision_Task.osexp","C:/Users/sover","no","Andale Mono","no","18","no","white","no","yes","576","legacy","85","85","3","C:/Users/sover/subject-7907630.csv","legacy","Lentiform Loewenfeld","3.3.7","yes","yes","600bd7cfb6416f0113b04181","602110864497cf011d9c0822","0","f","NA","space","space","space","space","f","671","NA","3090","15860","8094","4253","671","2","legacy","1024","2","48000","-16","task","7907630","even","NA","34228","39318","36228","200307","1522","25478","17383","200807","134961","200306","200807","200269","39318","201479","32375","199769","1518","182705","Lexical Decision Task","87","70515","90","yes","1024"
"2.971428938","9.86","7","spot","word","96.7032967032967","96.7032967032967","781.9230769230769","781.9230769230769","black","no","legacy","legacy","legacy","0","uniform","1","undefined","undefined","undefined","1","j","0","0","0","0","90","0","0","0","90","0","86","90","86","0","86","3","90","0","90","Wed Feb 24 10:13:33 2021","The main experiment item","yes","Lexical_Decision_Task.osexp","C:/Users/sover","no","Andale Mono","no","18","no","white","no","yes","576","legacy","86","86","3","C:/Users/sover/subject-7907630.csv","legacy","Lentiform Loewenfeld","3.3.7","yes","yes","600bd7cfb6416f0113b04181","602110864497cf011d9c0822","0","j","NA","space","space","space","space","j","640","NA","3090","15860","8094","4253","640","2","legacy","1024","2","48000","-16","task","7907630","even","NA","34228","39318","36228","202018","1522","25478","17383","202518","134961","202017","202518","201981","39318","203159","32375","201481","1518","182705","Lexical Decision Task","88","71155","91","yes","1024"
"2.64476673","0","5","moft","non-word","96.73913043478261","96.73913043478261","783.5108695652174","783.5108695652174","black","no","legacy","legacy","legacy","0","uniform","1","undefined","undefined","undefined","1","f","0","0","0","0","91","0","0","0","91","0","87","91","87","0","87","3","91","0","91","Wed Feb 24 10:13:33 2021","The main experiment item","yes","Lexical_Decision_Task.osexp","C:/Users/sover","no","Andale Mono","no","18","no","white","no","yes","576","legacy","87","87","3","C:/Users/sover/subject-7907630.csv","legacy","Lentiform Loewenfeld","3.3.7","yes","yes","600bd7cfb6416f0113b04181","602110864497cf011d9c0822","0","f","NA","space","space","space","space","f","928","NA","3090","15860","8094","4253","928","2","legacy","1024","2","48000","-16","task","7907630","even","NA","34228","39318","36228","203698","1522","25478","17383","204198","134961","203697","204198","203661","39318","205127","32375","203161","1518","182705","Lexical Decision Task","89","72083","92","yes","1024"
"3.531734309","0","6","lerd","non-word","96.7741935483871","96.7741935483871","782.5698924731183","782.5698924731183","black","no","legacy","legacy","legacy","0","uniform","1","undefined","undefined","undefined","1","f","0","0","0","0","92","0","0","0","92","0","88","92","88","0","88","3","92","0","92","Wed Feb 24 10:13:33 2021","The main experiment item","yes","Lexical_Decision_Task.osexp","C:/Users/sover","no","Andale Mono","no","18","no","white","no","yes","576","legacy","88","88","3","C:/Users/sover/subject-7907630.csv","legacy","Lentiform Loewenfeld","3.3.7","yes","yes","600bd7cfb6416f0113b04181","602110864497cf011d9c0822","0","f","NA","space","space","space","space","f","696","NA","3090","15860","8094","4253","696","2","legacy","1024","2","48000","-16","task","7907630","even","NA","34228","39318","36228","205666","1522","25478","17383","206166","134961","205665","206166","205629","39318","206863","32375","205129","1518","182705","Lexical Decision Task","90","72779","93","yes","1024"
"3.368162872","0","4","ferk","non-word","96.80851063829788","96.80851063829788","780.3617021276596","780.3617021276596","black","no","legacy","legacy","legacy","0","uniform","1","undefined","undefined","undefined","1","f","0","0","0","0","93","0","0","0","93","0","89","93","89","0","89","3","93","0","93","Wed Feb 24 10:13:33 2021","The main experiment item","yes","Lexical_Decision_Task.osexp","C:/Users/sover","no","Andale Mono","no","18","no","white","no","yes","576","legacy","89","89","3","C:/Users/sover/subject-7907630.csv","legacy","Lentiform Loewenfeld","3.3.7","yes","yes","600bd7cfb6416f0113b04181","602110864497cf011d9c0822","0","f","NA","space","space","space","space","f","575","NA","3090","15860","8094","4253","575","2","legacy","1024","2","48000","-16","task","7907630","even","NA","34228","39318","36228","207402","1522","25478","17383","207902","134961","207401","207903","207365","39318","208479","32375","206865","1518","182705","Lexical Decision Task","91","73354","94","yes","1024"
"2.839268497","0","8","maft","non-word","96.84210526315789","96.84210526315789","778.2","778.2","black","no","legacy","legacy","legacy","0","uniform","1","undefined","undefined","undefined","1","f","0","0","0","0","94","0","0","0","94","0","90","94","90","0","90","3","94","0","94","Wed Feb 24 10:13:33 2021","The main experiment item","yes","Lexical_Decision_Task.osexp","C:/Users/sover","no","Andale Mono","no","18","no","white","no","yes","576","legacy","90","90","3","C:/Users/sover/subject-7907630.csv","legacy","Lentiform Loewenfeld","3.3.7","yes","yes","600bd7cfb6416f0113b04181","602110864497cf011d9c0822","0","f","NA","space","space","space","space","f","575","NA","3090","15860","8094","4253","575","2","legacy","1024","2","48000","-16","task","7907630","even","NA","34228","39318","36228","209019","1522","25478","17383","209519","134961","209018","209519","208981","39318","210095","32375","208481","1518","182705","Lexical Decision Task","92","73929","95","yes","1024"
"2.892836167","10.01","5","soft","word","95.83333333333333","95.83333333333333","776.34375","776.34375","black","no","legacy","legacy","legacy","0","uniform","0","undefined","undefined","undefined","0","j","0","0","0","0","95","0","0","0","95","0","91","95","91","0","91","3","95","0","95","Wed Feb 24 10:13:33 2021","The main experiment item","yes","Lexical_Decision_Task.osexp","C:/Users/sover","no","Andale Mono","no","18","no","white","no","yes","576","legacy","91","91","3","C:/Users/sover/subject-7907630.csv","legacy","Lentiform Loewenfeld","3.3.7","yes","yes","600bd7cfb6416f0113b04181","602110864497cf011d9c0822","0","f","NA","space","space","space","space","f","600","NA","3090","15860","8094","4253","600","2","legacy","1024","2","48000","-16","task","7907630","even","NA","34228","39318","36228","210634","1522","25478","17383","211134","134961","210633","211134","210597","39318","211735","32375","210097","1518","182705","Lexical Decision Task","92","74529","96","yes","1024"
"3.077974404","10.41","8","tool","word","95.87628865979381","95.87628865979381","775.2680412371134","775.2680412371134","black","no","legacy","legacy","legacy","0","uniform","1","undefined","undefined","undefined","1","j","0","0","0","0","96","0","0","0","96","0","92","96","92","0","92","3","96","0","96","Wed Feb 24 10:13:33 2021","The main experiment item","yes","Lexical_Decision_Task.osexp","C:/Users/sover","no","Andale Mono","no","18","no","white","no","yes","576","legacy","92","92","3","C:/Users/sover/subject-7907630.csv","legacy","Lentiform Loewenfeld","3.3.7","yes","yes","600bd7cfb6416f0113b04181","602110864497cf011d9c0822","0","j","NA","space","space","space","space","j","672","NA","3090","15860","8094","4253","672","2","legacy","1024","2","48000","-16","task","7907630","even","NA","34228","39318","36228","213274","1522","25478","17383","213774","134961","213273","213774","213237","39318","214447","32375","210097","1518","211737","Lexical Decision Task","93","75201","97","yes","1024"
"2.966923697","5.4","2","fume","word","95.91836734693878","95.91836734693878","776.1734693877551","776.1734693877551","black","no","legacy","legacy","legacy","0","uniform","1","undefined","undefined","undefined","1","j","0","0","0","0","97","0","0","0","97","0","93","97","93","0","93","3","97","0","97","Wed Feb 24 10:13:33 2021","The main experiment item","yes","Lexical_Decision_Task.osexp","C:/Users/sover","no","Andale Mono","no","18","no","white","no","yes","576","legacy","93","93","3","C:/Users/sover/subject-7907630.csv","legacy","Lentiform Loewenfeld","3.3.7","yes","yes","600bd7cfb6416f0113b04181","602110864497cf011d9c0822","0","j","NA","space","space","space","space","j","864","NA","3090","15860","8094","4253","864","2","legacy","1024","2","48000","-16","task","7907630","even","NA","34228","39318","36228","214986","1522","25478","17383","215486","134961","214985","215486","214949","39318","216351","32375","214449","1518","211737","Lexical Decision Task","94","76065","98","yes","1024"
"2.695770526","7.34","6","pawn","word","95.95959595959596","95.95959595959596","775.1111111111111","775.1111111111111","black","no","legacy","legacy","legacy","0","uniform","1","undefined","undefined","undefined","1","j","0","0","0","0","98","0","0","0","98","0","94","98","94","0","94","3","98","0","98","Wed Feb 24 10:13:33 2021","The main experiment item","yes","Lexical_Decision_Task.osexp","C:/Users/sover","no","Andale Mono","no","18","no","white","no","yes","576","legacy","94","94","3","C:/Users/sover/subject-7907630.csv","legacy","Lentiform Loewenfeld","3.3.7","yes","yes","600bd7cfb6416f0113b04181","602110864497cf011d9c0822","0","j","NA","space","space","space","space","j","671","NA","3090","15860","8094","4253","671","2","legacy","1024","2","48000","-16","task","7907630","even","NA","34228","39318","36228","216891","1522","25478","17383","217391","134961","216890","217391","216853","39318","218063","32375","216353","1518","211737","Lexical Decision Task","95","76736","99","yes","1024"
"3.302475237","0","7","leel","non-word","96","96","773.68","773.68","black","no","legacy","legacy","legacy","0","uniform","1","undefined","undefined","undefined","1","f","0","0","0","0","99","0","0","0","99","0","95","99","95","0","95","3","99","0","99","Wed Feb 24 10:13:33 2021","The main experiment item","yes","Lexical_Decision_Task.osexp","C:/Users/sover","no","Andale Mono","no","18","no","white","no","yes","576","legacy","95","95","3","C:/Users/sover/subject-7907630.csv","legacy","Lentiform Loewenfeld","3.3.7","yes","yes","600bd7cfb6416f0113b04181","602110864497cf011d9c0822","0","f","NA","space","space","space","space","f","632","NA","3090","15860","8094","4253","632","2","legacy","1024","2","48000","-16","task","7907630","even","NA","34228","39318","36228","218602","1522","25478","17383","219102","134961","218601","219102","218565","39318","219735","32375","218065","1518","211737","Lexical Decision Task","96","77368","100","yes","1024"
"2.893578687","8.69","3","surf","word","96.03960396039604","96.03960396039604","771.7227722772277","771.7227722772277","black","no","legacy","legacy","legacy","0","uniform","1","undefined","undefined","undefined","1","j","0","0","0","0","100","0","0","0","100","0","96","100","96","0","96","3","100","0","100","Wed Feb 24 10:13:33 2021","The main experiment item","yes","Lexical_Decision_Task.osexp","C:/Users/sover","no","Andale Mono","no","18","no","white","no","yes","576","legacy","96","96","3","C:/Users/sover/subject-7907630.csv","legacy","Lentiform Loewenfeld","3.3.7","yes","yes","600bd7cfb6416f0113b04181","602110864497cf011d9c0822","0","j","NA","space","space","space","space","j","576","NA","3090","15860","8094","4253","576","2","legacy","1024","2","48000","-16","task","7907630","even","NA","34228","39318","36228","220274","1522","25478","17383","220774","134961","220273","220774","220237","39318","221351","32375","219737","1518","211737","Lexical Decision Task","97","77944","101","yes","1024"
"2.713490543","0","3","feps","non-word","96.07843137254902","96.07843137254902","770.4215686274509","770.4215686274509","black","no","legacy","legacy","legacy","0","uniform","1","undefined","undefined","undefined","1","f","0","0","0","0","101","0","0","0","101","0","97","101","97","0","97","3","101","0","101","Wed Feb 24 10:13:33 2021","The main experiment item","yes","Lexical_Decision_Task.osexp","C:/Users/sover","no","Andale Mono","no","18","no","white","no","yes","576","legacy","97","97","3","C:/Users/sover/subject-7907630.csv","legacy","Lentiform Loewenfeld","3.3.7","yes","yes","600bd7cfb6416f0113b04181","602110864497cf011d9c0822","0","f","NA","space","space","space","space","f","639","NA","3090","15860","8094","4253","639","2","legacy","1024","2","48000","-16","task","7907630","even","NA","34228","39318","36228","221891","1522","25478","17383","222391","134961","221890","222391","221853","39318","223031","32375","221353","1518","211737","Lexical Decision Task","98","78583","102","yes","1024"
"2.897810299","0","5","glur","non-word","96.11650485436893","96.11650485436893","771.3203883495146","771.3203883495146","black","no","legacy","legacy","legacy","0","uniform","1","undefined","undefined","undefined","1","f","0","0","0","0","102","0","0","0","102","0","98","102","98","0","98","3","102","0","102","Wed Feb 24 10:13:33 2021","The main experiment item","yes","Lexical_Decision_Task.osexp","C:/Users/sover","no","Andale Mono","no","18","no","white","no","yes","576","legacy","98","98","3","C:/Users/sover/subject-7907630.csv","legacy","Lentiform Loewenfeld","3.3.7","yes","yes","600bd7cfb6416f0113b04181","602110864497cf011d9c0822","0","f","NA","space","space","space","space","f","863","NA","3090","15860","8094","4253","863","2","legacy","1024","2","48000","-16","task","7907630","even","NA","34228","39318","36228","223570","1522","25478","17383","224070","134961","223569","224071","223533","39318","224935","32375","223033","1518","211737","Lexical Decision Task","99","79446","103","yes","1024"
