"Log_BG","Log_Freq_HAL","Ortho_N","Stimulus","Type","acc","accuracy","average_response_time","avg_rt","background","bidi","canvas_backend","clock_backend","color_backend","compensation","coordinates","correct","correct_Experimental_intro","correct_Introduction","correct_Practice_intro","correct_experimenter_kb","correct_response","count_End_Of_Experiment","count_End_Of_Practice","count_Experimental_Loop","count_Experimental_intro","count_Fixation","count_Introduction","count_Practice_Loop","count_Practice_intro","count_Stimulus","count_block_break_feedback","count_experimental_sequence","count_experimenter_kb","count_increment_trial_count","count_init_trial_count","count_logger","count_practice_sequence","count_right","count_task","count_wrong","datetime","description","disable_garbage_collection","experiment_file","experiment_path","font_bold","font_family","font_italic","font_size","font_underline","foreground","form_clicks","fullscreen","height","keyboard_backend","live_row","live_row_Experimental_Loop","live_row_Practice_Loop","logfile","mouse_backend","opensesame_codename","opensesame_version","osf_always_upload_data","osf_always_upload_experiment","osf_datanode_id","osf_id","repeat_cycle","response","response_End_Of_Experiment","response_Experimental_intro","response_Introduction","response_Practice_intro","response_block_break_feedback","response_experimenter_kb","response_time","response_time_End_Of_Experiment","response_time_Experimental_intro","response_time_Introduction","response_time_Practice_intro","response_time_block_break_feedback","response_time_experimenter_kb","round_decimals","sampler_backend","sound_buf_size","sound_channels","sound_freq","sound_sample_size","start","subject_nr","subject_parity","time_End_Of_Experiment","time_End_Of_Practice","time_Experimental_Loop","time_Experimental_intro","time_Fixation","time_Introduction","time_Practice_Loop","time_Practice_intro","time_Stimulus","time_block_break_feedback","time_experimental_sequence","time_experimenter_kb","time_increment_trial_count","time_init_trial_count","time_logger","time_practice_sequence","time_right","time_task","time_wrong","title","total_correct","total_response_time","total_responses","uniform_coordinates","width"
"3.531734309","0","6","lerd","non-word","80","80","794.6","794.6","black","no","legacy","legacy","legacy","0","uniform","0","undefined","undefined","undefined","0","f","0","0","0","0","4","0","0","0","4","NA","0","4","0","0","0","3","4","0","4","Thu Feb 18 19:13:52 2021","The main experiment item","yes","Lexical_Decision_Task.osexp","C:/Users/kamsi/Documents/Uni Work","no","Andale Mono","no","18","no","white","no","yes","576","legacy","0","0","3","C:/Users/kamsi/Documents/Uni Work/subject-5207463.csv","legacy","Lentiform Loewenfeld","3.3.7","yes","yes","600bd7cfb6416f0113b04181","602110864497cf011d9c0822","0","j","NA","space","space","space","NA","j","991","NA","1633","9124","5405","NA","991","2","legacy","1024","2","48000","-16","task","5207463","odd","NA","23481","27116","25482","27148","1725","16258","10851","27648","NA","27147","27649","NA","27116","28641","21833","22964","1721","NA","Lexical Decision Task","4","3973","5","yes","1024"
"3.121778632","0","9","sark","non-word","83.33333333333333","83.33333333333333","897.6666666666666","897.6666666666666","black","no","legacy","legacy","legacy","0","uniform","1","undefined","undefined","undefined","1","f","0","0","0","0","5","0","0","0","5","NA","1","5","1","0","1","3","5","0","5","Thu Feb 18 19:13:52 2021","The main experiment item","yes","Lexical_Decision_Task.osexp","C:/Users/kamsi/Documents/Uni Work","no","Andale Mono","no","18","no","white","no","yes","576","legacy","1","1","3","C:/Users/kamsi/Documents/Uni Work/subject-5207463.csv","legacy","Lentiform Loewenfeld","3.3.7","yes","yes","600bd7cfb6416f0113b04181","602110864497cf011d9c0822","0","f","NA","space","space","space","NA","f","1413","NA","1633","9124","5405","NA","1413","2","legacy","1024","2","48000","-16","task","5207463","odd","NA","23481","27116","25482","30197","1725","16258","10851","30697","NA","30196","30698","30145","27116","32112","21833","22964","1721","28645","Lexical Decision Task","5","5386","6","yes","1024"
"3.230789326","5.38","5","prim","word","71.42857142857143","71.42857142857143","907.8571428571429","907.8571428571429","black","no","legacy","legacy","legacy","0","uniform","0","undefined","undefined","undefined","0","j","0","0","0","0","6","0","0","0","6","NA","2","6","2","0","2","3","6","0","6","Thu Feb 18 19:13:52 2021","The main experiment item","yes","Lexical_Decision_Task.osexp","C:/Users/kamsi/Documents/Uni Work","no","Andale Mono","no","18","no","white","no","yes","576","legacy","2","2","3","C:/Users/kamsi/Documents/Uni Work/subject-5207463.csv","legacy","Lentiform Loewenfeld","3.3.7","yes","yes","600bd7cfb6416f0113b04181","602110864497cf011d9c0822","0","f","NA","space","space","space","NA","f","969","NA","1633","9124","5405","NA","969","2","legacy","1024","2","48000","-16","task","5207463","odd","NA","23481","27116","25482","32659","1725","16258","10851","33159","NA","32658","33160","32614","27116","34130","21833","32114","1721","28645","Lexical Decision Task","5","6355","7","yes","1024"
"2.9737419","7.69","7","claw","word","75","75","902.5","902.5","black","no","legacy","legacy","legacy","0","uniform","1","undefined","undefined","undefined","1","j","0","0","0","0","7","0","0","0","7","NA","3","7","3","0","3","3","7","0","7","Thu Feb 18 19:13:52 2021","The main experiment item","yes","Lexical_Decision_Task.osexp","C:/Users/kamsi/Documents/Uni Work","no","Andale Mono","no","18","no","white","no","yes","576","legacy","3","3","3","C:/Users/kamsi/Documents/Uni Work/subject-5207463.csv","legacy","Lentiform Loewenfeld","3.3.7","yes","yes","600bd7cfb6416f0113b04181","602110864497cf011d9c0822","0","j","NA","space","space","space","NA","j","865","NA","1633","9124","5405","NA","865","2","legacy","1024","2","48000","-16","task","5207463","odd","NA","23481","27116","25482","35677","1725","16258","10851","36177","NA","35676","36178","35632","27116","37044","21833","32114","1721","34132","Lexical Decision Task","6","7220","8","yes","1024"
"2.812467698","0","7","hafe","non-word","77.77777777777777","77.77777777777777","903.4444444444445","903.4444444444445","black","no","legacy","legacy","legacy","0","uniform","1","undefined","undefined","undefined","1","f","0","0","0","0","8","0","0","0","8","NA","4","8","4","0","4","3","8","0","8","Thu Feb 18 19:13:52 2021","The main experiment item","yes","Lexical_Decision_Task.osexp","C:/Users/kamsi/Documents/Uni Work","no","Andale Mono","no","18","no","white","no","yes","576","legacy","4","4","3","C:/Users/kamsi/Documents/Uni Work/subject-5207463.csv","legacy","Lentiform Loewenfeld","3.3.7","yes","yes","600bd7cfb6416f0113b04181","602110864497cf011d9c0822","0","f","NA","space","space","space","NA","f","911","NA","1633","9124","5405","NA","911","2","legacy","1024","2","48000","-16","task","5207463","odd","NA","23481","27116","25482","37590","1725","16258","10851","38090","NA","37589","38091","37545","27116","39004","21833","37045","1721","34132","Lexical Decision Task","7","8131","9","yes","1024"
"3.440331212","7.35","6","stew","word","80","80","914.1","914.1","black","no","legacy","legacy","legacy","0","uniform","1","undefined","undefined","undefined","1","j","0","0","0","0","9","0","0","0","9","NA","5","9","5","0","5","3","9","0","9","Thu Feb 18 19:13:52 2021","The main experiment item","yes","Lexical_Decision_Task.osexp","C:/Users/kamsi/Documents/Uni Work","no","Andale Mono","no","18","no","white","no","yes","576","legacy","5","5","3","C:/Users/kamsi/Documents/Uni Work/subject-5207463.csv","legacy","Lentiform Loewenfeld","3.3.7","yes","yes","600bd7cfb6416f0113b04181","602110864497cf011d9c0822","0","j","NA","space","space","space","NA","j","1010","NA","1633","9124","5405","NA","1010","2","legacy","1024","2","48000","-16","task","5207463","odd","NA","23481","27116","25482","39551","1725","16258","10851","40051","NA","39550","40051","39506","27116","41062","21833","39006","1721","34132","Lexical Decision Task","8","9141","10","yes","1024"
"3.010582609","0","2","drod","non-word","81.81818181818181","81.81818181818181","902.6363636363636","902.6363636363636","black","no","legacy","legacy","legacy","0","uniform","1","undefined","undefined","undefined","1","f","0","0","0","0","10","0","0","0","10","NA","6","10","6","0","6","3","10","0","10","Thu Feb 18 19:13:52 2021","The main experiment item","yes","Lexical_Decision_Task.osexp","C:/Users/kamsi/Documents/Uni Work","no","Andale Mono","no","18","no","white","no","yes","576","legacy","6","6","3","C:/Users/kamsi/Documents/Uni Work/subject-5207463.csv","legacy","Lentiform Loewenfeld","3.3.7","yes","yes","600bd7cfb6416f0113b04181","602110864497cf011d9c0822","0","f","NA","space","space","space","NA","f","788","NA","1633","9124","5405","NA","788","2","legacy","1024","2","48000","-16","task","5207463","odd","NA","23481","27116","25482","41609","1725","16258","10851","42109","NA","41608","42110","41564","27116","42899","21833","41064","1721","34132","Lexical Decision Task","9","9929","11","yes","1024"
"3.366547468","0","6","plat","non-word","83.33333333333333","83.33333333333333","910.5","910.5","black","no","legacy","legacy","legacy","0","uniform","1","undefined","undefined","undefined","1","f","0","0","0","0","11","0","0","0","11","NA","7","11","7","0","7","3","11","0","11","Thu Feb 18 19:13:52 2021","The main experiment item","yes","Lexical_Decision_Task.osexp","C:/Users/kamsi/Documents/Uni Work","no","Andale Mono","no","18","no","white","no","yes","576","legacy","7","7","3","C:/Users/kamsi/Documents/Uni Work/subject-5207463.csv","legacy","Lentiform Loewenfeld","3.3.7","yes","yes","600bd7cfb6416f0113b04181","602110864497cf011d9c0822","0","f","NA","space","space","space","NA","f","997","NA","1633","9124","5405","NA","997","2","legacy","1024","2","48000","-16","task","5207463","odd","NA","23481","27116","25482","43445","1725","16258","10851","43945","NA","43444","43946","43401","27116","44944","21833","42901","1721","34132","Lexical Decision Task","10","10926","12","yes","1024"
"3.16326079","0","5","parg","non-word","84.61538461538461","84.61538461538461","912.2307692307693","912.2307692307693","black","no","legacy","legacy","legacy","0","uniform","1","undefined","undefined","undefined","1","f","0","0","0","0","12","0","0","0","12","NA","8","12","8","0","8","3","12","0","12","Thu Feb 18 19:13:52 2021","The main experiment item","yes","Lexical_Decision_Task.osexp","C:/Users/kamsi/Documents/Uni Work","no","Andale Mono","no","18","no","white","no","yes","576","legacy","8","8","3","C:/Users/kamsi/Documents/Uni Work/subject-5207463.csv","legacy","Lentiform Loewenfeld","3.3.7","yes","yes","600bd7cfb6416f0113b04181","602110864497cf011d9c0822","0","f","NA","space","space","space","NA","f","933","NA","1633","9124","5405","NA","933","2","legacy","1024","2","48000","-16","task","5207463","odd","NA","23481","27116","25482","45491","1725","16258","10851","45991","NA","45490","45992","45447","27116","46926","21833","44947","1721","34132","Lexical Decision Task","11","11859","13","yes","1024"
"3.088136089","8.32","9","worm","word","85.71428571428571","85.71428571428571","903.8571428571429","903.8571428571429","black","no","legacy","legacy","legacy","0","uniform","1","undefined","undefined","undefined","1","j","0","0","0","0","13","0","0","0","13","NA","9","13","9","0","9","3","13","0","13","Thu Feb 18 19:13:52 2021","The main experiment item","yes","Lexical_Decision_Task.osexp","C:/Users/kamsi/Documents/Uni Work","no","Andale Mono","no","18","no","white","no","yes","576","legacy","9","9","3","C:/Users/kamsi/Documents/Uni Work/subject-5207463.csv","legacy","Lentiform Loewenfeld","3.3.7","yes","yes","600bd7cfb6416f0113b04181","602110864497cf011d9c0822","0","j","NA","space","space","space","NA","j","795","NA","1633","9124","5405","NA","795","2","legacy","1024","2","48000","-16","task","5207463","odd","NA","23481","27116","25482","47472","1725","16258","10851","47972","NA","47471","47973","47428","27116","48769","21833","46928","1721","34132","Lexical Decision Task","12","12654","14","yes","1024"
"2.980911938","7.15","7","hoop","word","86.66666666666667","86.66666666666667","891.8","891.8","black","no","legacy","legacy","legacy","0","uniform","1","undefined","undefined","undefined","1","j","0","0","0","0","14","0","0","0","14","NA","10","14","10","0","10","3","14","0","14","Thu Feb 18 19:13:52 2021","The main experiment item","yes","Lexical_Decision_Task.osexp","C:/Users/kamsi/Documents/Uni Work","no","Andale Mono","no","18","no","white","no","yes","576","legacy","10","10","3","C:/Users/kamsi/Documents/Uni Work/subject-5207463.csv","legacy","Lentiform Loewenfeld","3.3.7","yes","yes","600bd7cfb6416f0113b04181","602110864497cf011d9c0822","0","j","NA","space","space","space","NA","j","723","NA","1633","9124","5405","NA","723","2","legacy","1024","2","48000","-16","task","5207463","odd","NA","23481","27116","25482","49313","1725","16258","10851","49814","NA","49312","49815","49271","27116","50539","21833","48771","1721","34132","Lexical Decision Task","13","13377","15","yes","1024"
"3.353210739","0","9","reet","non-word","87.5","87.5","882.8125","882.8125","black","no","legacy","legacy","legacy","0","uniform","1","undefined","undefined","undefined","1","f","0","0","0","0","15","0","0","0","15","NA","11","15","11","0","11","3","15","0","15","Thu Feb 18 19:13:52 2021","The main experiment item","yes","Lexical_Decision_Task.osexp","C:/Users/kamsi/Documents/Uni Work","no","Andale Mono","no","18","no","white","no","yes","576","legacy","11","11","3","C:/Users/kamsi/Documents/Uni Work/subject-5207463.csv","legacy","Lentiform Loewenfeld","3.3.7","yes","yes","600bd7cfb6416f0113b04181","602110864497cf011d9c0822","0","f","NA","space","space","space","NA","f","748","NA","1633","9124","5405","NA","748","2","legacy","1024","2","48000","-16","task","5207463","odd","NA","23481","27116","25482","51084","1725","16258","10851","51584","NA","51083","51584","51040","27116","52333","21833","50540","1721","34132","Lexical Decision Task","14","14125","16","yes","1024"
"2.838639236","0","4","furg","non-word","88.23529411764706","88.23529411764706","869.8823529411765","869.8823529411765","black","no","legacy","legacy","legacy","0","uniform","1","undefined","undefined","undefined","1","f","0","0","0","0","16","0","0","0","16","NA","12","16","12","0","12","3","16","0","16","Thu Feb 18 19:13:52 2021","The main experiment item","yes","Lexical_Decision_Task.osexp","C:/Users/kamsi/Documents/Uni Work","no","Andale Mono","no","18","no","white","no","yes","576","legacy","12","12","3","C:/Users/kamsi/Documents/Uni Work/subject-5207463.csv","legacy","Lentiform Loewenfeld","3.3.7","yes","yes","600bd7cfb6416f0113b04181","602110864497cf011d9c0822","0","f","NA","space","space","space","NA","f","663","NA","1633","9124","5405","NA","663","2","legacy","1024","2","48000","-16","task","5207463","odd","NA","23481","27116","25482","52879","1725","16258","10851","53379","NA","52878","53380","52835","27116","54044","21833","52335","1721","34132","Lexical Decision Task","15","14788","17","yes","1024"
"3.374137706","10.21","4","tree","word","88.88888888888889","88.88888888888889","854.5555555555555","854.5555555555555","black","no","legacy","legacy","legacy","0","uniform","1","undefined","undefined","undefined","1","j","0","0","0","0","17","0","0","0","17","NA","13","17","13","0","13","3","17","0","17","Thu Feb 18 19:13:52 2021","The main experiment item","yes","Lexical_Decision_Task.osexp","C:/Users/kamsi/Documents/Uni Work","no","Andale Mono","no","18","no","white","no","yes","576","legacy","13","13","3","C:/Users/kamsi/Documents/Uni Work/subject-5207463.csv","legacy","Lentiform Loewenfeld","3.3.7","yes","yes","600bd7cfb6416f0113b04181","602110864497cf011d9c0822","0","j","NA","space","space","space","NA","j","594","NA","1633","9124","5405","NA","594","2","legacy","1024","2","48000","-16","task","5207463","odd","NA","23481","27116","25482","54590","1725","16258","10851","55090","NA","54589","55091","54546","27116","55686","21833","54046","1721","34132","Lexical Decision Task","16","15382","18","yes","1024"
"2.594027722","9.08","8","skip","word","89.47368421052632","89.47368421052632","837.2631578947369","837.2631578947369","black","no","legacy","legacy","legacy","0","uniform","1","undefined","undefined","undefined","1","j","0","0","0","0","18","0","0","0","18","NA","14","18","14","0","14","3","18","0","18","Thu Feb 18 19:13:52 2021","The main experiment item","yes","Lexical_Decision_Task.osexp","C:/Users/kamsi/Documents/Uni Work","no","Andale Mono","no","18","no","white","no","yes","576","legacy","14","14","3","C:/Users/kamsi/Documents/Uni Work/subject-5207463.csv","legacy","Lentiform Loewenfeld","3.3.7","yes","yes","600bd7cfb6416f0113b04181","602110864497cf011d9c0822","0","j","NA","space","space","space","NA","j","526","NA","1633","9124","5405","NA","526","2","legacy","1024","2","48000","-16","task","5207463","odd","NA","23481","27116","25482","56232","1725","16258","10851","56732","NA","56231","56733","56188","27116","57260","21833","55688","1721","34132","Lexical Decision Task","17","15908","19","yes","1024"
"2.884795364","0","6","flob","non-word","90","90","839.45","839.45","black","no","legacy","legacy","legacy","0","uniform","1","undefined","undefined","undefined","1","f","0","0","0","0","19","0","0","0","19","NA","15","19","15","0","15","3","19","0","19","Thu Feb 18 19:13:52 2021","The main experiment item","yes","Lexical_Decision_Task.osexp","C:/Users/kamsi/Documents/Uni Work","no","Andale Mono","no","18","no","white","no","yes","576","legacy","15","15","3","C:/Users/kamsi/Documents/Uni Work/subject-5207463.csv","legacy","Lentiform Loewenfeld","3.3.7","yes","yes","600bd7cfb6416f0113b04181","602110864497cf011d9c0822","0","f","NA","space","space","space","NA","f","881","NA","1633","9124","5405","NA","881","2","legacy","1024","2","48000","-16","task","5207463","odd","NA","23481","27116","25482","57807","1725","16258","10851","58307","NA","57806","58308","57762","27116","59191","21833","57262","1721","34132","Lexical Decision Task","18","16789","20","yes","1024"
"2.893578687","8.69","3","surf","word","90.47619047619048","90.47619047619048","828.8571428571429","828.8571428571429","black","no","legacy","legacy","legacy","0","uniform","1","undefined","undefined","undefined","1","j","0","0","0","0","20","0","0","0","20","NA","16","20","16","0","16","3","20","0","20","Thu Feb 18 19:13:52 2021","The main experiment item","yes","Lexical_Decision_Task.osexp","C:/Users/kamsi/Documents/Uni Work","no","Andale Mono","no","18","no","white","no","yes","576","legacy","16","16","3","C:/Users/kamsi/Documents/Uni Work/subject-5207463.csv","legacy","Lentiform Loewenfeld","3.3.7","yes","yes","600bd7cfb6416f0113b04181","602110864497cf011d9c0822","0","j","NA","space","space","space","NA","j","617","NA","1633","9124","5405","NA","617","2","legacy","1024","2","48000","-16","task","5207463","odd","NA","23481","27116","25482","59736","1725","16258","10851","60236","NA","59735","60237","59692","27116","60855","21833","59192","1721","34132","Lexical Decision Task","19","17406","21","yes","1024"
"2.937852093","0","7","bamp","non-word","90.9090909090909","90.9090909090909","820.9545454545455","820.9545454545455","black","no","legacy","legacy","legacy","0","uniform","1","undefined","undefined","undefined","1","f","0","0","0","0","21","0","0","0","21","NA","17","21","17","0","17","3","21","0","21","Thu Feb 18 19:13:52 2021","The main experiment item","yes","Lexical_Decision_Task.osexp","C:/Users/kamsi/Documents/Uni Work","no","Andale Mono","no","18","no","white","no","yes","576","legacy","17","17","3","C:/Users/kamsi/Documents/Uni Work/subject-5207463.csv","legacy","Lentiform Loewenfeld","3.3.7","yes","yes","600bd7cfb6416f0113b04181","602110864497cf011d9c0822","0","f","NA","space","space","space","NA","f","655","NA","1633","9124","5405","NA","655","2","legacy","1024","2","48000","-16","task","5207463","odd","NA","23481","27116","25482","61401","1725","16258","10851","61901","NA","61400","61902","61357","27116","62558","21833","60857","1721","34132","Lexical Decision Task","20","18061","22","yes","1024"
"3.1430148","7.92","8","bald","word","91.30434782608695","91.30434782608695","820.6521739130435","820.6521739130435","black","no","legacy","legacy","legacy","0","uniform","1","undefined","undefined","undefined","1","j","0","0","0","0","22","0","0","0","22","NA","18","22","18","0","18","3","22","0","22","Thu Feb 18 19:13:52 2021","The main experiment item","yes","Lexical_Decision_Task.osexp","C:/Users/kamsi/Documents/Uni Work","no","Andale Mono","no","18","no","white","no","yes","576","legacy","18","18","3","C:/Users/kamsi/Documents/Uni Work/subject-5207463.csv","legacy","Lentiform Loewenfeld","3.3.7","yes","yes","600bd7cfb6416f0113b04181","602110864497cf011d9c0822","0","j","NA","space","space","space","NA","j","814","NA","1633","9124","5405","NA","814","2","legacy","1024","2","48000","-16","task","5207463","odd","NA","23481","27116","25482","63104","1725","16258","10851","63604","NA","63103","63605","63060","27116","64419","21833","62560","1721","34132","Lexical Decision Task","21","18875","23","yes","1024"
"3.29439347","8.6","9","wand","word","87.5","87.5","813.5","813.5","black","no","legacy","legacy","legacy","0","uniform","0","undefined","undefined","undefined","0","j","0","0","0","0","23","0","0","0","23","NA","19","23","19","0","19","3","23","0","23","Thu Feb 18 19:13:52 2021","The main experiment item","yes","Lexical_Decision_Task.osexp","C:/Users/kamsi/Documents/Uni Work","no","Andale Mono","no","18","no","white","no","yes","576","legacy","19","19","3","C:/Users/kamsi/Documents/Uni Work/subject-5207463.csv","legacy","Lentiform Loewenfeld","3.3.7","yes","yes","600bd7cfb6416f0113b04181","602110864497cf011d9c0822","0","f","NA","space","space","space","NA","f","649","NA","1633","9124","5405","NA","649","2","legacy","1024","2","48000","-16","task","5207463","odd","NA","23481","27116","25482","64966","1725","16258","10851","65466","NA","64964","65466","64921","27116","66116","21833","64421","1721","34132","Lexical Decision Task","21","19524","24","yes","1024"
"2.706148589","0","4","hube","non-word","88","88","811","811","black","no","legacy","legacy","legacy","0","uniform","1","undefined","undefined","undefined","1","f","0","0","0","0","24","0","0","0","24","NA","20","24","20","0","20","3","24","0","24","Thu Feb 18 19:13:52 2021","The main experiment item","yes","Lexical_Decision_Task.osexp","C:/Users/kamsi/Documents/Uni Work","no","Andale Mono","no","18","no","white","no","yes","576","legacy","20","20","3","C:/Users/kamsi/Documents/Uni Work/subject-5207463.csv","legacy","Lentiform Loewenfeld","3.3.7","yes","yes","600bd7cfb6416f0113b04181","602110864497cf011d9c0822","0","f","NA","space","space","space","NA","f","751","NA","1633","9124","5405","NA","751","2","legacy","1024","2","48000","-16","task","5207463","odd","NA","23481","27116","25482","67662","1725","16258","10851","68162","NA","67661","68163","67618","27116","68915","21833","64421","1721","66117","Lexical Decision Task","22","20275","25","yes","1024"
"2.819763221","0","2","durp","non-word","88.46153846153847","88.46153846153847","812.1538461538462","812.1538461538462","black","no","legacy","legacy","legacy","0","uniform","1","undefined","undefined","undefined","1","f","0","0","0","0","25","0","0","0","25","NA","21","25","21","0","21","3","25","0","25","Thu Feb 18 19:13:52 2021","The main experiment item","yes","Lexical_Decision_Task.osexp","C:/Users/kamsi/Documents/Uni Work","no","Andale Mono","no","18","no","white","no","yes","576","legacy","21","21","3","C:/Users/kamsi/Documents/Uni Work/subject-5207463.csv","legacy","Lentiform Loewenfeld","3.3.7","yes","yes","600bd7cfb6416f0113b04181","602110864497cf011d9c0822","0","f","NA","space","space","space","NA","f","841","NA","1633","9124","5405","NA","841","2","legacy","1024","2","48000","-16","task","5207463","odd","NA","23481","27116","25482","69461","1725","16258","10851","69961","NA","69460","69962","69417","27116","70804","21833","68917","1721","66117","Lexical Decision Task","23","21116","26","yes","1024"
"2.82129731","6.72","5","plum","word","88.88888888888889","88.88888888888889","806.1481481481482","806.1481481481482","black","no","legacy","legacy","legacy","0","uniform","1","undefined","undefined","undefined","1","j","0","0","0","0","26","0","0","0","26","NA","22","26","22","0","22","3","26","0","26","Thu Feb 18 19:13:52 2021","The main experiment item","yes","Lexical_Decision_Task.osexp","C:/Users/kamsi/Documents/Uni Work","no","Andale Mono","no","18","no","white","no","yes","576","legacy","22","22","3","C:/Users/kamsi/Documents/Uni Work/subject-5207463.csv","legacy","Lentiform Loewenfeld","3.3.7","yes","yes","600bd7cfb6416f0113b04181","602110864497cf011d9c0822","0","j","NA","space","space","space","NA","j","650","NA","1633","9124","5405","NA","650","2","legacy","1024","2","48000","-16","task","5207463","odd","NA","23481","27116","25482","71350","1725","16258","10851","71851","NA","71349","71851","71305","27116","72502","21833","70805","1721","66117","Lexical Decision Task","24","21766","27","yes","1024"
"3.077974404","10.41","8","tool","word","89.28571428571429","89.28571428571429","803.6785714285714","803.6785714285714","black","no","legacy","legacy","legacy","0","uniform","1","undefined","undefined","undefined","1","j","0","0","0","0","27","0","0","0","27","NA","23","27","23","0","23","3","27","0","27","Thu Feb 18 19:13:52 2021","The main experiment item","yes","Lexical_Decision_Task.osexp","C:/Users/kamsi/Documents/Uni Work","no","Andale Mono","no","18","no","white","no","yes","576","legacy","23","23","3","C:/Users/kamsi/Documents/Uni Work/subject-5207463.csv","legacy","Lentiform Loewenfeld","3.3.7","yes","yes","600bd7cfb6416f0113b04181","602110864497cf011d9c0822","0","j","NA","space","space","space","NA","j","737","NA","1633","9124","5405","NA","737","2","legacy","1024","2","48000","-16","task","5207463","odd","NA","23481","27116","25482","73047","1725","16258","10851","73547","NA","73046","73548","73003","27116","74285","21833","72503","1721","66117","Lexical Decision Task","25","22503","28","yes","1024"
"3.134602053","0","8","jart","non-word","89.65517241379311","89.65517241379311","799.2413793103449","799.2413793103449","black","no","legacy","legacy","legacy","0","uniform","1","undefined","undefined","undefined","1","f","0","0","0","0","28","0","0","0","28","NA","24","28","24","0","24","3","28","0","28","Thu Feb 18 19:13:52 2021","The main experiment item","yes","Lexical_Decision_Task.osexp","C:/Users/kamsi/Documents/Uni Work","no","Andale Mono","no","18","no","white","no","yes","576","legacy","24","24","3","C:/Users/kamsi/Documents/Uni Work/subject-5207463.csv","legacy","Lentiform Loewenfeld","3.3.7","yes","yes","600bd7cfb6416f0113b04181","602110864497cf011d9c0822","0","f","NA","space","space","space","NA","f","675","NA","1633","9124","5405","NA","675","2","legacy","1024","2","48000","-16","task","5207463","odd","NA","23481","27116","25482","74832","1725","16258","10851","75332","NA","74831","75333","74787","27116","76009","21833","74287","1721","66117","Lexical Decision Task","26","23178","29","yes","1024"
"2.696356389","0","1","pizz","non-word","86.66666666666667","86.66666666666667","789.7333333333333","789.7333333333333","black","no","legacy","legacy","legacy","0","uniform","0","undefined","undefined","undefined","0","f","0","0","0","0","29","0","0","0","29","NA","25","29","25","0","25","3","29","0","29","Thu Feb 18 19:13:52 2021","The main experiment item","yes","Lexical_Decision_Task.osexp","C:/Users/kamsi/Documents/Uni Work","no","Andale Mono","no","18","no","white","no","yes","576","legacy","25","25","3","C:/Users/kamsi/Documents/Uni Work/subject-5207463.csv","legacy","Lentiform Loewenfeld","3.3.7","yes","yes","600bd7cfb6416f0113b04181","602110864497cf011d9c0822","0","j","NA","space","space","space","NA","j","514","NA","1633","9124","5405","NA","514","2","legacy","1024","2","48000","-16","task","5207463","odd","NA","23481","27116","25482","76555","1725","16258","10851","77055","NA","76554","77055","76511","27116","77570","21833","76011","1721","66117","Lexical Decision Task","26","23692","30","yes","1024"
"3.261341392","5.08","8","reek","word","83.87096774193549","83.87096774193549","803.8064516129032","803.8064516129032","black","no","legacy","legacy","legacy","0","uniform","0","undefined","undefined","undefined","0","j","0","0","0","0","30","0","0","0","30","NA","26","30","26","0","26","3","30","0","30","Thu Feb 18 19:13:52 2021","The main experiment item","yes","Lexical_Decision_Task.osexp","C:/Users/kamsi/Documents/Uni Work","no","Andale Mono","no","18","no","white","no","yes","576","legacy","26","26","3","C:/Users/kamsi/Documents/Uni Work/subject-5207463.csv","legacy","Lentiform Loewenfeld","3.3.7","yes","yes","600bd7cfb6416f0113b04181","602110864497cf011d9c0822","0","f","NA","space","space","space","NA","f","1226","NA","1633","9124","5405","NA","1226","2","legacy","1024","2","48000","-16","task","5207463","odd","NA","23481","27116","25482","79116","1725","16258","10851","79616","NA","79115","79617","79072","27116","80844","21833","76011","1721","77572","Lexical Decision Task","26","24918","31","yes","1024"
"3.363486562","6.93","9","lush","word","84.375","84.375","799.5","799.5","black","no","legacy","legacy","legacy","0","uniform","1","undefined","undefined","undefined","1","j","0","0","0","0","31","0","0","0","31","NA","27","31","27","0","27","3","31","0","31","Thu Feb 18 19:13:52 2021","The main experiment item","yes","Lexical_Decision_Task.osexp","C:/Users/kamsi/Documents/Uni Work","no","Andale Mono","no","18","no","white","no","yes","576","legacy","27","27","3","C:/Users/kamsi/Documents/Uni Work/subject-5207463.csv","legacy","Lentiform Loewenfeld","3.3.7","yes","yes","600bd7cfb6416f0113b04181","602110864497cf011d9c0822","0","j","NA","space","space","space","NA","j","666","NA","1633","9124","5405","NA","666","2","legacy","1024","2","48000","-16","task","5207463","odd","NA","23481","27116","25482","82392","1725","16258","10851","82892","NA","82391","82893","82348","27116","83559","21833","76011","1721","80848","Lexical Decision Task","27","25584","32","yes","1024"
"2.809559715","8.44","4","volt","word","84.84848484848484","84.84848484848484","801.1212121212121","801.1212121212121","black","no","legacy","legacy","legacy","0","uniform","1","undefined","undefined","undefined","1","j","0","0","0","0","32","0","0","0","32","NA","28","32","28","0","28","3","32","0","32","Thu Feb 18 19:13:52 2021","The main experiment item","yes","Lexical_Decision_Task.osexp","C:/Users/kamsi/Documents/Uni Work","no","Andale Mono","no","18","no","white","no","yes","576","legacy","28","28","3","C:/Users/kamsi/Documents/Uni Work/subject-5207463.csv","legacy","Lentiform Loewenfeld","3.3.7","yes","yes","600bd7cfb6416f0113b04181","602110864497cf011d9c0822","0","j","NA","space","space","space","NA","j","853","NA","1633","9124","5405","NA","853","2","legacy","1024","2","48000","-16","task","5207463","odd","NA","23481","27116","25482","84105","1725","16258","10851","84605","NA","84104","84606","84061","27116","85460","21833","83561","1721","80848","Lexical Decision Task","28","26437","33","yes","1024"
"2.755364069","7.72","2","hoax","word","85.29411764705883","85.29411764705883","798.3823529411765","798.3823529411765","black","no","legacy","legacy","legacy","0","uniform","1","undefined","undefined","undefined","1","j","0","0","0","0","33","0","0","0","33","NA","29","33","29","0","29","3","33","0","33","Thu Feb 18 19:13:52 2021","The main experiment item","yes","Lexical_Decision_Task.osexp","C:/Users/kamsi/Documents/Uni Work","no","Andale Mono","no","18","no","white","no","yes","576","legacy","29","29","3","C:/Users/kamsi/Documents/Uni Work/subject-5207463.csv","legacy","Lentiform Loewenfeld","3.3.7","yes","yes","600bd7cfb6416f0113b04181","602110864497cf011d9c0822","0","j","NA","space","space","space","NA","j","708","NA","1633","9124","5405","NA","708","2","legacy","1024","2","48000","-16","task","5207463","odd","NA","23481","27116","25482","86006","1725","16258","10851","86507","NA","86005","86508","85962","27116","87216","21833","85461","1721","80848","Lexical Decision Task","29","27145","34","yes","1024"
"3.378276681","6.39","8","bran","word","82.85714285714286","82.85714285714286","796.0571428571428","796.0571428571428","black","no","legacy","legacy","legacy","0","uniform","0","undefined","undefined","undefined","0","j","0","0","0","0","34","0","0","0","34","NA","30","34","30","0","30","3","34","0","34","Thu Feb 18 19:13:52 2021","The main experiment item","yes","Lexical_Decision_Task.osexp","C:/Users/kamsi/Documents/Uni Work","no","Andale Mono","no","18","no","white","no","yes","576","legacy","30","30","3","C:/Users/kamsi/Documents/Uni Work/subject-5207463.csv","legacy","Lentiform Loewenfeld","3.3.7","yes","yes","600bd7cfb6416f0113b04181","602110864497cf011d9c0822","0","f","NA","space","space","space","NA","f","717","NA","1633","9124","5405","NA","717","2","legacy","1024","2","48000","-16","task","5207463","odd","NA","23481","27116","25482","87762","1725","16258","10851","88263","NA","87761","88263","87718","27116","88981","21833","87218","1721","80848","Lexical Decision Task","29","27862","35","yes","1024"
"2.708989954","9.28","9","bowl","word","83.33333333333333","83.33333333333333","789.3888888888889","789.3888888888889","black","no","legacy","legacy","legacy","0","uniform","1","undefined","undefined","undefined","1","j","0","0","0","0","35","0","0","0","35","NA","31","35","31","0","31","3","35","0","35","Thu Feb 18 19:13:52 2021","The main experiment item","yes","Lexical_Decision_Task.osexp","C:/Users/kamsi/Documents/Uni Work","no","Andale Mono","no","18","no","white","no","yes","576","legacy","31","31","3","C:/Users/kamsi/Documents/Uni Work/subject-5207463.csv","legacy","Lentiform Loewenfeld","3.3.7","yes","yes","600bd7cfb6416f0113b04181","602110864497cf011d9c0822","0","j","NA","space","space","space","NA","j","556","NA","1633","9124","5405","NA","556","2","legacy","1024","2","48000","-16","task","5207463","odd","NA","23481","27116","25482","90527","1725","16258","10851","91027","NA","90526","91028","90483","27116","91585","21833","87218","1721","88983","Lexical Decision Task","30","28418","36","yes","1024"
"2.714888338","0","3","brug","non-word","83.78378378378379","83.78378378378379","790.5945945945946","790.5945945945946","black","no","legacy","legacy","legacy","0","uniform","1","undefined","undefined","undefined","1","f","0","0","0","0","36","0","0","0","36","NA","32","36","32","0","32","3","36","0","36","Thu Feb 18 19:13:52 2021","The main experiment item","yes","Lexical_Decision_Task.osexp","C:/Users/kamsi/Documents/Uni Work","no","Andale Mono","no","18","no","white","no","yes","576","legacy","32","32","3","C:/Users/kamsi/Documents/Uni Work/subject-5207463.csv","legacy","Lentiform Loewenfeld","3.3.7","yes","yes","600bd7cfb6416f0113b04181","602110864497cf011d9c0822","0","f","NA","space","space","space","NA","f","834","NA","1633","9124","5405","NA","834","2","legacy","1024","2","48000","-16","task","5207463","odd","NA","23481","27116","25482","92131","1725","16258","10851","92631","NA","92130","92632","92087","27116","93467","21833","91587","1721","88983","Lexical Decision Task","31","29252","37","yes","1024"
"2.821076612","0","4","lult","non-word","84.21052631578948","84.21052631578948","802.6842105263158","802.6842105263158","black","no","legacy","legacy","legacy","0","uniform","1","undefined","undefined","undefined","1","f","0","0","0","0","37","0","0","0","37","NA","33","37","33","0","33","3","37","0","37","Thu Feb 18 19:13:52 2021","The main experiment item","yes","Lexical_Decision_Task.osexp","C:/Users/kamsi/Documents/Uni Work","no","Andale Mono","no","18","no","white","no","yes","576","legacy","33","33","3","C:/Users/kamsi/Documents/Uni Work/subject-5207463.csv","legacy","Lentiform Loewenfeld","3.3.7","yes","yes","600bd7cfb6416f0113b04181","602110864497cf011d9c0822","0","f","NA","space","space","space","NA","f","1250","NA","1633","9124","5405","NA","1250","2","legacy","1024","2","48000","-16","task","5207463","odd","NA","23481","27116","25482","94013","1725","16258","10851","94513","NA","94012","94514","93969","27116","95765","21833","93469","1721","88983","Lexical Decision Task","32","30502","38","yes","1024"
"2.728085817","10.02","9","bike","word","84.61538461538461","84.61538461538461","795.4871794871794","795.4871794871794","black","no","legacy","legacy","legacy","0","uniform","1","undefined","undefined","undefined","1","j","0","0","0","0","38","0","0","0","38","NA","34","38","34","0","34","3","38","0","38","Thu Feb 18 19:13:52 2021","The main experiment item","yes","Lexical_Decision_Task.osexp","C:/Users/kamsi/Documents/Uni Work","no","Andale Mono","no","18","no","white","no","yes","576","legacy","34","34","3","C:/Users/kamsi/Documents/Uni Work/subject-5207463.csv","legacy","Lentiform Loewenfeld","3.3.7","yes","yes","600bd7cfb6416f0113b04181","602110864497cf011d9c0822","0","j","NA","space","space","space","NA","j","522","NA","1633","9124","5405","NA","522","2","legacy","1024","2","48000","-16","task","5207463","odd","NA","23481","27116","25482","96312","1725","16258","10851","96813","NA","96311","96813","96268","27116","97336","21833","95768","1721","88983","Lexical Decision Task","33","31024","39","yes","1024"
"3.043885998","0","9","gome","non-word","85","85","793","793","black","no","legacy","legacy","legacy","0","uniform","1","undefined","undefined","undefined","1","f","0","0","0","0","39","0","0","0","39","NA","35","39","35","0","35","3","39","0","39","Thu Feb 18 19:13:52 2021","The main experiment item","yes","Lexical_Decision_Task.osexp","C:/Users/kamsi/Documents/Uni Work","no","Andale Mono","no","18","no","white","no","yes","576","legacy","35","35","3","C:/Users/kamsi/Documents/Uni Work/subject-5207463.csv","legacy","Lentiform Loewenfeld","3.3.7","yes","yes","600bd7cfb6416f0113b04181","602110864497cf011d9c0822","0","f","NA","space","space","space","NA","f","696","NA","1633","9124","5405","NA","696","2","legacy","1024","2","48000","-16","task","5207463","odd","NA","23481","27116","25482","97882","1725","16258","10851","98382","NA","97881","98383","97838","27116","99080","21833","97338","1721","88983","Lexical Decision Task","34","31720","40","yes","1024"
"3.274543461","7.46","7","scar","word","85.36585365853658","85.36585365853658","790.3414634146342","790.3414634146342","black","no","legacy","legacy","legacy","0","uniform","1","undefined","undefined","undefined","1","j","0","0","0","0","40","0","0","0","40","NA","36","40","36","0","36","3","40","0","40","Thu Feb 18 19:13:52 2021","The main experiment item","yes","Lexical_Decision_Task.osexp","C:/Users/kamsi/Documents/Uni Work","no","Andale Mono","no","18","no","white","no","yes","576","legacy","36","36","3","C:/Users/kamsi/Documents/Uni Work/subject-5207463.csv","legacy","Lentiform Loewenfeld","3.3.7","yes","yes","600bd7cfb6416f0113b04181","602110864497cf011d9c0822","0","j","NA","space","space","space","NA","j","684","NA","1633","9124","5405","NA","684","2","legacy","1024","2","48000","-16","task","5207463","odd","NA","23481","27116","25482","99626","1725","16258","10851","100126","NA","99625","100127","99582","27116","100813","21833","99082","1721","88983","Lexical Decision Task","35","32404","41","yes","1024"
"3.067193647","6.73","6","raft","word","85.71428571428571","85.71428571428571","785.2142857142857","785.2142857142857","black","no","legacy","legacy","legacy","0","uniform","1","undefined","undefined","undefined","1","j","0","0","0","0","41","0","0","0","41","NA","37","41","37","0","37","3","41","0","41","Thu Feb 18 19:13:52 2021","The main experiment item","yes","Lexical_Decision_Task.osexp","C:/Users/kamsi/Documents/Uni Work","no","Andale Mono","no","18","no","white","no","yes","576","legacy","37","37","3","C:/Users/kamsi/Documents/Uni Work/subject-5207463.csv","legacy","Lentiform Loewenfeld","3.3.7","yes","yes","600bd7cfb6416f0113b04181","602110864497cf011d9c0822","0","j","NA","space","space","space","NA","j","575","NA","1633","9124","5405","NA","575","2","legacy","1024","2","48000","-16","task","5207463","odd","NA","23481","27116","25482","101358","1725","16258","10851","101858","NA","101357","101859","101314","27116","102436","21833","100814","1721","88983","Lexical Decision Task","36","32979","42","yes","1024"
"2.664011697","8.19","4","hawk","word","86.04651162790698","86.04651162790698","780.9767441860465","780.9767441860465","black","no","legacy","legacy","legacy","0","uniform","1","undefined","undefined","undefined","1","j","0","0","0","0","42","0","0","0","42","NA","38","42","38","0","38","3","42","0","42","Thu Feb 18 19:13:52 2021","The main experiment item","yes","Lexical_Decision_Task.osexp","C:/Users/kamsi/Documents/Uni Work","no","Andale Mono","no","18","no","white","no","yes","576","legacy","38","38","3","C:/Users/kamsi/Documents/Uni Work/subject-5207463.csv","legacy","Lentiform Loewenfeld","3.3.7","yes","yes","600bd7cfb6416f0113b04181","602110864497cf011d9c0822","0","j","NA","space","space","space","NA","j","603","NA","1633","9124","5405","NA","603","2","legacy","1024","2","48000","-16","task","5207463","odd","NA","23481","27116","25482","102981","1725","16258","10851","103481","NA","102980","103482","102937","27116","104086","21833","102437","1721","88983","Lexical Decision Task","37","33582","43","yes","1024"
"2.899638141","0","3","hapt","non-word","86.36363636363636","86.36363636363636","778.7954545454545","778.7954545454545","black","no","legacy","legacy","legacy","0","uniform","1","undefined","undefined","undefined","1","f","0","0","0","0","43","0","0","0","43","NA","39","43","39","0","39","3","43","0","43","Thu Feb 18 19:13:52 2021","The main experiment item","yes","Lexical_Decision_Task.osexp","C:/Users/kamsi/Documents/Uni Work","no","Andale Mono","no","18","no","white","no","yes","576","legacy","39","39","3","C:/Users/kamsi/Documents/Uni Work/subject-5207463.csv","legacy","Lentiform Loewenfeld","3.3.7","yes","yes","600bd7cfb6416f0113b04181","602110864497cf011d9c0822","0","f","NA","space","space","space","NA","f","685","NA","1633","9124","5405","NA","685","2","legacy","1024","2","48000","-16","task","5207463","odd","NA","23481","27116","25482","104631","1725","16258","10851","105131","NA","104630","105132","104588","27116","105818","21833","104088","1721","88983","Lexical Decision Task","38","34267","44","yes","1024"
"3.481012421","8.34","5","teen","word","86.66666666666667","86.66666666666667","772.0666666666667","772.0666666666667","black","no","legacy","legacy","legacy","0","uniform","1","undefined","undefined","undefined","1","j","0","0","0","0","44","0","0","0","44","NA","40","44","40","0","40","3","44","0","44","Thu Feb 18 19:13:52 2021","The main experiment item","yes","Lexical_Decision_Task.osexp","C:/Users/kamsi/Documents/Uni Work","no","Andale Mono","no","18","no","white","no","yes","576","legacy","40","40","3","C:/Users/kamsi/Documents/Uni Work/subject-5207463.csv","legacy","Lentiform Loewenfeld","3.3.7","yes","yes","600bd7cfb6416f0113b04181","602110864497cf011d9c0822","0","j","NA","space","space","space","NA","j","476","NA","1633","9124","5405","NA","476","2","legacy","1024","2","48000","-16","task","5207463","odd","NA","23481","27116","25482","106364","1725","16258","10851","106864","NA","106363","106865","106320","27116","107342","21833","105820","1721","88983","Lexical Decision Task","39","34743","45","yes","1024"
"2.972819734","0","4","scew","non-word","86.95652173913044","86.95652173913044","775.7608695652174","775.7608695652174","black","no","legacy","legacy","legacy","0","uniform","1","undefined","undefined","undefined","1","f","0","0","0","0","45","0","0","0","45","NA","41","45","41","0","41","3","45","0","45","Thu Feb 18 19:13:52 2021","The main experiment item","yes","Lexical_Decision_Task.osexp","C:/Users/kamsi/Documents/Uni Work","no","Andale Mono","no","18","no","white","no","yes","576","legacy","41","41","3","C:/Users/kamsi/Documents/Uni Work/subject-5207463.csv","legacy","Lentiform Loewenfeld","3.3.7","yes","yes","600bd7cfb6416f0113b04181","602110864497cf011d9c0822","0","f","NA","space","space","space","NA","f","942","NA","1633","9124","5405","NA","942","2","legacy","1024","2","48000","-16","task","5207463","odd","NA","23481","27116","25482","107888","1725","16258","10851","108388","NA","107887","108388","107844","27116","109332","21833","107344","1721","88983","Lexical Decision Task","40","35685","46","yes","1024"
"2.75025376","10.2","6","jump","word","87.23404255319149","87.23404255319149","769.936170212766","769.936170212766","black","no","legacy","legacy","legacy","0","uniform","1","undefined","undefined","undefined","1","j","0","0","0","0","46","0","0","0","46","NA","42","46","42","0","42","3","46","0","46","Thu Feb 18 19:13:52 2021","The main experiment item","yes","Lexical_Decision_Task.osexp","C:/Users/kamsi/Documents/Uni Work","no","Andale Mono","no","18","no","white","no","yes","576","legacy","42","42","3","C:/Users/kamsi/Documents/Uni Work/subject-5207463.csv","legacy","Lentiform Loewenfeld","3.3.7","yes","yes","600bd7cfb6416f0113b04181","602110864497cf011d9c0822","0","j","NA","space","space","space","NA","j","502","NA","1633","9124","5405","NA","502","2","legacy","1024","2","48000","-16","task","5207463","odd","NA","23481","27116","25482","109876","1725","16258","10851","110377","NA","109875","110378","109833","27116","110881","21833","109333","1721","88983","Lexical Decision Task","41","36187","47","yes","1024"
"3.131833513","7.66","4","limb","word","87.5","87.5","766.3541666666666","766.3541666666666","black","no","legacy","legacy","legacy","0","uniform","1","undefined","undefined","undefined","1","j","0","0","0","0","47","0","0","0","47","NA","43","47","43","0","43","3","47","0","47","Thu Feb 18 19:13:52 2021","The main experiment item","yes","Lexical_Decision_Task.osexp","C:/Users/kamsi/Documents/Uni Work","no","Andale Mono","no","18","no","white","no","yes","576","legacy","43","43","3","C:/Users/kamsi/Documents/Uni Work/subject-5207463.csv","legacy","Lentiform Loewenfeld","3.3.7","yes","yes","600bd7cfb6416f0113b04181","602110864497cf011d9c0822","0","j","NA","space","space","space","NA","j","598","NA","1633","9124","5405","NA","598","2","legacy","1024","2","48000","-16","task","5207463","odd","NA","23481","27116","25482","111427","1725","16258","10851","111927","NA","111426","111928","111383","27116","112527","21833","110883","1721","88983","Lexical Decision Task","42","36785","48","yes","1024"
"3.140404328","10.66","9","deep","word","87.75510204081633","87.75510204081633","763.6122448979592","763.6122448979592","black","no","legacy","legacy","legacy","0","uniform","1","undefined","undefined","undefined","1","j","0","0","0","0","48","0","0","0","48","NA","44","48","44","0","44","3","48","0","48","Thu Feb 18 19:13:52 2021","The main experiment item","yes","Lexical_Decision_Task.osexp","C:/Users/kamsi/Documents/Uni Work","no","Andale Mono","no","18","no","white","no","yes","576","legacy","44","44","3","C:/Users/kamsi/Documents/Uni Work/subject-5207463.csv","legacy","Lentiform Loewenfeld","3.3.7","yes","yes","600bd7cfb6416f0113b04181","602110864497cf011d9c0822","0","j","NA","space","space","space","NA","j","632","NA","1633","9124","5405","NA","632","2","legacy","1024","2","48000","-16","task","5207463","odd","NA","23481","27116","25482","113073","1725","16258","10851","113573","NA","113072","113574","113029","27116","114207","21833","112529","1721","88983","Lexical Decision Task","43","37417","49","yes","1024"
"3.495914186","0","4","peng","non-word","86","86","758.36","758.36","black","no","legacy","legacy","legacy","0","uniform","0","undefined","undefined","undefined","0","f","0","0","0","0","49","0","0","0","49","NA","45","49","45","0","45","3","49","0","49","Thu Feb 18 19:13:52 2021","The main experiment item","yes","Lexical_Decision_Task.osexp","C:/Users/kamsi/Documents/Uni Work","no","Andale Mono","no","18","no","white","no","yes","576","legacy","45","45","3","C:/Users/kamsi/Documents/Uni Work/subject-5207463.csv","legacy","Lentiform Loewenfeld","3.3.7","yes","yes","600bd7cfb6416f0113b04181","602110864497cf011d9c0822","0","j","NA","space","space","space","NA","j","501","NA","1633","9124","5405","NA","501","2","legacy","1024","2","48000","-16","task","5207463","odd","NA","23481","27116","25482","114753","1725","16258","10851","115253","NA","114752","115254","114709","27116","115756","21833","114209","1721","88983","Lexical Decision Task","43","37918","50","yes","1024"
"2.95456409","0","4","taud","non-word","86.27450980392157","86.27450980392157","758.4313725490196","758.4313725490196","black","no","legacy","legacy","legacy","0","uniform","1","undefined","undefined","undefined","1","f","0","0","0","0","50","0","0","0","50","NA","46","50","46","0","46","3","50","0","50","Thu Feb 18 19:13:52 2021","The main experiment item","yes","Lexical_Decision_Task.osexp","C:/Users/kamsi/Documents/Uni Work","no","Andale Mono","no","18","no","white","no","yes","576","legacy","46","46","3","C:/Users/kamsi/Documents/Uni Work/subject-5207463.csv","legacy","Lentiform Loewenfeld","3.3.7","yes","yes","600bd7cfb6416f0113b04181","602110864497cf011d9c0822","0","f","NA","space","space","space","NA","f","762","NA","1633","9124","5405","NA","762","2","legacy","1024","2","48000","-16","task","5207463","odd","NA","23481","27116","25482","117302","1725","16258","10851","117802","NA","117301","117803","117258","27116","118566","21833","114209","1721","115758","Lexical Decision Task","44","38680","51","yes","1024"
"2.899092422","7.27","6","snag","word","84.61538461538461","84.61538461538461","762.3076923076923","762.3076923076923","black","no","legacy","legacy","legacy","0","uniform","0","undefined","undefined","undefined","0","j","0","0","0","0","51","0","0","0","51","NA","47","51","47","0","47","3","51","0","51","Thu Feb 18 19:13:52 2021","The main experiment item","yes","Lexical_Decision_Task.osexp","C:/Users/kamsi/Documents/Uni Work","no","Andale Mono","no","18","no","white","no","yes","576","legacy","47","47","3","C:/Users/kamsi/Documents/Uni Work/subject-5207463.csv","legacy","Lentiform Loewenfeld","3.3.7","yes","yes","600bd7cfb6416f0113b04181","602110864497cf011d9c0822","0","f","NA","space","space","space","NA","f","960","NA","1633","9124","5405","NA","960","2","legacy","1024","2","48000","-16","task","5207463","odd","NA","23481","27116","25482","119113","1725","16258","10851","119613","NA","119112","119613","119069","27116","120574","21833","118569","1721","115758","Lexical Decision Task","44","39640","52","yes","1024"
"3.15462682","0","6","noal","non-word","84.90566037735849","84.90566037735849","763.7924528301887","763.7924528301887","black","no","legacy","legacy","legacy","0","uniform","1","undefined","undefined","undefined","1","f","0","0","0","0","52","0","0","0","52","NA","48","52","48","0","48","3","52","0","52","Thu Feb 18 19:13:52 2021","The main experiment item","yes","Lexical_Decision_Task.osexp","C:/Users/kamsi/Documents/Uni Work","no","Andale Mono","no","18","no","white","no","yes","576","legacy","48","48","3","C:/Users/kamsi/Documents/Uni Work/subject-5207463.csv","legacy","Lentiform Loewenfeld","3.3.7","yes","yes","600bd7cfb6416f0113b04181","602110864497cf011d9c0822","0","f","NA","space","space","space","NA","f","841","NA","1633","9124","5405","NA","841","2","legacy","1024","2","48000","-16","task","5207463","odd","NA","23481","27116","25482","122123","1725","16258","10851","122624","NA","122122","122624","122079","27116","123465","21833","118569","1721","120579","Lexical Decision Task","45","40481","53","yes","1024"
"3.492014979","0","9","yine","non-word","85.18518518518519","85.18518518518519","763.9074074074074","763.9074074074074","black","no","legacy","legacy","legacy","0","uniform","1","undefined","undefined","undefined","1","f","0","0","0","0","53","0","0","0","53","NA","49","53","49","0","49","3","53","0","53","Thu Feb 18 19:13:52 2021","The main experiment item","yes","Lexical_Decision_Task.osexp","C:/Users/kamsi/Documents/Uni Work","no","Andale Mono","no","18","no","white","no","yes","576","legacy","49","49","3","C:/Users/kamsi/Documents/Uni Work/subject-5207463.csv","legacy","Lentiform Loewenfeld","3.3.7","yes","yes","600bd7cfb6416f0113b04181","602110864497cf011d9c0822","0","f","NA","space","space","space","NA","f","770","NA","1633","9124","5405","NA","770","2","legacy","1024","2","48000","-16","task","5207463","odd","NA","23481","27116","25482","124012","1725","16258","10851","124512","NA","124011","124513","123967","27116","125284","21833","123467","1721","120579","Lexical Decision Task","46","41251","54","yes","1024"
"2.952953801","0","8","clax","non-word","85.45454545454545","85.45454545454545","769.7636363636364","769.7636363636364","black","no","legacy","legacy","legacy","0","uniform","1","undefined","undefined","undefined","1","f","0","0","0","0","54","0","0","0","54","0","50","54","50","0","50","3","54","0","54","Thu Feb 18 19:13:52 2021","The main experiment item","yes","Lexical_Decision_Task.osexp","C:/Users/kamsi/Documents/Uni Work","no","Andale Mono","no","18","no","white","no","yes","576","legacy","50","50","3","C:/Users/kamsi/Documents/Uni Work/subject-5207463.csv","legacy","Lentiform Loewenfeld","3.3.7","yes","yes","600bd7cfb6416f0113b04181","602110864497cf011d9c0822","0","f","NA","space","space","space","space","f","1086","NA","1633","9124","5405","7397","1086","2","legacy","1024","2","48000","-16","task","5207463","odd","NA","23481","27116","25482","133253","1725","16258","10851","133753","125810","133252","133754","125786","27116","134841","21833","125286","1721","120579","Lexical Decision Task","47","42337","55","yes","1024"
"3.076883066","0","8","mout","non-word","83.92857142857143","83.92857142857143","768.875","768.875","black","no","legacy","legacy","legacy","0","uniform","0","undefined","undefined","undefined","0","f","0","0","0","0","55","0","0","0","55","0","51","55","51","0","51","3","55","0","55","Thu Feb 18 19:13:52 2021","The main experiment item","yes","Lexical_Decision_Task.osexp","C:/Users/kamsi/Documents/Uni Work","no","Andale Mono","no","18","no","white","no","yes","576","legacy","51","51","3","C:/Users/kamsi/Documents/Uni Work/subject-5207463.csv","legacy","Lentiform Loewenfeld","3.3.7","yes","yes","600bd7cfb6416f0113b04181","602110864497cf011d9c0822","0","j","NA","space","space","space","space","j","720","NA","1633","9124","5405","7397","720","2","legacy","1024","2","48000","-16","task","5207463","odd","NA","23481","27116","25482","135388","1725","16258","10851","135888","125810","135387","135888","135344","27116","136610","21833","134844","1721","120579","Lexical Decision Task","47","43057","56","yes","1024"
"2.845304797","0","6","buct","non-word","84.21052631578948","84.21052631578948","769.561403508772","769.561403508772","black","no","legacy","legacy","legacy","0","uniform","1","undefined","undefined","undefined","1","f","0","0","0","0","56","0","0","0","56","0","52","56","52","0","52","3","56","0","56","Thu Feb 18 19:13:52 2021","The main experiment item","yes","Lexical_Decision_Task.osexp","C:/Users/kamsi/Documents/Uni Work","no","Andale Mono","no","18","no","white","no","yes","576","legacy","52","52","3","C:/Users/kamsi/Documents/Uni Work/subject-5207463.csv","legacy","Lentiform Loewenfeld","3.3.7","yes","yes","600bd7cfb6416f0113b04181","602110864497cf011d9c0822","0","f","NA","space","space","space","space","f","808","NA","1633","9124","5405","7397","808","2","legacy","1024","2","48000","-16","task","5207463","odd","NA","23481","27116","25482","138155","1725","16258","10851","138655","125810","138154","138656","138111","27116","139465","21833","134844","1721","136611","Lexical Decision Task","48","43865","57","yes","1024"
"2.86332286","6.71","2","feud","word","84.48275862068965","84.48275862068965","773.5689655172414","773.5689655172414","black","no","legacy","legacy","legacy","0","uniform","1","undefined","undefined","undefined","1","j","0","0","0","0","57","0","0","0","57","0","53","57","53","0","53","3","57","0","57","Thu Feb 18 19:13:52 2021","The main experiment item","yes","Lexical_Decision_Task.osexp","C:/Users/kamsi/Documents/Uni Work","no","Andale Mono","no","18","no","white","no","yes","576","legacy","53","53","3","C:/Users/kamsi/Documents/Uni Work/subject-5207463.csv","legacy","Lentiform Loewenfeld","3.3.7","yes","yes","600bd7cfb6416f0113b04181","602110864497cf011d9c0822","0","j","NA","space","space","space","space","j","1002","NA","1633","9124","5405","7397","1002","2","legacy","1024","2","48000","-16","task","5207463","odd","NA","23481","27116","25482","140012","1725","16258","10851","140512","125810","140011","140513","139968","27116","141517","21833","139468","1721","136611","Lexical Decision Task","49","44867","58","yes","1024"
"2.843025032","0","9","pusk","non-word","84.7457627118644","84.7457627118644","772.8305084745763","772.8305084745763","black","no","legacy","legacy","legacy","0","uniform","1","undefined","undefined","undefined","1","f","0","0","0","0","58","0","0","0","58","0","54","58","54","0","54","3","58","0","58","Thu Feb 18 19:13:52 2021","The main experiment item","yes","Lexical_Decision_Task.osexp","C:/Users/kamsi/Documents/Uni Work","no","Andale Mono","no","18","no","white","no","yes","576","legacy","54","54","3","C:/Users/kamsi/Documents/Uni Work/subject-5207463.csv","legacy","Lentiform Loewenfeld","3.3.7","yes","yes","600bd7cfb6416f0113b04181","602110864497cf011d9c0822","0","f","NA","space","space","space","space","f","730","NA","1633","9124","5405","7397","730","2","legacy","1024","2","48000","-16","task","5207463","odd","NA","23481","27116","25482","142063","1725","16258","10851","142563","125810","142062","142564","142019","27116","143295","21833","141519","1721","136611","Lexical Decision Task","50","45597","59","yes","1024"
"2.813801082","5.47","7","nook","word","83.33333333333333","83.33333333333333","772.8","772.8","black","no","legacy","legacy","legacy","0","uniform","0","undefined","undefined","undefined","0","j","0","0","0","0","59","0","0","0","59","0","55","59","55","0","55","3","59","0","59","Thu Feb 18 19:13:52 2021","The main experiment item","yes","Lexical_Decision_Task.osexp","C:/Users/kamsi/Documents/Uni Work","no","Andale Mono","no","18","no","white","no","yes","576","legacy","55","55","3","C:/Users/kamsi/Documents/Uni Work/subject-5207463.csv","legacy","Lentiform Loewenfeld","3.3.7","yes","yes","600bd7cfb6416f0113b04181","602110864497cf011d9c0822","0","f","NA","space","space","space","space","f","771","NA","1633","9124","5405","7397","771","2","legacy","1024","2","48000","-16","task","5207463","odd","NA","23481","27116","25482","143842","1725","16258","10851","144343","125810","143841","144344","143797","27116","145117","21833","143297","1721","136611","Lexical Decision Task","50","46368","60","yes","1024"
"2.953276337","6.32","4","thaw","word","81.9672131147541","81.9672131147541","774.2459016393443","774.2459016393443","black","no","legacy","legacy","legacy","0","uniform","0","undefined","undefined","undefined","0","j","0","0","0","0","60","0","0","0","60","0","56","60","56","0","56","3","60","0","60","Thu Feb 18 19:13:52 2021","The main experiment item","yes","Lexical_Decision_Task.osexp","C:/Users/kamsi/Documents/Uni Work","no","Andale Mono","no","18","no","white","no","yes","576","legacy","56","56","3","C:/Users/kamsi/Documents/Uni Work/subject-5207463.csv","legacy","Lentiform Loewenfeld","3.3.7","yes","yes","600bd7cfb6416f0113b04181","602110864497cf011d9c0822","0","f","NA","space","space","space","space","f","861","NA","1633","9124","5405","7397","861","2","legacy","1024","2","48000","-16","task","5207463","odd","NA","23481","27116","25482","146662","1725","16258","10851","147162","125810","146661","147163","146618","27116","148025","21833","143297","1721","145118","Lexical Decision Task","50","47229","61","yes","1024"
"3.302475237","0","7","leel","non-word","82.25806451612904","82.25806451612904","774.5967741935484","774.5967741935484","black","no","legacy","legacy","legacy","0","uniform","1","undefined","undefined","undefined","1","f","0","0","0","0","61","0","0","0","61","0","57","61","57","0","57","3","61","0","61","Thu Feb 18 19:13:52 2021","The main experiment item","yes","Lexical_Decision_Task.osexp","C:/Users/kamsi/Documents/Uni Work","no","Andale Mono","no","18","no","white","no","yes","576","legacy","57","57","3","C:/Users/kamsi/Documents/Uni Work/subject-5207463.csv","legacy","Lentiform Loewenfeld","3.3.7","yes","yes","600bd7cfb6416f0113b04181","602110864497cf011d9c0822","0","f","NA","space","space","space","space","f","796","NA","1633","9124","5405","7397","796","2","legacy","1024","2","48000","-16","task","5207463","odd","NA","23481","27116","25482","149572","1725","16258","10851","150072","125810","149571","150072","149528","27116","150869","21833","143297","1721","148028","Lexical Decision Task","51","48025","62","yes","1024"
"3.208978517","10.33","4","fish","word","82.53968253968254","82.53968253968254","772.8412698412699","772.8412698412699","black","no","legacy","legacy","legacy","0","uniform","1","undefined","undefined","undefined","1","j","0","0","0","0","62","0","0","0","62","0","58","62","58","0","58","3","62","0","62","Thu Feb 18 19:13:52 2021","The main experiment item","yes","Lexical_Decision_Task.osexp","C:/Users/kamsi/Documents/Uni Work","no","Andale Mono","no","18","no","white","no","yes","576","legacy","58","58","3","C:/Users/kamsi/Documents/Uni Work/subject-5207463.csv","legacy","Lentiform Loewenfeld","3.3.7","yes","yes","600bd7cfb6416f0113b04181","602110864497cf011d9c0822","0","j","NA","space","space","space","space","j","664","NA","1633","9124","5405","7397","664","2","legacy","1024","2","48000","-16","task","5207463","odd","NA","23481","27116","25482","151415","1725","16258","10851","151915","125810","151414","151916","151371","27116","152581","21833","150871","1721","148028","Lexical Decision Task","52","48689","63","yes","1024"
"3.100255637","0","6","brax","non-word","82.8125","82.8125","772.578125","772.578125","black","no","legacy","legacy","legacy","0","uniform","1","undefined","undefined","undefined","1","f","0","0","0","0","63","0","0","0","63","0","59","63","59","0","59","3","63","0","63","Thu Feb 18 19:13:52 2021","The main experiment item","yes","Lexical_Decision_Task.osexp","C:/Users/kamsi/Documents/Uni Work","no","Andale Mono","no","18","no","white","no","yes","576","legacy","59","59","3","C:/Users/kamsi/Documents/Uni Work/subject-5207463.csv","legacy","Lentiform Loewenfeld","3.3.7","yes","yes","600bd7cfb6416f0113b04181","602110864497cf011d9c0822","0","f","NA","space","space","space","space","f","756","NA","1633","9124","5405","7397","756","2","legacy","1024","2","48000","-16","task","5207463","odd","NA","23481","27116","25482","153127","1725","16258","10851","153627","125810","153126","153628","153083","27116","154384","21833","152583","1721","148028","Lexical Decision Task","53","49445","64","yes","1024"
"3.303771854","0","9","dath","non-word","83.07692307692308","83.07692307692308","774.9384615384615","774.9384615384615","black","no","legacy","legacy","legacy","0","uniform","1","undefined","undefined","undefined","1","f","0","0","0","0","64","0","0","0","64","0","60","64","60","0","60","3","64","0","64","Thu Feb 18 19:13:52 2021","The main experiment item","yes","Lexical_Decision_Task.osexp","C:/Users/kamsi/Documents/Uni Work","no","Andale Mono","no","18","no","white","no","yes","576","legacy","60","60","3","C:/Users/kamsi/Documents/Uni Work/subject-5207463.csv","legacy","Lentiform Loewenfeld","3.3.7","yes","yes","600bd7cfb6416f0113b04181","602110864497cf011d9c0822","0","f","NA","space","space","space","space","f","926","NA","1633","9124","5405","7397","926","2","legacy","1024","2","48000","-16","task","5207463","odd","NA","23481","27116","25482","154930","1725","16258","10851","155430","125810","154929","155431","154886","27116","156359","21833","154386","1721","148028","Lexical Decision Task","54","50371","65","yes","1024"
"2.6599162","0","2","saff","non-word","83.33333333333333","83.33333333333333","779.6969696969697","779.6969696969697","black","no","legacy","legacy","legacy","0","uniform","1","undefined","undefined","undefined","1","f","0","0","0","0","65","0","0","0","65","0","61","65","61","0","61","3","65","0","65","Thu Feb 18 19:13:52 2021","The main experiment item","yes","Lexical_Decision_Task.osexp","C:/Users/kamsi/Documents/Uni Work","no","Andale Mono","no","18","no","white","no","yes","576","legacy","61","61","3","C:/Users/kamsi/Documents/Uni Work/subject-5207463.csv","legacy","Lentiform Loewenfeld","3.3.7","yes","yes","600bd7cfb6416f0113b04181","602110864497cf011d9c0822","0","f","NA","space","space","space","space","f","1089","NA","1633","9124","5405","7397","1089","2","legacy","1024","2","48000","-16","task","5207463","odd","NA","23481","27116","25482","156905","1725","16258","10851","157405","125810","156904","157406","156861","27116","158497","21833","156361","1721","148028","Lexical Decision Task","55","51460","66","yes","1024"
"3.031408464","0","7","drow","non-word","83.58208955223881","83.58208955223881","782.1940298507462","782.1940298507462","black","no","legacy","legacy","legacy","0","uniform","1","undefined","undefined","undefined","1","f","0","0","0","0","66","0","0","0","66","0","62","66","62","0","62","3","66","0","66","Thu Feb 18 19:13:52 2021","The main experiment item","yes","Lexical_Decision_Task.osexp","C:/Users/kamsi/Documents/Uni Work","no","Andale Mono","no","18","no","white","no","yes","576","legacy","62","62","3","C:/Users/kamsi/Documents/Uni Work/subject-5207463.csv","legacy","Lentiform Loewenfeld","3.3.7","yes","yes","600bd7cfb6416f0113b04181","602110864497cf011d9c0822","0","f","NA","space","space","space","space","f","947","NA","1633","9124","5405","7397","947","2","legacy","1024","2","48000","-16","task","5207463","odd","NA","23481","27116","25482","159043","1725","16258","10851","159543","125810","159042","159544","158999","27116","160492","21833","158499","1721","148028","Lexical Decision Task","56","52407","67","yes","1024"
"3.153104174","10.89","6","door","word","83.82352941176471","83.82352941176471","779.7352941176471","779.7352941176471","black","no","legacy","legacy","legacy","0","uniform","1","undefined","undefined","undefined","1","j","0","0","0","0","67","0","0","0","67","0","63","67","63","0","63","3","67","0","67","Thu Feb 18 19:13:52 2021","The main experiment item","yes","Lexical_Decision_Task.osexp","C:/Users/kamsi/Documents/Uni Work","no","Andale Mono","no","18","no","white","no","yes","576","legacy","63","63","3","C:/Users/kamsi/Documents/Uni Work/subject-5207463.csv","legacy","Lentiform Loewenfeld","3.3.7","yes","yes","600bd7cfb6416f0113b04181","602110864497cf011d9c0822","0","j","NA","space","space","space","space","j","615","NA","1633","9124","5405","7397","615","2","legacy","1024","2","48000","-16","task","5207463","odd","NA","23481","27116","25482","161037","1725","16258","10851","161537","125810","161036","161538","160994","27116","162154","21833","160494","1721","148028","Lexical Decision Task","57","53022","68","yes","1024"
"3.132473155","0","4","glim","non-word","84.05797101449275","84.05797101449275","780.1739130434783","780.1739130434783","black","no","legacy","legacy","legacy","0","uniform","1","undefined","undefined","undefined","1","f","0","0","0","0","68","0","0","0","68","0","64","68","64","0","64","3","68","0","68","Thu Feb 18 19:13:52 2021","The main experiment item","yes","Lexical_Decision_Task.osexp","C:/Users/kamsi/Documents/Uni Work","no","Andale Mono","no","18","no","white","no","yes","576","legacy","64","64","3","C:/Users/kamsi/Documents/Uni Work/subject-5207463.csv","legacy","Lentiform Loewenfeld","3.3.7","yes","yes","600bd7cfb6416f0113b04181","602110864497cf011d9c0822","0","f","NA","space","space","space","space","f","810","NA","1633","9124","5405","7397","810","2","legacy","1024","2","48000","-16","task","5207463","odd","NA","23481","27116","25482","162700","1725","16258","10851","163200","125810","162699","163201","162656","27116","164012","21833","162156","1721","148028","Lexical Decision Task","58","53832","69","yes","1024"
"3.216517684","10.87","3","film","word","84.28571428571429","84.28571428571429","777.2","777.2","black","no","legacy","legacy","legacy","0","uniform","1","undefined","undefined","undefined","1","j","0","0","0","0","69","0","0","0","69","0","65","69","65","0","65","3","69","0","69","Thu Feb 18 19:13:52 2021","The main experiment item","yes","Lexical_Decision_Task.osexp","C:/Users/kamsi/Documents/Uni Work","no","Andale Mono","no","18","no","white","no","yes","576","legacy","65","65","3","C:/Users/kamsi/Documents/Uni Work/subject-5207463.csv","legacy","Lentiform Loewenfeld","3.3.7","yes","yes","600bd7cfb6416f0113b04181","602110864497cf011d9c0822","0","j","NA","space","space","space","space","j","572","NA","1633","9124","5405","7397","572","2","legacy","1024","2","48000","-16","task","5207463","odd","NA","23481","27116","25482","164558","1725","16258","10851","165058","125810","164557","165059","164514","27116","165632","21833","164014","1721","148028","Lexical Decision Task","59","54404","70","yes","1024"
"3.257359335","8","6","brew","word","84.50704225352112","84.50704225352112","777.3802816901408","777.3802816901408","black","no","legacy","legacy","legacy","0","uniform","1","undefined","undefined","undefined","1","j","0","0","0","0","70","0","0","0","70","0","66","70","66","0","66","3","70","0","70","Thu Feb 18 19:13:52 2021","The main experiment item","yes","Lexical_Decision_Task.osexp","C:/Users/kamsi/Documents/Uni Work","no","Andale Mono","no","18","no","white","no","yes","576","legacy","66","66","3","C:/Users/kamsi/Documents/Uni Work/subject-5207463.csv","legacy","Lentiform Loewenfeld","3.3.7","yes","yes","600bd7cfb6416f0113b04181","602110864497cf011d9c0822","0","j","NA","space","space","space","space","j","790","NA","1633","9124","5405","7397","790","2","legacy","1024","2","48000","-16","task","5207463","odd","NA","23481","27116","25482","166179","1725","16258","10851","166679","125810","166178","166680","166134","27116","167471","21833","165634","1721","148028","Lexical Decision Task","60","55194","71","yes","1024"
"3.153001286","8.7","5","palm","word","84.72222222222223","84.72222222222223","776.4583333333334","776.4583333333334","black","no","legacy","legacy","legacy","0","uniform","1","undefined","undefined","undefined","1","j","0","0","0","0","71","0","0","0","71","0","67","71","67","0","67","3","71","0","71","Thu Feb 18 19:13:52 2021","The main experiment item","yes","Lexical_Decision_Task.osexp","C:/Users/kamsi/Documents/Uni Work","no","Andale Mono","no","18","no","white","no","yes","576","legacy","67","67","3","C:/Users/kamsi/Documents/Uni Work/subject-5207463.csv","legacy","Lentiform Loewenfeld","3.3.7","yes","yes","600bd7cfb6416f0113b04181","602110864497cf011d9c0822","0","j","NA","space","space","space","space","j","711","NA","1633","9124","5405","7397","711","2","legacy","1024","2","48000","-16","task","5207463","odd","NA","23481","27116","25482","168017","1725","16258","10851","168517","125810","168016","168518","167973","27116","169230","21833","167473","1721","148028","Lexical Decision Task","61","55905","72","yes","1024"
"2.793790385","5.67","9","swab","word","84.93150684931507","84.93150684931507","778.2465753424658","778.2465753424658","black","no","legacy","legacy","legacy","0","uniform","1","undefined","undefined","undefined","1","j","0","0","0","0","72","0","0","0","72","0","68","72","68","0","68","3","72","0","72","Thu Feb 18 19:13:52 2021","The main experiment item","yes","Lexical_Decision_Task.osexp","C:/Users/kamsi/Documents/Uni Work","no","Andale Mono","no","18","no","white","no","yes","576","legacy","68","68","3","C:/Users/kamsi/Documents/Uni Work/subject-5207463.csv","legacy","Lentiform Loewenfeld","3.3.7","yes","yes","600bd7cfb6416f0113b04181","602110864497cf011d9c0822","0","j","NA","space","space","space","space","j","907","NA","1633","9124","5405","7397","907","2","legacy","1024","2","48000","-16","task","5207463","odd","NA","23481","27116","25482","169776","1725","16258","10851","170276","125810","169775","170277","169732","27116","171186","21833","169232","1721","148028","Lexical Decision Task","62","56812","73","yes","1024"
"3.307211407","6.07","7","honk","word","85.13513513513513","85.13513513513513","779.1891891891892","779.1891891891892","black","no","legacy","legacy","legacy","0","uniform","1","undefined","undefined","undefined","1","j","0","0","0","0","73","0","0","0","73","0","69","73","69","0","69","3","73","0","73","Thu Feb 18 19:13:52 2021","The main experiment item","yes","Lexical_Decision_Task.osexp","C:/Users/kamsi/Documents/Uni Work","no","Andale Mono","no","18","no","white","no","yes","576","legacy","69","69","3","C:/Users/kamsi/Documents/Uni Work/subject-5207463.csv","legacy","Lentiform Loewenfeld","3.3.7","yes","yes","600bd7cfb6416f0113b04181","602110864497cf011d9c0822","0","j","NA","space","space","space","space","j","848","NA","1633","9124","5405","7397","848","2","legacy","1024","2","48000","-16","task","5207463","odd","NA","23481","27116","25482","171732","1725","16258","10851","172232","125810","171731","172232","171688","27116","173081","21833","171188","1721","148028","Lexical Decision Task","63","57660","74","yes","1024"
"2.576725172","0","8","gowl","non-word","85.33333333333333","85.33333333333333","781.5466666666666","781.5466666666666","black","no","legacy","legacy","legacy","0","uniform","1","undefined","undefined","undefined","1","f","0","0","0","0","74","0","0","0","74","0","70","74","70","0","70","3","74","0","74","Thu Feb 18 19:13:52 2021","The main experiment item","yes","Lexical_Decision_Task.osexp","C:/Users/kamsi/Documents/Uni Work","no","Andale Mono","no","18","no","white","no","yes","576","legacy","70","70","3","C:/Users/kamsi/Documents/Uni Work/subject-5207463.csv","legacy","Lentiform Loewenfeld","3.3.7","yes","yes","600bd7cfb6416f0113b04181","602110864497cf011d9c0822","0","f","NA","space","space","space","space","f","956","NA","1633","9124","5405","7397","956","2","legacy","1024","2","48000","-16","task","5207463","odd","NA","23481","27116","25482","173627","1725","16258","10851","174127","125810","173626","174128","173583","27116","175085","21833","173083","1721","148028","Lexical Decision Task","64","58616","75","yes","1024"
"2.880623071","0","9","curp","non-word","85.52631578947368","85.52631578947368","780.4736842105264","780.4736842105264","black","no","legacy","legacy","legacy","0","uniform","1","undefined","undefined","undefined","1","f","0","0","0","0","75","0","0","0","75","0","71","75","71","0","71","3","75","0","75","Thu Feb 18 19:13:52 2021","The main experiment item","yes","Lexical_Decision_Task.osexp","C:/Users/kamsi/Documents/Uni Work","no","Andale Mono","no","18","no","white","no","yes","576","legacy","71","71","3","C:/Users/kamsi/Documents/Uni Work/subject-5207463.csv","legacy","Lentiform Loewenfeld","3.3.7","yes","yes","600bd7cfb6416f0113b04181","602110864497cf011d9c0822","0","f","NA","space","space","space","space","f","700","NA","1633","9124","5405","7397","700","2","legacy","1024","2","48000","-16","task","5207463","odd","NA","23481","27116","25482","175632","1725","16258","10851","176132","125810","175631","176133","175588","27116","176834","21833","175088","1721","148028","Lexical Decision Task","65","59316","76","yes","1024"
"3.174641193","0","3","ramb","non-word","85.71428571428571","85.71428571428571","787.4285714285714","787.4285714285714","black","no","legacy","legacy","legacy","0","uniform","1","undefined","undefined","undefined","1","f","0","0","0","0","76","0","0","0","76","0","72","76","72","0","72","3","76","0","76","Thu Feb 18 19:13:52 2021","The main experiment item","yes","Lexical_Decision_Task.osexp","C:/Users/kamsi/Documents/Uni Work","no","Andale Mono","no","18","no","white","no","yes","576","legacy","72","72","3","C:/Users/kamsi/Documents/Uni Work/subject-5207463.csv","legacy","Lentiform Loewenfeld","3.3.7","yes","yes","600bd7cfb6416f0113b04181","602110864497cf011d9c0822","0","f","NA","space","space","space","space","f","1316","NA","1633","9124","5405","7397","1316","2","legacy","1024","2","48000","-16","task","5207463","odd","NA","23481","27116","25482","177381","1725","16258","10851","177881","125810","177380","177882","177336","27116","179200","21833","176836","1721","148028","Lexical Decision Task","66","60632","77","yes","1024"
"2.807758206","6.25","4","hurl","word","85.8974358974359","85.8974358974359","785.5897435897435","785.5897435897435","black","no","legacy","legacy","legacy","0","uniform","1","undefined","undefined","undefined","1","j","0","0","0","0","77","0","0","0","77","0","73","77","73","0","73","3","77","0","77","Thu Feb 18 19:13:52 2021","The main experiment item","yes","Lexical_Decision_Task.osexp","C:/Users/kamsi/Documents/Uni Work","no","Andale Mono","no","18","no","white","no","yes","576","legacy","73","73","3","C:/Users/kamsi/Documents/Uni Work/subject-5207463.csv","legacy","Lentiform Loewenfeld","3.3.7","yes","yes","600bd7cfb6416f0113b04181","602110864497cf011d9c0822","0","j","NA","space","space","space","space","j","644","NA","1633","9124","5405","7397","644","2","legacy","1024","2","48000","-16","task","5207463","odd","NA","23481","27116","25482","179745","1725","16258","10851","180245","125810","179744","180246","179701","27116","180891","21833","179201","1721","148028","Lexical Decision Task","67","61276","78","yes","1024"
"2.794720352","0","9","koot","non-word","86.07594936708861","86.07594936708861","783.9367088607595","783.9367088607595","black","no","legacy","legacy","legacy","0","uniform","1","undefined","undefined","undefined","1","f","0","0","0","0","78","0","0","0","78","0","74","78","74","0","74","3","78","0","78","Thu Feb 18 19:13:52 2021","The main experiment item","yes","Lexical_Decision_Task.osexp","C:/Users/kamsi/Documents/Uni Work","no","Andale Mono","no","18","no","white","no","yes","576","legacy","74","74","3","C:/Users/kamsi/Documents/Uni Work/subject-5207463.csv","legacy","Lentiform Loewenfeld","3.3.7","yes","yes","600bd7cfb6416f0113b04181","602110864497cf011d9c0822","0","f","NA","space","space","space","space","f","655","NA","1633","9124","5405","7397","655","2","legacy","1024","2","48000","-16","task","5207463","odd","NA","23481","27116","25482","181437","1725","16258","10851","181937","125810","181436","181938","181393","27116","182595","21833","180893","1721","148028","Lexical Decision Task","68","61931","79","yes","1024"
"3.120025233","0","2","nyst","non-word","86.25","86.25","784.0875","784.0875","black","no","legacy","legacy","legacy","0","uniform","1","undefined","undefined","undefined","1","f","0","0","0","0","79","0","0","0","79","0","75","79","75","0","75","3","79","0","79","Thu Feb 18 19:13:52 2021","The main experiment item","yes","Lexical_Decision_Task.osexp","C:/Users/kamsi/Documents/Uni Work","no","Andale Mono","no","18","no","white","no","yes","576","legacy","75","75","3","C:/Users/kamsi/Documents/Uni Work/subject-5207463.csv","legacy","Lentiform Loewenfeld","3.3.7","yes","yes","600bd7cfb6416f0113b04181","602110864497cf011d9c0822","0","f","NA","space","space","space","space","f","796","NA","1633","9124","5405","7397","796","2","legacy","1024","2","48000","-16","task","5207463","odd","NA","23481","27116","25482","183141","1725","16258","10851","183641","125810","183140","183642","183097","27116","184439","21833","182597","1721","148028","Lexical Decision Task","69","62727","80","yes","1024"
"2.990042563","6.64","9","plow","word","86.41975308641975","86.41975308641975","787.8518518518518","787.8518518518518","black","no","legacy","legacy","legacy","0","uniform","1","undefined","undefined","undefined","1","j","0","0","0","0","80","0","0","0","80","0","76","80","76","0","76","3","80","0","80","Thu Feb 18 19:13:52 2021","The main experiment item","yes","Lexical_Decision_Task.osexp","C:/Users/kamsi/Documents/Uni Work","no","Andale Mono","no","18","no","white","no","yes","576","legacy","76","76","3","C:/Users/kamsi/Documents/Uni Work/subject-5207463.csv","legacy","Lentiform Loewenfeld","3.3.7","yes","yes","600bd7cfb6416f0113b04181","602110864497cf011d9c0822","0","j","NA","space","space","space","space","j","1089","NA","1633","9124","5405","7397","1089","2","legacy","1024","2","48000","-16","task","5207463","odd","NA","23481","27116","25482","184985","1725","16258","10851","185485","125810","184984","185485","184941","27116","186576","21833","184441","1721","148028","Lexical Decision Task","70","63816","81","yes","1024"
"3.374198258","0","8","vist","non-word","86.58536585365853","86.58536585365853","785.5243902439024","785.5243902439024","black","no","legacy","legacy","legacy","0","uniform","1","undefined","undefined","undefined","1","f","0","0","0","0","81","0","0","0","81","0","77","81","77","0","77","3","81","0","81","Thu Feb 18 19:13:52 2021","The main experiment item","yes","Lexical_Decision_Task.osexp","C:/Users/kamsi/Documents/Uni Work","no","Andale Mono","no","18","no","white","no","yes","576","legacy","77","77","3","C:/Users/kamsi/Documents/Uni Work/subject-5207463.csv","legacy","Lentiform Loewenfeld","3.3.7","yes","yes","600bd7cfb6416f0113b04181","602110864497cf011d9c0822","0","f","NA","space","space","space","space","f","597","NA","1633","9124","5405","7397","597","2","legacy","1024","2","48000","-16","task","5207463","odd","NA","23481","27116","25482","187121","1725","16258","10851","187621","125810","187120","187622","187077","27116","188221","21833","186577","1721","148028","Lexical Decision Task","71","64413","82","yes","1024"
"3.094121596","0","8","fode","non-word","86.74698795180723","86.74698795180723","785.2409638554217","785.2409638554217","black","no","legacy","legacy","legacy","0","uniform","1","undefined","undefined","undefined","1","f","0","0","0","0","82","0","0","0","82","0","78","82","78","0","78","3","82","0","82","Thu Feb 18 19:13:52 2021","The main experiment item","yes","Lexical_Decision_Task.osexp","C:/Users/kamsi/Documents/Uni Work","no","Andale Mono","no","18","no","white","no","yes","576","legacy","78","78","3","C:/Users/kamsi/Documents/Uni Work/subject-5207463.csv","legacy","Lentiform Loewenfeld","3.3.7","yes","yes","600bd7cfb6416f0113b04181","602110864497cf011d9c0822","0","f","NA","space","space","space","space","f","762","NA","1633","9124","5405","7397","762","2","legacy","1024","2","48000","-16","task","5207463","odd","NA","23481","27116","25482","188766","1725","16258","10851","189266","125810","188765","189267","188723","27116","190030","21833","188223","1721","148028","Lexical Decision Task","72","65175","83","yes","1024"
"3.248054965","7.86","5","glow","word","86.9047619047619","86.9047619047619","785.047619047619","785.047619047619","black","no","legacy","legacy","legacy","0","uniform","1","undefined","undefined","undefined","1","j","0","0","0","0","83","0","0","0","83","0","79","83","79","0","79","3","83","0","83","Thu Feb 18 19:13:52 2021","The main experiment item","yes","Lexical_Decision_Task.osexp","C:/Users/kamsi/Documents/Uni Work","no","Andale Mono","no","18","no","white","no","yes","576","legacy","79","79","3","C:/Users/kamsi/Documents/Uni Work/subject-5207463.csv","legacy","Lentiform Loewenfeld","3.3.7","yes","yes","600bd7cfb6416f0113b04181","602110864497cf011d9c0822","0","j","NA","space","space","space","space","j","769","NA","1633","9124","5405","7397","769","2","legacy","1024","2","48000","-16","task","5207463","odd","NA","23481","27116","25482","190576","1725","16258","10851","191076","125810","190575","191077","190532","27116","191847","21833","190032","1721","148028","Lexical Decision Task","73","65944","84","yes","1024"
"2.68604012","0","3","mulb","non-word","87.05882352941177","87.05882352941177","784.3058823529411","784.3058823529411","black","no","legacy","legacy","legacy","0","uniform","1","undefined","undefined","undefined","1","f","0","0","0","0","84","0","0","0","84","0","80","84","80","0","80","3","84","0","84","Thu Feb 18 19:13:52 2021","The main experiment item","yes","Lexical_Decision_Task.osexp","C:/Users/kamsi/Documents/Uni Work","no","Andale Mono","no","18","no","white","no","yes","576","legacy","80","80","3","C:/Users/kamsi/Documents/Uni Work/subject-5207463.csv","legacy","Lentiform Loewenfeld","3.3.7","yes","yes","600bd7cfb6416f0113b04181","602110864497cf011d9c0822","0","f","NA","space","space","space","space","f","722","NA","1633","9124","5405","7397","722","2","legacy","1024","2","48000","-16","task","5207463","odd","NA","23481","27116","25482","192393","1725","16258","10851","192893","125810","192392","192894","192349","27116","193618","21833","191849","1721","148028","Lexical Decision Task","74","66666","85","yes","1024"
"3.20996159","0","4","clee","non-word","87.20930232558139","87.20930232558139","782.9418604651163","782.9418604651163","black","no","legacy","legacy","legacy","0","uniform","1","undefined","undefined","undefined","1","f","0","0","0","0","85","0","0","0","85","0","81","85","81","0","81","3","85","0","85","Thu Feb 18 19:13:52 2021","The main experiment item","yes","Lexical_Decision_Task.osexp","C:/Users/kamsi/Documents/Uni Work","no","Andale Mono","no","18","no","white","no","yes","576","legacy","81","81","3","C:/Users/kamsi/Documents/Uni Work/subject-5207463.csv","legacy","Lentiform Loewenfeld","3.3.7","yes","yes","600bd7cfb6416f0113b04181","602110864497cf011d9c0822","0","f","NA","space","space","space","space","f","667","NA","1633","9124","5405","7397","667","2","legacy","1024","2","48000","-16","task","5207463","odd","NA","23481","27116","25482","194164","1725","16258","10851","194664","125810","194163","194665","194120","27116","195333","21833","193620","1721","148028","Lexical Decision Task","75","67333","86","yes","1024"
"2.675164031","8.57","6","glue","word","87.35632183908046","87.35632183908046","781.1379310344828","781.1379310344828","black","no","legacy","legacy","legacy","0","uniform","1","undefined","undefined","undefined","1","j","0","0","0","0","86","0","0","0","86","0","82","86","82","0","82","3","86","0","86","Thu Feb 18 19:13:52 2021","The main experiment item","yes","Lexical_Decision_Task.osexp","C:/Users/kamsi/Documents/Uni Work","no","Andale Mono","no","18","no","white","no","yes","576","legacy","82","82","3","C:/Users/kamsi/Documents/Uni Work/subject-5207463.csv","legacy","Lentiform Loewenfeld","3.3.7","yes","yes","600bd7cfb6416f0113b04181","602110864497cf011d9c0822","0","j","NA","space","space","space","space","j","626","NA","1633","9124","5405","7397","626","2","legacy","1024","2","48000","-16","task","5207463","odd","NA","23481","27116","25482","195879","1725","16258","10851","196379","125810","195878","196380","195835","27116","197007","21833","195335","1721","148028","Lexical Decision Task","76","67959","87","yes","1024"
"3.22685757","9.99","7","roll","word","87.5","87.5","778.6590909090909","778.6590909090909","black","no","legacy","legacy","legacy","0","uniform","1","undefined","undefined","undefined","1","j","0","0","0","0","87","0","0","0","87","0","83","87","83","0","83","3","87","0","87","Thu Feb 18 19:13:52 2021","The main experiment item","yes","Lexical_Decision_Task.osexp","C:/Users/kamsi/Documents/Uni Work","no","Andale Mono","no","18","no","white","no","yes","576","legacy","83","83","3","C:/Users/kamsi/Documents/Uni Work/subject-5207463.csv","legacy","Lentiform Loewenfeld","3.3.7","yes","yes","600bd7cfb6416f0113b04181","602110864497cf011d9c0822","0","j","NA","space","space","space","space","j","563","NA","1633","9124","5405","7397","563","2","legacy","1024","2","48000","-16","task","5207463","odd","NA","23481","27116","25482","197553","1725","16258","10851","198053","125810","197552","198054","197509","27116","198619","21833","197009","1721","148028","Lexical Decision Task","77","68522","88","yes","1024"
"3.705778213","0","6","stin","non-word","87.64044943820225","87.64044943820225","777.3258426966293","777.3258426966293","black","no","legacy","legacy","legacy","0","uniform","1","undefined","undefined","undefined","1","f","0","0","0","0","88","0","0","0","88","0","84","88","84","0","84","3","88","0","88","Thu Feb 18 19:13:52 2021","The main experiment item","yes","Lexical_Decision_Task.osexp","C:/Users/kamsi/Documents/Uni Work","no","Andale Mono","no","18","no","white","no","yes","576","legacy","84","84","3","C:/Users/kamsi/Documents/Uni Work/subject-5207463.csv","legacy","Lentiform Loewenfeld","3.3.7","yes","yes","600bd7cfb6416f0113b04181","602110864497cf011d9c0822","0","f","NA","space","space","space","space","f","660","NA","1633","9124","5405","7397","660","2","legacy","1024","2","48000","-16","task","5207463","odd","NA","23481","27116","25482","199166","1725","16258","10851","199666","125810","199165","199667","199121","27116","200328","21833","198621","1721","148028","Lexical Decision Task","78","69182","89","yes","1024"
"3.529815197","0","3","lerm","non-word","87.77777777777777","87.77777777777777","775.8","775.8","black","no","legacy","legacy","legacy","0","uniform","1","undefined","undefined","undefined","1","f","0","0","0","0","89","0","0","0","89","0","85","89","85","0","85","3","89","0","89","Thu Feb 18 19:13:52 2021","The main experiment item","yes","Lexical_Decision_Task.osexp","C:/Users/kamsi/Documents/Uni Work","no","Andale Mono","no","18","no","white","no","yes","576","legacy","85","85","3","C:/Users/kamsi/Documents/Uni Work/subject-5207463.csv","legacy","Lentiform Loewenfeld","3.3.7","yes","yes","600bd7cfb6416f0113b04181","602110864497cf011d9c0822","0","f","NA","space","space","space","space","f","640","NA","1633","9124","5405","7397","640","2","legacy","1024","2","48000","-16","task","5207463","odd","NA","23481","27116","25482","200874","1725","16258","10851","201375","125810","200873","201375","200830","27116","202016","21833","200330","1721","148028","Lexical Decision Task","79","69822","90","yes","1024"
"2.907588697","8.91","9","mood","word","87.91208791208791","87.91208791208791","773.8901098901099","773.8901098901099","black","no","legacy","legacy","legacy","0","uniform","1","undefined","undefined","undefined","1","j","0","0","0","0","90","0","0","0","90","0","86","90","86","0","86","3","90","0","90","Thu Feb 18 19:13:52 2021","The main experiment item","yes","Lexical_Decision_Task.osexp","C:/Users/kamsi/Documents/Uni Work","no","Andale Mono","no","18","no","white","no","yes","576","legacy","86","86","3","C:/Users/kamsi/Documents/Uni Work/subject-5207463.csv","legacy","Lentiform Loewenfeld","3.3.7","yes","yes","600bd7cfb6416f0113b04181","602110864497cf011d9c0822","0","j","NA","space","space","space","space","j","602","NA","1633","9124","5405","7397","602","2","legacy","1024","2","48000","-16","task","5207463","odd","NA","23481","27116","25482","202562","1725","16258","10851","203062","125810","202561","203063","202518","27116","203666","21833","202018","1721","148028","Lexical Decision Task","80","70424","91","yes","1024"
"3.102203805","7.21","3","drip","word","88.04347826086956","88.04347826086956","771.2391304347826","771.2391304347826","black","no","legacy","legacy","legacy","0","uniform","1","undefined","undefined","undefined","1","j","0","0","0","0","91","0","0","0","91","0","87","91","87","0","87","3","91","0","91","Thu Feb 18 19:13:52 2021","The main experiment item","yes","Lexical_Decision_Task.osexp","C:/Users/kamsi/Documents/Uni Work","no","Andale Mono","no","18","no","white","no","yes","576","legacy","87","87","3","C:/Users/kamsi/Documents/Uni Work/subject-5207463.csv","legacy","Lentiform Loewenfeld","3.3.7","yes","yes","600bd7cfb6416f0113b04181","602110864497cf011d9c0822","0","j","NA","space","space","space","space","j","530","NA","1633","9124","5405","7397","530","2","legacy","1024","2","48000","-16","task","5207463","odd","NA","23481","27116","25482","204212","1725","16258","10851","204712","125810","204211","204713","204168","27116","205244","21833","203668","1721","148028","Lexical Decision Task","81","70954","92","yes","1024"
"3.195807436","0","6","stup","non-word","88.17204301075269","88.17204301075269","769.494623655914","769.494623655914","black","no","legacy","legacy","legacy","0","uniform","1","undefined","undefined","undefined","1","f","0","0","0","0","92","0","0","0","92","0","88","92","88","0","88","3","92","0","92","Thu Feb 18 19:13:52 2021","The main experiment item","yes","Lexical_Decision_Task.osexp","C:/Users/kamsi/Documents/Uni Work","no","Andale Mono","no","18","no","white","no","yes","576","legacy","88","88","3","C:/Users/kamsi/Documents/Uni Work/subject-5207463.csv","legacy","Lentiform Loewenfeld","3.3.7","yes","yes","600bd7cfb6416f0113b04181","602110864497cf011d9c0822","0","f","NA","space","space","space","space","f","609","NA","1633","9124","5405","7397","609","2","legacy","1024","2","48000","-16","task","5207463","odd","NA","23481","27116","25482","205790","1725","16258","10851","206290","125810","205789","206291","205746","27116","206902","21833","205246","1721","148028","Lexical Decision Task","82","71563","93","yes","1024"
"2.971428938","9.86","7","spot","word","88.29787234042553","88.29787234042553","768.3617021276596","768.3617021276596","black","no","legacy","legacy","legacy","0","uniform","1","undefined","undefined","undefined","1","j","0","0","0","0","93","0","0","0","93","0","89","93","89","0","89","3","93","0","93","Thu Feb 18 19:13:52 2021","The main experiment item","yes","Lexical_Decision_Task.osexp","C:/Users/kamsi/Documents/Uni Work","no","Andale Mono","no","18","no","white","no","yes","576","legacy","89","89","3","C:/Users/kamsi/Documents/Uni Work/subject-5207463.csv","legacy","Lentiform Loewenfeld","3.3.7","yes","yes","600bd7cfb6416f0113b04181","602110864497cf011d9c0822","0","j","NA","space","space","space","space","j","663","NA","1633","9124","5405","7397","663","2","legacy","1024","2","48000","-16","task","5207463","odd","NA","23481","27116","25482","207448","1725","16258","10851","207948","125810","207447","207949","207404","27116","208613","21833","206904","1721","148028","Lexical Decision Task","83","72226","94","yes","1024"
"3.082307743","9.68","8","camp","word","88.42105263157895","88.42105263157895","767.4","767.4","black","no","legacy","legacy","legacy","0","uniform","1","undefined","undefined","undefined","1","j","0","0","0","0","94","0","0","0","94","0","90","94","90","0","90","3","94","0","94","Thu Feb 18 19:13:52 2021","The main experiment item","yes","Lexical_Decision_Task.osexp","C:/Users/kamsi/Documents/Uni Work","no","Andale Mono","no","18","no","white","no","yes","576","legacy","90","90","3","C:/Users/kamsi/Documents/Uni Work/subject-5207463.csv","legacy","Lentiform Loewenfeld","3.3.7","yes","yes","600bd7cfb6416f0113b04181","602110864497cf011d9c0822","0","j","NA","space","space","space","space","j","677","NA","1633","9124","5405","7397","677","2","legacy","1024","2","48000","-16","task","5207463","odd","NA","23481","27116","25482","209159","1725","16258","10851","209659","125810","209158","209659","209115","27116","210337","21833","208615","1721","148028","Lexical Decision Task","84","72903","95","yes","1024"
"3.168890155","0","6","thet","non-word","88.54166666666667","88.54166666666667","766.03125","766.03125","black","no","legacy","legacy","legacy","0","uniform","1","undefined","undefined","undefined","1","f","0","0","0","0","95","0","0","0","95","0","91","95","91","0","91","3","95","0","95","Thu Feb 18 19:13:52 2021","The main experiment item","yes","Lexical_Decision_Task.osexp","C:/Users/kamsi/Documents/Uni Work","no","Andale Mono","no","18","no","white","no","yes","576","legacy","91","91","3","C:/Users/kamsi/Documents/Uni Work/subject-5207463.csv","legacy","Lentiform Loewenfeld","3.3.7","yes","yes","600bd7cfb6416f0113b04181","602110864497cf011d9c0822","0","f","NA","space","space","space","space","f","636","NA","1633","9124","5405","7397","636","2","legacy","1024","2","48000","-16","task","5207463","odd","NA","23481","27116","25482","210882","1725","16258","10851","211382","125810","210881","211383","210838","27116","212020","21833","210338","1721","148028","Lexical Decision Task","85","73539","96","yes","1024"
"3.194328374","9.42","6","harm","word","88.65979381443299","88.65979381443299","764.319587628866","764.319587628866","black","no","legacy","legacy","legacy","0","uniform","1","undefined","undefined","undefined","1","j","0","0","0","0","96","0","0","0","96","0","92","96","92","0","92","3","96","0","96","Thu Feb 18 19:13:52 2021","The main experiment item","yes","Lexical_Decision_Task.osexp","C:/Users/kamsi/Documents/Uni Work","no","Andale Mono","no","18","no","white","no","yes","576","legacy","92","92","3","C:/Users/kamsi/Documents/Uni Work/subject-5207463.csv","legacy","Lentiform Loewenfeld","3.3.7","yes","yes","600bd7cfb6416f0113b04181","602110864497cf011d9c0822","0","j","NA","space","space","space","space","j","600","NA","1633","9124","5405","7397","600","2","legacy","1024","2","48000","-16","task","5207463","odd","NA","23481","27116","25482","212566","1725","16258","10851","213066","125810","212565","213067","212522","27116","213668","21833","212021","1721","148028","Lexical Decision Task","86","74139","97","yes","1024"
"3.091901331","0","9","nipe","non-word","88.77551020408163","88.77551020408163","762.4285714285714","762.4285714285714","black","no","legacy","legacy","legacy","0","uniform","1","undefined","undefined","undefined","1","f","0","0","0","0","97","0","0","0","97","0","93","97","93","0","93","3","97","0","97","Thu Feb 18 19:13:52 2021","The main experiment item","yes","Lexical_Decision_Task.osexp","C:/Users/kamsi/Documents/Uni Work","no","Andale Mono","no","18","no","white","no","yes","576","legacy","93","93","3","C:/Users/kamsi/Documents/Uni Work/subject-5207463.csv","legacy","Lentiform Loewenfeld","3.3.7","yes","yes","600bd7cfb6416f0113b04181","602110864497cf011d9c0822","0","f","NA","space","space","space","space","f","579","NA","1633","9124","5405","7397","579","2","legacy","1024","2","48000","-16","task","5207463","odd","NA","23481","27116","25482","214215","1725","16258","10851","214715","125810","214214","214715","214171","27116","215295","21833","213671","1721","148028","Lexical Decision Task","87","74718","98","yes","1024"
"3.066077331","0","7","vorn","non-word","88.88888888888889","88.88888888888889","761.1515151515151","761.1515151515151","black","no","legacy","legacy","legacy","0","uniform","1","undefined","undefined","undefined","1","f","0","0","0","0","98","0","0","0","98","0","94","98","94","0","94","3","98","0","98","Thu Feb 18 19:13:52 2021","The main experiment item","yes","Lexical_Decision_Task.osexp","C:/Users/kamsi/Documents/Uni Work","no","Andale Mono","no","18","no","white","no","yes","576","legacy","94","94","3","C:/Users/kamsi/Documents/Uni Work/subject-5207463.csv","legacy","Lentiform Loewenfeld","3.3.7","yes","yes","600bd7cfb6416f0113b04181","602110864497cf011d9c0822","0","f","NA","space","space","space","space","f","636","NA","1633","9124","5405","7397","636","2","legacy","1024","2","48000","-16","task","5207463","odd","NA","23481","27116","25482","215841","1725","16258","10851","216341","125810","215840","216342","215797","27116","216979","21833","215297","1721","148028","Lexical Decision Task","88","75354","99","yes","1024"
