"Log_BG","Log_Freq_HAL","Ortho_N","Stimulus","Type","acc","accuracy","average_response_time","avg_rt","background","bidi","canvas_backend","clock_backend","color_backend","compensation","coordinates","correct","correct_Experimental_intro","correct_Introduction","correct_Practice_intro","correct_experimenter_kb","correct_response","count_End_Of_Experiment","count_End_Of_Practice","count_Experimental_Loop","count_Experimental_intro","count_Fixation","count_Introduction","count_Practice_Loop","count_Practice_intro","count_Stimulus","count_block_break_feedback","count_experimental_sequence","count_experimenter_kb","count_increment_trial_count","count_init_trial_count","count_logger","count_practice_sequence","count_right","count_task","count_wrong","datetime","description","disable_garbage_collection","experiment_file","experiment_path","font_bold","font_family","font_italic","font_size","font_underline","foreground","form_clicks","fullscreen","height","keyboard_backend","live_row","live_row_Experimental_Loop","live_row_Practice_Loop","logfile","mouse_backend","opensesame_codename","opensesame_version","osf_always_upload_data","osf_always_upload_experiment","osf_datanode_id","osf_id","repeat_cycle","response","response_End_Of_Experiment","response_Experimental_intro","response_Introduction","response_Practice_intro","response_block_break_feedback","response_experimenter_kb","response_time","response_time_End_Of_Experiment","response_time_Experimental_intro","response_time_Introduction","response_time_Practice_intro","response_time_block_break_feedback","response_time_experimenter_kb","round_decimals","sampler_backend","sound_buf_size","sound_channels","sound_freq","sound_sample_size","start","subject_nr","subject_parity","time_End_Of_Experiment","time_End_Of_Practice","time_Experimental_Loop","time_Experimental_intro","time_Fixation","time_Introduction","time_Practice_Loop","time_Practice_intro","time_Stimulus","time_block_break_feedback","time_experimental_sequence","time_experimenter_kb","time_increment_trial_count","time_init_trial_count","time_logger","time_practice_sequence","time_right","time_task","time_wrong","title","total_correct","total_response_time","total_responses","uniform_coordinates","width"
"2.68604012","0","3","mulb","non-word","100","100","827.8","827.8","black","no","legacy","legacy","legacy","0","uniform","1","undefined","undefined","undefined","1","f","0","0","0","0","4","0","0","0","4","NA","0","4","0","0","0","3","4","0","4","Tue Feb 16 13:44:17 2021","The main experiment item","yes","Lexical_Decision_Task.osexp","C:/Users/charl","no","Andale Mono","no","18","no","white","no","yes","576","legacy","0","0","3","C:/Users/charl/subject-5208654.csv","legacy","Lentiform Loewenfeld","3.3.7","yes","yes","600bd7cfb6416f0113b04181","602110864497cf011d9c0822","0","f","NA","space","space","space","NA","f","778","NA","3170","12382","125441","NA","778","2","legacy","1024","2","48000","-16","task","5208654","even","NA","149418","154594","151422","154667","3371","141200","15758","155170","NA","154665","155171","NA","154594","155950","147580","148867","3351","NA","Lexical Decision Task","5","4139","5","yes","1024"
"3.168400243","9.12","6","horn","word","100","100","784.6666666666666","784.6666666666666","black","no","legacy","legacy","legacy","0","uniform","1","undefined","undefined","undefined","1","j","0","0","0","0","5","0","0","0","5","NA","1","5","1","0","1","3","5","0","5","Tue Feb 16 13:44:17 2021","The main experiment item","yes","Lexical_Decision_Task.osexp","C:/Users/charl","no","Andale Mono","no","18","no","white","no","yes","576","legacy","1","1","3","C:/Users/charl/subject-5208654.csv","legacy","Lentiform Loewenfeld","3.3.7","yes","yes","600bd7cfb6416f0113b04181","602110864497cf011d9c0822","0","j","NA","space","space","space","NA","j","569","NA","3170","12382","125441","NA","569","2","legacy","1024","2","48000","-16","task","5208654","even","NA","149418","154594","151422","156639","3371","141200","15758","157142","NA","156636","157143","156467","154594","157715","147580","155967","3351","NA","Lexical Decision Task","6","4708","6","yes","1024"
"3.218535505","7.85","7","goat","word","100","100","759.4285714285714","759.4285714285714","black","no","legacy","legacy","legacy","0","uniform","1","undefined","undefined","undefined","1","j","0","0","0","0","6","0","0","0","6","NA","2","6","2","0","2","3","6","0","6","Tue Feb 16 13:44:17 2021","The main experiment item","yes","Lexical_Decision_Task.osexp","C:/Users/charl","no","Andale Mono","no","18","no","white","no","yes","576","legacy","2","2","3","C:/Users/charl/subject-5208654.csv","legacy","Lentiform Loewenfeld","3.3.7","yes","yes","600bd7cfb6416f0113b04181","602110864497cf011d9c0822","0","j","NA","space","space","space","NA","j","608","NA","3170","12382","125441","NA","608","2","legacy","1024","2","48000","-16","task","5208654","even","NA","149418","154594","151422","158375","3371","141200","15758","158879","NA","158373","158879","158230","154594","159489","147580","157730","3351","NA","Lexical Decision Task","7","5316","7","yes","1024"
"2.983324025","9.56","2","debt","word","100","100","759.625","759.625","black","no","legacy","legacy","legacy","0","uniform","1","undefined","undefined","undefined","1","j","0","0","0","0","7","0","0","0","7","NA","3","7","3","0","3","3","7","0","7","Tue Feb 16 13:44:17 2021","The main experiment item","yes","Lexical_Decision_Task.osexp","C:/Users/charl","no","Andale Mono","no","18","no","white","no","yes","576","legacy","3","3","3","C:/Users/charl/subject-5208654.csv","legacy","Lentiform Loewenfeld","3.3.7","yes","yes","600bd7cfb6416f0113b04181","602110864497cf011d9c0822","0","j","NA","space","space","space","NA","j","761","NA","3170","12382","125441","NA","761","2","legacy","1024","2","48000","-16","task","5208654","even","NA","149418","154594","151422","160150","3371","141200","15758","160654","NA","160147","160654","160005","154594","161416","147580","159505","3351","NA","Lexical Decision Task","8","6077","8","yes","1024"
"2.845304797","0","6","buct","non-word","100","100","740.5555555555555","740.5555555555555","black","no","legacy","legacy","legacy","0","uniform","1","undefined","undefined","undefined","1","f","0","0","0","0","8","0","0","0","8","NA","4","8","4","0","4","3","8","0","8","Tue Feb 16 13:44:17 2021","The main experiment item","yes","Lexical_Decision_Task.osexp","C:/Users/charl","no","Andale Mono","no","18","no","white","no","yes","576","legacy","4","4","3","C:/Users/charl/subject-5208654.csv","legacy","Lentiform Loewenfeld","3.3.7","yes","yes","600bd7cfb6416f0113b04181","602110864497cf011d9c0822","0","f","NA","space","space","space","NA","f","588","NA","3170","12382","125441","NA","588","2","legacy","1024","2","48000","-16","task","5208654","even","NA","149418","154594","151422","162070","3371","141200","15758","162574","NA","162068","162574","161928","154594","163164","147580","161428","3351","NA","Lexical Decision Task","9","6665","9","yes","1024"
"3.165936429","0","7","leps","non-word","100","100","742.7","742.7","black","no","legacy","legacy","legacy","0","uniform","1","undefined","undefined","undefined","1","f","0","0","0","0","9","0","0","0","9","NA","5","9","5","0","5","3","9","0","9","Tue Feb 16 13:44:17 2021","The main experiment item","yes","Lexical_Decision_Task.osexp","C:/Users/charl","no","Andale Mono","no","18","no","white","no","yes","576","legacy","5","5","3","C:/Users/charl/subject-5208654.csv","legacy","Lentiform Loewenfeld","3.3.7","yes","yes","600bd7cfb6416f0113b04181","602110864497cf011d9c0822","0","f","NA","space","space","space","NA","f","762","NA","3170","12382","125441","NA","762","2","legacy","1024","2","48000","-16","task","5208654","even","NA","149418","154594","151422","163844","3371","141200","15758","164347","NA","163842","164347","163677","154594","165111","147580","163177","3351","NA","Lexical Decision Task","10","7427","10","yes","1024"
"2.746890964","9.67","3","plug","word","100","100","731.5454545454545","731.5454545454545","black","no","legacy","legacy","legacy","0","uniform","1","undefined","undefined","undefined","1","j","0","0","0","0","10","0","0","0","10","NA","6","10","6","0","6","3","10","0","10","Tue Feb 16 13:44:17 2021","The main experiment item","yes","Lexical_Decision_Task.osexp","C:/Users/charl","no","Andale Mono","no","18","no","white","no","yes","576","legacy","6","6","3","C:/Users/charl/subject-5208654.csv","legacy","Lentiform Loewenfeld","3.3.7","yes","yes","600bd7cfb6416f0113b04181","602110864497cf011d9c0822","0","j","NA","space","space","space","NA","j","620","NA","3170","12382","125441","NA","620","2","legacy","1024","2","48000","-16","task","5208654","even","NA","149418","154594","151422","165748","3371","141200","15758","166252","NA","165746","166252","165619","154594","166875","147580","165119","3351","NA","Lexical Decision Task","11","8047","11","yes","1024"
"2.899638141","0","3","hapt","non-word","100","100","739.6666666666666","739.6666666666666","black","no","legacy","legacy","legacy","0","uniform","1","undefined","undefined","undefined","1","f","0","0","0","0","11","0","0","0","11","NA","7","11","7","0","7","3","11","0","11","Tue Feb 16 13:44:17 2021","The main experiment item","yes","Lexical_Decision_Task.osexp","C:/Users/charl","no","Andale Mono","no","18","no","white","no","yes","576","legacy","7","7","3","C:/Users/charl/subject-5208654.csv","legacy","Lentiform Loewenfeld","3.3.7","yes","yes","600bd7cfb6416f0113b04181","602110864497cf011d9c0822","0","f","NA","space","space","space","NA","f","829","NA","3170","12382","125441","NA","829","2","legacy","1024","2","48000","-16","task","5208654","even","NA","149418","154594","151422","167517","3371","141200","15758","168021","NA","167515","168021","167389","154594","168853","147580","166889","3351","NA","Lexical Decision Task","12","8876","12","yes","1024"
"3.248054965","7.86","5","glow","word","100","100","728.6923076923077","728.6923076923077","black","no","legacy","legacy","legacy","0","uniform","1","undefined","undefined","undefined","1","j","0","0","0","0","12","0","0","0","12","NA","8","12","8","0","8","3","12","0","12","Tue Feb 16 13:44:17 2021","The main experiment item","yes","Lexical_Decision_Task.osexp","C:/Users/charl","no","Andale Mono","no","18","no","white","no","yes","576","legacy","8","8","3","C:/Users/charl/subject-5208654.csv","legacy","Lentiform Loewenfeld","3.3.7","yes","yes","600bd7cfb6416f0113b04181","602110864497cf011d9c0822","0","j","NA","space","space","space","NA","j","597","NA","3170","12382","125441","NA","597","2","legacy","1024","2","48000","-16","task","5208654","even","NA","149418","154594","151422","169501","3371","141200","15758","170006","NA","169499","170006","169370","154594","170606","147580","168867","3351","NA","Lexical Decision Task","13","9473","13","yes","1024"
"3.120135028","0","3","vals","non-word","100","100","727.6428571428571","727.6428571428571","black","no","legacy","legacy","legacy","0","uniform","1","undefined","undefined","undefined","1","f","0","0","0","0","13","0","0","0","13","NA","9","13","9","0","9","3","13","0","13","Tue Feb 16 13:44:17 2021","The main experiment item","yes","Lexical_Decision_Task.osexp","C:/Users/charl","no","Andale Mono","no","18","no","white","no","yes","576","legacy","9","9","3","C:/Users/charl/subject-5208654.csv","legacy","Lentiform Loewenfeld","3.3.7","yes","yes","600bd7cfb6416f0113b04181","602110864497cf011d9c0822","0","f","NA","space","space","space","NA","f","714","NA","3170","12382","125441","NA","714","2","legacy","1024","2","48000","-16","task","5208654","even","NA","149418","154594","151422","171253","3371","141200","15758","171757","NA","171251","171758","171121","154594","172475","147580","170621","3351","NA","Lexical Decision Task","14","10187","14","yes","1024"
"2.966923697","5.4","2","fume","word","100","100","721.2666666666667","721.2666666666667","black","no","legacy","legacy","legacy","0","uniform","1","undefined","undefined","undefined","1","j","0","0","0","0","14","0","0","0","14","NA","10","14","10","0","10","3","14","0","14","Tue Feb 16 13:44:17 2021","The main experiment item","yes","Lexical_Decision_Task.osexp","C:/Users/charl","no","Andale Mono","no","18","no","white","no","yes","576","legacy","10","10","3","C:/Users/charl/subject-5208654.csv","legacy","Lentiform Loewenfeld","3.3.7","yes","yes","600bd7cfb6416f0113b04181","602110864497cf011d9c0822","0","j","NA","space","space","space","NA","j","632","NA","3170","12382","125441","NA","632","2","legacy","1024","2","48000","-16","task","5208654","even","NA","149418","154594","151422","173122","3371","141200","15758","173627","NA","173119","173627","172989","154594","174261","147580","172489","3351","NA","Lexical Decision Task","15","10819","15","yes","1024"
"2.843025032","0","9","pusk","non-word","100","100","721.4375","721.4375","black","no","legacy","legacy","legacy","0","uniform","1","undefined","undefined","undefined","1","f","0","0","0","0","15","0","0","0","15","NA","11","15","11","0","11","3","15","0","15","Tue Feb 16 13:44:17 2021","The main experiment item","yes","Lexical_Decision_Task.osexp","C:/Users/charl","no","Andale Mono","no","18","no","white","no","yes","576","legacy","11","11","3","C:/Users/charl/subject-5208654.csv","legacy","Lentiform Loewenfeld","3.3.7","yes","yes","600bd7cfb6416f0113b04181","602110864497cf011d9c0822","0","f","NA","space","space","space","NA","f","724","NA","3170","12382","125441","NA","724","2","legacy","1024","2","48000","-16","task","5208654","even","NA","149418","154594","151422","174898","3371","141200","15758","175401","NA","174896","175401","174770","154594","176128","147580","174270","3351","NA","Lexical Decision Task","16","11543","16","yes","1024"
"3.120025233","0","2","nyst","non-word","100","100","721.4705882352941","721.4705882352941","black","no","legacy","legacy","legacy","0","uniform","1","undefined","undefined","undefined","1","f","0","0","0","0","16","0","0","0","16","NA","12","16","12","0","12","3","16","0","16","Tue Feb 16 13:44:17 2021","The main experiment item","yes","Lexical_Decision_Task.osexp","C:/Users/charl","no","Andale Mono","no","18","no","white","no","yes","576","legacy","12","12","3","C:/Users/charl/subject-5208654.csv","legacy","Lentiform Loewenfeld","3.3.7","yes","yes","600bd7cfb6416f0113b04181","602110864497cf011d9c0822","0","f","NA","space","space","space","NA","f","722","NA","3170","12382","125441","NA","722","2","legacy","1024","2","48000","-16","task","5208654","even","NA","149418","154594","151422","176798","3371","141200","15758","177302","NA","176794","177302","176643","154594","178028","147580","176143","3351","NA","Lexical Decision Task","17","12265","17","yes","1024"
"3.031408464","0","7","drow","non-word","100","100","741.8333333333334","741.8333333333334","black","no","legacy","legacy","legacy","0","uniform","1","undefined","undefined","undefined","1","f","0","0","0","0","17","0","0","0","17","NA","13","17","13","0","13","3","17","0","17","Tue Feb 16 13:44:17 2021","The main experiment item","yes","Lexical_Decision_Task.osexp","C:/Users/charl","no","Andale Mono","no","18","no","white","no","yes","576","legacy","13","13","3","C:/Users/charl/subject-5208654.csv","legacy","Lentiform Loewenfeld","3.3.7","yes","yes","600bd7cfb6416f0113b04181","602110864497cf011d9c0822","0","f","NA","space","space","space","NA","f","1088","NA","3170","12382","125441","NA","1088","2","legacy","1024","2","48000","-16","task","5208654","even","NA","149418","154594","151422","178668","3371","141200","15758","179172","NA","178666","179172","178542","154594","180262","147580","178042","3351","NA","Lexical Decision Task","18","13353","18","yes","1024"
"2.693726949","5.08","3","swig","word","94.73684210526316","94.73684210526316","745.2105263157895","745.2105263157895","black","no","legacy","legacy","legacy","0","uniform","0","undefined","undefined","undefined","0","j","0","0","0","0","18","0","0","0","18","NA","14","18","14","0","14","3","18","0","18","Tue Feb 16 13:44:17 2021","The main experiment item","yes","Lexical_Decision_Task.osexp","C:/Users/charl","no","Andale Mono","no","18","no","white","no","yes","576","legacy","14","14","3","C:/Users/charl/subject-5208654.csv","legacy","Lentiform Loewenfeld","3.3.7","yes","yes","600bd7cfb6416f0113b04181","602110864497cf011d9c0822","0","f","NA","space","space","space","NA","f","806","NA","3170","12382","125441","NA","806","2","legacy","1024","2","48000","-16","task","5208654","even","NA","149418","154594","151422","180917","3371","141200","15758","181420","NA","180916","181420","180778","154594","182229","147580","180278","3351","NA","Lexical Decision Task","18","14159","19","yes","1024"
"3.15462682","0","6","noal","non-word","95","95","775.35","775.35","black","no","legacy","legacy","legacy","0","uniform","1","undefined","undefined","undefined","1","f","0","0","0","0","19","0","0","0","19","NA","15","19","15","0","15","3","19","0","19","Tue Feb 16 13:44:17 2021","The main experiment item","yes","Lexical_Decision_Task.osexp","C:/Users/charl","no","Andale Mono","no","18","no","white","no","yes","576","legacy","15","15","3","C:/Users/charl/subject-5208654.csv","legacy","Lentiform Loewenfeld","3.3.7","yes","yes","600bd7cfb6416f0113b04181","602110864497cf011d9c0822","0","f","NA","space","space","space","NA","f","1348","NA","3170","12382","125441","NA","1348","2","legacy","1024","2","48000","-16","task","5208654","even","NA","149418","154594","151422","183867","3371","141200","15758","184371","NA","183865","184371","183741","154594","185721","147580","180278","3351","182241","Lexical Decision Task","19","15507","20","yes","1024"
"3.397302518","7.01","2","knit","word","95.23809523809524","95.23809523809524","769.2857142857143","769.2857142857143","black","no","legacy","legacy","legacy","0","uniform","1","undefined","undefined","undefined","1","j","0","0","0","0","20","0","0","0","20","NA","16","20","16","0","16","3","20","0","20","Tue Feb 16 13:44:17 2021","The main experiment item","yes","Lexical_Decision_Task.osexp","C:/Users/charl","no","Andale Mono","no","18","no","white","no","yes","576","legacy","16","16","3","C:/Users/charl/subject-5208654.csv","legacy","Lentiform Loewenfeld","3.3.7","yes","yes","600bd7cfb6416f0113b04181","602110864497cf011d9c0822","0","j","NA","space","space","space","NA","j","648","NA","3170","12382","125441","NA","648","2","legacy","1024","2","48000","-16","task","5208654","even","NA","149418","154594","151422","186370","3371","141200","15758","186873","NA","186368","186873","186236","154594","187525","147580","185736","3351","182241","Lexical Decision Task","20","16155","21","yes","1024"
"3.067193647","6.73","6","raft","word","95.45454545454545","95.45454545454545","767.7272727272727","767.7272727272727","black","no","legacy","legacy","legacy","0","uniform","1","undefined","undefined","undefined","1","j","0","0","0","0","21","0","0","0","21","NA","17","21","17","0","17","3","21","0","21","Tue Feb 16 13:44:17 2021","The main experiment item","yes","Lexical_Decision_Task.osexp","C:/Users/charl","no","Andale Mono","no","18","no","white","no","yes","576","legacy","17","17","3","C:/Users/charl/subject-5208654.csv","legacy","Lentiform Loewenfeld","3.3.7","yes","yes","600bd7cfb6416f0113b04181","602110864497cf011d9c0822","0","j","NA","space","space","space","NA","j","735","NA","3170","12382","125441","NA","735","2","legacy","1024","2","48000","-16","task","5208654","even","NA","149418","154594","151422","188166","3371","141200","15758","188670","NA","188163","188670","188039","154594","189409","147580","187539","3351","182241","Lexical Decision Task","21","16890","22","yes","1024"
"2.814027728","8.2","4","foam","word","95.65217391304348","95.65217391304348","763.5652173913044","763.5652173913044","black","no","legacy","legacy","legacy","0","uniform","1","undefined","undefined","undefined","1","j","0","0","0","0","22","0","0","0","22","NA","18","22","18","0","18","3","22","0","22","Tue Feb 16 13:44:17 2021","The main experiment item","yes","Lexical_Decision_Task.osexp","C:/Users/charl","no","Andale Mono","no","18","no","white","no","yes","576","legacy","18","18","3","C:/Users/charl/subject-5208654.csv","legacy","Lentiform Loewenfeld","3.3.7","yes","yes","600bd7cfb6416f0113b04181","602110864497cf011d9c0822","0","j","NA","space","space","space","NA","j","672","NA","3170","12382","125441","NA","672","2","legacy","1024","2","48000","-16","task","5208654","even","NA","149418","154594","151422","190056","3371","141200","15758","190560","NA","190055","190560","189923","154594","191236","147580","189423","3351","182241","Lexical Decision Task","22","17562","23","yes","1024"
"3.043885998","0","9","gome","non-word","91.66666666666667","91.66666666666667","765.5833333333334","765.5833333333334","black","no","legacy","legacy","legacy","0","uniform","0","undefined","undefined","undefined","0","f","0","0","0","0","23","0","0","0","23","NA","19","23","19","0","19","3","23","0","23","Tue Feb 16 13:44:17 2021","The main experiment item","yes","Lexical_Decision_Task.osexp","C:/Users/charl","no","Andale Mono","no","18","no","white","no","yes","576","legacy","19","19","3","C:/Users/charl/subject-5208654.csv","legacy","Lentiform Loewenfeld","3.3.7","yes","yes","600bd7cfb6416f0113b04181","602110864497cf011d9c0822","0","j","NA","space","space","space","NA","j","812","NA","3170","12382","125441","NA","812","2","legacy","1024","2","48000","-16","task","5208654","even","NA","149418","154594","151422","191881","3371","141200","15758","192384","NA","191879","192385","191749","154594","193199","147580","191249","3351","182241","Lexical Decision Task","22","18374","24","yes","1024"
"3.20871002","7.15","8","cram","word","92","92","765","765","black","no","legacy","legacy","legacy","0","uniform","1","undefined","undefined","undefined","1","j","0","0","0","0","24","0","0","0","24","NA","20","24","20","0","20","3","24","0","24","Tue Feb 16 13:44:17 2021","The main experiment item","yes","Lexical_Decision_Task.osexp","C:/Users/charl","no","Andale Mono","no","18","no","white","no","yes","576","legacy","20","20","3","C:/Users/charl/subject-5208654.csv","legacy","Lentiform Loewenfeld","3.3.7","yes","yes","600bd7cfb6416f0113b04181","602110864497cf011d9c0822","0","j","NA","space","space","space","NA","j","751","NA","3170","12382","125441","NA","751","2","legacy","1024","2","48000","-16","task","5208654","even","NA","149418","154594","151422","194860","3371","141200","15758","195364","NA","194858","195364","194715","154594","196117","147580","191249","3351","193214","Lexical Decision Task","23","19125","25","yes","1024"
"3.299579929","0","2","flis","non-word","92.3076923076923","92.3076923076923","755.8846153846154","755.8846153846154","black","no","legacy","legacy","legacy","0","uniform","1","undefined","undefined","undefined","1","f","0","0","0","0","25","0","0","0","25","NA","21","25","21","0","21","3","25","0","25","Tue Feb 16 13:44:17 2021","The main experiment item","yes","Lexical_Decision_Task.osexp","C:/Users/charl","no","Andale Mono","no","18","no","white","no","yes","576","legacy","21","21","3","C:/Users/charl/subject-5208654.csv","legacy","Lentiform Loewenfeld","3.3.7","yes","yes","600bd7cfb6416f0113b04181","602110864497cf011d9c0822","0","f","NA","space","space","space","NA","f","528","NA","3170","12382","125441","NA","528","2","legacy","1024","2","48000","-16","task","5208654","even","NA","149418","154594","151422","196785","3371","141200","15758","197289","NA","196782","197289","196632","154594","197819","147580","196132","3351","193214","Lexical Decision Task","24","19653","26","yes","1024"
"2.696644658","5.78","2","yolk","word","92.5925925925926","92.5925925925926","747.5555555555555","747.5555555555555","black","no","legacy","legacy","legacy","0","uniform","1","undefined","undefined","undefined","1","j","0","0","0","0","26","0","0","0","26","NA","22","26","22","0","22","3","26","0","26","Tue Feb 16 13:44:17 2021","The main experiment item","yes","Lexical_Decision_Task.osexp","C:/Users/charl","no","Andale Mono","no","18","no","white","no","yes","576","legacy","22","22","3","C:/Users/charl/subject-5208654.csv","legacy","Lentiform Loewenfeld","3.3.7","yes","yes","600bd7cfb6416f0113b04181","602110864497cf011d9c0822","0","j","NA","space","space","space","NA","j","531","NA","3170","12382","125441","NA","531","2","legacy","1024","2","48000","-16","task","5208654","even","NA","149418","154594","151422","198459","3371","141200","15758","198963","NA","198457","198963","198332","154594","199497","147580","197832","3351","193214","Lexical Decision Task","25","20184","27","yes","1024"
"2.924968096","0","4","phim","non-word","92.85714285714286","92.85714285714286","743.75","743.75","black","no","legacy","legacy","legacy","0","uniform","1","undefined","undefined","undefined","1","f","0","0","0","0","27","0","0","0","27","NA","23","27","23","0","23","3","27","0","27","Tue Feb 16 13:44:17 2021","The main experiment item","yes","Lexical_Decision_Task.osexp","C:/Users/charl","no","Andale Mono","no","18","no","white","no","yes","576","legacy","23","23","3","C:/Users/charl/subject-5208654.csv","legacy","Lentiform Loewenfeld","3.3.7","yes","yes","600bd7cfb6416f0113b04181","602110864497cf011d9c0822","0","f","NA","space","space","space","NA","f","641","NA","3170","12382","125441","NA","641","2","legacy","1024","2","48000","-16","task","5208654","even","NA","149418","154594","151422","200149","3371","141200","15758","200654","NA","200146","200654","200012","154594","201300","147580","199512","3351","193214","Lexical Decision Task","26","20825","28","yes","1024"
"2.858136002","0","4","phip","non-word","93.10344827586206","93.10344827586206","749.2068965517242","749.2068965517242","black","no","legacy","legacy","legacy","0","uniform","1","undefined","undefined","undefined","1","f","0","0","0","0","28","0","0","0","28","NA","24","28","24","0","24","3","28","0","28","Tue Feb 16 13:44:17 2021","The main experiment item","yes","Lexical_Decision_Task.osexp","C:/Users/charl","no","Andale Mono","no","18","no","white","no","yes","576","legacy","24","24","3","C:/Users/charl/subject-5208654.csv","legacy","Lentiform Loewenfeld","3.3.7","yes","yes","600bd7cfb6416f0113b04181","602110864497cf011d9c0822","0","f","NA","space","space","space","NA","f","902","NA","3170","12382","125441","NA","902","2","legacy","1024","2","48000","-16","task","5208654","even","NA","149418","154594","151422","201950","3371","141200","15758","202454","NA","201947","202455","201815","154594","203361","147580","201315","3351","193214","Lexical Decision Task","27","21727","29","yes","1024"
"2.668385917","5.48","4","twig","word","93.33333333333333","93.33333333333333","749.0666666666667","749.0666666666667","black","no","legacy","legacy","legacy","0","uniform","1","undefined","undefined","undefined","1","j","0","0","0","0","29","0","0","0","29","NA","25","29","25","0","25","3","29","0","29","Tue Feb 16 13:44:17 2021","The main experiment item","yes","Lexical_Decision_Task.osexp","C:/Users/charl","no","Andale Mono","no","18","no","white","no","yes","576","legacy","25","25","3","C:/Users/charl/subject-5208654.csv","legacy","Lentiform Loewenfeld","3.3.7","yes","yes","600bd7cfb6416f0113b04181","602110864497cf011d9c0822","0","j","NA","space","space","space","NA","j","745","NA","3170","12382","125441","NA","745","2","legacy","1024","2","48000","-16","task","5208654","even","NA","149418","154594","151422","204020","3371","141200","15758","204525","NA","204018","204525","203877","154594","205273","147580","203377","3351","193214","Lexical Decision Task","28","22472","30","yes","1024"
"3.082307743","9.68","8","camp","word","93.54838709677419","93.54838709677419","749.258064516129","749.258064516129","black","no","legacy","legacy","legacy","0","uniform","1","undefined","undefined","undefined","1","j","0","0","0","0","30","0","0","0","30","NA","26","30","26","0","26","3","30","0","30","Tue Feb 16 13:44:17 2021","The main experiment item","yes","Lexical_Decision_Task.osexp","C:/Users/charl","no","Andale Mono","no","18","no","white","no","yes","576","legacy","26","26","3","C:/Users/charl/subject-5208654.csv","legacy","Lentiform Loewenfeld","3.3.7","yes","yes","600bd7cfb6416f0113b04181","602110864497cf011d9c0822","0","j","NA","space","space","space","NA","j","755","NA","3170","12382","125441","NA","755","2","legacy","1024","2","48000","-16","task","5208654","even","NA","149418","154594","151422","205938","3371","141200","15758","206442","NA","205936","206442","205788","154594","207199","147580","205288","3351","193214","Lexical Decision Task","29","23227","31","yes","1024"
"2.868644438","10.52","4","town","word","93.75","93.75","744.53125","744.53125","black","no","legacy","legacy","legacy","0","uniform","1","undefined","undefined","undefined","1","j","0","0","0","0","31","0","0","0","31","NA","27","31","27","0","27","3","31","0","31","Tue Feb 16 13:44:17 2021","The main experiment item","yes","Lexical_Decision_Task.osexp","C:/Users/charl","no","Andale Mono","no","18","no","white","no","yes","576","legacy","27","27","3","C:/Users/charl/subject-5208654.csv","legacy","Lentiform Loewenfeld","3.3.7","yes","yes","600bd7cfb6416f0113b04181","602110864497cf011d9c0822","0","j","NA","space","space","space","NA","j","598","NA","3170","12382","125441","NA","598","2","legacy","1024","2","48000","-16","task","5208654","even","NA","149418","154594","151422","207848","3371","141200","15758","208353","NA","207846","208353","207713","154594","208953","147580","207213","3351","193214","Lexical Decision Task","30","23825","32","yes","1024"
"2.67699827","0","6","hulf","non-word","93.93939393939394","93.93939393939394","753.7272727272727","753.7272727272727","black","no","legacy","legacy","legacy","0","uniform","1","undefined","undefined","undefined","1","f","0","0","0","0","32","0","0","0","32","NA","28","32","28","0","28","3","32","0","32","Tue Feb 16 13:44:17 2021","The main experiment item","yes","Lexical_Decision_Task.osexp","C:/Users/charl","no","Andale Mono","no","18","no","white","no","yes","576","legacy","28","28","3","C:/Users/charl/subject-5208654.csv","legacy","Lentiform Loewenfeld","3.3.7","yes","yes","600bd7cfb6416f0113b04181","602110864497cf011d9c0822","0","f","NA","space","space","space","NA","f","1048","NA","3170","12382","125441","NA","1048","2","legacy","1024","2","48000","-16","task","5208654","even","NA","149418","154594","151422","209600","3371","141200","15758","210104","NA","209598","210104","209468","154594","211154","147580","208968","3351","193214","Lexical Decision Task","31","24873","33","yes","1024"
"2.695770526","7.34","6","pawn","word","94.11764705882354","94.11764705882354","747.2352941176471","747.2352941176471","black","no","legacy","legacy","legacy","0","uniform","1","undefined","undefined","undefined","1","j","0","0","0","0","33","0","0","0","33","NA","29","33","29","0","29","3","33","0","33","Tue Feb 16 13:44:17 2021","The main experiment item","yes","Lexical_Decision_Task.osexp","C:/Users/charl","no","Andale Mono","no","18","no","white","no","yes","576","legacy","29","29","3","C:/Users/charl/subject-5208654.csv","legacy","Lentiform Loewenfeld","3.3.7","yes","yes","600bd7cfb6416f0113b04181","602110864497cf011d9c0822","0","j","NA","space","space","space","NA","j","533","NA","3170","12382","125441","NA","533","2","legacy","1024","2","48000","-16","task","5208654","even","NA","149418","154594","151422","211794","3371","141200","15758","212299","NA","211792","212299","211662","154594","212834","147580","211162","3351","193214","Lexical Decision Task","32","25406","34","yes","1024"
"2.7084209","0","8","vump","non-word","94.28571428571429","94.28571428571429","744.1428571428571","744.1428571428571","black","no","legacy","legacy","legacy","0","uniform","1","undefined","undefined","undefined","1","f","0","0","0","0","34","0","0","0","34","NA","30","34","30","0","30","3","34","0","34","Tue Feb 16 13:44:17 2021","The main experiment item","yes","Lexical_Decision_Task.osexp","C:/Users/charl","no","Andale Mono","no","18","no","white","no","yes","576","legacy","30","30","3","C:/Users/charl/subject-5208654.csv","legacy","Lentiform Loewenfeld","3.3.7","yes","yes","600bd7cfb6416f0113b04181","602110864497cf011d9c0822","0","f","NA","space","space","space","NA","f","639","NA","3170","12382","125441","NA","639","2","legacy","1024","2","48000","-16","task","5208654","even","NA","149418","154594","151422","213473","3371","141200","15758","213978","NA","213472","213978","213349","154594","214621","147580","212849","3351","193214","Lexical Decision Task","33","26045","35","yes","1024"
"2.980306438","0","7","slun","non-word","94.44444444444444","94.44444444444444","741.25","741.25","black","no","legacy","legacy","legacy","0","uniform","1","undefined","undefined","undefined","1","f","0","0","0","0","35","0","0","0","35","NA","31","35","31","0","31","3","35","0","35","Tue Feb 16 13:44:17 2021","The main experiment item","yes","Lexical_Decision_Task.osexp","C:/Users/charl","no","Andale Mono","no","18","no","white","no","yes","576","legacy","31","31","3","C:/Users/charl/subject-5208654.csv","legacy","Lentiform Loewenfeld","3.3.7","yes","yes","600bd7cfb6416f0113b04181","602110864497cf011d9c0822","0","f","NA","space","space","space","NA","f","640","NA","3170","12382","125441","NA","640","2","legacy","1024","2","48000","-16","task","5208654","even","NA","149418","154594","151422","215267","3371","141200","15758","215771","NA","215265","215771","215135","154594","216415","147580","214635","3351","193214","Lexical Decision Task","34","26685","36","yes","1024"
"2.937852093","0","7","bamp","non-word","94.5945945945946","94.5945945945946","744.7027027027027","744.7027027027027","black","no","legacy","legacy","legacy","0","uniform","1","undefined","undefined","undefined","1","f","0","0","0","0","36","0","0","0","36","NA","32","36","32","0","32","3","36","0","36","Tue Feb 16 13:44:17 2021","The main experiment item","yes","Lexical_Decision_Task.osexp","C:/Users/charl","no","Andale Mono","no","18","no","white","no","yes","576","legacy","32","32","3","C:/Users/charl/subject-5208654.csv","legacy","Lentiform Loewenfeld","3.3.7","yes","yes","600bd7cfb6416f0113b04181","602110864497cf011d9c0822","0","f","NA","space","space","space","NA","f","869","NA","3170","12382","125441","NA","869","2","legacy","1024","2","48000","-16","task","5208654","even","NA","149418","154594","151422","217067","3371","141200","15758","217571","NA","217065","217571","216930","154594","218444","147580","216430","3351","193214","Lexical Decision Task","35","27554","37","yes","1024"
"3.225825991","0","7","talm","non-word","94.73684210526316","94.73684210526316","748.2105263157895","748.2105263157895","black","no","legacy","legacy","legacy","0","uniform","1","undefined","undefined","undefined","1","f","0","0","0","0","37","0","0","0","37","NA","33","37","33","0","33","3","37","0","37","Tue Feb 16 13:44:17 2021","The main experiment item","yes","Lexical_Decision_Task.osexp","C:/Users/charl","no","Andale Mono","no","18","no","white","no","yes","576","legacy","33","33","3","C:/Users/charl/subject-5208654.csv","legacy","Lentiform Loewenfeld","3.3.7","yes","yes","600bd7cfb6416f0113b04181","602110864497cf011d9c0822","0","f","NA","space","space","space","NA","f","878","NA","3170","12382","125441","NA","878","2","legacy","1024","2","48000","-16","task","5208654","even","NA","149418","154594","151422","219087","3371","141200","15758","219591","NA","219085","219591","218955","154594","220471","147580","218455","3351","193214","Lexical Decision Task","36","28432","38","yes","1024"
"2.80048796","0","8","pife","non-word","94.87179487179488","94.87179487179488","745.2564102564103","745.2564102564103","black","no","legacy","legacy","legacy","0","uniform","1","undefined","undefined","undefined","1","f","0","0","0","0","38","0","0","0","38","NA","34","38","34","0","34","3","38","0","38","Tue Feb 16 13:44:17 2021","The main experiment item","yes","Lexical_Decision_Task.osexp","C:/Users/charl","no","Andale Mono","no","18","no","white","no","yes","576","legacy","34","34","3","C:/Users/charl/subject-5208654.csv","legacy","Lentiform Loewenfeld","3.3.7","yes","yes","600bd7cfb6416f0113b04181","602110864497cf011d9c0822","0","f","NA","space","space","space","NA","f","633","NA","3170","12382","125441","NA","633","2","legacy","1024","2","48000","-16","task","5208654","even","NA","149418","154594","151422","221116","3371","141200","15758","221619","NA","221114","221620","220984","154594","222257","147580","220484","3351","193214","Lexical Decision Task","37","29065","39","yes","1024"
"2.9737419","7.69","7","claw","word","95","95","741.15","741.15","black","no","legacy","legacy","legacy","0","uniform","1","undefined","undefined","undefined","1","j","0","0","0","0","39","0","0","0","39","NA","35","39","35","0","35","3","39","0","39","Tue Feb 16 13:44:17 2021","The main experiment item","yes","Lexical_Decision_Task.osexp","C:/Users/charl","no","Andale Mono","no","18","no","white","no","yes","576","legacy","35","35","3","C:/Users/charl/subject-5208654.csv","legacy","Lentiform Loewenfeld","3.3.7","yes","yes","600bd7cfb6416f0113b04181","602110864497cf011d9c0822","0","j","NA","space","space","space","NA","j","581","NA","3170","12382","125441","NA","581","2","legacy","1024","2","48000","-16","task","5208654","even","NA","149418","154594","151422","222902","3371","141200","15758","223406","NA","222901","223406","222772","154594","223990","147580","222272","3351","193214","Lexical Decision Task","38","29646","40","yes","1024"
"3.119255889","6.63","2","itch","word","95.1219512195122","95.1219512195122","751.9024390243902","751.9024390243902","black","no","legacy","legacy","legacy","0","uniform","1","undefined","undefined","undefined","1","j","0","0","0","0","40","0","0","0","40","NA","36","40","36","0","36","3","40","0","40","Tue Feb 16 13:44:17 2021","The main experiment item","yes","Lexical_Decision_Task.osexp","C:/Users/charl","no","Andale Mono","no","18","no","white","no","yes","576","legacy","36","36","3","C:/Users/charl/subject-5208654.csv","legacy","Lentiform Loewenfeld","3.3.7","yes","yes","600bd7cfb6416f0113b04181","602110864497cf011d9c0822","0","j","NA","space","space","space","NA","j","1182","NA","3170","12382","125441","NA","1182","2","legacy","1024","2","48000","-16","task","5208654","even","NA","149418","154594","151422","224639","3371","141200","15758","225143","NA","224637","225143","224505","154594","226328","147580","224005","3351","193214","Lexical Decision Task","39","30828","41","yes","1024"
"3.311895072","0","9","gung","non-word","95.23809523809524","95.23809523809524","750.2380952380952","750.2380952380952","black","no","legacy","legacy","legacy","0","uniform","1","undefined","undefined","undefined","1","f","0","0","0","0","41","0","0","0","41","NA","37","41","37","0","37","3","41","0","41","Tue Feb 16 13:44:17 2021","The main experiment item","yes","Lexical_Decision_Task.osexp","C:/Users/charl","no","Andale Mono","no","18","no","white","no","yes","576","legacy","37","37","3","C:/Users/charl/subject-5208654.csv","legacy","Lentiform Loewenfeld","3.3.7","yes","yes","600bd7cfb6416f0113b04181","602110864497cf011d9c0822","0","f","NA","space","space","space","NA","f","682","NA","3170","12382","125441","NA","682","2","legacy","1024","2","48000","-16","task","5208654","even","NA","149418","154594","151422","226966","3371","141200","15758","227469","NA","226964","227470","226844","154594","228156","147580","226344","3351","193214","Lexical Decision Task","40","31510","42","yes","1024"
"2.728085817","10.02","9","bike","word","95.34883720930233","95.34883720930233","744.2558139534884","744.2558139534884","black","no","legacy","legacy","legacy","0","uniform","1","undefined","undefined","undefined","1","j","0","0","0","0","42","0","0","0","42","NA","38","42","38","0","38","3","42","0","42","Tue Feb 16 13:44:17 2021","The main experiment item","yes","Lexical_Decision_Task.osexp","C:/Users/charl","no","Andale Mono","no","18","no","white","no","yes","576","legacy","38","38","3","C:/Users/charl/subject-5208654.csv","legacy","Lentiform Loewenfeld","3.3.7","yes","yes","600bd7cfb6416f0113b04181","602110864497cf011d9c0822","0","j","NA","space","space","space","NA","j","493","NA","3170","12382","125441","NA","493","2","legacy","1024","2","48000","-16","task","5208654","even","NA","149418","154594","151422","228804","3371","141200","15758","229308","NA","228802","229308","228672","154594","229806","147580","228171","3351","193214","Lexical Decision Task","41","32003","43","yes","1024"
"2.979548375","8.71","4","soup","word","95.45454545454545","95.45454545454545","741.6136363636364","741.6136363636364","black","no","legacy","legacy","legacy","0","uniform","1","undefined","undefined","undefined","1","j","0","0","0","0","43","0","0","0","43","NA","39","43","39","0","39","3","43","0","43","Tue Feb 16 13:44:17 2021","The main experiment item","yes","Lexical_Decision_Task.osexp","C:/Users/charl","no","Andale Mono","no","18","no","white","no","yes","576","legacy","39","39","3","C:/Users/charl/subject-5208654.csv","legacy","Lentiform Loewenfeld","3.3.7","yes","yes","600bd7cfb6416f0113b04181","602110864497cf011d9c0822","0","j","NA","space","space","space","NA","j","628","NA","3170","12382","125441","NA","628","2","legacy","1024","2","48000","-16","task","5208654","even","NA","149418","154594","151422","230454","3371","141200","15758","230958","NA","230452","230958","230321","154594","231591","147580","229821","3351","193214","Lexical Decision Task","42","32631","44","yes","1024"
"2.895974732","6.65","5","sift","word","95.55555555555556","95.55555555555556","740.8888888888889","740.8888888888889","black","no","legacy","legacy","legacy","0","uniform","1","undefined","undefined","undefined","1","j","0","0","0","0","44","0","0","0","44","NA","40","44","40","0","40","3","44","0","44","Tue Feb 16 13:44:17 2021","The main experiment item","yes","Lexical_Decision_Task.osexp","C:/Users/charl","no","Andale Mono","no","18","no","white","no","yes","576","legacy","40","40","3","C:/Users/charl/subject-5208654.csv","legacy","Lentiform Loewenfeld","3.3.7","yes","yes","600bd7cfb6416f0113b04181","602110864497cf011d9c0822","0","j","NA","space","space","space","NA","j","709","NA","3170","12382","125441","NA","709","2","legacy","1024","2","48000","-16","task","5208654","even","NA","149418","154594","151422","232239","3371","141200","15758","232743","NA","232237","232743","232106","154594","233455","147580","231606","3351","193214","Lexical Decision Task","43","33340","45","yes","1024"
"3.149629599","0","2","cleb","non-word","95.65217391304348","95.65217391304348","736.695652173913","736.695652173913","black","no","legacy","legacy","legacy","0","uniform","1","undefined","undefined","undefined","1","f","0","0","0","0","45","0","0","0","45","NA","41","45","41","0","41","3","45","0","45","Tue Feb 16 13:44:17 2021","The main experiment item","yes","Lexical_Decision_Task.osexp","C:/Users/charl","no","Andale Mono","no","18","no","white","no","yes","576","legacy","41","41","3","C:/Users/charl/subject-5208654.csv","legacy","Lentiform Loewenfeld","3.3.7","yes","yes","600bd7cfb6416f0113b04181","602110864497cf011d9c0822","0","f","NA","space","space","space","NA","f","548","NA","3170","12382","125441","NA","548","2","legacy","1024","2","48000","-16","task","5208654","even","NA","149418","154594","151422","234110","3371","141200","15758","234613","NA","234107","234613","233967","154594","235164","147580","233467","3351","193214","Lexical Decision Task","44","33888","46","yes","1024"
"3.274157849","0","8","leet","non-word","95.74468085106383","95.74468085106383","734.9574468085107","734.9574468085107","black","no","legacy","legacy","legacy","0","uniform","1","undefined","undefined","undefined","1","f","0","0","0","0","46","0","0","0","46","NA","42","46","42","0","42","3","46","0","46","Tue Feb 16 13:44:17 2021","The main experiment item","yes","Lexical_Decision_Task.osexp","C:/Users/charl","no","Andale Mono","no","18","no","white","no","yes","576","legacy","42","42","3","C:/Users/charl/subject-5208654.csv","legacy","Lentiform Loewenfeld","3.3.7","yes","yes","600bd7cfb6416f0113b04181","602110864497cf011d9c0822","0","f","NA","space","space","space","NA","f","655","NA","3170","12382","125441","NA","655","2","legacy","1024","2","48000","-16","task","5208654","even","NA","149418","154594","151422","235809","3371","141200","15758","236313","NA","235807","236313","235676","154594","236972","147580","235176","3351","193214","Lexical Decision Task","45","34543","47","yes","1024"
"3.094121596","0","8","fode","non-word","95.83333333333333","95.83333333333333","735.0833333333334","735.0833333333334","black","no","legacy","legacy","legacy","0","uniform","1","undefined","undefined","undefined","1","f","0","0","0","0","47","0","0","0","47","NA","43","47","43","0","43","3","47","0","47","Tue Feb 16 13:44:17 2021","The main experiment item","yes","Lexical_Decision_Task.osexp","C:/Users/charl","no","Andale Mono","no","18","no","white","no","yes","576","legacy","43","43","3","C:/Users/charl/subject-5208654.csv","legacy","Lentiform Loewenfeld","3.3.7","yes","yes","600bd7cfb6416f0113b04181","602110864497cf011d9c0822","0","f","NA","space","space","space","NA","f","741","NA","3170","12382","125441","NA","741","2","legacy","1024","2","48000","-16","task","5208654","even","NA","149418","154594","151422","237634","3371","141200","15758","238138","NA","237631","238138","237487","154594","238883","147580","236987","3351","193214","Lexical Decision Task","46","35284","48","yes","1024"
"2.75025376","10.2","6","jump","word","95.91836734693878","95.91836734693878","732.5102040816327","732.5102040816327","black","no","legacy","legacy","legacy","0","uniform","1","undefined","undefined","undefined","1","j","0","0","0","0","48","0","0","0","48","NA","44","48","44","0","44","3","48","0","48","Tue Feb 16 13:44:17 2021","The main experiment item","yes","Lexical_Decision_Task.osexp","C:/Users/charl","no","Andale Mono","no","18","no","white","no","yes","576","legacy","44","44","3","C:/Users/charl/subject-5208654.csv","legacy","Lentiform Loewenfeld","3.3.7","yes","yes","600bd7cfb6416f0113b04181","602110864497cf011d9c0822","0","j","NA","space","space","space","NA","j","609","NA","3170","12382","125441","NA","609","2","legacy","1024","2","48000","-16","task","5208654","even","NA","149418","154594","151422","239539","3371","141200","15758","240043","NA","239536","240043","239396","154594","240655","147580","238895","3351","193214","Lexical Decision Task","47","35893","49","yes","1024"
"3.303771854","0","9","dath","non-word","96","96","730.6","730.6","black","no","legacy","legacy","legacy","0","uniform","1","undefined","undefined","undefined","1","f","0","0","0","0","49","0","0","0","49","NA","45","49","45","0","45","3","49","0","49","Tue Feb 16 13:44:17 2021","The main experiment item","yes","Lexical_Decision_Task.osexp","C:/Users/charl","no","Andale Mono","no","18","no","white","no","yes","576","legacy","45","45","3","C:/Users/charl/subject-5208654.csv","legacy","Lentiform Loewenfeld","3.3.7","yes","yes","600bd7cfb6416f0113b04181","602110864497cf011d9c0822","0","f","NA","space","space","space","NA","f","637","NA","3170","12382","125441","NA","637","2","legacy","1024","2","48000","-16","task","5208654","even","NA","149418","154594","151422","241301","3371","141200","15758","241804","NA","241300","241805","241169","154594","242446","147580","240669","3351","193214","Lexical Decision Task","48","36530","50","yes","1024"
"3.209246849","0","7","slem","non-word","96.07843137254902","96.07843137254902","728.7450980392157","728.7450980392157","black","no","legacy","legacy","legacy","0","uniform","1","undefined","undefined","undefined","1","f","0","0","0","0","50","0","0","0","50","NA","46","50","46","0","46","3","50","0","50","Tue Feb 16 13:44:17 2021","The main experiment item","yes","Lexical_Decision_Task.osexp","C:/Users/charl","no","Andale Mono","no","18","no","white","no","yes","576","legacy","46","46","3","C:/Users/charl/subject-5208654.csv","legacy","Lentiform Loewenfeld","3.3.7","yes","yes","600bd7cfb6416f0113b04181","602110864497cf011d9c0822","0","f","NA","space","space","space","NA","f","636","NA","3170","12382","125441","NA","636","2","legacy","1024","2","48000","-16","task","5208654","even","NA","149418","154594","151422","243091","3371","141200","15758","243594","NA","243088","243595","242959","154594","244234","147580","242459","3351","193214","Lexical Decision Task","49","37166","51","yes","1024"
"3.276537627","9.15","5","trap","word","96.15384615384616","96.15384615384616","724.7884615384615","724.7884615384615","black","no","legacy","legacy","legacy","0","uniform","1","undefined","undefined","undefined","1","j","0","0","0","0","51","0","0","0","51","NA","47","51","47","0","47","3","51","0","51","Tue Feb 16 13:44:17 2021","The main experiment item","yes","Lexical_Decision_Task.osexp","C:/Users/charl","no","Andale Mono","no","18","no","white","no","yes","576","legacy","47","47","3","C:/Users/charl/subject-5208654.csv","legacy","Lentiform Loewenfeld","3.3.7","yes","yes","600bd7cfb6416f0113b04181","602110864497cf011d9c0822","0","j","NA","space","space","space","NA","j","523","NA","3170","12382","125441","NA","523","2","legacy","1024","2","48000","-16","task","5208654","even","NA","149418","154594","151422","244871","3371","141200","15758","245376","NA","244869","245377","244742","154594","245903","147580","244242","3351","193214","Lexical Decision Task","50","37689","52","yes","1024"
"2.698387659","6.66","7","skid","word","94.33962264150944","94.33962264150944","722.622641509434","722.622641509434","black","no","legacy","legacy","legacy","0","uniform","0","undefined","undefined","undefined","0","j","0","0","0","0","52","0","0","0","52","NA","48","52","48","0","48","3","52","0","52","Tue Feb 16 13:44:17 2021","The main experiment item","yes","Lexical_Decision_Task.osexp","C:/Users/charl","no","Andale Mono","no","18","no","white","no","yes","576","legacy","48","48","3","C:/Users/charl/subject-5208654.csv","legacy","Lentiform Loewenfeld","3.3.7","yes","yes","600bd7cfb6416f0113b04181","602110864497cf011d9c0822","0","f","NA","space","space","space","NA","f","610","NA","3170","12382","125441","NA","610","2","legacy","1024","2","48000","-16","task","5208654","even","NA","149418","154594","151422","246546","3371","141200","15758","247050","NA","246544","247050","246417","154594","247664","147580","245917","3351","193214","Lexical Decision Task","50","38299","53","yes","1024"
"3.368162872","0","4","ferk","non-word","94.44444444444444","94.44444444444444","722.8888888888889","722.8888888888889","black","no","legacy","legacy","legacy","0","uniform","1","undefined","undefined","undefined","1","f","0","0","0","0","53","0","0","0","53","NA","49","53","49","0","49","3","53","0","53","Tue Feb 16 13:44:17 2021","The main experiment item","yes","Lexical_Decision_Task.osexp","C:/Users/charl","no","Andale Mono","no","18","no","white","no","yes","576","legacy","49","49","3","C:/Users/charl/subject-5208654.csv","legacy","Lentiform Loewenfeld","3.3.7","yes","yes","600bd7cfb6416f0113b04181","602110864497cf011d9c0822","0","f","NA","space","space","space","NA","f","737","NA","3170","12382","125441","NA","737","2","legacy","1024","2","48000","-16","task","5208654","even","NA","149418","154594","151422","249318","3371","141200","15758","249822","NA","249316","249822","249179","154594","250560","147580","245917","3351","247679","Lexical Decision Task","51","39036","54","yes","1024"
"2.884795364","0","6","flob","non-word","94.54545454545455","94.54545454545455","721.4909090909091","721.4909090909091","black","no","legacy","legacy","legacy","0","uniform","1","undefined","undefined","undefined","1","f","0","0","0","0","54","0","0","0","54","0","50","54","50","0","50","3","54","0","54","Tue Feb 16 13:44:17 2021","The main experiment item","yes","Lexical_Decision_Task.osexp","C:/Users/charl","no","Andale Mono","no","18","no","white","no","yes","576","legacy","50","50","3","C:/Users/charl/subject-5208654.csv","legacy","Lentiform Loewenfeld","3.3.7","yes","yes","600bd7cfb6416f0113b04181","602110864497cf011d9c0822","0","f","NA","space","space","space","space","f","646","NA","3170","12382","125441","9735","646","2","legacy","1024","2","48000","-16","task","5208654","even","NA","149418","154594","151422","261039","3371","141200","15758","261542","251189","261038","261543","251071","154594","262190","147580","250571","3351","247679","Lexical Decision Task","52","39682","55","yes","1024"
"2.719886232","7.98","2","quiz","word","94.64285714285714","94.64285714285714","719.2321428571429","719.2321428571429","black","no","legacy","legacy","legacy","0","uniform","1","undefined","undefined","undefined","1","j","0","0","0","0","55","0","0","0","55","0","51","55","51","0","51","3","55","0","55","Tue Feb 16 13:44:17 2021","The main experiment item","yes","Lexical_Decision_Task.osexp","C:/Users/charl","no","Andale Mono","no","18","no","white","no","yes","576","legacy","51","51","3","C:/Users/charl/subject-5208654.csv","legacy","Lentiform Loewenfeld","3.3.7","yes","yes","600bd7cfb6416f0113b04181","602110864497cf011d9c0822","0","j","NA","space","space","space","space","j","595","NA","3170","12382","125441","9735","595","2","legacy","1024","2","48000","-16","task","5208654","even","NA","149418","154594","151422","262853","3371","141200","15758","263356","251189","262849","263356","262701","154594","263954","147580","262201","3351","247679","Lexical Decision Task","53","40277","56","yes","1024"
"2.709837904","6.85","8","skim","word","94.73684210526316","94.73684210526316","719.6315789473684","719.6315789473684","black","no","legacy","legacy","legacy","0","uniform","1","undefined","undefined","undefined","1","j","0","0","0","0","56","0","0","0","56","0","52","56","52","0","52","3","56","0","56","Tue Feb 16 13:44:17 2021","The main experiment item","yes","Lexical_Decision_Task.osexp","C:/Users/charl","no","Andale Mono","no","18","no","white","no","yes","576","legacy","52","52","3","C:/Users/charl/subject-5208654.csv","legacy","Lentiform Loewenfeld","3.3.7","yes","yes","600bd7cfb6416f0113b04181","602110864497cf011d9c0822","0","j","NA","space","space","space","space","j","742","NA","3170","12382","125441","9735","742","2","legacy","1024","2","48000","-16","task","5208654","even","NA","149418","154594","151422","264598","3371","141200","15758","265101","251189","264596","265101","264468","154594","265846","147580","263968","3351","247679","Lexical Decision Task","54","41019","57","yes","1024"
"3.460446784","0","5","dess","non-word","94.82758620689656","94.82758620689656","717.7586206896551","717.7586206896551","black","no","legacy","legacy","legacy","0","uniform","1","undefined","undefined","undefined","1","f","0","0","0","0","57","0","0","0","57","0","53","57","53","0","53","3","57","0","57","Tue Feb 16 13:44:17 2021","The main experiment item","yes","Lexical_Decision_Task.osexp","C:/Users/charl","no","Andale Mono","no","18","no","white","no","yes","576","legacy","53","53","3","C:/Users/charl/subject-5208654.csv","legacy","Lentiform Loewenfeld","3.3.7","yes","yes","600bd7cfb6416f0113b04181","602110864497cf011d9c0822","0","f","NA","space","space","space","space","f","611","NA","3170","12382","125441","9735","611","2","legacy","1024","2","48000","-16","task","5208654","even","NA","149418","154594","151422","266490","3371","141200","15758","266994","251189","266488","266994","266358","154594","267610","147580","265857","3351","247679","Lexical Decision Task","55","41630","58","yes","1024"
"2.705007959","6.01","4","wept","word","94.91525423728814","94.91525423728814","715.5254237288135","715.5254237288135","black","no","legacy","legacy","legacy","0","uniform","1","undefined","undefined","undefined","1","j","0","0","0","0","58","0","0","0","58","0","54","58","54","0","54","3","58","0","58","Tue Feb 16 13:44:17 2021","The main experiment item","yes","Lexical_Decision_Task.osexp","C:/Users/charl","no","Andale Mono","no","18","no","white","no","yes","576","legacy","54","54","3","C:/Users/charl/subject-5208654.csv","legacy","Lentiform Loewenfeld","3.3.7","yes","yes","600bd7cfb6416f0113b04181","602110864497cf011d9c0822","0","j","NA","space","space","space","space","j","586","NA","3170","12382","125441","9735","586","2","legacy","1024","2","48000","-16","task","5208654","even","NA","149418","154594","151422","268299","3371","141200","15758","268803","251189","268297","268803","268127","154594","269392","147580","267626","3351","247679","Lexical Decision Task","56","42216","59","yes","1024"
"3.353210739","0","9","reet","non-word","95","95","715.95","715.95","black","no","legacy","legacy","legacy","0","uniform","1","undefined","undefined","undefined","1","f","0","0","0","0","59","0","0","0","59","0","55","59","55","0","55","3","59","0","59","Tue Feb 16 13:44:17 2021","The main experiment item","yes","Lexical_Decision_Task.osexp","C:/Users/charl","no","Andale Mono","no","18","no","white","no","yes","576","legacy","55","55","3","C:/Users/charl/subject-5208654.csv","legacy","Lentiform Loewenfeld","3.3.7","yes","yes","600bd7cfb6416f0113b04181","602110864497cf011d9c0822","0","f","NA","space","space","space","space","f","741","NA","3170","12382","125441","9735","741","2","legacy","1024","2","48000","-16","task","5208654","even","NA","149418","154594","151422","270035","3371","141200","15758","270539","251189","270033","270539","269900","154594","271284","147580","269400","3351","247679","Lexical Decision Task","57","42957","60","yes","1024"
"3.363486562","6.93","9","lush","word","95.08196721311475","95.08196721311475","713.0655737704918","713.0655737704918","black","no","legacy","legacy","legacy","0","uniform","1","undefined","undefined","undefined","1","j","0","0","0","0","60","0","0","0","60","0","56","60","56","0","56","3","60","0","60","Tue Feb 16 13:44:17 2021","The main experiment item","yes","Lexical_Decision_Task.osexp","C:/Users/charl","no","Andale Mono","no","18","no","white","no","yes","576","legacy","56","56","3","C:/Users/charl/subject-5208654.csv","legacy","Lentiform Loewenfeld","3.3.7","yes","yes","600bd7cfb6416f0113b04181","602110864497cf011d9c0822","0","j","NA","space","space","space","space","j","540","NA","3170","12382","125441","9735","540","2","legacy","1024","2","48000","-16","task","5208654","even","NA","149418","154594","151422","271928","3371","141200","15758","272432","251189","271926","272432","271798","154594","272977","147580","271298","3351","247679","Lexical Decision Task","58","43497","61","yes","1024"
"3.307211407","6.07","7","honk","word","95.16129032258064","95.16129032258064","711.2903225806451","711.2903225806451","black","no","legacy","legacy","legacy","0","uniform","1","undefined","undefined","undefined","1","j","0","0","0","0","61","0","0","0","61","0","57","61","57","0","57","3","61","0","61","Tue Feb 16 13:44:17 2021","The main experiment item","yes","Lexical_Decision_Task.osexp","C:/Users/charl","no","Andale Mono","no","18","no","white","no","yes","576","legacy","57","57","3","C:/Users/charl/subject-5208654.csv","legacy","Lentiform Loewenfeld","3.3.7","yes","yes","600bd7cfb6416f0113b04181","602110864497cf011d9c0822","0","j","NA","space","space","space","space","j","603","NA","3170","12382","125441","9735","603","2","legacy","1024","2","48000","-16","task","5208654","even","NA","149418","154594","151422","273614","3371","141200","15758","274118","251189","273612","274118","273492","154594","274726","147580","272991","3351","247679","Lexical Decision Task","59","44100","62","yes","1024"
"2.920123326","7.43","4","duel","word","95.23809523809524","95.23809523809524","709.6349206349206","709.6349206349206","black","no","legacy","legacy","legacy","0","uniform","1","undefined","undefined","undefined","1","j","0","0","0","0","62","0","0","0","62","0","58","62","58","0","58","3","62","0","62","Tue Feb 16 13:44:17 2021","The main experiment item","yes","Lexical_Decision_Task.osexp","C:/Users/charl","no","Andale Mono","no","18","no","white","no","yes","576","legacy","58","58","3","C:/Users/charl/subject-5208654.csv","legacy","Lentiform Loewenfeld","3.3.7","yes","yes","600bd7cfb6416f0113b04181","602110864497cf011d9c0822","0","j","NA","space","space","space","space","j","607","NA","3170","12382","125441","9735","607","2","legacy","1024","2","48000","-16","task","5208654","even","NA","149418","154594","151422","275370","3371","141200","15758","275874","251189","275368","275874","275242","154594","276484","147580","274741","3351","247679","Lexical Decision Task","60","44707","63","yes","1024"
"2.990042563","6.64","9","plow","word","93.75","93.75","708.8125","708.8125","black","no","legacy","legacy","legacy","0","uniform","0","undefined","undefined","undefined","0","j","0","0","0","0","63","0","0","0","63","0","59","63","59","0","59","3","63","0","63","Tue Feb 16 13:44:17 2021","The main experiment item","yes","Lexical_Decision_Task.osexp","C:/Users/charl","no","Andale Mono","no","18","no","white","no","yes","576","legacy","59","59","3","C:/Users/charl/subject-5208654.csv","legacy","Lentiform Loewenfeld","3.3.7","yes","yes","600bd7cfb6416f0113b04181","602110864497cf011d9c0822","0","f","NA","space","space","space","space","f","657","NA","3170","12382","125441","9735","657","2","legacy","1024","2","48000","-16","task","5208654","even","NA","149418","154594","151422","277129","3371","141200","15758","277633","251189","277127","277633","276998","154594","278295","147580","276498","3351","247679","Lexical Decision Task","60","45364","64","yes","1024"
"2.839268497","0","8","maft","non-word","93.84615384615384","93.84615384615384","706.5846153846154","706.5846153846154","black","no","legacy","legacy","legacy","0","uniform","1","undefined","undefined","undefined","1","f","0","0","0","0","64","0","0","0","64","0","60","64","60","0","60","3","64","0","64","Tue Feb 16 13:44:17 2021","The main experiment item","yes","Lexical_Decision_Task.osexp","C:/Users/charl","no","Andale Mono","no","18","no","white","no","yes","576","legacy","60","60","3","C:/Users/charl/subject-5208654.csv","legacy","Lentiform Loewenfeld","3.3.7","yes","yes","600bd7cfb6416f0113b04181","602110864497cf011d9c0822","0","f","NA","space","space","space","space","f","564","NA","3170","12382","125441","9735","564","2","legacy","1024","2","48000","-16","task","5208654","even","NA","149418","154594","151422","279953","3371","141200","15758","280457","251189","279950","280457","279810","154594","281026","147580","276498","3351","278310","Lexical Decision Task","61","45928","65","yes","1024"
"3.031812271","6.52","3","gulp","word","93.93939393939394","93.93939393939394","706.8939393939394","706.8939393939394","black","no","legacy","legacy","legacy","0","uniform","1","undefined","undefined","undefined","1","j","0","0","0","0","65","0","0","0","65","0","61","65","61","0","61","3","65","0","65","Tue Feb 16 13:44:17 2021","The main experiment item","yes","Lexical_Decision_Task.osexp","C:/Users/charl","no","Andale Mono","no","18","no","white","no","yes","576","legacy","61","61","3","C:/Users/charl/subject-5208654.csv","legacy","Lentiform Loewenfeld","3.3.7","yes","yes","600bd7cfb6416f0113b04181","602110864497cf011d9c0822","0","j","NA","space","space","space","space","j","727","NA","3170","12382","125441","9735","727","2","legacy","1024","2","48000","-16","task","5208654","even","NA","149418","154594","151422","281677","3371","141200","15758","282181","251189","281675","282181","281541","154594","282911","147580","281041","3351","278310","Lexical Decision Task","62","46655","66","yes","1024"
"2.907588697","8.91","9","mood","word","94.02985074626865","94.02985074626865","704.044776119403","704.044776119403","black","no","legacy","legacy","legacy","0","uniform","1","undefined","undefined","undefined","1","j","0","0","0","0","66","0","0","0","66","0","62","66","62","0","62","3","66","0","66","Tue Feb 16 13:44:17 2021","The main experiment item","yes","Lexical_Decision_Task.osexp","C:/Users/charl","no","Andale Mono","no","18","no","white","no","yes","576","legacy","62","62","3","C:/Users/charl/subject-5208654.csv","legacy","Lentiform Loewenfeld","3.3.7","yes","yes","600bd7cfb6416f0113b04181","602110864497cf011d9c0822","0","j","NA","space","space","space","space","j","516","NA","3170","12382","125441","9735","516","2","legacy","1024","2","48000","-16","task","5208654","even","NA","149418","154594","151422","283591","3371","141200","15758","284095","251189","283589","284095","283425","154594","284615","147580","282925","3351","278310","Lexical Decision Task","63","47171","67","yes","1024"
"2.95456409","0","4","taud","non-word","94.11764705882354","94.11764705882354","701.9852941176471","701.9852941176471","black","no","legacy","legacy","legacy","0","uniform","1","undefined","undefined","undefined","1","f","0","0","0","0","67","0","0","0","67","0","63","67","63","0","63","3","67","0","67","Tue Feb 16 13:44:17 2021","The main experiment item","yes","Lexical_Decision_Task.osexp","C:/Users/charl","no","Andale Mono","no","18","no","white","no","yes","576","legacy","63","63","3","C:/Users/charl/subject-5208654.csv","legacy","Lentiform Loewenfeld","3.3.7","yes","yes","600bd7cfb6416f0113b04181","602110864497cf011d9c0822","0","f","NA","space","space","space","space","f","564","NA","3170","12382","125441","9735","564","2","legacy","1024","2","48000","-16","task","5208654","even","NA","149418","154594","151422","285259","3371","141200","15758","285763","251189","285256","285763","285128","154594","286331","147580","284628","3351","278310","Lexical Decision Task","64","47735","68","yes","1024"
"3.372543801","9.24","8","coat","word","94.20289855072464","94.20289855072464","702.0869565217391","702.0869565217391","black","no","legacy","legacy","legacy","0","uniform","1","undefined","undefined","undefined","1","j","0","0","0","0","68","0","0","0","68","0","64","68","64","0","64","3","68","0","68","Tue Feb 16 13:44:17 2021","The main experiment item","yes","Lexical_Decision_Task.osexp","C:/Users/charl","no","Andale Mono","no","18","no","white","no","yes","576","legacy","64","64","3","C:/Users/charl/subject-5208654.csv","legacy","Lentiform Loewenfeld","3.3.7","yes","yes","600bd7cfb6416f0113b04181","602110864497cf011d9c0822","0","j","NA","space","space","space","space","j","709","NA","3170","12382","125441","9735","709","2","legacy","1024","2","48000","-16","task","5208654","even","NA","149418","154594","151422","286969","3371","141200","15758","287473","251189","286967","287473","286846","154594","288185","147580","286346","3351","278310","Lexical Decision Task","65","48444","69","yes","1024"
"2.953276337","6.32","4","thaw","word","94.28571428571429","94.28571428571429","708.7142857142857","708.7142857142857","black","no","legacy","legacy","legacy","0","uniform","1","undefined","undefined","undefined","1","j","0","0","0","0","69","0","0","0","69","0","65","69","65","0","65","3","69","0","69","Tue Feb 16 13:44:17 2021","The main experiment item","yes","Lexical_Decision_Task.osexp","C:/Users/charl","no","Andale Mono","no","18","no","white","no","yes","576","legacy","65","65","3","C:/Users/charl/subject-5208654.csv","legacy","Lentiform Loewenfeld","3.3.7","yes","yes","600bd7cfb6416f0113b04181","602110864497cf011d9c0822","0","j","NA","space","space","space","space","j","1166","NA","3170","12382","125441","9735","1166","2","legacy","1024","2","48000","-16","task","5208654","even","NA","149418","154594","151422","288828","3371","141200","15758","289332","251189","288826","289332","288701","154594","290500","147580","288201","3351","278310","Lexical Decision Task","66","49610","70","yes","1024"
"3.316948329","0","1","besc","non-word","94.36619718309859","94.36619718309859","707.1267605633802","707.1267605633802","black","no","legacy","legacy","legacy","0","uniform","1","undefined","undefined","undefined","1","f","0","0","0","0","70","0","0","0","70","0","66","70","66","0","66","3","70","0","70","Tue Feb 16 13:44:17 2021","The main experiment item","yes","Lexical_Decision_Task.osexp","C:/Users/charl","no","Andale Mono","no","18","no","white","no","yes","576","legacy","66","66","3","C:/Users/charl/subject-5208654.csv","legacy","Lentiform Loewenfeld","3.3.7","yes","yes","600bd7cfb6416f0113b04181","602110864497cf011d9c0822","0","f","NA","space","space","space","space","f","596","NA","3170","12382","125441","9735","596","2","legacy","1024","2","48000","-16","task","5208654","even","NA","149418","154594","151422","291162","3371","141200","15758","291666","251189","291159","291667","291013","154594","292266","147580","290513","3351","278310","Lexical Decision Task","67","50206","71","yes","1024"
"2.695481676","0","7","goke","non-word","94.44444444444444","94.44444444444444","708.875","708.875","black","no","legacy","legacy","legacy","0","uniform","1","undefined","undefined","undefined","1","f","0","0","0","0","71","0","0","0","71","0","67","71","67","0","67","3","71","0","71","Tue Feb 16 13:44:17 2021","The main experiment item","yes","Lexical_Decision_Task.osexp","C:/Users/charl","no","Andale Mono","no","18","no","white","no","yes","576","legacy","67","67","3","C:/Users/charl/subject-5208654.csv","legacy","Lentiform Loewenfeld","3.3.7","yes","yes","600bd7cfb6416f0113b04181","602110864497cf011d9c0822","0","f","NA","space","space","space","space","f","833","NA","3170","12382","125441","9735","833","2","legacy","1024","2","48000","-16","task","5208654","even","NA","149418","154594","151422","292910","3371","141200","15758","293414","251189","292908","293414","292781","154594","294250","147580","292281","3351","278310","Lexical Decision Task","68","51039","72","yes","1024"
"2.64476673","0","5","moft","non-word","94.52054794520548","94.52054794520548","710.931506849315","710.931506849315","black","no","legacy","legacy","legacy","0","uniform","1","undefined","undefined","undefined","1","f","0","0","0","0","72","0","0","0","72","0","68","72","68","0","68","3","72","0","72","Tue Feb 16 13:44:17 2021","The main experiment item","yes","Lexical_Decision_Task.osexp","C:/Users/charl","no","Andale Mono","no","18","no","white","no","yes","576","legacy","68","68","3","C:/Users/charl/subject-5208654.csv","legacy","Lentiform Loewenfeld","3.3.7","yes","yes","600bd7cfb6416f0113b04181","602110864497cf011d9c0822","0","f","NA","space","space","space","space","f","859","NA","3170","12382","125441","9735","859","2","legacy","1024","2","48000","-16","task","5208654","even","NA","149418","154594","151422","294894","3371","141200","15758","295398","251189","294892","295398","294762","154594","296260","147580","294262","3351","278310","Lexical Decision Task","69","51898","73","yes","1024"
"3.263399331","0","8","cour","non-word","94.5945945945946","94.5945945945946","713.581081081081","713.581081081081","black","no","legacy","legacy","legacy","0","uniform","1","undefined","undefined","undefined","1","f","0","0","0","0","73","0","0","0","73","0","69","73","69","0","69","3","73","0","73","Tue Feb 16 13:44:17 2021","The main experiment item","yes","Lexical_Decision_Task.osexp","C:/Users/charl","no","Andale Mono","no","18","no","white","no","yes","576","legacy","69","69","3","C:/Users/charl/subject-5208654.csv","legacy","Lentiform Loewenfeld","3.3.7","yes","yes","600bd7cfb6416f0113b04181","602110864497cf011d9c0822","0","f","NA","space","space","space","space","f","907","NA","3170","12382","125441","9735","907","2","legacy","1024","2","48000","-16","task","5208654","even","NA","149418","154594","151422","296896","3371","141200","15758","297400","251189","296894","297400","296775","154594","298311","147580","296275","3351","278310","Lexical Decision Task","70","52805","74","yes","1024"
"2.952953801","0","8","clax","non-word","93.33333333333333","93.33333333333333","717.3333333333334","717.3333333333334","black","no","legacy","legacy","legacy","0","uniform","0","undefined","undefined","undefined","0","f","0","0","0","0","74","0","0","0","74","0","70","74","70","0","70","3","74","0","74","Tue Feb 16 13:44:17 2021","The main experiment item","yes","Lexical_Decision_Task.osexp","C:/Users/charl","no","Andale Mono","no","18","no","white","no","yes","576","legacy","70","70","3","C:/Users/charl/subject-5208654.csv","legacy","Lentiform Loewenfeld","3.3.7","yes","yes","600bd7cfb6416f0113b04181","602110864497cf011d9c0822","0","j","NA","space","space","space","space","j","995","NA","3170","12382","125441","9735","995","2","legacy","1024","2","48000","-16","task","5208654","even","NA","149418","154594","151422","298964","3371","141200","15758","299468","251189","298962","299468","298825","154594","300467","147580","298325","3351","278310","Lexical Decision Task","70","53800","75","yes","1024"
"3.529815197","0","3","lerm","non-word","93.42105263157895","93.42105263157895","716.8815789473684","716.8815789473684","black","no","legacy","legacy","legacy","0","uniform","1","undefined","undefined","undefined","1","f","0","0","0","0","75","0","0","0","75","0","71","75","71","0","71","3","75","0","75","Tue Feb 16 13:44:17 2021","The main experiment item","yes","Lexical_Decision_Task.osexp","C:/Users/charl","no","Andale Mono","no","18","no","white","no","yes","576","legacy","71","71","3","C:/Users/charl/subject-5208654.csv","legacy","Lentiform Loewenfeld","3.3.7","yes","yes","600bd7cfb6416f0113b04181","602110864497cf011d9c0822","0","f","NA","space","space","space","space","f","683","NA","3170","12382","125441","9735","683","2","legacy","1024","2","48000","-16","task","5208654","even","NA","149418","154594","151422","302115","3371","141200","15758","302619","251189","302113","302619","301981","154594","303305","147580","298325","3351","300481","Lexical Decision Task","71","54483","76","yes","1024"
"2.771097306","0","9","jold","non-word","93.50649350649351","93.50649350649351","717.5584415584416","717.5584415584416","black","no","legacy","legacy","legacy","0","uniform","1","undefined","undefined","undefined","1","f","0","0","0","0","76","0","0","0","76","0","72","76","72","0","72","3","76","0","76","Tue Feb 16 13:44:17 2021","The main experiment item","yes","Lexical_Decision_Task.osexp","C:/Users/charl","no","Andale Mono","no","18","no","white","no","yes","576","legacy","72","72","3","C:/Users/charl/subject-5208654.csv","legacy","Lentiform Loewenfeld","3.3.7","yes","yes","600bd7cfb6416f0113b04181","602110864497cf011d9c0822","0","f","NA","space","space","space","space","f","769","NA","3170","12382","125441","9735","769","2","legacy","1024","2","48000","-16","task","5208654","even","NA","149418","154594","151422","303950","3371","141200","15758","304455","251189","303948","304455","303821","154594","305228","147580","303320","3351","300481","Lexical Decision Task","72","55252","77","yes","1024"
"2.899092422","7.27","6","snag","word","93.58974358974359","93.58974358974359","715.7179487179487","715.7179487179487","black","no","legacy","legacy","legacy","0","uniform","1","undefined","undefined","undefined","1","j","0","0","0","0","77","0","0","0","77","0","73","77","73","0","73","3","77","0","77","Tue Feb 16 13:44:17 2021","The main experiment item","yes","Lexical_Decision_Task.osexp","C:/Users/charl","no","Andale Mono","no","18","no","white","no","yes","576","legacy","73","73","3","C:/Users/charl/subject-5208654.csv","legacy","Lentiform Loewenfeld","3.3.7","yes","yes","600bd7cfb6416f0113b04181","602110864497cf011d9c0822","0","j","NA","space","space","space","space","j","574","NA","3170","12382","125441","9735","574","2","legacy","1024","2","48000","-16","task","5208654","even","NA","149418","154594","151422","305875","3371","141200","15758","306378","251189","305873","306378","305743","154594","306956","147580","305242","3351","300481","Lexical Decision Task","73","55826","78","yes","1024"
"3.091901331","0","9","nipe","non-word","93.67088607594937","93.67088607594937","719.5189873417721","719.5189873417721","black","no","legacy","legacy","legacy","0","uniform","1","undefined","undefined","undefined","1","f","0","0","0","0","78","0","0","0","78","0","74","78","74","0","74","3","78","0","78","Tue Feb 16 13:44:17 2021","The main experiment item","yes","Lexical_Decision_Task.osexp","C:/Users/charl","no","Andale Mono","no","18","no","white","no","yes","576","legacy","74","74","3","C:/Users/charl/subject-5208654.csv","legacy","Lentiform Loewenfeld","3.3.7","yes","yes","600bd7cfb6416f0113b04181","602110864497cf011d9c0822","0","f","NA","space","space","space","space","f","1016","NA","3170","12382","125441","9735","1016","2","legacy","1024","2","48000","-16","task","5208654","even","NA","149418","154594","151422","307609","3371","141200","15758","308113","251189","307607","308113","307470","154594","309133","147580","306970","3351","300481","Lexical Decision Task","74","56842","79","yes","1024"
"3.705778213","0","6","stin","non-word","93.75","93.75","721.35","721.35","black","no","legacy","legacy","legacy","0","uniform","1","undefined","undefined","undefined","1","f","0","0","0","0","79","0","0","0","79","0","75","79","75","0","75","3","79","0","79","Tue Feb 16 13:44:17 2021","The main experiment item","yes","Lexical_Decision_Task.osexp","C:/Users/charl","no","Andale Mono","no","18","no","white","no","yes","576","legacy","75","75","3","C:/Users/charl/subject-5208654.csv","legacy","Lentiform Loewenfeld","3.3.7","yes","yes","600bd7cfb6416f0113b04181","602110864497cf011d9c0822","0","f","NA","space","space","space","space","f","866","NA","3170","12382","125441","9735","866","2","legacy","1024","2","48000","-16","task","5208654","even","NA","149418","154594","151422","309779","3371","141200","15758","310284","251189","309778","310284","309647","154594","311153","147580","309147","3351","300481","Lexical Decision Task","75","57708","80","yes","1024"
"3.2757719","0","5","slea","non-word","93.82716049382717","93.82716049382717","721.395061728395","721.395061728395","black","no","legacy","legacy","legacy","0","uniform","1","undefined","undefined","undefined","1","f","0","0","0","0","80","0","0","0","80","0","76","80","76","0","76","3","80","0","80","Tue Feb 16 13:44:17 2021","The main experiment item","yes","Lexical_Decision_Task.osexp","C:/Users/charl","no","Andale Mono","no","18","no","white","no","yes","576","legacy","76","76","3","C:/Users/charl/subject-5208654.csv","legacy","Lentiform Loewenfeld","3.3.7","yes","yes","600bd7cfb6416f0113b04181","602110864497cf011d9c0822","0","f","NA","space","space","space","space","f","725","NA","3170","12382","125441","9735","725","2","legacy","1024","2","48000","-16","task","5208654","even","NA","149418","154594","151422","311798","3371","141200","15758","312302","251189","311796","312302","311669","154594","313031","147580","311169","3351","300481","Lexical Decision Task","76","58433","81","yes","1024"
"3.064581521","5.51","6","cask","word","93.90243902439025","93.90243902439025","723.7073170731708","723.7073170731708","black","no","legacy","legacy","legacy","0","uniform","1","undefined","undefined","undefined","1","j","0","0","0","0","81","0","0","0","81","0","77","81","77","0","77","3","81","0","81","Tue Feb 16 13:44:17 2021","The main experiment item","yes","Lexical_Decision_Task.osexp","C:/Users/charl","no","Andale Mono","no","18","no","white","no","yes","576","legacy","77","77","3","C:/Users/charl/subject-5208654.csv","legacy","Lentiform Loewenfeld","3.3.7","yes","yes","600bd7cfb6416f0113b04181","602110864497cf011d9c0822","0","j","NA","space","space","space","space","j","911","NA","3170","12382","125441","9735","911","2","legacy","1024","2","48000","-16","task","5208654","even","NA","149418","154594","151422","313676","3371","141200","15758","314180","251189","313674","314180","313544","154594","315094","147580","313044","3351","300481","Lexical Decision Task","77","59344","82","yes","1024"
"3.137775856","7.39","5","comb","word","93.97590361445783","93.97590361445783","722.8072289156627","722.8072289156627","black","no","legacy","legacy","legacy","0","uniform","1","undefined","undefined","undefined","1","j","0","0","0","0","82","0","0","0","82","0","78","82","78","0","78","3","82","0","82","Tue Feb 16 13:44:17 2021","The main experiment item","yes","Lexical_Decision_Task.osexp","C:/Users/charl","no","Andale Mono","no","18","no","white","no","yes","576","legacy","78","78","3","C:/Users/charl/subject-5208654.csv","legacy","Lentiform Loewenfeld","3.3.7","yes","yes","600bd7cfb6416f0113b04181","602110864497cf011d9c0822","0","j","NA","space","space","space","space","j","649","NA","3170","12382","125441","9735","649","2","legacy","1024","2","48000","-16","task","5208654","even","NA","149418","154594","151422","315740","3371","141200","15758","316244","251189","315738","316244","315608","154594","316899","147580","315108","3351","300481","Lexical Decision Task","78","59993","83","yes","1024"
"2.594027722","9.08","8","skip","word","94.04761904761905","94.04761904761905","720.4761904761905","720.4761904761905","black","no","legacy","legacy","legacy","0","uniform","1","undefined","undefined","undefined","1","j","0","0","0","0","83","0","0","0","83","0","79","83","79","0","79","3","83","0","83","Tue Feb 16 13:44:17 2021","The main experiment item","yes","Lexical_Decision_Task.osexp","C:/Users/charl","no","Andale Mono","no","18","no","white","no","yes","576","legacy","79","79","3","C:/Users/charl/subject-5208654.csv","legacy","Lentiform Loewenfeld","3.3.7","yes","yes","600bd7cfb6416f0113b04181","602110864497cf011d9c0822","0","j","NA","space","space","space","space","j","527","NA","3170","12382","125441","9735","527","2","legacy","1024","2","48000","-16","task","5208654","even","NA","149418","154594","151422","317561","3371","141200","15758","318065","251189","317559","318065","317413","154594","318597","147580","316913","3351","300481","Lexical Decision Task","79","60520","84","yes","1024"
"2.819763221","0","2","durp","non-word","94.11764705882354","94.11764705882354","718.7058823529412","718.7058823529412","black","no","legacy","legacy","legacy","0","uniform","1","undefined","undefined","undefined","1","f","0","0","0","0","84","0","0","0","84","0","80","84","80","0","80","3","84","0","84","Tue Feb 16 13:44:17 2021","The main experiment item","yes","Lexical_Decision_Task.osexp","C:/Users/charl","no","Andale Mono","no","18","no","white","no","yes","576","legacy","80","80","3","C:/Users/charl/subject-5208654.csv","legacy","Lentiform Loewenfeld","3.3.7","yes","yes","600bd7cfb6416f0113b04181","602110864497cf011d9c0822","0","f","NA","space","space","space","space","f","570","NA","3170","12382","125441","9735","570","2","legacy","1024","2","48000","-16","task","5208654","even","NA","149418","154594","151422","319244","3371","141200","15758","319748","251189","319243","319748","319112","154594","320322","147580","318612","3351","300481","Lexical Decision Task","80","61090","85","yes","1024"
"3.378276681","6.39","8","bran","word","93.02325581395348","93.02325581395348","718.5116279069767","718.5116279069767","black","no","legacy","legacy","legacy","0","uniform","0","undefined","undefined","undefined","0","j","0","0","0","0","85","0","0","0","85","0","81","85","81","0","81","3","85","0","85","Tue Feb 16 13:44:17 2021","The main experiment item","yes","Lexical_Decision_Task.osexp","C:/Users/charl","no","Andale Mono","no","18","no","white","no","yes","576","legacy","81","81","3","C:/Users/charl/subject-5208654.csv","legacy","Lentiform Loewenfeld","3.3.7","yes","yes","600bd7cfb6416f0113b04181","602110864497cf011d9c0822","0","f","NA","space","space","space","space","f","702","NA","3170","12382","125441","9735","702","2","legacy","1024","2","48000","-16","task","5208654","even","NA","149418","154594","151422","320976","3371","141200","15758","321480","251189","320974","321480","320837","154594","322186","147580","320337","3351","300481","Lexical Decision Task","80","61792","86","yes","1024"
"2.576725172","0","8","gowl","non-word","93.10344827586206","93.10344827586206","718.8390804597701","718.8390804597701","black","no","legacy","legacy","legacy","0","uniform","1","undefined","undefined","undefined","1","f","0","0","0","0","86","0","0","0","86","0","82","86","82","0","82","3","86","0","86","Tue Feb 16 13:44:17 2021","The main experiment item","yes","Lexical_Decision_Task.osexp","C:/Users/charl","no","Andale Mono","no","18","no","white","no","yes","576","legacy","82","82","3","C:/Users/charl/subject-5208654.csv","legacy","Lentiform Loewenfeld","3.3.7","yes","yes","600bd7cfb6416f0113b04181","602110864497cf011d9c0822","0","f","NA","space","space","space","space","f","747","NA","3170","12382","125441","9735","747","2","legacy","1024","2","48000","-16","task","5208654","even","NA","149418","154594","151422","323840","3371","141200","15758","324344","251189","323838","324344","323702","154594","325094","147580","320337","3351","322202","Lexical Decision Task","81","62539","87","yes","1024"
"3.208978517","10.33","4","fish","word","93.18181818181819","93.18181818181819","717.8863636363636","717.8863636363636","black","no","legacy","legacy","legacy","0","uniform","1","undefined","undefined","undefined","1","j","0","0","0","0","87","0","0","0","87","0","83","87","83","0","83","3","87","0","87","Tue Feb 16 13:44:17 2021","The main experiment item","yes","Lexical_Decision_Task.osexp","C:/Users/charl","no","Andale Mono","no","18","no","white","no","yes","576","legacy","83","83","3","C:/Users/charl/subject-5208654.csv","legacy","Lentiform Loewenfeld","3.3.7","yes","yes","600bd7cfb6416f0113b04181","602110864497cf011d9c0822","0","j","NA","space","space","space","space","j","635","NA","3170","12382","125441","9735","635","2","legacy","1024","2","48000","-16","task","5208654","even","NA","149418","154594","151422","325733","3371","141200","15758","326237","251189","325731","326237","325606","154594","326875","147580","325106","3351","322202","Lexical Decision Task","82","63174","88","yes","1024"
"3.088136089","8.32","9","worm","word","93.25842696629213","93.25842696629213","716.4606741573034","716.4606741573034","black","no","legacy","legacy","legacy","0","uniform","1","undefined","undefined","undefined","1","j","0","0","0","0","88","0","0","0","88","0","84","88","84","0","84","3","88","0","88","Tue Feb 16 13:44:17 2021","The main experiment item","yes","Lexical_Decision_Task.osexp","C:/Users/charl","no","Andale Mono","no","18","no","white","no","yes","576","legacy","84","84","3","C:/Users/charl/subject-5208654.csv","legacy","Lentiform Loewenfeld","3.3.7","yes","yes","600bd7cfb6416f0113b04181","602110864497cf011d9c0822","0","j","NA","space","space","space","space","j","591","NA","3170","12382","125441","9735","591","2","legacy","1024","2","48000","-16","task","5208654","even","NA","149418","154594","151422","327521","3371","141200","15758","328025","251189","327519","328025","327387","154594","328623","147580","326886","3351","322202","Lexical Decision Task","83","63765","89","yes","1024"
"3.374137706","10.21","4","tree","word","93.33333333333333","93.33333333333333","717.9777777777778","717.9777777777778","black","no","legacy","legacy","legacy","0","uniform","1","undefined","undefined","undefined","1","j","0","0","0","0","89","0","0","0","89","0","85","89","85","0","85","3","89","0","89","Tue Feb 16 13:44:17 2021","The main experiment item","yes","Lexical_Decision_Task.osexp","C:/Users/charl","no","Andale Mono","no","18","no","white","no","yes","576","legacy","85","85","3","C:/Users/charl/subject-5208654.csv","legacy","Lentiform Loewenfeld","3.3.7","yes","yes","600bd7cfb6416f0113b04181","602110864497cf011d9c0822","0","j","NA","space","space","space","space","j","853","NA","3170","12382","125441","9735","853","2","legacy","1024","2","48000","-16","task","5208654","even","NA","149418","154594","151422","329273","3371","141200","15758","329777","251189","329271","329777","329138","154594","330635","147580","328638","3351","322202","Lexical Decision Task","84","64618","90","yes","1024"
"2.68604012","0","4","pumb","non-word","92.3076923076923","92.3076923076923","718.5384615384615","718.5384615384615","black","no","legacy","legacy","legacy","0","uniform","0","undefined","undefined","undefined","0","f","0","0","0","0","90","0","0","0","90","0","86","90","86","0","86","3","90","0","90","Tue Feb 16 13:44:17 2021","The main experiment item","yes","Lexical_Decision_Task.osexp","C:/Users/charl","no","Andale Mono","no","18","no","white","no","yes","576","legacy","86","86","3","C:/Users/charl/subject-5208654.csv","legacy","Lentiform Loewenfeld","3.3.7","yes","yes","600bd7cfb6416f0113b04181","602110864497cf011d9c0822","0","j","NA","space","space","space","space","j","769","NA","3170","12382","125441","9735","769","2","legacy","1024","2","48000","-16","task","5208654","even","NA","149418","154594","151422","331281","3371","141200","15758","331785","251189","331279","331786","331150","154594","332559","147580","330650","3351","322202","Lexical Decision Task","84","65387","91","yes","1024"
"3.282244367","0","6","fute","non-word","92.3913043478261","92.3913043478261","719.4565217391304","719.4565217391304","black","no","legacy","legacy","legacy","0","uniform","1","undefined","undefined","undefined","1","f","0","0","0","0","91","0","0","0","91","0","87","91","87","0","87","3","91","0","91","Tue Feb 16 13:44:17 2021","The main experiment item","yes","Lexical_Decision_Task.osexp","C:/Users/charl","no","Andale Mono","no","18","no","white","no","yes","576","legacy","87","87","3","C:/Users/charl/subject-5208654.csv","legacy","Lentiform Loewenfeld","3.3.7","yes","yes","600bd7cfb6416f0113b04181","602110864497cf011d9c0822","0","f","NA","space","space","space","space","f","803","NA","3170","12382","125441","9735","803","2","legacy","1024","2","48000","-16","task","5208654","even","NA","149418","154594","151422","334213","3371","141200","15758","334716","251189","334211","334716","334073","154594","335524","147580","330650","3351","332573","Lexical Decision Task","85","66190","92","yes","1024"
"3.049218023","7.4","9","robe","word","92.47311827956989","92.47311827956989","719.6881720430108","719.6881720430108","black","no","legacy","legacy","legacy","0","uniform","1","undefined","undefined","undefined","1","j","0","0","0","0","92","0","0","0","92","0","88","92","88","0","88","3","92","0","92","Tue Feb 16 13:44:17 2021","The main experiment item","yes","Lexical_Decision_Task.osexp","C:/Users/charl","no","Andale Mono","no","18","no","white","no","yes","576","legacy","88","88","3","C:/Users/charl/subject-5208654.csv","legacy","Lentiform Loewenfeld","3.3.7","yes","yes","600bd7cfb6416f0113b04181","602110864497cf011d9c0822","0","j","NA","space","space","space","space","j","741","NA","3170","12382","125441","9735","741","2","legacy","1024","2","48000","-16","task","5208654","even","NA","149418","154594","151422","336172","3371","141200","15758","336675","251189","336170","336675","336039","154594","337420","147580","335538","3351","332573","Lexical Decision Task","86","66931","93","yes","1024"
"3.20996159","0","4","clee","non-word","92.55319148936171","92.55319148936171","719.2872340425532","719.2872340425532","black","no","legacy","legacy","legacy","0","uniform","1","undefined","undefined","undefined","1","f","0","0","0","0","93","0","0","0","93","0","89","93","89","0","89","3","93","0","93","Tue Feb 16 13:44:17 2021","The main experiment item","yes","Lexical_Decision_Task.osexp","C:/Users/charl","no","Andale Mono","no","18","no","white","no","yes","576","legacy","89","89","3","C:/Users/charl/subject-5208654.csv","legacy","Lentiform Loewenfeld","3.3.7","yes","yes","600bd7cfb6416f0113b04181","602110864497cf011d9c0822","0","f","NA","space","space","space","space","f","682","NA","3170","12382","125441","9735","682","2","legacy","1024","2","48000","-16","task","5208654","even","NA","149418","154594","151422","338064","3371","141200","15758","338568","251189","338061","338568","337932","154594","339254","147580","337432","3351","332573","Lexical Decision Task","87","67613","94","yes","1024"
"3.062080345","0","6","tomp","non-word","92.63157894736842","92.63157894736842","721.3789473684211","721.3789473684211","black","no","legacy","legacy","legacy","0","uniform","1","undefined","undefined","undefined","1","f","0","0","0","0","94","0","0","0","94","0","90","94","90","0","90","3","94","0","94","Tue Feb 16 13:44:17 2021","The main experiment item","yes","Lexical_Decision_Task.osexp","C:/Users/charl","no","Andale Mono","no","18","no","white","no","yes","576","legacy","90","90","3","C:/Users/charl/subject-5208654.csv","legacy","Lentiform Loewenfeld","3.3.7","yes","yes","600bd7cfb6416f0113b04181","602110864497cf011d9c0822","0","f","NA","space","space","space","space","f","918","NA","3170","12382","125441","9735","918","2","legacy","1024","2","48000","-16","task","5208654","even","NA","149418","154594","151422","339908","3371","141200","15758","340412","251189","339905","340412","339769","154594","341334","147580","339269","3351","332573","Lexical Decision Task","88","68531","95","yes","1024"
"2.875447132","0","9","jelt","non-word","92.70833333333333","92.70833333333333","724.6770833333334","724.6770833333334","black","no","legacy","legacy","legacy","0","uniform","1","undefined","undefined","undefined","1","f","0","0","0","0","95","0","0","0","95","0","91","95","91","0","91","3","95","0","95","Tue Feb 16 13:44:17 2021","The main experiment item","yes","Lexical_Decision_Task.osexp","C:/Users/charl","no","Andale Mono","no","18","no","white","no","yes","576","legacy","91","91","3","C:/Users/charl/subject-5208654.csv","legacy","Lentiform Loewenfeld","3.3.7","yes","yes","600bd7cfb6416f0113b04181","602110864497cf011d9c0822","0","f","NA","space","space","space","space","f","1038","NA","3170","12382","125441","9735","1038","2","legacy","1024","2","48000","-16","task","5208654","even","NA","149418","154594","151422","341961","3371","141200","15758","342463","251189","341959","342463","341849","154594","343505","147580","341349","3351","332573","Lexical Decision Task","89","69569","96","yes","1024"
"3.159867847","5.98","5","brim","word","91.75257731958763","91.75257731958763","723.9278350515464","723.9278350515464","black","no","legacy","legacy","legacy","0","uniform","0","undefined","undefined","undefined","0","j","0","0","0","0","96","0","0","0","96","0","92","96","92","0","92","3","96","0","96","Tue Feb 16 13:44:17 2021","The main experiment item","yes","Lexical_Decision_Task.osexp","C:/Users/charl","no","Andale Mono","no","18","no","white","no","yes","576","legacy","92","92","3","C:/Users/charl/subject-5208654.csv","legacy","Lentiform Loewenfeld","3.3.7","yes","yes","600bd7cfb6416f0113b04181","602110864497cf011d9c0822","0","f","NA","space","space","space","space","f","652","NA","3170","12382","125441","9735","652","2","legacy","1024","2","48000","-16","task","5208654","even","NA","149418","154594","151422","344145","3371","141200","15758","344648","251189","344143","344649","344020","154594","345307","147580","343519","3351","332573","Lexical Decision Task","89","70221","97","yes","1024"
"3.443783828","7.65","3","verb","word","91.83673469387755","91.83673469387755","723.765306122449","723.765306122449","black","no","legacy","legacy","legacy","0","uniform","1","undefined","undefined","undefined","1","j","0","0","0","0","97","0","0","0","97","0","93","97","93","0","93","3","97","0","97","Tue Feb 16 13:44:17 2021","The main experiment item","yes","Lexical_Decision_Task.osexp","C:/Users/charl","no","Andale Mono","no","18","no","white","no","yes","576","legacy","93","93","3","C:/Users/charl/subject-5208654.csv","legacy","Lentiform Loewenfeld","3.3.7","yes","yes","600bd7cfb6416f0113b04181","602110864497cf011d9c0822","0","j","NA","space","space","space","space","j","708","NA","3170","12382","125441","9735","708","2","legacy","1024","2","48000","-16","task","5208654","even","NA","149418","154594","151422","346957","3371","141200","15758","347460","251189","346955","347461","346821","154594","348173","147580","343519","3351","345321","Lexical Decision Task","90","70929","98","yes","1024"
"2.755364069","7.72","2","hoax","word","91.91919191919192","91.91919191919192","724.4141414141415","724.4141414141415","black","no","legacy","legacy","legacy","0","uniform","1","undefined","undefined","undefined","1","j","0","0","0","0","98","0","0","0","98","0","94","98","94","0","94","3","98","0","98","Tue Feb 16 13:44:17 2021","The main experiment item","yes","Lexical_Decision_Task.osexp","C:/Users/charl","no","Andale Mono","no","18","no","white","no","yes","576","legacy","94","94","3","C:/Users/charl/subject-5208654.csv","legacy","Lentiform Loewenfeld","3.3.7","yes","yes","600bd7cfb6416f0113b04181","602110864497cf011d9c0822","0","j","NA","space","space","space","space","j","788","NA","3170","12382","125441","9735","788","2","legacy","1024","2","48000","-16","task","5208654","even","NA","149418","154594","151422","348819","3371","141200","15758","349323","251189","348817","349323","348688","154594","350115","147580","348188","3351","345321","Lexical Decision Task","91","71717","99","yes","1024"
"2.698100546","0","9","mulk","non-word","91","91","727.6","727.6","black","no","legacy","legacy","legacy","0","uniform","0","undefined","undefined","undefined","0","f","0","0","0","0","99","0","0","0","99","0","95","99","95","0","95","3","99","0","99","Tue Feb 16 13:44:17 2021","The main experiment item","yes","Lexical_Decision_Task.osexp","C:/Users/charl","no","Andale Mono","no","18","no","white","no","yes","576","legacy","95","95","3","C:/Users/charl/subject-5208654.csv","legacy","Lentiform Loewenfeld","3.3.7","yes","yes","600bd7cfb6416f0113b04181","602110864497cf011d9c0822","0","j","NA","space","space","space","space","j","1043","NA","3170","12382","125441","9735","1043","2","legacy","1024","2","48000","-16","task","5208654","even","NA","149418","154594","151422","350758","3371","141200","15758","351262","251189","350756","351262","350629","154594","352308","147580","350129","3351","345321","Lexical Decision Task","91","72760","100","yes","1024"
"3.153104174","10.89","6","door","word","91.08910891089108","91.08910891089108","727.1485148514852","727.1485148514852","black","no","legacy","legacy","legacy","0","uniform","1","undefined","undefined","undefined","1","j","0","0","0","0","100","0","0","0","100","0","96","100","96","0","96","3","100","0","100","Tue Feb 16 13:44:17 2021","The main experiment item","yes","Lexical_Decision_Task.osexp","C:/Users/charl","no","Andale Mono","no","18","no","white","no","yes","576","legacy","96","96","3","C:/Users/charl/subject-5208654.csv","legacy","Lentiform Loewenfeld","3.3.7","yes","yes","600bd7cfb6416f0113b04181","602110864497cf011d9c0822","0","j","NA","space","space","space","space","j","682","NA","3170","12382","125441","9735","682","2","legacy","1024","2","48000","-16","task","5208654","even","NA","149418","154594","151422","353959","3371","141200","15758","354463","251189","353957","354463","353822","154594","355151","147580","350129","3351","352322","Lexical Decision Task","92","73442","101","yes","1024"
