"Log_BG","Log_Freq_HAL","Ortho_N","Stimulus","Type","acc","accuracy","average_response_time","avg_rt","background","bidi","canvas_backend","clock_backend","color_backend","compensation","coordinates","correct","correct_Experimental_intro","correct_Introduction","correct_Practice_intro","correct_experimenter_kb","correct_response","count_End_Of_Experiment","count_End_Of_Practice","count_Experimental_Loop","count_Experimental_intro","count_Fixation","count_Introduction","count_Practice_Loop","count_Practice_intro","count_Stimulus","count_block_break_feedback","count_experimental_sequence","count_experimenter_kb","count_increment_trial_count","count_init_trial_count","count_logger","count_practice_sequence","count_right","count_task","count_wrong","datetime","description","disable_garbage_collection","experiment_file","experiment_path","font_bold","font_family","font_italic","font_size","font_underline","foreground","form_clicks","fullscreen","height","keyboard_backend","live_row","live_row_Experimental_Loop","live_row_Practice_Loop","logfile","mouse_backend","opensesame_codename","opensesame_version","osf_always_upload_data","osf_always_upload_experiment","osf_datanode_id","osf_id","repeat_cycle","response","response_End_Of_Experiment","response_Experimental_intro","response_Introduction","response_Practice_intro","response_block_break_feedback","response_experimenter_kb","response_time","response_time_End_Of_Experiment","response_time_Experimental_intro","response_time_Introduction","response_time_Practice_intro","response_time_block_break_feedback","response_time_experimenter_kb","round_decimals","sampler_backend","sound_buf_size","sound_channels","sound_freq","sound_sample_size","start","subject_nr","subject_parity","time_End_Of_Experiment","time_End_Of_Practice","time_Experimental_Loop","time_Experimental_intro","time_Fixation","time_Introduction","time_Practice_Loop","time_Practice_intro","time_Stimulus","time_block_break_feedback","time_experimental_sequence","time_experimenter_kb","time_increment_trial_count","time_init_trial_count","time_logger","time_practice_sequence","time_right","time_task","time_wrong","title","total_correct","total_response_time","total_responses","uniform_coordinates","width"
"3.031812271","6.52","3","gulp","word","80","80","662.6","662.6","black","no","legacy","legacy","legacy","0","uniform","0","undefined","undefined","undefined","0","j","0","0","0","0","4","0","0","0","4","NA","0","4","0","0","0","3","4","0","4","Thu Feb 18 14:52:35 2021","The main experiment item","yes","Lexical_Decision_Task.osexp","/Users/lucydupre/Documents/Psychology Bsc (hons)/Year 2/CAL","no","Andale Mono","no","18","no","white","no","yes","576","legacy","0","0","3","/Users/lucydupre/Documents/Psychology Bsc (hons)/Year 2/CAL/subject-5207748 .csv","legacy","Lentiform Loewenfeld","3.3.7","yes","yes","600bd7cfb6416f0113b04181","602110864497cf011d9c0822","0","f","NA","space","space","space","NA","f","552","NA","2501","12781","8813","NA","552","2","legacy","1024","2","48000","-16","task","5207748","even","NA","33987","38491","35989","38513","5371","26984","18168","39016","NA","38511","39016","NA","38491","39568","32421","33463","5357","NA","Lexical Decision Task","4","3313","5","yes","1024"
"2.980306438","0","7","slun","non-word","83.33333333333333","83.33333333333333","663.8333333333334","663.8333333333334","black","no","legacy","legacy","legacy","0","uniform","1","undefined","undefined","undefined","1","f","0","0","0","0","5","0","0","0","5","NA","1","5","1","0","1","3","5","0","5","Thu Feb 18 14:52:35 2021","The main experiment item","yes","Lexical_Decision_Task.osexp","/Users/lucydupre/Documents/Psychology Bsc (hons)/Year 2/CAL","no","Andale Mono","no","18","no","white","no","yes","576","legacy","1","1","3","/Users/lucydupre/Documents/Psychology Bsc (hons)/Year 2/CAL/subject-5207748 .csv","legacy","Lentiform Loewenfeld","3.3.7","yes","yes","600bd7cfb6416f0113b04181","602110864497cf011d9c0822","0","f","NA","space","space","space","NA","f","670","NA","2501","12781","8813","NA","670","2","legacy","1024","2","48000","-16","task","5207748","even","NA","33987","38491","35989","41124","5371","26984","18168","41627","NA","41122","41627","41075","38491","42297","32421","33463","5357","39575","Lexical Decision Task","5","3983","6","yes","1024"
"3.303771854","0","9","dath","non-word","85.71428571428571","85.71428571428571","667.2857142857143","667.2857142857143","black","no","legacy","legacy","legacy","0","uniform","1","undefined","undefined","undefined","1","f","0","0","0","0","6","0","0","0","6","NA","2","6","2","0","2","3","6","0","6","Thu Feb 18 14:52:35 2021","The main experiment item","yes","Lexical_Decision_Task.osexp","/Users/lucydupre/Documents/Psychology Bsc (hons)/Year 2/CAL","no","Andale Mono","no","18","no","white","no","yes","576","legacy","2","2","3","/Users/lucydupre/Documents/Psychology Bsc (hons)/Year 2/CAL/subject-5207748 .csv","legacy","Lentiform Loewenfeld","3.3.7","yes","yes","600bd7cfb6416f0113b04181","602110864497cf011d9c0822","0","f","NA","space","space","space","NA","f","688","NA","2501","12781","8813","NA","688","2","legacy","1024","2","48000","-16","task","5207748","even","NA","33987","38491","35989","42845","5371","26984","18168","43347","NA","42843","43348","42800","38491","44036","32421","42300","5357","39575","Lexical Decision Task","6","4671","7","yes","1024"
"3.230789326","5.38","5","prim","word","87.5","87.5","692.375","692.375","black","no","legacy","legacy","legacy","0","uniform","1","undefined","undefined","undefined","1","j","0","0","0","0","7","0","0","0","7","NA","3","7","3","0","3","3","7","0","7","Thu Feb 18 14:52:35 2021","The main experiment item","yes","Lexical_Decision_Task.osexp","/Users/lucydupre/Documents/Psychology Bsc (hons)/Year 2/CAL","no","Andale Mono","no","18","no","white","no","yes","576","legacy","3","3","3","/Users/lucydupre/Documents/Psychology Bsc (hons)/Year 2/CAL/subject-5207748 .csv","legacy","Lentiform Loewenfeld","3.3.7","yes","yes","600bd7cfb6416f0113b04181","602110864497cf011d9c0822","0","j","NA","space","space","space","NA","j","868","NA","2501","12781","8813","NA","868","2","legacy","1024","2","48000","-16","task","5207748","even","NA","33987","38491","35989","44585","5371","26984","18168","45087","NA","44583","45087","44539","38491","45956","32421","44039","5357","39575","Lexical Decision Task","7","5539","8","yes","1024"
"3.276537627","9.15","5","trap","word","88.88888888888889","88.88888888888889","669.1111111111111","669.1111111111111","black","no","legacy","legacy","legacy","0","uniform","1","undefined","undefined","undefined","1","j","0","0","0","0","8","0","0","0","8","NA","4","8","4","0","4","3","8","0","8","Thu Feb 18 14:52:35 2021","The main experiment item","yes","Lexical_Decision_Task.osexp","/Users/lucydupre/Documents/Psychology Bsc (hons)/Year 2/CAL","no","Andale Mono","no","18","no","white","no","yes","576","legacy","4","4","3","/Users/lucydupre/Documents/Psychology Bsc (hons)/Year 2/CAL/subject-5207748 .csv","legacy","Lentiform Loewenfeld","3.3.7","yes","yes","600bd7cfb6416f0113b04181","602110864497cf011d9c0822","0","j","NA","space","space","space","NA","j","483","NA","2501","12781","8813","NA","483","2","legacy","1024","2","48000","-16","task","5207748","even","NA","33987","38491","35989","46504","5371","26984","18168","47006","NA","46502","47006","46459","38491","47490","32421","45959","5357","39575","Lexical Decision Task","8","6022","9","yes","1024"
"2.778633532","0","3","jurp","non-word","90","90","656.6","656.6","black","no","legacy","legacy","legacy","0","uniform","1","undefined","undefined","undefined","1","f","0","0","0","0","9","0","0","0","9","NA","5","9","5","0","5","3","9","0","9","Thu Feb 18 14:52:35 2021","The main experiment item","yes","Lexical_Decision_Task.osexp","/Users/lucydupre/Documents/Psychology Bsc (hons)/Year 2/CAL","no","Andale Mono","no","18","no","white","no","yes","576","legacy","5","5","3","/Users/lucydupre/Documents/Psychology Bsc (hons)/Year 2/CAL/subject-5207748 .csv","legacy","Lentiform Loewenfeld","3.3.7","yes","yes","600bd7cfb6416f0113b04181","602110864497cf011d9c0822","0","f","NA","space","space","space","NA","f","544","NA","2501","12781","8813","NA","544","2","legacy","1024","2","48000","-16","task","5207748","even","NA","33987","38491","35989","48039","5371","26984","18168","48542","NA","48037","48542","47993","38491","49086","32421","47493","5357","39575","Lexical Decision Task","9","6566","10","yes","1024"
"2.899638141","0","3","hapt","non-word","90.9090909090909","90.9090909090909","668.4545454545455","668.4545454545455","black","no","legacy","legacy","legacy","0","uniform","1","undefined","undefined","undefined","1","f","0","0","0","0","10","0","0","0","10","NA","6","10","6","0","6","3","10","0","10","Thu Feb 18 14:52:35 2021","The main experiment item","yes","Lexical_Decision_Task.osexp","/Users/lucydupre/Documents/Psychology Bsc (hons)/Year 2/CAL","no","Andale Mono","no","18","no","white","no","yes","576","legacy","6","6","3","/Users/lucydupre/Documents/Psychology Bsc (hons)/Year 2/CAL/subject-5207748 .csv","legacy","Lentiform Loewenfeld","3.3.7","yes","yes","600bd7cfb6416f0113b04181","602110864497cf011d9c0822","0","f","NA","space","space","space","NA","f","787","NA","2501","12781","8813","NA","787","2","legacy","1024","2","48000","-16","task","5207748","even","NA","33987","38491","35989","49634","5371","26984","18168","50136","NA","49632","50137","49589","38491","50925","32421","49089","5357","39575","Lexical Decision Task","10","7353","11","yes","1024"
"3.252447662","9.67","9","boat","word","91.66666666666667","91.66666666666667","660.9166666666666","660.9166666666666","black","no","legacy","legacy","legacy","0","uniform","1","undefined","undefined","undefined","1","j","0","0","0","0","11","0","0","0","11","NA","7","11","7","0","7","3","11","0","11","Thu Feb 18 14:52:35 2021","The main experiment item","yes","Lexical_Decision_Task.osexp","/Users/lucydupre/Documents/Psychology Bsc (hons)/Year 2/CAL","no","Andale Mono","no","18","no","white","no","yes","576","legacy","7","7","3","/Users/lucydupre/Documents/Psychology Bsc (hons)/Year 2/CAL/subject-5207748 .csv","legacy","Lentiform Loewenfeld","3.3.7","yes","yes","600bd7cfb6416f0113b04181","602110864497cf011d9c0822","0","j","NA","space","space","space","NA","j","578","NA","2501","12781","8813","NA","578","2","legacy","1024","2","48000","-16","task","5207748","even","NA","33987","38491","35989","51473","5371","26984","18168","51976","NA","51471","51976","51427","38491","52555","32421","50927","5357","39575","Lexical Decision Task","11","7931","12","yes","1024"
"2.706148589","0","4","hube","non-word","92.3076923076923","92.3076923076923","662.6153846153846","662.6153846153846","black","no","legacy","legacy","legacy","0","uniform","1","undefined","undefined","undefined","1","f","0","0","0","0","12","0","0","0","12","NA","8","12","8","0","8","3","12","0","12","Thu Feb 18 14:52:35 2021","The main experiment item","yes","Lexical_Decision_Task.osexp","/Users/lucydupre/Documents/Psychology Bsc (hons)/Year 2/CAL","no","Andale Mono","no","18","no","white","no","yes","576","legacy","8","8","3","/Users/lucydupre/Documents/Psychology Bsc (hons)/Year 2/CAL/subject-5207748 .csv","legacy","Lentiform Loewenfeld","3.3.7","yes","yes","600bd7cfb6416f0113b04181","602110864497cf011d9c0822","0","f","NA","space","space","space","NA","f","683","NA","2501","12781","8813","NA","683","2","legacy","1024","2","48000","-16","task","5207748","even","NA","33987","38491","35989","53104","5371","26984","18168","53606","NA","53102","53607","53058","38491","54291","32421","52558","5357","39575","Lexical Decision Task","12","8614","13","yes","1024"
"2.714888338","0","3","brug","non-word","92.85714285714286","92.85714285714286","660.7142857142857","660.7142857142857","black","no","legacy","legacy","legacy","0","uniform","1","undefined","undefined","undefined","1","f","0","0","0","0","13","0","0","0","13","NA","9","13","9","0","9","3","13","0","13","Thu Feb 18 14:52:35 2021","The main experiment item","yes","Lexical_Decision_Task.osexp","/Users/lucydupre/Documents/Psychology Bsc (hons)/Year 2/CAL","no","Andale Mono","no","18","no","white","no","yes","576","legacy","9","9","3","/Users/lucydupre/Documents/Psychology Bsc (hons)/Year 2/CAL/subject-5207748 .csv","legacy","Lentiform Loewenfeld","3.3.7","yes","yes","600bd7cfb6416f0113b04181","602110864497cf011d9c0822","0","f","NA","space","space","space","NA","f","636","NA","2501","12781","8813","NA","636","2","legacy","1024","2","48000","-16","task","5207748","even","NA","33987","38491","35989","54839","5371","26984","18168","55341","NA","54837","55341","54793","38491","55977","32421","54293","5357","39575","Lexical Decision Task","13","9250","14","yes","1024"
"3.105055783","0","2","norp","non-word","93.33333333333333","93.33333333333333","650.4666666666667","650.4666666666667","black","no","legacy","legacy","legacy","0","uniform","1","undefined","undefined","undefined","1","f","0","0","0","0","14","0","0","0","14","NA","10","14","10","0","10","3","14","0","14","Thu Feb 18 14:52:35 2021","The main experiment item","yes","Lexical_Decision_Task.osexp","/Users/lucydupre/Documents/Psychology Bsc (hons)/Year 2/CAL","no","Andale Mono","no","18","no","white","no","yes","576","legacy","10","10","3","/Users/lucydupre/Documents/Psychology Bsc (hons)/Year 2/CAL/subject-5207748 .csv","legacy","Lentiform Loewenfeld","3.3.7","yes","yes","600bd7cfb6416f0113b04181","602110864497cf011d9c0822","0","f","NA","space","space","space","NA","f","507","NA","2501","12781","8813","NA","507","2","legacy","1024","2","48000","-16","task","5207748","even","NA","33987","38491","35989","56526","5371","26984","18168","57029","NA","56524","57029","56481","38491","57537","32421","55980","5357","39575","Lexical Decision Task","14","9757","15","yes","1024"
"3.269668578","0","7","trag","non-word","93.75","93.75","645.9375","645.9375","black","no","legacy","legacy","legacy","0","uniform","1","undefined","undefined","undefined","1","f","0","0","0","0","15","0","0","0","15","NA","11","15","11","0","11","3","15","0","15","Thu Feb 18 14:52:35 2021","The main experiment item","yes","Lexical_Decision_Task.osexp","/Users/lucydupre/Documents/Psychology Bsc (hons)/Year 2/CAL","no","Andale Mono","no","18","no","white","no","yes","576","legacy","11","11","3","/Users/lucydupre/Documents/Psychology Bsc (hons)/Year 2/CAL/subject-5207748 .csv","legacy","Lentiform Loewenfeld","3.3.7","yes","yes","600bd7cfb6416f0113b04181","602110864497cf011d9c0822","0","f","NA","space","space","space","NA","f","578","NA","2501","12781","8813","NA","578","2","legacy","1024","2","48000","-16","task","5207748","even","NA","33987","38491","35989","58086","5371","26984","18168","58589","NA","58084","58589","58040","38491","59167","32421","57540","5357","39575","Lexical Decision Task","15","10335","16","yes","1024"
"3.195807436","0","6","stup","non-word","94.11764705882354","94.11764705882354","638.5882352941177","638.5882352941177","black","no","legacy","legacy","legacy","0","uniform","1","undefined","undefined","undefined","1","f","0","0","0","0","16","0","0","0","16","NA","12","16","12","0","12","3","16","0","16","Thu Feb 18 14:52:35 2021","The main experiment item","yes","Lexical_Decision_Task.osexp","/Users/lucydupre/Documents/Psychology Bsc (hons)/Year 2/CAL","no","Andale Mono","no","18","no","white","no","yes","576","legacy","12","12","3","/Users/lucydupre/Documents/Psychology Bsc (hons)/Year 2/CAL/subject-5207748 .csv","legacy","Lentiform Loewenfeld","3.3.7","yes","yes","600bd7cfb6416f0113b04181","602110864497cf011d9c0822","0","f","NA","space","space","space","NA","f","521","NA","2501","12781","8813","NA","521","2","legacy","1024","2","48000","-16","task","5207748","even","NA","33987","38491","35989","59715","5371","26984","18168","60218","NA","59713","60218","59670","38491","60739","32421","59170","5357","39575","Lexical Decision Task","16","10856","17","yes","1024"
"2.983324025","9.56","2","debt","word","94.44444444444444","94.44444444444444","634.5","634.5","black","no","legacy","legacy","legacy","0","uniform","1","undefined","undefined","undefined","1","j","0","0","0","0","17","0","0","0","17","NA","13","17","13","0","13","3","17","0","17","Thu Feb 18 14:52:35 2021","The main experiment item","yes","Lexical_Decision_Task.osexp","/Users/lucydupre/Documents/Psychology Bsc (hons)/Year 2/CAL","no","Andale Mono","no","18","no","white","no","yes","576","legacy","13","13","3","/Users/lucydupre/Documents/Psychology Bsc (hons)/Year 2/CAL/subject-5207748 .csv","legacy","Lentiform Loewenfeld","3.3.7","yes","yes","600bd7cfb6416f0113b04181","602110864497cf011d9c0822","0","j","NA","space","space","space","NA","j","565","NA","2501","12781","8813","NA","565","2","legacy","1024","2","48000","-16","task","5207748","even","NA","33987","38491","35989","61288","5371","26984","18168","61791","NA","61286","61791","61242","38491","62357","32421","60742","5357","39575","Lexical Decision Task","17","11421","18","yes","1024"
"3.384413096","10.15","3","glad","word","89.47368421052632","89.47368421052632","625","625","black","no","legacy","legacy","legacy","0","uniform","0","undefined","undefined","undefined","0","j","0","0","0","0","18","0","0","0","18","NA","14","18","14","0","14","3","18","0","18","Thu Feb 18 14:52:35 2021","The main experiment item","yes","Lexical_Decision_Task.osexp","/Users/lucydupre/Documents/Psychology Bsc (hons)/Year 2/CAL","no","Andale Mono","no","18","no","white","no","yes","576","legacy","14","14","3","/Users/lucydupre/Documents/Psychology Bsc (hons)/Year 2/CAL/subject-5207748 .csv","legacy","Lentiform Loewenfeld","3.3.7","yes","yes","600bd7cfb6416f0113b04181","602110864497cf011d9c0822","0","f","NA","space","space","space","NA","f","454","NA","2501","12781","8813","NA","454","2","legacy","1024","2","48000","-16","task","5207748","even","NA","33987","38491","35989","62903","5371","26984","18168","63405","NA","62901","63405","62859","38491","63860","32421","62359","5357","39575","Lexical Decision Task","17","11875","19","yes","1024"
"3.140404328","10.66","9","deep","word","90","90","629.85","629.85","black","no","legacy","legacy","legacy","0","uniform","1","undefined","undefined","undefined","1","j","0","0","0","0","19","0","0","0","19","NA","15","19","15","0","15","3","19","0","19","Thu Feb 18 14:52:35 2021","The main experiment item","yes","Lexical_Decision_Task.osexp","/Users/lucydupre/Documents/Psychology Bsc (hons)/Year 2/CAL","no","Andale Mono","no","18","no","white","no","yes","576","legacy","15","15","3","/Users/lucydupre/Documents/Psychology Bsc (hons)/Year 2/CAL/subject-5207748 .csv","legacy","Lentiform Loewenfeld","3.3.7","yes","yes","600bd7cfb6416f0113b04181","602110864497cf011d9c0822","0","j","NA","space","space","space","NA","j","722","NA","2501","12781","8813","NA","722","2","legacy","1024","2","48000","-16","task","5207748","even","NA","33987","38491","35989","65413","5371","26984","18168","65916","NA","65411","65916","65363","38491","66638","32421","62359","5357","63863","Lexical Decision Task","18","12597","20","yes","1024"
"2.799799878","0","4","ciff","non-word","85.71428571428571","85.71428571428571","628.2857142857143","628.2857142857143","black","no","legacy","legacy","legacy","0","uniform","0","undefined","undefined","undefined","0","f","0","0","0","0","20","0","0","0","20","NA","16","20","16","0","16","3","20","0","20","Thu Feb 18 14:52:35 2021","The main experiment item","yes","Lexical_Decision_Task.osexp","/Users/lucydupre/Documents/Psychology Bsc (hons)/Year 2/CAL","no","Andale Mono","no","18","no","white","no","yes","576","legacy","16","16","3","/Users/lucydupre/Documents/Psychology Bsc (hons)/Year 2/CAL/subject-5207748 .csv","legacy","Lentiform Loewenfeld","3.3.7","yes","yes","600bd7cfb6416f0113b04181","602110864497cf011d9c0822","0","j","NA","space","space","space","NA","j","597","NA","2501","12781","8813","NA","597","2","legacy","1024","2","48000","-16","task","5207748","even","NA","33987","38491","35989","67188","5371","26984","18168","67691","NA","67185","67691","67141","38491","68289","32421","66641","5357","63863","Lexical Decision Task","18","13194","21","yes","1024"
"2.794720352","0","9","koot","non-word","86.36363636363636","86.36363636363636","626.0909090909091","626.0909090909091","black","no","legacy","legacy","legacy","0","uniform","1","undefined","undefined","undefined","1","f","0","0","0","0","21","0","0","0","21","NA","17","21","17","0","17","3","21","0","21","Thu Feb 18 14:52:35 2021","The main experiment item","yes","Lexical_Decision_Task.osexp","/Users/lucydupre/Documents/Psychology Bsc (hons)/Year 2/CAL","no","Andale Mono","no","18","no","white","no","yes","576","legacy","17","17","3","/Users/lucydupre/Documents/Psychology Bsc (hons)/Year 2/CAL/subject-5207748 .csv","legacy","Lentiform Loewenfeld","3.3.7","yes","yes","600bd7cfb6416f0113b04181","602110864497cf011d9c0822","0","f","NA","space","space","space","NA","f","580","NA","2501","12781","8813","NA","580","2","legacy","1024","2","48000","-16","task","5207748","even","NA","33987","38491","35989","69840","5371","26984","18168","70343","NA","69838","70343","69792","38491","70924","32421","66641","5357","68292","Lexical Decision Task","19","13774","22","yes","1024"
"2.868644438","10.52","4","town","word","86.95652173913044","86.95652173913044","623.6086956521739","623.6086956521739","black","no","legacy","legacy","legacy","0","uniform","1","undefined","undefined","undefined","1","j","0","0","0","0","22","0","0","0","22","NA","18","22","18","0","18","3","22","0","22","Thu Feb 18 14:52:35 2021","The main experiment item","yes","Lexical_Decision_Task.osexp","/Users/lucydupre/Documents/Psychology Bsc (hons)/Year 2/CAL","no","Andale Mono","no","18","no","white","no","yes","576","legacy","18","18","3","/Users/lucydupre/Documents/Psychology Bsc (hons)/Year 2/CAL/subject-5207748 .csv","legacy","Lentiform Loewenfeld","3.3.7","yes","yes","600bd7cfb6416f0113b04181","602110864497cf011d9c0822","0","j","NA","space","space","space","NA","j","569","NA","2501","12781","8813","NA","569","2","legacy","1024","2","48000","-16","task","5207748","even","NA","33987","38491","35989","71473","5371","26984","18168","71976","NA","71471","71976","71427","38491","72546","32421","70927","5357","68292","Lexical Decision Task","20","14343","23","yes","1024"
"2.875447132","0","9","jelt","non-word","87.5","87.5","628.0833333333334","628.0833333333334","black","no","legacy","legacy","legacy","0","uniform","1","undefined","undefined","undefined","1","f","0","0","0","0","23","0","0","0","23","NA","19","23","19","0","19","3","23","0","23","Thu Feb 18 14:52:35 2021","The main experiment item","yes","Lexical_Decision_Task.osexp","/Users/lucydupre/Documents/Psychology Bsc (hons)/Year 2/CAL","no","Andale Mono","no","18","no","white","no","yes","576","legacy","19","19","3","/Users/lucydupre/Documents/Psychology Bsc (hons)/Year 2/CAL/subject-5207748 .csv","legacy","Lentiform Loewenfeld","3.3.7","yes","yes","600bd7cfb6416f0113b04181","602110864497cf011d9c0822","0","f","NA","space","space","space","NA","f","731","NA","2501","12781","8813","NA","731","2","legacy","1024","2","48000","-16","task","5207748","even","NA","33987","38491","35989","73095","5371","26984","18168","73598","NA","73093","73598","73049","38491","74330","32421","72549","5357","68292","Lexical Decision Task","21","15074","24","yes","1024"
"2.703007489","8.37","3","pulp","word","88","88","631.04","631.04","black","no","legacy","legacy","legacy","0","uniform","1","undefined","undefined","undefined","1","j","0","0","0","0","24","0","0","0","24","NA","20","24","20","0","20","3","24","0","24","Thu Feb 18 14:52:35 2021","The main experiment item","yes","Lexical_Decision_Task.osexp","/Users/lucydupre/Documents/Psychology Bsc (hons)/Year 2/CAL","no","Andale Mono","no","18","no","white","no","yes","576","legacy","20","20","3","/Users/lucydupre/Documents/Psychology Bsc (hons)/Year 2/CAL/subject-5207748 .csv","legacy","Lentiform Loewenfeld","3.3.7","yes","yes","600bd7cfb6416f0113b04181","602110864497cf011d9c0822","0","j","NA","space","space","space","NA","j","702","NA","2501","12781","8813","NA","702","2","legacy","1024","2","48000","-16","task","5207748","even","NA","33987","38491","35989","74880","5371","26984","18168","75382","NA","74877","75383","74833","38491","76086","32421","74332","5357","68292","Lexical Decision Task","22","15776","25","yes","1024"
"3.474361976","5.24","6","veer","word","88.46153846153847","88.46153846153847","633.1538461538462","633.1538461538462","black","no","legacy","legacy","legacy","0","uniform","1","undefined","undefined","undefined","1","j","0","0","0","0","25","0","0","0","25","NA","21","25","21","0","21","3","25","0","25","Thu Feb 18 14:52:35 2021","The main experiment item","yes","Lexical_Decision_Task.osexp","/Users/lucydupre/Documents/Psychology Bsc (hons)/Year 2/CAL","no","Andale Mono","no","18","no","white","no","yes","576","legacy","21","21","3","/Users/lucydupre/Documents/Psychology Bsc (hons)/Year 2/CAL/subject-5207748 .csv","legacy","Lentiform Loewenfeld","3.3.7","yes","yes","600bd7cfb6416f0113b04181","602110864497cf011d9c0822","0","j","NA","space","space","space","NA","j","686","NA","2501","12781","8813","NA","686","2","legacy","1024","2","48000","-16","task","5207748","even","NA","33987","38491","35989","76635","5371","26984","18168","77138","NA","76633","77138","76589","38491","77825","32421","76089","5357","68292","Lexical Decision Task","23","16462","26","yes","1024"
"2.873320602","0","4","lurg","non-word","85.18518518518519","85.18518518518519","635.2962962962963","635.2962962962963","black","no","legacy","legacy","legacy","0","uniform","0","undefined","undefined","undefined","0","f","0","0","0","0","26","0","0","0","26","NA","22","26","22","0","22","3","26","0","26","Thu Feb 18 14:52:35 2021","The main experiment item","yes","Lexical_Decision_Task.osexp","/Users/lucydupre/Documents/Psychology Bsc (hons)/Year 2/CAL","no","Andale Mono","no","18","no","white","no","yes","576","legacy","22","22","3","/Users/lucydupre/Documents/Psychology Bsc (hons)/Year 2/CAL/subject-5207748 .csv","legacy","Lentiform Loewenfeld","3.3.7","yes","yes","600bd7cfb6416f0113b04181","602110864497cf011d9c0822","0","j","NA","space","space","space","NA","j","691","NA","2501","12781","8813","NA","691","2","legacy","1024","2","48000","-16","task","5207748","even","NA","33987","38491","35989","78374","5371","26984","18168","78877","NA","78372","78877","78328","38491","79569","32421","77828","5357","68292","Lexical Decision Task","23","17153","27","yes","1024"
"3.14849993","10.75","7","hour","word","85.71428571428571","85.71428571428571","631.8571428571429","631.8571428571429","black","no","legacy","legacy","legacy","0","uniform","1","undefined","undefined","undefined","1","j","0","0","0","0","27","0","0","0","27","NA","23","27","23","0","23","3","27","0","27","Thu Feb 18 14:52:35 2021","The main experiment item","yes","Lexical_Decision_Task.osexp","/Users/lucydupre/Documents/Psychology Bsc (hons)/Year 2/CAL","no","Andale Mono","no","18","no","white","no","yes","576","legacy","23","23","3","/Users/lucydupre/Documents/Psychology Bsc (hons)/Year 2/CAL/subject-5207748 .csv","legacy","Lentiform Loewenfeld","3.3.7","yes","yes","600bd7cfb6416f0113b04181","602110864497cf011d9c0822","0","j","NA","space","space","space","NA","j","539","NA","2501","12781","8813","NA","539","2","legacy","1024","2","48000","-16","task","5207748","even","NA","33987","38491","35989","81122","5371","26984","18168","81624","NA","81120","81625","81072","38491","82165","32421","77828","5357","79571","Lexical Decision Task","24","17692","28","yes","1024"
"3.216517684","10.87","3","film","word","86.20689655172414","86.20689655172414","629.1034482758621","629.1034482758621","black","no","legacy","legacy","legacy","0","uniform","1","undefined","undefined","undefined","1","j","0","0","0","0","28","0","0","0","28","NA","24","28","24","0","24","3","28","0","28","Thu Feb 18 14:52:35 2021","The main experiment item","yes","Lexical_Decision_Task.osexp","/Users/lucydupre/Documents/Psychology Bsc (hons)/Year 2/CAL","no","Andale Mono","no","18","no","white","no","yes","576","legacy","24","24","3","/Users/lucydupre/Documents/Psychology Bsc (hons)/Year 2/CAL/subject-5207748 .csv","legacy","Lentiform Loewenfeld","3.3.7","yes","yes","600bd7cfb6416f0113b04181","602110864497cf011d9c0822","0","j","NA","space","space","space","NA","j","552","NA","2501","12781","8813","NA","552","2","legacy","1024","2","48000","-16","task","5207748","even","NA","33987","38491","35989","82712","5371","26984","18168","83215","NA","82710","83215","82667","38491","83768","32421","82167","5357","79571","Lexical Decision Task","25","18244","29","yes","1024"
"3.374198258","0","8","vist","non-word","83.33333333333333","83.33333333333333","626.1","626.1","black","no","legacy","legacy","legacy","0","uniform","0","undefined","undefined","undefined","0","f","0","0","0","0","29","0","0","0","29","NA","25","29","25","0","25","3","29","0","29","Thu Feb 18 14:52:35 2021","The main experiment item","yes","Lexical_Decision_Task.osexp","/Users/lucydupre/Documents/Psychology Bsc (hons)/Year 2/CAL","no","Andale Mono","no","18","no","white","no","yes","576","legacy","25","25","3","/Users/lucydupre/Documents/Psychology Bsc (hons)/Year 2/CAL/subject-5207748 .csv","legacy","Lentiform Loewenfeld","3.3.7","yes","yes","600bd7cfb6416f0113b04181","602110864497cf011d9c0822","0","j","NA","space","space","space","NA","j","539","NA","2501","12781","8813","NA","539","2","legacy","1024","2","48000","-16","task","5207748","even","NA","33987","38491","35989","84317","5371","26984","18168","84819","NA","84315","84819","84271","38491","85358","32421","83771","5357","79571","Lexical Decision Task","25","18783","30","yes","1024"
"2.9737419","7.69","7","claw","word","83.87096774193549","83.87096774193549","625.5806451612904","625.5806451612904","black","no","legacy","legacy","legacy","0","uniform","1","undefined","undefined","undefined","1","j","0","0","0","0","30","0","0","0","30","NA","26","30","26","0","26","3","30","0","30","Thu Feb 18 14:52:35 2021","The main experiment item","yes","Lexical_Decision_Task.osexp","/Users/lucydupre/Documents/Psychology Bsc (hons)/Year 2/CAL","no","Andale Mono","no","18","no","white","no","yes","576","legacy","26","26","3","/Users/lucydupre/Documents/Psychology Bsc (hons)/Year 2/CAL/subject-5207748 .csv","legacy","Lentiform Loewenfeld","3.3.7","yes","yes","600bd7cfb6416f0113b04181","602110864497cf011d9c0822","0","j","NA","space","space","space","NA","j","610","NA","2501","12781","8813","NA","610","2","legacy","1024","2","48000","-16","task","5207748","even","NA","33987","38491","35989","86910","5371","26984","18168","87413","NA","86907","87413","86861","38491","88023","32421","83771","5357","85361","Lexical Decision Task","26","19393","31","yes","1024"
"2.839268497","0","8","maft","non-word","84.375","84.375","624.5625","624.5625","black","no","legacy","legacy","legacy","0","uniform","1","undefined","undefined","undefined","1","f","0","0","0","0","31","0","0","0","31","NA","27","31","27","0","27","3","31","0","31","Thu Feb 18 14:52:35 2021","The main experiment item","yes","Lexical_Decision_Task.osexp","/Users/lucydupre/Documents/Psychology Bsc (hons)/Year 2/CAL","no","Andale Mono","no","18","no","white","no","yes","576","legacy","27","27","3","/Users/lucydupre/Documents/Psychology Bsc (hons)/Year 2/CAL/subject-5207748 .csv","legacy","Lentiform Loewenfeld","3.3.7","yes","yes","600bd7cfb6416f0113b04181","602110864497cf011d9c0822","0","f","NA","space","space","space","NA","f","593","NA","2501","12781","8813","NA","593","2","legacy","1024","2","48000","-16","task","5207748","even","NA","33987","38491","35989","88572","5371","26984","18168","89074","NA","88570","89074","88526","38491","89668","32421","88026","5357","85361","Lexical Decision Task","27","19986","32","yes","1024"
"3.131833513","7.66","4","limb","word","84.84848484848484","84.84848484848484","621.4545454545455","621.4545454545455","black","no","legacy","legacy","legacy","0","uniform","1","undefined","undefined","undefined","1","j","0","0","0","0","32","0","0","0","32","NA","28","32","28","0","28","3","32","0","32","Thu Feb 18 14:52:35 2021","The main experiment item","yes","Lexical_Decision_Task.osexp","/Users/lucydupre/Documents/Psychology Bsc (hons)/Year 2/CAL","no","Andale Mono","no","18","no","white","no","yes","576","legacy","28","28","3","/Users/lucydupre/Documents/Psychology Bsc (hons)/Year 2/CAL/subject-5207748 .csv","legacy","Lentiform Loewenfeld","3.3.7","yes","yes","600bd7cfb6416f0113b04181","602110864497cf011d9c0822","0","j","NA","space","space","space","NA","j","522","NA","2501","12781","8813","NA","522","2","legacy","1024","2","48000","-16","task","5207748","even","NA","33987","38491","35989","90214","5371","26984","18168","90717","NA","90212","90717","90171","38491","91240","32421","89671","5357","85361","Lexical Decision Task","28","20508","33","yes","1024"
"3.037294994","8.64","7","roof","word","85.29411764705883","85.29411764705883","617.1764705882352","617.1764705882352","black","no","legacy","legacy","legacy","0","uniform","1","undefined","undefined","undefined","1","j","0","0","0","0","33","0","0","0","33","NA","29","33","29","0","29","3","33","0","33","Thu Feb 18 14:52:35 2021","The main experiment item","yes","Lexical_Decision_Task.osexp","/Users/lucydupre/Documents/Psychology Bsc (hons)/Year 2/CAL","no","Andale Mono","no","18","no","white","no","yes","576","legacy","29","29","3","/Users/lucydupre/Documents/Psychology Bsc (hons)/Year 2/CAL/subject-5207748 .csv","legacy","Lentiform Loewenfeld","3.3.7","yes","yes","600bd7cfb6416f0113b04181","602110864497cf011d9c0822","0","j","NA","space","space","space","NA","j","476","NA","2501","12781","8813","NA","476","2","legacy","1024","2","48000","-16","task","5207748","even","NA","33987","38491","35989","91788","5371","26984","18168","92290","NA","91786","92290","91743","38491","92767","32421","91242","5357","85361","Lexical Decision Task","29","20984","34","yes","1024"
"3.076883066","0","8","mout","non-word","82.85714285714286","82.85714285714286","614.9428571428572","614.9428571428572","black","no","legacy","legacy","legacy","0","uniform","0","undefined","undefined","undefined","0","f","0","0","0","0","34","0","0","0","34","NA","30","34","30","0","30","3","34","0","34","Thu Feb 18 14:52:35 2021","The main experiment item","yes","Lexical_Decision_Task.osexp","/Users/lucydupre/Documents/Psychology Bsc (hons)/Year 2/CAL","no","Andale Mono","no","18","no","white","no","yes","576","legacy","30","30","3","/Users/lucydupre/Documents/Psychology Bsc (hons)/Year 2/CAL/subject-5207748 .csv","legacy","Lentiform Loewenfeld","3.3.7","yes","yes","600bd7cfb6416f0113b04181","602110864497cf011d9c0822","0","j","NA","space","space","space","NA","j","539","NA","2501","12781","8813","NA","539","2","legacy","1024","2","48000","-16","task","5207748","even","NA","33987","38491","35989","93316","5371","26984","18168","93818","NA","93314","93819","93270","38491","94359","32421","92770","5357","85361","Lexical Decision Task","29","21523","35","yes","1024"
"3.1430148","7.92","8","bald","word","83.33333333333333","83.33333333333333","614.5277777777778","614.5277777777778","black","no","legacy","legacy","legacy","0","uniform","1","undefined","undefined","undefined","1","j","0","0","0","0","35","0","0","0","35","NA","31","35","31","0","31","3","35","0","35","Thu Feb 18 14:52:35 2021","The main experiment item","yes","Lexical_Decision_Task.osexp","/Users/lucydupre/Documents/Psychology Bsc (hons)/Year 2/CAL","no","Andale Mono","no","18","no","white","no","yes","576","legacy","31","31","3","/Users/lucydupre/Documents/Psychology Bsc (hons)/Year 2/CAL/subject-5207748 .csv","legacy","Lentiform Loewenfeld","3.3.7","yes","yes","600bd7cfb6416f0113b04181","602110864497cf011d9c0822","0","j","NA","space","space","space","NA","j","600","NA","2501","12781","8813","NA","600","2","legacy","1024","2","48000","-16","task","5207748","even","NA","33987","38491","35989","95908","5371","26984","18168","96411","NA","95906","96411","95862","38491","97012","32421","92770","5357","94362","Lexical Decision Task","30","22123","36","yes","1024"
"3.353210739","0","9","reet","non-word","83.78378378378379","83.78378378378379","617.4054054054054","617.4054054054054","black","no","legacy","legacy","legacy","0","uniform","1","undefined","undefined","undefined","1","f","0","0","0","0","36","0","0","0","36","NA","32","36","32","0","32","3","36","0","36","Thu Feb 18 14:52:35 2021","The main experiment item","yes","Lexical_Decision_Task.osexp","/Users/lucydupre/Documents/Psychology Bsc (hons)/Year 2/CAL","no","Andale Mono","no","18","no","white","no","yes","576","legacy","32","32","3","/Users/lucydupre/Documents/Psychology Bsc (hons)/Year 2/CAL/subject-5207748 .csv","legacy","Lentiform Loewenfeld","3.3.7","yes","yes","600bd7cfb6416f0113b04181","602110864497cf011d9c0822","0","f","NA","space","space","space","NA","f","721","NA","2501","12781","8813","NA","721","2","legacy","1024","2","48000","-16","task","5207748","even","NA","33987","38491","35989","97561","5371","26984","18168","98064","NA","97559","98064","97515","38491","98786","32421","97015","5357","94362","Lexical Decision Task","31","22844","37","yes","1024"
"2.839898939","8.99","6","soap","word","84.21052631578948","84.21052631578948","613.078947368421","613.078947368421","black","no","legacy","legacy","legacy","0","uniform","1","undefined","undefined","undefined","1","j","0","0","0","0","37","0","0","0","37","NA","33","37","33","0","33","3","37","0","37","Thu Feb 18 14:52:35 2021","The main experiment item","yes","Lexical_Decision_Task.osexp","/Users/lucydupre/Documents/Psychology Bsc (hons)/Year 2/CAL","no","Andale Mono","no","18","no","white","no","yes","576","legacy","33","33","3","/Users/lucydupre/Documents/Psychology Bsc (hons)/Year 2/CAL/subject-5207748 .csv","legacy","Lentiform Loewenfeld","3.3.7","yes","yes","600bd7cfb6416f0113b04181","602110864497cf011d9c0822","0","j","NA","space","space","space","NA","j","453","NA","2501","12781","8813","NA","453","2","legacy","1024","2","48000","-16","task","5207748","even","NA","33987","38491","35989","99339","5371","26984","18168","99841","NA","99336","99842","99288","38491","100296","32421","98788","5357","94362","Lexical Decision Task","32","23297","38","yes","1024"
"3.031408464","0","7","drow","non-word","84.61538461538461","84.61538461538461","616.5384615384615","616.5384615384615","black","no","legacy","legacy","legacy","0","uniform","1","undefined","undefined","undefined","1","f","0","0","0","0","38","0","0","0","38","NA","34","38","34","0","34","3","38","0","38","Thu Feb 18 14:52:35 2021","The main experiment item","yes","Lexical_Decision_Task.osexp","/Users/lucydupre/Documents/Psychology Bsc (hons)/Year 2/CAL","no","Andale Mono","no","18","no","white","no","yes","576","legacy","34","34","3","/Users/lucydupre/Documents/Psychology Bsc (hons)/Year 2/CAL/subject-5207748 .csv","legacy","Lentiform Loewenfeld","3.3.7","yes","yes","600bd7cfb6416f0113b04181","602110864497cf011d9c0822","0","f","NA","space","space","space","NA","f","748","NA","2501","12781","8813","NA","748","2","legacy","1024","2","48000","-16","task","5207748","even","NA","33987","38491","35989","100846","5371","26984","18168","101349","NA","100844","101349","100800","38491","102098","32421","100299","5357","94362","Lexical Decision Task","33","24045","39","yes","1024"
"3.067070856","9.39","3","loud","word","85","85","612.65","612.65","black","no","legacy","legacy","legacy","0","uniform","1","undefined","undefined","undefined","1","j","0","0","0","0","39","0","0","0","39","NA","35","39","35","0","35","3","39","0","39","Thu Feb 18 14:52:35 2021","The main experiment item","yes","Lexical_Decision_Task.osexp","/Users/lucydupre/Documents/Psychology Bsc (hons)/Year 2/CAL","no","Andale Mono","no","18","no","white","no","yes","576","legacy","35","35","3","/Users/lucydupre/Documents/Psychology Bsc (hons)/Year 2/CAL/subject-5207748 .csv","legacy","Lentiform Loewenfeld","3.3.7","yes","yes","600bd7cfb6416f0113b04181","602110864497cf011d9c0822","0","j","NA","space","space","space","NA","j","461","NA","2501","12781","8813","NA","461","2","legacy","1024","2","48000","-16","task","5207748","even","NA","33987","38491","35989","102647","5371","26984","18168","103149","NA","102645","103150","102601","38491","103612","32421","102101","5357","94362","Lexical Decision Task","34","24506","40","yes","1024"
"3.028977705","0","7","frow","non-word","82.92682926829268","82.92682926829268","611.2439024390244","611.2439024390244","black","no","legacy","legacy","legacy","0","uniform","0","undefined","undefined","undefined","0","f","0","0","0","0","40","0","0","0","40","NA","36","40","36","0","36","3","40","0","40","Thu Feb 18 14:52:35 2021","The main experiment item","yes","Lexical_Decision_Task.osexp","/Users/lucydupre/Documents/Psychology Bsc (hons)/Year 2/CAL","no","Andale Mono","no","18","no","white","no","yes","576","legacy","36","36","3","/Users/lucydupre/Documents/Psychology Bsc (hons)/Year 2/CAL/subject-5207748 .csv","legacy","Lentiform Loewenfeld","3.3.7","yes","yes","600bd7cfb6416f0113b04181","602110864497cf011d9c0822","0","j","NA","space","space","space","NA","j","555","NA","2501","12781","8813","NA","555","2","legacy","1024","2","48000","-16","task","5207748","even","NA","33987","38491","35989","104160","5371","26984","18168","104663","NA","104158","104663","104115","38491","105219","32421","103615","5357","94362","Lexical Decision Task","34","25061","41","yes","1024"
"3.102203805","7.21","3","drip","word","83.33333333333333","83.33333333333333","609","609","black","no","legacy","legacy","legacy","0","uniform","1","undefined","undefined","undefined","1","j","0","0","0","0","41","0","0","0","41","NA","37","41","37","0","37","3","41","0","41","Thu Feb 18 14:52:35 2021","The main experiment item","yes","Lexical_Decision_Task.osexp","/Users/lucydupre/Documents/Psychology Bsc (hons)/Year 2/CAL","no","Andale Mono","no","18","no","white","no","yes","576","legacy","37","37","3","/Users/lucydupre/Documents/Psychology Bsc (hons)/Year 2/CAL/subject-5207748 .csv","legacy","Lentiform Loewenfeld","3.3.7","yes","yes","600bd7cfb6416f0113b04181","602110864497cf011d9c0822","0","j","NA","space","space","space","NA","j","517","NA","2501","12781","8813","NA","517","2","legacy","1024","2","48000","-16","task","5207748","even","NA","33987","38491","35989","106772","5371","26984","18168","107275","NA","106769","107275","106722","38491","107792","32421","103615","5357","105222","Lexical Decision Task","35","25578","42","yes","1024"
"3.488597715","0","9","nain","non-word","83.72093023255815","83.72093023255815","615.1627906976744","615.1627906976744","black","no","legacy","legacy","legacy","0","uniform","1","undefined","undefined","undefined","1","f","0","0","0","0","42","0","0","0","42","NA","38","42","38","0","38","3","42","0","42","Thu Feb 18 14:52:35 2021","The main experiment item","yes","Lexical_Decision_Task.osexp","/Users/lucydupre/Documents/Psychology Bsc (hons)/Year 2/CAL","no","Andale Mono","no","18","no","white","no","yes","576","legacy","38","38","3","/Users/lucydupre/Documents/Psychology Bsc (hons)/Year 2/CAL/subject-5207748 .csv","legacy","Lentiform Loewenfeld","3.3.7","yes","yes","600bd7cfb6416f0113b04181","602110864497cf011d9c0822","0","f","NA","space","space","space","NA","f","874","NA","2501","12781","8813","NA","874","2","legacy","1024","2","48000","-16","task","5207748","even","NA","33987","38491","35989","108342","5371","26984","18168","108845","NA","108340","108845","108297","38491","109720","32421","107796","5357","105222","Lexical Decision Task","36","26452","43","yes","1024"
"3.2757719","0","5","slea","non-word","84.0909090909091","84.0909090909091","614.4772727272727","614.4772727272727","black","no","legacy","legacy","legacy","0","uniform","1","undefined","undefined","undefined","1","f","0","0","0","0","43","0","0","0","43","NA","39","43","39","0","39","3","43","0","43","Thu Feb 18 14:52:35 2021","The main experiment item","yes","Lexical_Decision_Task.osexp","/Users/lucydupre/Documents/Psychology Bsc (hons)/Year 2/CAL","no","Andale Mono","no","18","no","white","no","yes","576","legacy","39","39","3","/Users/lucydupre/Documents/Psychology Bsc (hons)/Year 2/CAL/subject-5207748 .csv","legacy","Lentiform Loewenfeld","3.3.7","yes","yes","600bd7cfb6416f0113b04181","602110864497cf011d9c0822","0","f","NA","space","space","space","NA","f","585","NA","2501","12781","8813","NA","585","2","legacy","1024","2","48000","-16","task","5207748","even","NA","33987","38491","35989","110269","5371","26984","18168","110771","NA","110267","110771","110223","38491","111356","32421","109723","5357","105222","Lexical Decision Task","37","27037","44","yes","1024"
"2.68604012","0","3","mulb","non-word","84.44444444444444","84.44444444444444","615.1555555555556","615.1555555555556","black","no","legacy","legacy","legacy","0","uniform","1","undefined","undefined","undefined","1","f","0","0","0","0","44","0","0","0","44","NA","40","44","40","0","40","3","44","0","44","Thu Feb 18 14:52:35 2021","The main experiment item","yes","Lexical_Decision_Task.osexp","/Users/lucydupre/Documents/Psychology Bsc (hons)/Year 2/CAL","no","Andale Mono","no","18","no","white","no","yes","576","legacy","40","40","3","/Users/lucydupre/Documents/Psychology Bsc (hons)/Year 2/CAL/subject-5207748 .csv","legacy","Lentiform Loewenfeld","3.3.7","yes","yes","600bd7cfb6416f0113b04181","602110864497cf011d9c0822","0","f","NA","space","space","space","NA","f","645","NA","2501","12781","8813","NA","645","2","legacy","1024","2","48000","-16","task","5207748","even","NA","33987","38491","35989","111904","5371","26984","18168","112406","NA","111902","112406","111859","38491","113052","32421","111359","5357","105222","Lexical Decision Task","38","27682","45","yes","1024"
"3.165936429","0","7","leps","non-word","84.78260869565217","84.78260869565217","613.5","613.5","black","no","legacy","legacy","legacy","0","uniform","1","undefined","undefined","undefined","1","f","0","0","0","0","45","0","0","0","45","NA","41","45","41","0","41","3","45","0","45","Thu Feb 18 14:52:35 2021","The main experiment item","yes","Lexical_Decision_Task.osexp","/Users/lucydupre/Documents/Psychology Bsc (hons)/Year 2/CAL","no","Andale Mono","no","18","no","white","no","yes","576","legacy","41","41","3","/Users/lucydupre/Documents/Psychology Bsc (hons)/Year 2/CAL/subject-5207748 .csv","legacy","Lentiform Loewenfeld","3.3.7","yes","yes","600bd7cfb6416f0113b04181","602110864497cf011d9c0822","0","f","NA","space","space","space","NA","f","539","NA","2501","12781","8813","NA","539","2","legacy","1024","2","48000","-16","task","5207748","even","NA","33987","38491","35989","113601","5371","26984","18168","114104","NA","113599","114104","113555","38491","114644","32421","113055","5357","105222","Lexical Decision Task","39","28221","46","yes","1024"
"3.145920145","8.51","8","flew","word","85.1063829787234","85.1063829787234","612.1489361702128","612.1489361702128","black","no","legacy","legacy","legacy","0","uniform","1","undefined","undefined","undefined","1","j","0","0","0","0","46","0","0","0","46","NA","42","46","42","0","42","3","46","0","46","Thu Feb 18 14:52:35 2021","The main experiment item","yes","Lexical_Decision_Task.osexp","/Users/lucydupre/Documents/Psychology Bsc (hons)/Year 2/CAL","no","Andale Mono","no","18","no","white","no","yes","576","legacy","42","42","3","/Users/lucydupre/Documents/Psychology Bsc (hons)/Year 2/CAL/subject-5207748 .csv","legacy","Lentiform Loewenfeld","3.3.7","yes","yes","600bd7cfb6416f0113b04181","602110864497cf011d9c0822","0","j","NA","space","space","space","NA","j","550","NA","2501","12781","8813","NA","550","2","legacy","1024","2","48000","-16","task","5207748","even","NA","33987","38491","35989","115190","5371","26984","18168","115692","NA","115188","115693","115147","38491","116244","32421","114647","5357","105222","Lexical Decision Task","40","28771","47","yes","1024"
"2.80048796","0","8","pife","non-word","85.41666666666667","85.41666666666667","610.8541666666666","610.8541666666666","black","no","legacy","legacy","legacy","0","uniform","1","undefined","undefined","undefined","1","f","0","0","0","0","47","0","0","0","47","NA","43","47","43","0","43","3","47","0","47","Thu Feb 18 14:52:35 2021","The main experiment item","yes","Lexical_Decision_Task.osexp","/Users/lucydupre/Documents/Psychology Bsc (hons)/Year 2/CAL","no","Andale Mono","no","18","no","white","no","yes","576","legacy","43","43","3","/Users/lucydupre/Documents/Psychology Bsc (hons)/Year 2/CAL/subject-5207748 .csv","legacy","Lentiform Loewenfeld","3.3.7","yes","yes","600bd7cfb6416f0113b04181","602110864497cf011d9c0822","0","f","NA","space","space","space","NA","f","550","NA","2501","12781","8813","NA","550","2","legacy","1024","2","48000","-16","task","5207748","even","NA","33987","38491","35989","116787","5371","26984","18168","117290","NA","116785","117290","116747","38491","117841","32421","116247","5357","105222","Lexical Decision Task","41","29321","48","yes","1024"
"2.782472624","10.55","2","huge","word","85.71428571428571","85.71428571428571","608.9795918367347","608.9795918367347","black","no","legacy","legacy","legacy","0","uniform","1","undefined","undefined","undefined","1","j","0","0","0","0","48","0","0","0","48","NA","44","48","44","0","44","3","48","0","48","Thu Feb 18 14:52:35 2021","The main experiment item","yes","Lexical_Decision_Task.osexp","/Users/lucydupre/Documents/Psychology Bsc (hons)/Year 2/CAL","no","Andale Mono","no","18","no","white","no","yes","576","legacy","44","44","3","/Users/lucydupre/Documents/Psychology Bsc (hons)/Year 2/CAL/subject-5207748 .csv","legacy","Lentiform Loewenfeld","3.3.7","yes","yes","600bd7cfb6416f0113b04181","602110864497cf011d9c0822","0","j","NA","space","space","space","NA","j","519","NA","2501","12781","8813","NA","519","2","legacy","1024","2","48000","-16","task","5207748","even","NA","33987","38491","35989","118389","5371","26984","18168","118891","NA","118387","118892","118344","38491","119411","32421","117844","5357","105222","Lexical Decision Task","42","29840","49","yes","1024"
"3.067193647","6.73","6","raft","word","86","86","608.06","608.06","black","no","legacy","legacy","legacy","0","uniform","1","undefined","undefined","undefined","1","j","0","0","0","0","49","0","0","0","49","NA","45","49","45","0","45","3","49","0","49","Thu Feb 18 14:52:35 2021","The main experiment item","yes","Lexical_Decision_Task.osexp","/Users/lucydupre/Documents/Psychology Bsc (hons)/Year 2/CAL","no","Andale Mono","no","18","no","white","no","yes","576","legacy","45","45","3","/Users/lucydupre/Documents/Psychology Bsc (hons)/Year 2/CAL/subject-5207748 .csv","legacy","Lentiform Loewenfeld","3.3.7","yes","yes","600bd7cfb6416f0113b04181","602110864497cf011d9c0822","0","j","NA","space","space","space","NA","j","563","NA","2501","12781","8813","NA","563","2","legacy","1024","2","48000","-16","task","5207748","even","NA","33987","38491","35989","119960","5371","26984","18168","120463","NA","119958","120463","119914","38491","121027","32421","119414","5357","105222","Lexical Decision Task","43","30403","50","yes","1024"
"3.460446784","0","5","dess","non-word","86.27450980392157","86.27450980392157","605.9215686274509","605.9215686274509","black","no","legacy","legacy","legacy","0","uniform","1","undefined","undefined","undefined","1","f","0","0","0","0","50","0","0","0","50","NA","46","50","46","0","46","3","50","0","50","Thu Feb 18 14:52:35 2021","The main experiment item","yes","Lexical_Decision_Task.osexp","/Users/lucydupre/Documents/Psychology Bsc (hons)/Year 2/CAL","no","Andale Mono","no","18","no","white","no","yes","576","legacy","46","46","3","/Users/lucydupre/Documents/Psychology Bsc (hons)/Year 2/CAL/subject-5207748 .csv","legacy","Lentiform Loewenfeld","3.3.7","yes","yes","600bd7cfb6416f0113b04181","602110864497cf011d9c0822","0","f","NA","space","space","space","NA","f","499","NA","2501","12781","8813","NA","499","2","legacy","1024","2","48000","-16","task","5207748","even","NA","33987","38491","35989","121575","5371","26984","18168","122078","NA","121573","122078","121530","38491","122578","32421","121030","5357","105222","Lexical Decision Task","44","30902","51","yes","1024"
"2.979548375","8.71","4","soup","word","86.53846153846153","86.53846153846153","607.3076923076923","607.3076923076923","black","no","legacy","legacy","legacy","0","uniform","1","undefined","undefined","undefined","1","j","0","0","0","0","51","0","0","0","51","NA","47","51","47","0","47","3","51","0","51","Thu Feb 18 14:52:35 2021","The main experiment item","yes","Lexical_Decision_Task.osexp","/Users/lucydupre/Documents/Psychology Bsc (hons)/Year 2/CAL","no","Andale Mono","no","18","no","white","no","yes","576","legacy","47","47","3","/Users/lucydupre/Documents/Psychology Bsc (hons)/Year 2/CAL/subject-5207748 .csv","legacy","Lentiform Loewenfeld","3.3.7","yes","yes","600bd7cfb6416f0113b04181","602110864497cf011d9c0822","0","j","NA","space","space","space","NA","j","678","NA","2501","12781","8813","NA","678","2","legacy","1024","2","48000","-16","task","5207748","even","NA","33987","38491","35989","123127","5371","26984","18168","123630","NA","123125","123630","123081","38491","124309","32421","122581","5357","105222","Lexical Decision Task","45","31580","52","yes","1024"
"3.372543801","9.24","8","coat","word","86.79245283018868","86.79245283018868","603.9622641509434","603.9622641509434","black","no","legacy","legacy","legacy","0","uniform","1","undefined","undefined","undefined","1","j","0","0","0","0","52","0","0","0","52","NA","48","52","48","0","48","3","52","0","52","Thu Feb 18 14:52:35 2021","The main experiment item","yes","Lexical_Decision_Task.osexp","/Users/lucydupre/Documents/Psychology Bsc (hons)/Year 2/CAL","no","Andale Mono","no","18","no","white","no","yes","576","legacy","48","48","3","/Users/lucydupre/Documents/Psychology Bsc (hons)/Year 2/CAL/subject-5207748 .csv","legacy","Lentiform Loewenfeld","3.3.7","yes","yes","600bd7cfb6416f0113b04181","602110864497cf011d9c0822","0","j","NA","space","space","space","NA","j","430","NA","2501","12781","8813","NA","430","2","legacy","1024","2","48000","-16","task","5207748","even","NA","33987","38491","35989","124859","5371","26984","18168","125362","NA","124857","125362","124812","38491","125792","32421","124312","5357","105222","Lexical Decision Task","46","32010","53","yes","1024"
"2.698100546","0","9","mulk","non-word","85.18518518518519","85.18518518518519","602.1111111111111","602.1111111111111","black","no","legacy","legacy","legacy","0","uniform","0","undefined","undefined","undefined","0","f","0","0","0","0","53","0","0","0","53","NA","49","53","49","0","49","3","53","0","53","Thu Feb 18 14:52:35 2021","The main experiment item","yes","Lexical_Decision_Task.osexp","/Users/lucydupre/Documents/Psychology Bsc (hons)/Year 2/CAL","no","Andale Mono","no","18","no","white","no","yes","576","legacy","49","49","3","/Users/lucydupre/Documents/Psychology Bsc (hons)/Year 2/CAL/subject-5207748 .csv","legacy","Lentiform Loewenfeld","3.3.7","yes","yes","600bd7cfb6416f0113b04181","602110864497cf011d9c0822","0","j","NA","space","space","space","NA","j","504","NA","2501","12781","8813","NA","504","2","legacy","1024","2","48000","-16","task","5207748","even","NA","33987","38491","35989","126342","5371","26984","18168","126844","NA","126340","126844","126295","38491","127349","32421","125795","5357","105222","Lexical Decision Task","46","32514","54","yes","1024"
"2.695770526","7.34","6","pawn","word","85.45454545454545","85.45454545454545","602.1272727272727","602.1272727272727","black","no","legacy","legacy","legacy","0","uniform","1","undefined","undefined","undefined","1","j","0","0","0","0","54","0","0","0","54","0","50","54","50","0","50","3","54","0","54","Thu Feb 18 14:52:35 2021","The main experiment item","yes","Lexical_Decision_Task.osexp","/Users/lucydupre/Documents/Psychology Bsc (hons)/Year 2/CAL","no","Andale Mono","no","18","no","white","no","yes","576","legacy","50","50","3","/Users/lucydupre/Documents/Psychology Bsc (hons)/Year 2/CAL/subject-5207748 .csv","legacy","Lentiform Loewenfeld","3.3.7","yes","yes","600bd7cfb6416f0113b04181","602110864497cf011d9c0822","0","j","NA","space","space","space","space","j","603","NA","2501","12781","8813","7808","603","2","legacy","1024","2","48000","-16","task","5207748","even","NA","33987","38491","35989","136728","5371","26984","18168","137231","128882","136726","137231","128851","38491","137834","32421","125795","5357","127351","Lexical Decision Task","47","33117","55","yes","1024"
"2.713490543","0","3","feps","non-word","85.71428571428571","85.71428571428571","601.2857142857143","601.2857142857143","black","no","legacy","legacy","legacy","0","uniform","1","undefined","undefined","undefined","1","f","0","0","0","0","55","0","0","0","55","0","51","55","51","0","51","3","55","0","55","Thu Feb 18 14:52:35 2021","The main experiment item","yes","Lexical_Decision_Task.osexp","/Users/lucydupre/Documents/Psychology Bsc (hons)/Year 2/CAL","no","Andale Mono","no","18","no","white","no","yes","576","legacy","51","51","3","/Users/lucydupre/Documents/Psychology Bsc (hons)/Year 2/CAL/subject-5207748 .csv","legacy","Lentiform Loewenfeld","3.3.7","yes","yes","600bd7cfb6416f0113b04181","602110864497cf011d9c0822","0","f","NA","space","space","space","space","f","555","NA","2501","12781","8813","7808","555","2","legacy","1024","2","48000","-16","task","5207748","even","NA","33987","38491","35989","138384","5371","26984","18168","138887","128882","138382","138887","138338","38491","139443","32421","137838","5357","127351","Lexical Decision Task","48","33672","56","yes","1024"
"2.803231716","5.26","3","kiln","word","84.21052631578948","84.21052631578948","599.5087719298245","599.5087719298245","black","no","legacy","legacy","legacy","0","uniform","0","undefined","undefined","undefined","0","j","0","0","0","0","56","0","0","0","56","0","52","56","52","0","52","3","56","0","56","Thu Feb 18 14:52:35 2021","The main experiment item","yes","Lexical_Decision_Task.osexp","/Users/lucydupre/Documents/Psychology Bsc (hons)/Year 2/CAL","no","Andale Mono","no","18","no","white","no","yes","576","legacy","52","52","3","/Users/lucydupre/Documents/Psychology Bsc (hons)/Year 2/CAL/subject-5207748 .csv","legacy","Lentiform Loewenfeld","3.3.7","yes","yes","600bd7cfb6416f0113b04181","602110864497cf011d9c0822","0","f","NA","space","space","space","space","f","500","NA","2501","12781","8813","7808","500","2","legacy","1024","2","48000","-16","task","5207748","even","NA","33987","38491","35989","139991","5371","26984","18168","140494","128882","139989","140494","139946","38491","140994","32421","139446","5357","127351","Lexical Decision Task","48","34172","57","yes","1024"
"2.95456409","0","4","taud","non-word","84.48275862068965","84.48275862068965","599.8448275862069","599.8448275862069","black","no","legacy","legacy","legacy","0","uniform","1","undefined","undefined","undefined","1","f","0","0","0","0","57","0","0","0","57","0","53","57","53","0","53","3","57","0","57","Thu Feb 18 14:52:35 2021","The main experiment item","yes","Lexical_Decision_Task.osexp","/Users/lucydupre/Documents/Psychology Bsc (hons)/Year 2/CAL","no","Andale Mono","no","18","no","white","no","yes","576","legacy","53","53","3","/Users/lucydupre/Documents/Psychology Bsc (hons)/Year 2/CAL/subject-5207748 .csv","legacy","Lentiform Loewenfeld","3.3.7","yes","yes","600bd7cfb6416f0113b04181","602110864497cf011d9c0822","0","f","NA","space","space","space","space","f","619","NA","2501","12781","8813","7808","619","2","legacy","1024","2","48000","-16","task","5207748","even","NA","33987","38491","35989","142548","5371","26984","18168","143051","128882","142546","143051","142497","38491","143671","32421","139446","5357","140997","Lexical Decision Task","49","34791","58","yes","1024"
"2.744553742","0","2","nawk","non-word","83.05084745762711","83.05084745762711","600.2033898305085","600.2033898305085","black","no","legacy","legacy","legacy","0","uniform","0","undefined","undefined","undefined","0","f","0","0","0","0","58","0","0","0","58","0","54","58","54","0","54","3","58","0","58","Thu Feb 18 14:52:35 2021","The main experiment item","yes","Lexical_Decision_Task.osexp","/Users/lucydupre/Documents/Psychology Bsc (hons)/Year 2/CAL","no","Andale Mono","no","18","no","white","no","yes","576","legacy","54","54","3","/Users/lucydupre/Documents/Psychology Bsc (hons)/Year 2/CAL/subject-5207748 .csv","legacy","Lentiform Loewenfeld","3.3.7","yes","yes","600bd7cfb6416f0113b04181","602110864497cf011d9c0822","0","j","NA","space","space","space","space","j","621","NA","2501","12781","8813","7808","621","2","legacy","1024","2","48000","-16","task","5207748","even","NA","33987","38491","35989","144220","5371","26984","18168","144723","128882","144218","144723","144174","38491","145345","32421","143674","5357","140997","Lexical Decision Task","49","35412","59","yes","1024"
"2.966923697","5.4","2","fume","word","83.33333333333333","83.33333333333333","600.5666666666667","600.5666666666667","black","no","legacy","legacy","legacy","0","uniform","1","undefined","undefined","undefined","1","j","0","0","0","0","59","0","0","0","59","0","55","59","55","0","55","3","59","0","59","Thu Feb 18 14:52:35 2021","The main experiment item","yes","Lexical_Decision_Task.osexp","/Users/lucydupre/Documents/Psychology Bsc (hons)/Year 2/CAL","no","Andale Mono","no","18","no","white","no","yes","576","legacy","55","55","3","/Users/lucydupre/Documents/Psychology Bsc (hons)/Year 2/CAL/subject-5207748 .csv","legacy","Lentiform Loewenfeld","3.3.7","yes","yes","600bd7cfb6416f0113b04181","602110864497cf011d9c0822","0","j","NA","space","space","space","space","j","622","NA","2501","12781","8813","7808","622","2","legacy","1024","2","48000","-16","task","5207748","even","NA","33987","38491","35989","146896","5371","26984","18168","147398","128882","146894","147398","146848","38491","148021","32421","143674","5357","145348","Lexical Decision Task","50","36034","60","yes","1024"
"3.492014979","0","9","yine","non-word","83.60655737704919","83.60655737704919","599.5409836065573","599.5409836065573","black","no","legacy","legacy","legacy","0","uniform","1","undefined","undefined","undefined","1","f","0","0","0","0","60","0","0","0","60","0","56","60","56","0","56","3","60","0","60","Thu Feb 18 14:52:35 2021","The main experiment item","yes","Lexical_Decision_Task.osexp","/Users/lucydupre/Documents/Psychology Bsc (hons)/Year 2/CAL","no","Andale Mono","no","18","no","white","no","yes","576","legacy","56","56","3","/Users/lucydupre/Documents/Psychology Bsc (hons)/Year 2/CAL/subject-5207748 .csv","legacy","Lentiform Loewenfeld","3.3.7","yes","yes","600bd7cfb6416f0113b04181","602110864497cf011d9c0822","0","f","NA","space","space","space","space","f","538","NA","2501","12781","8813","7808","538","2","legacy","1024","2","48000","-16","task","5207748","even","NA","33987","38491","35989","148571","5371","26984","18168","149074","128882","148569","149074","148524","38491","149613","32421","148024","5357","145348","Lexical Decision Task","51","36572","61","yes","1024"
"2.82129731","6.72","5","plum","word","83.87096774193549","83.87096774193549","598.5483870967741","598.5483870967741","black","no","legacy","legacy","legacy","0","uniform","1","undefined","undefined","undefined","1","j","0","0","0","0","61","0","0","0","61","0","57","61","57","0","57","3","61","0","61","Thu Feb 18 14:52:35 2021","The main experiment item","yes","Lexical_Decision_Task.osexp","/Users/lucydupre/Documents/Psychology Bsc (hons)/Year 2/CAL","no","Andale Mono","no","18","no","white","no","yes","576","legacy","57","57","3","/Users/lucydupre/Documents/Psychology Bsc (hons)/Year 2/CAL/subject-5207748 .csv","legacy","Lentiform Loewenfeld","3.3.7","yes","yes","600bd7cfb6416f0113b04181","602110864497cf011d9c0822","0","j","NA","space","space","space","space","j","538","NA","2501","12781","8813","7808","538","2","legacy","1024","2","48000","-16","task","5207748","even","NA","33987","38491","35989","150160","5371","26984","18168","150662","128882","150158","150662","150116","38491","151201","32421","149616","5357","145348","Lexical Decision Task","52","37110","62","yes","1024"
"3.064581521","5.51","6","cask","word","84.12698412698413","84.12698412698413","598.7142857142857","598.7142857142857","black","no","legacy","legacy","legacy","0","uniform","1","undefined","undefined","undefined","1","j","0","0","0","0","62","0","0","0","62","0","58","62","58","0","58","3","62","0","62","Thu Feb 18 14:52:35 2021","The main experiment item","yes","Lexical_Decision_Task.osexp","/Users/lucydupre/Documents/Psychology Bsc (hons)/Year 2/CAL","no","Andale Mono","no","18","no","white","no","yes","576","legacy","58","58","3","/Users/lucydupre/Documents/Psychology Bsc (hons)/Year 2/CAL/subject-5207748 .csv","legacy","Lentiform Loewenfeld","3.3.7","yes","yes","600bd7cfb6416f0113b04181","602110864497cf011d9c0822","0","j","NA","space","space","space","space","j","609","NA","2501","12781","8813","7808","609","2","legacy","1024","2","48000","-16","task","5207748","even","NA","33987","38491","35989","151747","5371","26984","18168","152249","128882","151745","152250","151704","38491","152860","32421","151204","5357","145348","Lexical Decision Task","53","37719","63","yes","1024"
"3.120025233","0","2","nyst","non-word","84.375","84.375","598.15625","598.15625","black","no","legacy","legacy","legacy","0","uniform","1","undefined","undefined","undefined","1","f","0","0","0","0","63","0","0","0","63","0","59","63","59","0","59","3","63","0","63","Thu Feb 18 14:52:35 2021","The main experiment item","yes","Lexical_Decision_Task.osexp","/Users/lucydupre/Documents/Psychology Bsc (hons)/Year 2/CAL","no","Andale Mono","no","18","no","white","no","yes","576","legacy","59","59","3","/Users/lucydupre/Documents/Psychology Bsc (hons)/Year 2/CAL/subject-5207748 .csv","legacy","Lentiform Loewenfeld","3.3.7","yes","yes","600bd7cfb6416f0113b04181","602110864497cf011d9c0822","0","f","NA","space","space","space","space","f","563","NA","2501","12781","8813","7808","563","2","legacy","1024","2","48000","-16","task","5207748","even","NA","33987","38491","35989","153408","5371","26984","18168","153911","128882","153406","153912","153363","38491","154475","32421","152863","5357","145348","Lexical Decision Task","54","38282","64","yes","1024"
"3.259832699","0","9","flar","non-word","84.61538461538461","84.61538461538461","603.7846153846153","603.7846153846153","black","no","legacy","legacy","legacy","0","uniform","1","undefined","undefined","undefined","1","f","0","0","0","0","64","0","0","0","64","0","60","64","60","0","60","3","64","0","64","Thu Feb 18 14:52:35 2021","The main experiment item","yes","Lexical_Decision_Task.osexp","/Users/lucydupre/Documents/Psychology Bsc (hons)/Year 2/CAL","no","Andale Mono","no","18","no","white","no","yes","576","legacy","60","60","3","/Users/lucydupre/Documents/Psychology Bsc (hons)/Year 2/CAL/subject-5207748 .csv","legacy","Lentiform Loewenfeld","3.3.7","yes","yes","600bd7cfb6416f0113b04181","602110864497cf011d9c0822","0","f","NA","space","space","space","space","f","964","NA","2501","12781","8813","7808","964","2","legacy","1024","2","48000","-16","task","5207748","even","NA","33987","38491","35989","155025","5371","26984","18168","155528","128882","155023","155528","154978","38491","156493","32421","154478","5357","145348","Lexical Decision Task","55","39246","65","yes","1024"
"2.698387659","6.66","7","skid","word","83.33333333333333","83.33333333333333","604.439393939394","604.439393939394","black","no","legacy","legacy","legacy","0","uniform","0","undefined","undefined","undefined","0","j","0","0","0","0","65","0","0","0","65","0","61","65","61","0","61","3","65","0","65","Thu Feb 18 14:52:35 2021","The main experiment item","yes","Lexical_Decision_Task.osexp","/Users/lucydupre/Documents/Psychology Bsc (hons)/Year 2/CAL","no","Andale Mono","no","18","no","white","no","yes","576","legacy","61","61","3","/Users/lucydupre/Documents/Psychology Bsc (hons)/Year 2/CAL/subject-5207748 .csv","legacy","Lentiform Loewenfeld","3.3.7","yes","yes","600bd7cfb6416f0113b04181","602110864497cf011d9c0822","0","f","NA","space","space","space","space","f","647","NA","2501","12781","8813","7808","647","2","legacy","1024","2","48000","-16","task","5207748","even","NA","33987","38491","35989","157042","5371","26984","18168","157545","128882","157040","157545","156995","38491","158192","32421","156495","5357","145348","Lexical Decision Task","55","39893","66","yes","1024"
"3.363486562","6.93","9","lush","word","83.58208955223881","83.58208955223881","603.776119402985","603.776119402985","black","no","legacy","legacy","legacy","0","uniform","1","undefined","undefined","undefined","1","j","0","0","0","0","66","0","0","0","66","0","62","66","62","0","62","3","66","0","66","Thu Feb 18 14:52:35 2021","The main experiment item","yes","Lexical_Decision_Task.osexp","/Users/lucydupre/Documents/Psychology Bsc (hons)/Year 2/CAL","no","Andale Mono","no","18","no","white","no","yes","576","legacy","62","62","3","/Users/lucydupre/Documents/Psychology Bsc (hons)/Year 2/CAL/subject-5207748 .csv","legacy","Lentiform Loewenfeld","3.3.7","yes","yes","600bd7cfb6416f0113b04181","602110864497cf011d9c0822","0","j","NA","space","space","space","space","j","560","NA","2501","12781","8813","7808","560","2","legacy","1024","2","48000","-16","task","5207748","even","NA","33987","38491","35989","159744","5371","26984","18168","160246","128882","159742","160246","159695","38491","160807","32421","156495","5357","158195","Lexical Decision Task","56","40453","67","yes","1024"
"2.664328519","0","4","plux","non-word","83.82352941176471","83.82352941176471","603.3235294117648","603.3235294117648","black","no","legacy","legacy","legacy","0","uniform","1","undefined","undefined","undefined","1","f","0","0","0","0","67","0","0","0","67","0","63","67","63","0","63","3","67","0","67","Thu Feb 18 14:52:35 2021","The main experiment item","yes","Lexical_Decision_Task.osexp","/Users/lucydupre/Documents/Psychology Bsc (hons)/Year 2/CAL","no","Andale Mono","no","18","no","white","no","yes","576","legacy","63","63","3","/Users/lucydupre/Documents/Psychology Bsc (hons)/Year 2/CAL/subject-5207748 .csv","legacy","Lentiform Loewenfeld","3.3.7","yes","yes","600bd7cfb6416f0113b04181","602110864497cf011d9c0822","0","f","NA","space","space","space","space","f","573","NA","2501","12781","8813","7808","573","2","legacy","1024","2","48000","-16","task","5207748","even","NA","33987","38491","35989","161356","5371","26984","18168","161859","128882","161354","161859","161310","38491","162433","32421","160810","5357","158195","Lexical Decision Task","57","41026","68","yes","1024"
"3.100255637","0","6","brax","non-word","84.05797101449275","84.05797101449275","604.3768115942029","604.3768115942029","black","no","legacy","legacy","legacy","0","uniform","1","undefined","undefined","undefined","1","f","0","0","0","0","68","0","0","0","68","0","64","68","64","0","64","3","68","0","68","Thu Feb 18 14:52:35 2021","The main experiment item","yes","Lexical_Decision_Task.osexp","/Users/lucydupre/Documents/Psychology Bsc (hons)/Year 2/CAL","no","Andale Mono","no","18","no","white","no","yes","576","legacy","64","64","3","/Users/lucydupre/Documents/Psychology Bsc (hons)/Year 2/CAL/subject-5207748 .csv","legacy","Lentiform Loewenfeld","3.3.7","yes","yes","600bd7cfb6416f0113b04181","602110864497cf011d9c0822","0","f","NA","space","space","space","space","f","676","NA","2501","12781","8813","7808","676","2","legacy","1024","2","48000","-16","task","5207748","even","NA","33987","38491","35989","162982","5371","26984","18168","163486","128882","162980","163486","162936","38491","164163","32421","162436","5357","158195","Lexical Decision Task","58","41702","69","yes","1024"
"3.382617311","0","4","pret","non-word","84.28571428571429","84.28571428571429","606.8714285714286","606.8714285714286","black","no","legacy","legacy","legacy","0","uniform","1","undefined","undefined","undefined","1","f","0","0","0","0","69","0","0","0","69","0","65","69","65","0","65","3","69","0","69","Thu Feb 18 14:52:35 2021","The main experiment item","yes","Lexical_Decision_Task.osexp","/Users/lucydupre/Documents/Psychology Bsc (hons)/Year 2/CAL","no","Andale Mono","no","18","no","white","no","yes","576","legacy","65","65","3","/Users/lucydupre/Documents/Psychology Bsc (hons)/Year 2/CAL/subject-5207748 .csv","legacy","Lentiform Loewenfeld","3.3.7","yes","yes","600bd7cfb6416f0113b04181","602110864497cf011d9c0822","0","f","NA","space","space","space","space","f","779","NA","2501","12781","8813","7808","779","2","legacy","1024","2","48000","-16","task","5207748","even","NA","33987","38491","35989","164712","5371","26984","18168","165215","128882","164710","165215","164666","38491","165995","32421","164166","5357","158195","Lexical Decision Task","59","42481","70","yes","1024"
"2.819763221","0","2","durp","non-word","84.50704225352112","84.50704225352112","609.0422535211268","609.0422535211268","black","no","legacy","legacy","legacy","0","uniform","1","undefined","undefined","undefined","1","f","0","0","0","0","70","0","0","0","70","0","66","70","66","0","66","3","70","0","70","Thu Feb 18 14:52:35 2021","The main experiment item","yes","Lexical_Decision_Task.osexp","/Users/lucydupre/Documents/Psychology Bsc (hons)/Year 2/CAL","no","Andale Mono","no","18","no","white","no","yes","576","legacy","66","66","3","/Users/lucydupre/Documents/Psychology Bsc (hons)/Year 2/CAL/subject-5207748 .csv","legacy","Lentiform Loewenfeld","3.3.7","yes","yes","600bd7cfb6416f0113b04181","602110864497cf011d9c0822","0","f","NA","space","space","space","space","f","761","NA","2501","12781","8813","7808","761","2","legacy","1024","2","48000","-16","task","5207748","even","NA","33987","38491","35989","166543","5371","26984","18168","167046","128882","166541","167046","166498","38491","167808","32421","165998","5357","158195","Lexical Decision Task","60","43242","71","yes","1024"
"3.374137706","10.21","4","tree","word","84.72222222222223","84.72222222222223","607.4444444444445","607.4444444444445","black","no","legacy","legacy","legacy","0","uniform","1","undefined","undefined","undefined","1","j","0","0","0","0","71","0","0","0","71","0","67","71","67","0","67","3","71","0","71","Thu Feb 18 14:52:35 2021","The main experiment item","yes","Lexical_Decision_Task.osexp","/Users/lucydupre/Documents/Psychology Bsc (hons)/Year 2/CAL","no","Andale Mono","no","18","no","white","no","yes","576","legacy","67","67","3","/Users/lucydupre/Documents/Psychology Bsc (hons)/Year 2/CAL/subject-5207748 .csv","legacy","Lentiform Loewenfeld","3.3.7","yes","yes","600bd7cfb6416f0113b04181","602110864497cf011d9c0822","0","j","NA","space","space","space","space","j","494","NA","2501","12781","8813","7808","494","2","legacy","1024","2","48000","-16","task","5207748","even","NA","33987","38491","35989","168355","5371","26984","18168","168859","128882","168353","168859","168311","38491","169354","32421","167811","5357","158195","Lexical Decision Task","61","43736","72","yes","1024"
"2.675164031","8.57","6","glue","word","84.93150684931507","84.93150684931507","606.027397260274","606.027397260274","black","no","legacy","legacy","legacy","0","uniform","1","undefined","undefined","undefined","1","j","0","0","0","0","72","0","0","0","72","0","68","72","68","0","68","3","72","0","72","Thu Feb 18 14:52:35 2021","The main experiment item","yes","Lexical_Decision_Task.osexp","/Users/lucydupre/Documents/Psychology Bsc (hons)/Year 2/CAL","no","Andale Mono","no","18","no","white","no","yes","576","legacy","68","68","3","/Users/lucydupre/Documents/Psychology Bsc (hons)/Year 2/CAL/subject-5207748 .csv","legacy","Lentiform Loewenfeld","3.3.7","yes","yes","600bd7cfb6416f0113b04181","602110864497cf011d9c0822","0","j","NA","space","space","space","space","j","504","NA","2501","12781","8813","7808","504","2","legacy","1024","2","48000","-16","task","5207748","even","NA","33987","38491","35989","169903","5371","26984","18168","170405","128882","169901","170405","169857","38491","170910","32421","169357","5357","158195","Lexical Decision Task","62","44240","73","yes","1024"
"3.133964479","0","8","graw","non-word","85.13513513513513","85.13513513513513","609.2162162162163","609.2162162162163","black","no","legacy","legacy","legacy","0","uniform","1","undefined","undefined","undefined","1","f","0","0","0","0","73","0","0","0","73","0","69","73","69","0","69","3","73","0","73","Thu Feb 18 14:52:35 2021","The main experiment item","yes","Lexical_Decision_Task.osexp","/Users/lucydupre/Documents/Psychology Bsc (hons)/Year 2/CAL","no","Andale Mono","no","18","no","white","no","yes","576","legacy","69","69","3","/Users/lucydupre/Documents/Psychology Bsc (hons)/Year 2/CAL/subject-5207748 .csv","legacy","Lentiform Loewenfeld","3.3.7","yes","yes","600bd7cfb6416f0113b04181","602110864497cf011d9c0822","0","f","NA","space","space","space","space","f","842","NA","2501","12781","8813","7808","842","2","legacy","1024","2","48000","-16","task","5207748","even","NA","33987","38491","35989","171459","5371","26984","18168","171962","128882","171457","171962","171413","38491","172805","32421","170913","5357","158195","Lexical Decision Task","63","45082","74","yes","1024"
"3.16326079","0","5","parg","non-word","85.33333333333333","85.33333333333333","608.32","608.32","black","no","legacy","legacy","legacy","0","uniform","1","undefined","undefined","undefined","1","f","0","0","0","0","74","0","0","0","74","0","70","74","70","0","70","3","74","0","74","Thu Feb 18 14:52:35 2021","The main experiment item","yes","Lexical_Decision_Task.osexp","/Users/lucydupre/Documents/Psychology Bsc (hons)/Year 2/CAL","no","Andale Mono","no","18","no","white","no","yes","576","legacy","70","70","3","/Users/lucydupre/Documents/Psychology Bsc (hons)/Year 2/CAL/subject-5207748 .csv","legacy","Lentiform Loewenfeld","3.3.7","yes","yes","600bd7cfb6416f0113b04181","602110864497cf011d9c0822","0","f","NA","space","space","space","space","f","542","NA","2501","12781","8813","7808","542","2","legacy","1024","2","48000","-16","task","5207748","even","NA","33987","38491","35989","173353","5371","26984","18168","173854","128882","173351","173854","173307","38491","174397","32421","172807","5357","158195","Lexical Decision Task","64","45624","75","yes","1024"
"3.378276681","6.39","8","bran","word","84.21052631578948","84.21052631578948","608.2763157894736","608.2763157894736","black","no","legacy","legacy","legacy","0","uniform","0","undefined","undefined","undefined","0","j","0","0","0","0","75","0","0","0","75","0","71","75","71","0","71","3","75","0","75","Thu Feb 18 14:52:35 2021","The main experiment item","yes","Lexical_Decision_Task.osexp","/Users/lucydupre/Documents/Psychology Bsc (hons)/Year 2/CAL","no","Andale Mono","no","18","no","white","no","yes","576","legacy","71","71","3","/Users/lucydupre/Documents/Psychology Bsc (hons)/Year 2/CAL/subject-5207748 .csv","legacy","Lentiform Loewenfeld","3.3.7","yes","yes","600bd7cfb6416f0113b04181","602110864497cf011d9c0822","0","f","NA","space","space","space","space","f","605","NA","2501","12781","8813","7808","605","2","legacy","1024","2","48000","-16","task","5207748","even","NA","33987","38491","35989","174942","5371","26984","18168","175446","128882","174941","175446","174899","38491","176052","32421","174399","5357","158195","Lexical Decision Task","64","46229","76","yes","1024"
"2.771097306","0","9","jold","non-word","84.41558441558442","84.41558441558442","608.1038961038961","608.1038961038961","black","no","legacy","legacy","legacy","0","uniform","1","undefined","undefined","undefined","1","f","0","0","0","0","76","0","0","0","76","0","72","76","72","0","72","3","76","0","76","Thu Feb 18 14:52:35 2021","The main experiment item","yes","Lexical_Decision_Task.osexp","/Users/lucydupre/Documents/Psychology Bsc (hons)/Year 2/CAL","no","Andale Mono","no","18","no","white","no","yes","576","legacy","72","72","3","/Users/lucydupre/Documents/Psychology Bsc (hons)/Year 2/CAL/subject-5207748 .csv","legacy","Lentiform Loewenfeld","3.3.7","yes","yes","600bd7cfb6416f0113b04181","602110864497cf011d9c0822","0","f","NA","space","space","space","space","f","595","NA","2501","12781","8813","7808","595","2","legacy","1024","2","48000","-16","task","5207748","even","NA","33987","38491","35989","177603","5371","26984","18168","178106","128882","177601","178106","177554","38491","178702","32421","174399","5357","176054","Lexical Decision Task","65","46824","77","yes","1024"
"2.972819734","0","4","scew","non-word","84.61538461538461","84.61538461538461","608.1282051282051","608.1282051282051","black","no","legacy","legacy","legacy","0","uniform","1","undefined","undefined","undefined","1","f","0","0","0","0","77","0","0","0","77","0","73","77","73","0","73","3","77","0","77","Thu Feb 18 14:52:35 2021","The main experiment item","yes","Lexical_Decision_Task.osexp","/Users/lucydupre/Documents/Psychology Bsc (hons)/Year 2/CAL","no","Andale Mono","no","18","no","white","no","yes","576","legacy","73","73","3","/Users/lucydupre/Documents/Psychology Bsc (hons)/Year 2/CAL/subject-5207748 .csv","legacy","Lentiform Loewenfeld","3.3.7","yes","yes","600bd7cfb6416f0113b04181","602110864497cf011d9c0822","0","f","NA","space","space","space","space","f","610","NA","2501","12781","8813","7808","610","2","legacy","1024","2","48000","-16","task","5207748","even","NA","33987","38491","35989","179249","5371","26984","18168","179751","128882","179247","179751","179204","38491","180361","32421","178704","5357","176054","Lexical Decision Task","66","47434","78","yes","1024"
"3.121778632","0","9","sark","non-word","83.54430379746836","83.54430379746836","608.0506329113924","608.0506329113924","black","no","legacy","legacy","legacy","0","uniform","0","undefined","undefined","undefined","0","f","0","0","0","0","78","0","0","0","78","0","74","78","74","0","74","3","78","0","78","Thu Feb 18 14:52:35 2021","The main experiment item","yes","Lexical_Decision_Task.osexp","/Users/lucydupre/Documents/Psychology Bsc (hons)/Year 2/CAL","no","Andale Mono","no","18","no","white","no","yes","576","legacy","74","74","3","/Users/lucydupre/Documents/Psychology Bsc (hons)/Year 2/CAL/subject-5207748 .csv","legacy","Lentiform Loewenfeld","3.3.7","yes","yes","600bd7cfb6416f0113b04181","602110864497cf011d9c0822","0","j","NA","space","space","space","space","j","602","NA","2501","12781","8813","7808","602","2","legacy","1024","2","48000","-16","task","5207748","even","NA","33987","38491","35989","180910","5371","26984","18168","181412","128882","180908","181413","180864","38491","182015","32421","180364","5357","176054","Lexical Decision Task","66","48036","79","yes","1024"
"3.531734309","0","6","lerd","non-word","83.75","83.75","606.95","606.95","black","no","legacy","legacy","legacy","0","uniform","1","undefined","undefined","undefined","1","f","0","0","0","0","79","0","0","0","79","0","75","79","75","0","75","3","79","0","79","Thu Feb 18 14:52:35 2021","The main experiment item","yes","Lexical_Decision_Task.osexp","/Users/lucydupre/Documents/Psychology Bsc (hons)/Year 2/CAL","no","Andale Mono","no","18","no","white","no","yes","576","legacy","75","75","3","/Users/lucydupre/Documents/Psychology Bsc (hons)/Year 2/CAL/subject-5207748 .csv","legacy","Lentiform Loewenfeld","3.3.7","yes","yes","600bd7cfb6416f0113b04181","602110864497cf011d9c0822","0","f","NA","space","space","space","space","f","520","NA","2501","12781","8813","7808","520","2","legacy","1024","2","48000","-16","task","5207748","even","NA","33987","38491","35989","183567","5371","26984","18168","184070","128882","183565","184070","183518","38491","184591","32421","180364","5357","182018","Lexical Decision Task","67","48556","80","yes","1024"
"3.261341392","5.08","8","reek","word","83.95061728395062","83.95061728395062","607.1234567901234","607.1234567901234","black","no","legacy","legacy","legacy","0","uniform","1","undefined","undefined","undefined","1","j","0","0","0","0","80","0","0","0","80","0","76","80","76","0","76","3","80","0","80","Thu Feb 18 14:52:35 2021","The main experiment item","yes","Lexical_Decision_Task.osexp","/Users/lucydupre/Documents/Psychology Bsc (hons)/Year 2/CAL","no","Andale Mono","no","18","no","white","no","yes","576","legacy","76","76","3","/Users/lucydupre/Documents/Psychology Bsc (hons)/Year 2/CAL/subject-5207748 .csv","legacy","Lentiform Loewenfeld","3.3.7","yes","yes","600bd7cfb6416f0113b04181","602110864497cf011d9c0822","0","j","NA","space","space","space","space","j","621","NA","2501","12781","8813","7808","621","2","legacy","1024","2","48000","-16","task","5207748","even","NA","33987","38491","35989","185140","5371","26984","18168","185643","128882","185138","185643","185094","38491","186265","32421","184594","5357","182018","Lexical Decision Task","68","49177","81","yes","1024"
"2.813801082","5.47","7","nook","word","84.14634146341463","84.14634146341463","610.6463414634146","610.6463414634146","black","no","legacy","legacy","legacy","0","uniform","1","undefined","undefined","undefined","1","j","0","0","0","0","81","0","0","0","81","0","77","81","77","0","77","3","81","0","81","Thu Feb 18 14:52:35 2021","The main experiment item","yes","Lexical_Decision_Task.osexp","/Users/lucydupre/Documents/Psychology Bsc (hons)/Year 2/CAL","no","Andale Mono","no","18","no","white","no","yes","576","legacy","77","77","3","/Users/lucydupre/Documents/Psychology Bsc (hons)/Year 2/CAL/subject-5207748 .csv","legacy","Lentiform Loewenfeld","3.3.7","yes","yes","600bd7cfb6416f0113b04181","602110864497cf011d9c0822","0","j","NA","space","space","space","space","j","896","NA","2501","12781","8813","7808","896","2","legacy","1024","2","48000","-16","task","5207748","even","NA","33987","38491","35989","186812","5371","26984","18168","187315","128882","186810","187315","186767","38491","188212","32421","186267","5357","182018","Lexical Decision Task","69","50073","82","yes","1024"
"3.529815197","0","3","lerm","non-word","84.33734939759036","84.33734939759036","612.1927710843373","612.1927710843373","black","no","legacy","legacy","legacy","0","uniform","1","undefined","undefined","undefined","1","f","0","0","0","0","82","0","0","0","82","0","78","82","78","0","78","3","82","0","82","Thu Feb 18 14:52:35 2021","The main experiment item","yes","Lexical_Decision_Task.osexp","/Users/lucydupre/Documents/Psychology Bsc (hons)/Year 2/CAL","no","Andale Mono","no","18","no","white","no","yes","576","legacy","78","78","3","/Users/lucydupre/Documents/Psychology Bsc (hons)/Year 2/CAL/subject-5207748 .csv","legacy","Lentiform Loewenfeld","3.3.7","yes","yes","600bd7cfb6416f0113b04181","602110864497cf011d9c0822","0","f","NA","space","space","space","space","f","739","NA","2501","12781","8813","7808","739","2","legacy","1024","2","48000","-16","task","5207748","even","NA","33987","38491","35989","188761","5371","26984","18168","189263","128882","188759","189264","188715","38491","190004","32421","188215","5357","182018","Lexical Decision Task","70","50812","83","yes","1024"
"3.302475237","0","7","leel","non-word","84.52380952380952","84.52380952380952","612.4166666666666","612.4166666666666","black","no","legacy","legacy","legacy","0","uniform","1","undefined","undefined","undefined","1","f","0","0","0","0","83","0","0","0","83","0","79","83","79","0","79","3","83","0","83","Thu Feb 18 14:52:35 2021","The main experiment item","yes","Lexical_Decision_Task.osexp","/Users/lucydupre/Documents/Psychology Bsc (hons)/Year 2/CAL","no","Andale Mono","no","18","no","white","no","yes","576","legacy","79","79","3","/Users/lucydupre/Documents/Psychology Bsc (hons)/Year 2/CAL/subject-5207748 .csv","legacy","Lentiform Loewenfeld","3.3.7","yes","yes","600bd7cfb6416f0113b04181","602110864497cf011d9c0822","0","f","NA","space","space","space","space","f","631","NA","2501","12781","8813","7808","631","2","legacy","1024","2","48000","-16","task","5207748","even","NA","33987","38491","35989","190556","5371","26984","18168","191059","128882","190554","191059","190511","38491","191691","32421","190011","5357","182018","Lexical Decision Task","71","51443","84","yes","1024"
"2.920123326","7.43","4","duel","word","83.52941176470588","83.52941176470588","611.4","611.4","black","no","legacy","legacy","legacy","0","uniform","0","undefined","undefined","undefined","0","j","0","0","0","0","84","0","0","0","84","0","80","84","80","0","80","3","84","0","84","Thu Feb 18 14:52:35 2021","The main experiment item","yes","Lexical_Decision_Task.osexp","/Users/lucydupre/Documents/Psychology Bsc (hons)/Year 2/CAL","no","Andale Mono","no","18","no","white","no","yes","576","legacy","80","80","3","/Users/lucydupre/Documents/Psychology Bsc (hons)/Year 2/CAL/subject-5207748 .csv","legacy","Lentiform Loewenfeld","3.3.7","yes","yes","600bd7cfb6416f0113b04181","602110864497cf011d9c0822","0","f","NA","space","space","space","space","f","526","NA","2501","12781","8813","7808","526","2","legacy","1024","2","48000","-16","task","5207748","even","NA","33987","38491","35989","192240","5371","26984","18168","192742","128882","192238","192743","192194","38491","193270","32421","191694","5357","182018","Lexical Decision Task","71","51969","85","yes","1024"
"2.696644658","5.78","2","yolk","word","83.72093023255815","83.72093023255815","613.7209302325581","613.7209302325581","black","no","legacy","legacy","legacy","0","uniform","1","undefined","undefined","undefined","1","j","0","0","0","0","85","0","0","0","85","0","81","85","81","0","81","3","85","0","85","Thu Feb 18 14:52:35 2021","The main experiment item","yes","Lexical_Decision_Task.osexp","/Users/lucydupre/Documents/Psychology Bsc (hons)/Year 2/CAL","no","Andale Mono","no","18","no","white","no","yes","576","legacy","81","81","3","/Users/lucydupre/Documents/Psychology Bsc (hons)/Year 2/CAL/subject-5207748 .csv","legacy","Lentiform Loewenfeld","3.3.7","yes","yes","600bd7cfb6416f0113b04181","602110864497cf011d9c0822","0","j","NA","space","space","space","space","j","811","NA","2501","12781","8813","7808","811","2","legacy","1024","2","48000","-16","task","5207748","even","NA","33987","38491","35989","194822","5371","26984","18168","195325","128882","194820","195325","194772","38491","196137","32421","191694","5357","193272","Lexical Decision Task","72","52780","86","yes","1024"
"3.495914186","0","4","peng","non-word","82.75862068965517","82.75862068965517","613.4827586206897","613.4827586206897","black","no","legacy","legacy","legacy","0","uniform","0","undefined","undefined","undefined","0","f","0","0","0","0","86","0","0","0","86","0","82","86","82","0","82","3","86","0","86","Thu Feb 18 14:52:35 2021","The main experiment item","yes","Lexical_Decision_Task.osexp","/Users/lucydupre/Documents/Psychology Bsc (hons)/Year 2/CAL","no","Andale Mono","no","18","no","white","no","yes","576","legacy","82","82","3","/Users/lucydupre/Documents/Psychology Bsc (hons)/Year 2/CAL/subject-5207748 .csv","legacy","Lentiform Loewenfeld","3.3.7","yes","yes","600bd7cfb6416f0113b04181","602110864497cf011d9c0822","0","j","NA","space","space","space","space","j","593","NA","2501","12781","8813","7808","593","2","legacy","1024","2","48000","-16","task","5207748","even","NA","33987","38491","35989","196686","5371","26984","18168","197189","128882","196684","197189","196640","38491","197783","32421","196140","5357","193272","Lexical Decision Task","72","53373","87","yes","1024"
"2.924968096","0","4","phim","non-word","82.95454545454545","82.95454545454545","616.7272727272727","616.7272727272727","black","no","legacy","legacy","legacy","0","uniform","1","undefined","undefined","undefined","1","f","0","0","0","0","87","0","0","0","87","0","83","87","83","0","83","3","87","0","87","Thu Feb 18 14:52:35 2021","The main experiment item","yes","Lexical_Decision_Task.osexp","/Users/lucydupre/Documents/Psychology Bsc (hons)/Year 2/CAL","no","Andale Mono","no","18","no","white","no","yes","576","legacy","83","83","3","/Users/lucydupre/Documents/Psychology Bsc (hons)/Year 2/CAL/subject-5207748 .csv","legacy","Lentiform Loewenfeld","3.3.7","yes","yes","600bd7cfb6416f0113b04181","602110864497cf011d9c0822","0","f","NA","space","space","space","space","f","899","NA","2501","12781","8813","7808","899","2","legacy","1024","2","48000","-16","task","5207748","even","NA","33987","38491","35989","199335","5371","26984","18168","199837","128882","199332","199837","199286","38491","200737","32421","196140","5357","197785","Lexical Decision Task","73","54272","88","yes","1024"
"3.062080345","0","6","tomp","non-word","83.14606741573034","83.14606741573034","616.7640449438202","616.7640449438202","black","no","legacy","legacy","legacy","0","uniform","1","undefined","undefined","undefined","1","f","0","0","0","0","88","0","0","0","88","0","84","88","84","0","84","3","88","0","88","Thu Feb 18 14:52:35 2021","The main experiment item","yes","Lexical_Decision_Task.osexp","/Users/lucydupre/Documents/Psychology Bsc (hons)/Year 2/CAL","no","Andale Mono","no","18","no","white","no","yes","576","legacy","84","84","3","/Users/lucydupre/Documents/Psychology Bsc (hons)/Year 2/CAL/subject-5207748 .csv","legacy","Lentiform Loewenfeld","3.3.7","yes","yes","600bd7cfb6416f0113b04181","602110864497cf011d9c0822","0","f","NA","space","space","space","space","f","620","NA","2501","12781","8813","7808","620","2","legacy","1024","2","48000","-16","task","5207748","even","NA","33987","38491","35989","201286","5371","26984","18168","201788","128882","201283","201789","201240","38491","202410","32421","200740","5357","197785","Lexical Decision Task","74","54892","89","yes","1024"
"2.880623071","0","9","curp","non-word","83.33333333333333","83.33333333333333","617.7888888888889","617.7888888888889","black","no","legacy","legacy","legacy","0","uniform","1","undefined","undefined","undefined","1","f","0","0","0","0","89","0","0","0","89","0","85","89","85","0","85","3","89","0","89","Thu Feb 18 14:52:35 2021","The main experiment item","yes","Lexical_Decision_Task.osexp","/Users/lucydupre/Documents/Psychology Bsc (hons)/Year 2/CAL","no","Andale Mono","no","18","no","white","no","yes","576","legacy","85","85","3","/Users/lucydupre/Documents/Psychology Bsc (hons)/Year 2/CAL/subject-5207748 .csv","legacy","Lentiform Loewenfeld","3.3.7","yes","yes","600bd7cfb6416f0113b04181","602110864497cf011d9c0822","0","f","NA","space","space","space","space","f","709","NA","2501","12781","8813","7808","709","2","legacy","1024","2","48000","-16","task","5207748","even","NA","33987","38491","35989","202959","5371","26984","18168","203461","128882","202957","203462","202913","38491","204172","32421","202413","5357","197785","Lexical Decision Task","75","55601","90","yes","1024"
"3.225825991","0","7","talm","non-word","83.51648351648352","83.51648351648352","616.8901098901099","616.8901098901099","black","no","legacy","legacy","legacy","0","uniform","1","undefined","undefined","undefined","1","f","0","0","0","0","90","0","0","0","90","0","86","90","86","0","86","3","90","0","90","Thu Feb 18 14:52:35 2021","The main experiment item","yes","Lexical_Decision_Task.osexp","/Users/lucydupre/Documents/Psychology Bsc (hons)/Year 2/CAL","no","Andale Mono","no","18","no","white","no","yes","576","legacy","86","86","3","/Users/lucydupre/Documents/Psychology Bsc (hons)/Year 2/CAL/subject-5207748 .csv","legacy","Lentiform Loewenfeld","3.3.7","yes","yes","600bd7cfb6416f0113b04181","602110864497cf011d9c0822","0","f","NA","space","space","space","space","f","536","NA","2501","12781","8813","7808","536","2","legacy","1024","2","48000","-16","task","5207748","even","NA","33987","38491","35989","204719","5371","26984","18168","205221","128882","204717","205222","204675","38491","205758","32421","204175","5357","197785","Lexical Decision Task","76","56137","91","yes","1024"
"3.29439347","8.6","9","wand","word","83.69565217391305","83.69565217391305","616.7391304347826","616.7391304347826","black","no","legacy","legacy","legacy","0","uniform","1","undefined","undefined","undefined","1","j","0","0","0","0","91","0","0","0","91","0","87","91","87","0","87","3","91","0","91","Thu Feb 18 14:52:35 2021","The main experiment item","yes","Lexical_Decision_Task.osexp","/Users/lucydupre/Documents/Psychology Bsc (hons)/Year 2/CAL","no","Andale Mono","no","18","no","white","no","yes","576","legacy","87","87","3","/Users/lucydupre/Documents/Psychology Bsc (hons)/Year 2/CAL/subject-5207748 .csv","legacy","Lentiform Loewenfeld","3.3.7","yes","yes","600bd7cfb6416f0113b04181","602110864497cf011d9c0822","0","j","NA","space","space","space","space","j","603","NA","2501","12781","8813","7808","603","2","legacy","1024","2","48000","-16","task","5207748","even","NA","33987","38491","35989","206307","5371","26984","18168","206810","128882","206305","206810","206261","38491","207413","32421","205761","5357","197785","Lexical Decision Task","77","56740","92","yes","1024"
"2.67699827","0","6","hulf","non-word","83.87096774193549","83.87096774193549","616.6774193548387","616.6774193548387","black","no","legacy","legacy","legacy","0","uniform","1","undefined","undefined","undefined","1","f","0","0","0","0","92","0","0","0","92","0","88","92","88","0","88","3","92","0","92","Thu Feb 18 14:52:35 2021","The main experiment item","yes","Lexical_Decision_Task.osexp","/Users/lucydupre/Documents/Psychology Bsc (hons)/Year 2/CAL","no","Andale Mono","no","18","no","white","no","yes","576","legacy","88","88","3","/Users/lucydupre/Documents/Psychology Bsc (hons)/Year 2/CAL/subject-5207748 .csv","legacy","Lentiform Loewenfeld","3.3.7","yes","yes","600bd7cfb6416f0113b04181","602110864497cf011d9c0822","0","f","NA","space","space","space","space","f","611","NA","2501","12781","8813","7808","611","2","legacy","1024","2","48000","-16","task","5207748","even","NA","33987","38491","35989","207962","5371","26984","18168","208464","128882","207960","208464","207916","38491","209076","32421","207416","5357","197785","Lexical Decision Task","78","57351","93","yes","1024"
"2.986323777","10.85","8","ship","word","84.04255319148936","84.04255319148936","616.5425531914893","616.5425531914893","black","no","legacy","legacy","legacy","0","uniform","1","undefined","undefined","undefined","1","j","0","0","0","0","93","0","0","0","93","0","89","93","89","0","89","3","93","0","93","Thu Feb 18 14:52:35 2021","The main experiment item","yes","Lexical_Decision_Task.osexp","/Users/lucydupre/Documents/Psychology Bsc (hons)/Year 2/CAL","no","Andale Mono","no","18","no","white","no","yes","576","legacy","89","89","3","/Users/lucydupre/Documents/Psychology Bsc (hons)/Year 2/CAL/subject-5207748 .csv","legacy","Lentiform Loewenfeld","3.3.7","yes","yes","600bd7cfb6416f0113b04181","602110864497cf011d9c0822","0","j","NA","space","space","space","space","j","604","NA","2501","12781","8813","7808","604","2","legacy","1024","2","48000","-16","task","5207748","even","NA","33987","38491","35989","209626","5371","26984","18168","210128","128882","209624","210128","209579","38491","210733","32421","209079","5357","197785","Lexical Decision Task","79","57955","94","yes","1024"
