"Log_BG","Log_Freq_HAL","Ortho_N","Stimulus","Type","acc","accuracy","average_response_time","avg_rt","background","bidi","canvas_backend","clock_backend","color_backend","compensation","coordinates","correct","correct_Experimental_intro","correct_Introduction","correct_Practice_intro","correct_experimenter_kb","correct_response","count_End_Of_Experiment","count_End_Of_Practice","count_Experimental_Loop","count_Experimental_intro","count_Fixation","count_Introduction","count_Practice_Loop","count_Practice_intro","count_Stimulus","count_block_break_feedback","count_experimental_sequence","count_experimenter_kb","count_increment_trial_count","count_init_trial_count","count_logger","count_practice_sequence","count_right","count_task","count_wrong","datetime","description","disable_garbage_collection","experiment_file","experiment_path","font_bold","font_family","font_italic","font_size","font_underline","foreground","form_clicks","fullscreen","height","keyboard_backend","live_row","live_row_Experimental_Loop","live_row_Practice_Loop","logfile","mouse_backend","opensesame_codename","opensesame_version","osf_always_upload_data","osf_always_upload_experiment","osf_datanode_id","osf_id","repeat_cycle","response","response_End_Of_Experiment","response_Experimental_intro","response_Introduction","response_Practice_intro","response_block_break_feedback","response_experimenter_kb","response_time","response_time_End_Of_Experiment","response_time_Experimental_intro","response_time_Introduction","response_time_Practice_intro","response_time_block_break_feedback","response_time_experimenter_kb","round_decimals","sampler_backend","sound_buf_size","sound_channels","sound_freq","sound_sample_size","start","subject_nr","subject_parity","time_End_Of_Experiment","time_End_Of_Practice","time_Experimental_Loop","time_Experimental_intro","time_Fixation","time_Introduction","time_Practice_Loop","time_Practice_intro","time_Stimulus","time_block_break_feedback","time_experimental_sequence","time_experimenter_kb","time_increment_trial_count","time_init_trial_count","time_logger","time_practice_sequence","time_right","time_task","time_wrong","title","total_correct","total_response_time","total_responses","uniform_coordinates","width"
"3.031812271","6.52","3","gulp","word","100","100","1135.6","1135.6","black","no","legacy","legacy","legacy","0","uniform","1","undefined","undefined","undefined","1","j","0","0","0","0","4","0","0","0","4","NA","0","4","0","0","0","3","4","0","4","Wed Feb 24 18:43:28 2021","The main experiment item","yes","Lexical_Decision_Task.osexp","/Users/miaodonnell/Desktop","no","Andale Mono","no","18","no","white","no","yes","576","legacy","0","0","3","/Users/miaodonnell/Desktop/subject-5213612.csv","legacy","Lentiform Loewenfeld","3.3.7","yes","yes","600bd7cfb6416f0113b04181","602110864497cf011d9c0822","0","j","NA","space","space","space","NA","j","1132","NA","1701","18551","10196","NA","1132","2","legacy","1024","2","48000","-16","task","5213612","even","NA","42939","46645","44944","46669","5366","34141","23935","47173","NA","46666","47173","NA","46645","48306","41099","42414","5293","NA","Lexical Decision Task","5","5678","5","yes","1024"
"2.706148589","0","4","hube","non-word","100","100","1113","1113","black","no","legacy","legacy","legacy","0","uniform","1","undefined","undefined","undefined","1","f","0","0","0","0","5","0","0","0","5","NA","1","5","1","0","1","3","5","0","5","Wed Feb 24 18:43:28 2021","The main experiment item","yes","Lexical_Decision_Task.osexp","/Users/miaodonnell/Desktop","no","Andale Mono","no","18","no","white","no","yes","576","legacy","1","1","3","/Users/miaodonnell/Desktop/subject-5213612.csv","legacy","Lentiform Loewenfeld","3.3.7","yes","yes","600bd7cfb6416f0113b04181","602110864497cf011d9c0822","0","f","NA","space","space","space","NA","f","1000","NA","1701","18551","10196","NA","1000","2","legacy","1024","2","48000","-16","task","5213612","even","NA","42939","46645","44944","48860","5366","34141","23935","49363","NA","48858","49363","48810","46645","50364","41099","48310","5293","NA","Lexical Decision Task","6","6678","6","yes","1024"
"2.755364069","7.72","2","hoax","word","100","100","1175.7142857142858","1175.7142857142858","black","no","legacy","legacy","legacy","0","uniform","1","undefined","undefined","undefined","1","j","0","0","0","0","6","0","0","0","6","NA","2","6","2","0","2","3","6","0","6","Wed Feb 24 18:43:28 2021","The main experiment item","yes","Lexical_Decision_Task.osexp","/Users/miaodonnell/Desktop","no","Andale Mono","no","18","no","white","no","yes","576","legacy","2","2","3","/Users/miaodonnell/Desktop/subject-5213612.csv","legacy","Lentiform Loewenfeld","3.3.7","yes","yes","600bd7cfb6416f0113b04181","602110864497cf011d9c0822","0","j","NA","space","space","space","NA","j","1552","NA","1701","18551","10196","NA","1552","2","legacy","1024","2","48000","-16","task","5213612","even","NA","42939","46645","44944","50917","5366","34141","23935","51420","NA","50912","51421","50867","46645","52974","41099","50367","5293","NA","Lexical Decision Task","7","8230","7","yes","1024"
"2.714888338","0","3","brug","non-word","100","100","1149.25","1149.25","black","no","legacy","legacy","legacy","0","uniform","1","undefined","undefined","undefined","1","f","0","0","0","0","7","0","0","0","7","NA","3","7","3","0","3","3","7","0","7","Wed Feb 24 18:43:28 2021","The main experiment item","yes","Lexical_Decision_Task.osexp","/Users/miaodonnell/Desktop","no","Andale Mono","no","18","no","white","no","yes","576","legacy","3","3","3","/Users/miaodonnell/Desktop/subject-5213612.csv","legacy","Lentiform Loewenfeld","3.3.7","yes","yes","600bd7cfb6416f0113b04181","602110864497cf011d9c0822","0","f","NA","space","space","space","NA","f","964","NA","1701","18551","10196","NA","964","2","legacy","1024","2","48000","-16","task","5213612","even","NA","42939","46645","44944","53522","5366","34141","23935","54025","NA","53520","54025","53476","46645","54990","41099","52976","5293","NA","Lexical Decision Task","8","9194","8","yes","1024"
"3.067070856","9.39","3","loud","word","100","100","1131.5555555555557","1131.5555555555557","black","no","legacy","legacy","legacy","0","uniform","1","undefined","undefined","undefined","1","j","0","0","0","0","8","0","0","0","8","NA","4","8","4","0","4","3","8","0","8","Wed Feb 24 18:43:28 2021","The main experiment item","yes","Lexical_Decision_Task.osexp","/Users/miaodonnell/Desktop","no","Andale Mono","no","18","no","white","no","yes","576","legacy","4","4","3","/Users/miaodonnell/Desktop/subject-5213612.csv","legacy","Lentiform Loewenfeld","3.3.7","yes","yes","600bd7cfb6416f0113b04181","602110864497cf011d9c0822","0","j","NA","space","space","space","NA","j","990","NA","1701","18551","10196","NA","990","2","legacy","1024","2","48000","-16","task","5213612","even","NA","42939","46645","44944","55539","5366","34141","23935","56042","NA","55537","56042","55493","46645","57033","41099","54993","5293","NA","Lexical Decision Task","9","10184","9","yes","1024"
"2.675164031","8.57","6","glue","word","100","100","1104.4","1104.4","black","no","legacy","legacy","legacy","0","uniform","1","undefined","undefined","undefined","1","j","0","0","0","0","9","0","0","0","9","NA","5","9","5","0","5","3","9","0","9","Wed Feb 24 18:43:28 2021","The main experiment item","yes","Lexical_Decision_Task.osexp","/Users/miaodonnell/Desktop","no","Andale Mono","no","18","no","white","no","yes","576","legacy","5","5","3","/Users/miaodonnell/Desktop/subject-5213612.csv","legacy","Lentiform Loewenfeld","3.3.7","yes","yes","600bd7cfb6416f0113b04181","602110864497cf011d9c0822","0","j","NA","space","space","space","NA","j","860","NA","1701","18551","10196","NA","860","2","legacy","1024","2","48000","-16","task","5213612","even","NA","42939","46645","44944","57582","5366","34141","23935","58084","NA","57580","58085","57536","46645","58946","41099","57036","5293","NA","Lexical Decision Task","10","11044","10","yes","1024"
"2.696356389","0","1","pizz","non-word","100","100","1075.8181818181818","1075.8181818181818","black","no","legacy","legacy","legacy","0","uniform","1","undefined","undefined","undefined","1","f","0","0","0","0","10","0","0","0","10","NA","6","10","6","0","6","3","10","0","10","Wed Feb 24 18:43:28 2021","The main experiment item","yes","Lexical_Decision_Task.osexp","/Users/miaodonnell/Desktop","no","Andale Mono","no","18","no","white","no","yes","576","legacy","6","6","3","/Users/miaodonnell/Desktop/subject-5213612.csv","legacy","Lentiform Loewenfeld","3.3.7","yes","yes","600bd7cfb6416f0113b04181","602110864497cf011d9c0822","0","f","NA","space","space","space","NA","f","790","NA","1701","18551","10196","NA","790","2","legacy","1024","2","48000","-16","task","5213612","even","NA","42939","46645","44944","59495","5366","34141","23935","59998","NA","59493","59998","59449","46645","60789","41099","58949","5293","NA","Lexical Decision Task","11","11834","11","yes","1024"
"3.20871002","7.15","8","cram","word","100","100","1064","1064","black","no","legacy","legacy","legacy","0","uniform","1","undefined","undefined","undefined","1","j","0","0","0","0","11","0","0","0","11","NA","7","11","7","0","7","3","11","0","11","Wed Feb 24 18:43:28 2021","The main experiment item","yes","Lexical_Decision_Task.osexp","/Users/miaodonnell/Desktop","no","Andale Mono","no","18","no","white","no","yes","576","legacy","7","7","3","/Users/miaodonnell/Desktop/subject-5213612.csv","legacy","Lentiform Loewenfeld","3.3.7","yes","yes","600bd7cfb6416f0113b04181","602110864497cf011d9c0822","0","j","NA","space","space","space","NA","j","934","NA","1701","18551","10196","NA","934","2","legacy","1024","2","48000","-16","task","5213612","even","NA","42939","46645","44944","61338","5366","34141","23935","61841","NA","61336","61841","61292","46645","62776","41099","60792","5293","NA","Lexical Decision Task","12","12768","12","yes","1024"
"3.159867847","5.98","5","brim","word","92.3076923076923","92.3076923076923","1045.6153846153845","1045.6153846153845","black","no","legacy","legacy","legacy","0","uniform","0","undefined","undefined","undefined","0","j","0","0","0","0","12","0","0","0","12","NA","8","12","8","0","8","3","12","0","12","Wed Feb 24 18:43:28 2021","The main experiment item","yes","Lexical_Decision_Task.osexp","/Users/miaodonnell/Desktop","no","Andale Mono","no","18","no","white","no","yes","576","legacy","8","8","3","/Users/miaodonnell/Desktop/subject-5213612.csv","legacy","Lentiform Loewenfeld","3.3.7","yes","yes","600bd7cfb6416f0113b04181","602110864497cf011d9c0822","0","f","NA","space","space","space","NA","f","825","NA","1701","18551","10196","NA","825","2","legacy","1024","2","48000","-16","task","5213612","even","NA","42939","46645","44944","63324","5366","34141","23935","63827","NA","63322","63827","63279","46645","64652","41099","62779","5293","NA","Lexical Decision Task","12","13593","13","yes","1024"
"3.276537627","9.15","5","trap","word","92.85714285714286","92.85714285714286","1026.142857142857","1026.142857142857","black","no","legacy","legacy","legacy","0","uniform","1","undefined","undefined","undefined","1","j","0","0","0","0","13","0","0","0","13","NA","9","13","9","0","9","3","13","0","13","Wed Feb 24 18:43:28 2021","The main experiment item","yes","Lexical_Decision_Task.osexp","/Users/miaodonnell/Desktop","no","Andale Mono","no","18","no","white","no","yes","576","legacy","9","9","3","/Users/miaodonnell/Desktop/subject-5213612.csv","legacy","Lentiform Loewenfeld","3.3.7","yes","yes","600bd7cfb6416f0113b04181","602110864497cf011d9c0822","0","j","NA","space","space","space","NA","j","773","NA","1701","18551","10196","NA","773","2","legacy","1024","2","48000","-16","task","5213612","even","NA","42939","46645","44944","66206","5366","34141","23935","66709","NA","66204","66709","66155","46645","67483","41099","62779","5293","64655","Lexical Decision Task","13","14366","14","yes","1024"
"3.282244367","0","6","fute","non-word","93.33333333333333","93.33333333333333","1030.9333333333334","1030.9333333333334","black","no","legacy","legacy","legacy","0","uniform","1","undefined","undefined","undefined","1","f","0","0","0","0","14","0","0","0","14","NA","10","14","10","0","10","3","14","0","14","Wed Feb 24 18:43:28 2021","The main experiment item","yes","Lexical_Decision_Task.osexp","/Users/miaodonnell/Desktop","no","Andale Mono","no","18","no","white","no","yes","576","legacy","10","10","3","/Users/miaodonnell/Desktop/subject-5213612.csv","legacy","Lentiform Loewenfeld","3.3.7","yes","yes","600bd7cfb6416f0113b04181","602110864497cf011d9c0822","0","f","NA","space","space","space","NA","f","1098","NA","1701","18551","10196","NA","1098","2","legacy","1024","2","48000","-16","task","5213612","even","NA","42939","46645","44944","68032","5366","34141","23935","68535","NA","68030","68535","67986","46645","69633","41099","67486","5293","64655","Lexical Decision Task","14","15464","15","yes","1024"
"3.384413096","10.15","3","glad","word","93.75","93.75","1005.5625","1005.5625","black","no","legacy","legacy","legacy","0","uniform","1","undefined","undefined","undefined","1","j","0","0","0","0","15","0","0","0","15","NA","11","15","11","0","11","3","15","0","15","Wed Feb 24 18:43:28 2021","The main experiment item","yes","Lexical_Decision_Task.osexp","/Users/miaodonnell/Desktop","no","Andale Mono","no","18","no","white","no","yes","576","legacy","11","11","3","/Users/miaodonnell/Desktop/subject-5213612.csv","legacy","Lentiform Loewenfeld","3.3.7","yes","yes","600bd7cfb6416f0113b04181","602110864497cf011d9c0822","0","j","NA","space","space","space","NA","j","625","NA","1701","18551","10196","NA","625","2","legacy","1024","2","48000","-16","task","5213612","even","NA","42939","46645","44944","70182","5366","34141","23935","70685","NA","70180","70685","70136","46645","71311","41099","69636","5293","64655","Lexical Decision Task","15","16089","16","yes","1024"
"2.990042563","6.64","9","plow","word","88.23529411764706","88.23529411764706","999","999","black","no","legacy","legacy","legacy","0","uniform","0","undefined","undefined","undefined","0","j","0","0","0","0","16","0","0","0","16","NA","12","16","12","0","12","3","16","0","16","Wed Feb 24 18:43:28 2021","The main experiment item","yes","Lexical_Decision_Task.osexp","/Users/miaodonnell/Desktop","no","Andale Mono","no","18","no","white","no","yes","576","legacy","12","12","3","/Users/miaodonnell/Desktop/subject-5213612.csv","legacy","Lentiform Loewenfeld","3.3.7","yes","yes","600bd7cfb6416f0113b04181","602110864497cf011d9c0822","0","f","NA","space","space","space","NA","f","894","NA","1701","18551","10196","NA","894","2","legacy","1024","2","48000","-16","task","5213612","even","NA","42939","46645","44944","71860","5366","34141","23935","72363","NA","71858","72363","71814","46645","73258","41099","71314","5293","64655","Lexical Decision Task","15","16983","17","yes","1024"
"2.75025376","10.2","6","jump","word","88.88888888888889","88.88888888888889","977.3888888888889","977.3888888888889","black","no","legacy","legacy","legacy","0","uniform","1","undefined","undefined","undefined","1","j","0","0","0","0","17","0","0","0","17","NA","13","17","13","0","13","3","17","0","17","Wed Feb 24 18:43:28 2021","The main experiment item","yes","Lexical_Decision_Task.osexp","/Users/miaodonnell/Desktop","no","Andale Mono","no","18","no","white","no","yes","576","legacy","13","13","3","/Users/miaodonnell/Desktop/subject-5213612.csv","legacy","Lentiform Loewenfeld","3.3.7","yes","yes","600bd7cfb6416f0113b04181","602110864497cf011d9c0822","0","j","NA","space","space","space","NA","j","610","NA","1701","18551","10196","NA","610","2","legacy","1024","2","48000","-16","task","5213612","even","NA","42939","46645","44944","74811","5366","34141","23935","75314","NA","74809","75314","74761","46645","75925","41099","71314","5293","73261","Lexical Decision Task","16","17593","18","yes","1024"
"2.82129731","6.72","5","plum","word","89.47368421052632","89.47368421052632","970.7894736842105","970.7894736842105","black","no","legacy","legacy","legacy","0","uniform","1","undefined","undefined","undefined","1","j","0","0","0","0","18","0","0","0","18","NA","14","18","14","0","14","3","18","0","18","Wed Feb 24 18:43:28 2021","The main experiment item","yes","Lexical_Decision_Task.osexp","/Users/miaodonnell/Desktop","no","Andale Mono","no","18","no","white","no","yes","576","legacy","14","14","3","/Users/miaodonnell/Desktop/subject-5213612.csv","legacy","Lentiform Loewenfeld","3.3.7","yes","yes","600bd7cfb6416f0113b04181","602110864497cf011d9c0822","0","j","NA","space","space","space","NA","j","852","NA","1701","18551","10196","NA","852","2","legacy","1024","2","48000","-16","task","5213612","even","NA","42939","46645","44944","76474","5366","34141","23935","76977","NA","76472","76977","76428","46645","77830","41099","75928","5293","73261","Lexical Decision Task","17","18445","19","yes","1024"
"2.972357144","0","5","dasp","non-word","90","90","972.35","972.35","black","no","legacy","legacy","legacy","0","uniform","1","undefined","undefined","undefined","1","f","0","0","0","0","19","0","0","0","19","NA","15","19","15","0","15","3","19","0","19","Wed Feb 24 18:43:28 2021","The main experiment item","yes","Lexical_Decision_Task.osexp","/Users/miaodonnell/Desktop","no","Andale Mono","no","18","no","white","no","yes","576","legacy","15","15","3","/Users/miaodonnell/Desktop/subject-5213612.csv","legacy","Lentiform Loewenfeld","3.3.7","yes","yes","600bd7cfb6416f0113b04181","602110864497cf011d9c0822","0","f","NA","space","space","space","NA","f","1002","NA","1701","18551","10196","NA","1002","2","legacy","1024","2","48000","-16","task","5213612","even","NA","42939","46645","44944","78379","5366","34141","23935","78882","NA","78377","78882","78333","46645","79885","41099","77833","5293","73261","Lexical Decision Task","18","19447","20","yes","1024"
"2.695481676","0","7","goke","non-word","90.47619047619048","90.47619047619048","974.7142857142857","974.7142857142857","black","no","legacy","legacy","legacy","0","uniform","1","undefined","undefined","undefined","1","f","0","0","0","0","20","0","0","0","20","NA","16","20","16","0","16","3","20","0","20","Wed Feb 24 18:43:28 2021","The main experiment item","yes","Lexical_Decision_Task.osexp","/Users/miaodonnell/Desktop","no","Andale Mono","no","18","no","white","no","yes","576","legacy","16","16","3","/Users/miaodonnell/Desktop/subject-5213612.csv","legacy","Lentiform Loewenfeld","3.3.7","yes","yes","600bd7cfb6416f0113b04181","602110864497cf011d9c0822","0","f","NA","space","space","space","NA","f","1022","NA","1701","18551","10196","NA","1022","2","legacy","1024","2","48000","-16","task","5213612","even","NA","42939","46645","44944","80435","5366","34141","23935","80938","NA","80433","80938","80389","46645","81961","41099","79888","5293","73261","Lexical Decision Task","19","20469","21","yes","1024"
"3.368162872","0","4","ferk","non-word","90.9090909090909","90.9090909090909","977.0909090909091","977.0909090909091","black","no","legacy","legacy","legacy","0","uniform","1","undefined","undefined","undefined","1","f","0","0","0","0","21","0","0","0","21","NA","17","21","17","0","17","3","21","0","21","Wed Feb 24 18:43:28 2021","The main experiment item","yes","Lexical_Decision_Task.osexp","/Users/miaodonnell/Desktop","no","Andale Mono","no","18","no","white","no","yes","576","legacy","17","17","3","/Users/miaodonnell/Desktop/subject-5213612.csv","legacy","Lentiform Loewenfeld","3.3.7","yes","yes","600bd7cfb6416f0113b04181","602110864497cf011d9c0822","0","f","NA","space","space","space","NA","f","1027","NA","1701","18551","10196","NA","1027","2","legacy","1024","2","48000","-16","task","5213612","even","NA","42939","46645","44944","82509","5366","34141","23935","83019","NA","82507","83019","82464","46645","84046","41099","81964","5293","73261","Lexical Decision Task","20","21496","22","yes","1024"
"2.880623071","0","9","curp","non-word","91.30434782608695","91.30434782608695","1000.4347826086956","1000.4347826086956","black","no","legacy","legacy","legacy","0","uniform","1","undefined","undefined","undefined","1","f","0","0","0","0","22","0","0","0","22","NA","18","22","18","0","18","3","22","0","22","Wed Feb 24 18:43:28 2021","The main experiment item","yes","Lexical_Decision_Task.osexp","/Users/miaodonnell/Desktop","no","Andale Mono","no","18","no","white","no","yes","576","legacy","18","18","3","/Users/miaodonnell/Desktop/subject-5213612.csv","legacy","Lentiform Loewenfeld","3.3.7","yes","yes","600bd7cfb6416f0113b04181","602110864497cf011d9c0822","0","f","NA","space","space","space","NA","f","1514","NA","1701","18551","10196","NA","1514","2","legacy","1024","2","48000","-16","task","5213612","even","NA","42939","46645","44944","84596","5366","34141","23935","85099","NA","84594","85099","84550","46645","86614","41099","84050","5293","73261","Lexical Decision Task","21","23010","23","yes","1024"
"3.121778632","0","9","sark","non-word","91.66666666666667","91.66666666666667","990.5416666666666","990.5416666666666","black","no","legacy","legacy","legacy","0","uniform","1","undefined","undefined","undefined","1","f","0","0","0","0","23","0","0","0","23","NA","19","23","19","0","19","3","23","0","23","Wed Feb 24 18:43:28 2021","The main experiment item","yes","Lexical_Decision_Task.osexp","/Users/miaodonnell/Desktop","no","Andale Mono","no","18","no","white","no","yes","576","legacy","19","19","3","/Users/miaodonnell/Desktop/subject-5213612.csv","legacy","Lentiform Loewenfeld","3.3.7","yes","yes","600bd7cfb6416f0113b04181","602110864497cf011d9c0822","0","f","NA","space","space","space","NA","f","763","NA","1701","18551","10196","NA","763","2","legacy","1024","2","48000","-16","task","5213612","even","NA","42939","46645","44944","87162","5366","34141","23935","87665","NA","87160","87665","87116","46645","88429","41099","86616","5293","73261","Lexical Decision Task","22","23773","24","yes","1024"
"2.980306438","0","7","slun","non-word","92","92","1001.72","1001.72","black","no","legacy","legacy","legacy","0","uniform","1","undefined","undefined","undefined","1","f","0","0","0","0","24","0","0","0","24","NA","20","24","20","0","20","3","24","0","24","Wed Feb 24 18:43:28 2021","The main experiment item","yes","Lexical_Decision_Task.osexp","/Users/miaodonnell/Desktop","no","Andale Mono","no","18","no","white","no","yes","576","legacy","20","20","3","/Users/miaodonnell/Desktop/subject-5213612.csv","legacy","Lentiform Loewenfeld","3.3.7","yes","yes","600bd7cfb6416f0113b04181","602110864497cf011d9c0822","0","f","NA","space","space","space","NA","f","1270","NA","1701","18551","10196","NA","1270","2","legacy","1024","2","48000","-16","task","5213612","even","NA","42939","46645","44944","88977","5366","34141","23935","89480","NA","88975","89480","88931","46645","90751","41099","88431","5293","73261","Lexical Decision Task","23","25043","25","yes","1024"
"3.230789326","5.38","5","prim","word","88.46153846153847","88.46153846153847","1028.076923076923","1028.076923076923","black","no","legacy","legacy","legacy","0","uniform","0","undefined","undefined","undefined","0","j","0","0","0","0","25","0","0","0","25","NA","21","25","21","0","21","3","25","0","25","Wed Feb 24 18:43:28 2021","The main experiment item","yes","Lexical_Decision_Task.osexp","/Users/miaodonnell/Desktop","no","Andale Mono","no","18","no","white","no","yes","576","legacy","21","21","3","/Users/miaodonnell/Desktop/subject-5213612.csv","legacy","Lentiform Loewenfeld","3.3.7","yes","yes","600bd7cfb6416f0113b04181","602110864497cf011d9c0822","0","f","NA","space","space","space","NA","f","1687","NA","1701","18551","10196","NA","1687","2","legacy","1024","2","48000","-16","task","5213612","even","NA","42939","46645","44944","91300","5366","34141","23935","91803","NA","91298","91803","91253","46645","93491","41099","90753","5293","73261","Lexical Decision Task","23","26730","26","yes","1024"
"2.698100546","0","9","mulk","non-word","88.88888888888889","88.88888888888889","1030.4074074074074","1030.4074074074074","black","no","legacy","legacy","legacy","0","uniform","1","undefined","undefined","undefined","1","f","0","0","0","0","26","0","0","0","26","NA","22","26","22","0","22","3","26","0","26","Wed Feb 24 18:43:28 2021","The main experiment item","yes","Lexical_Decision_Task.osexp","/Users/miaodonnell/Desktop","no","Andale Mono","no","18","no","white","no","yes","576","legacy","22","22","3","/Users/miaodonnell/Desktop/subject-5213612.csv","legacy","Lentiform Loewenfeld","3.3.7","yes","yes","600bd7cfb6416f0113b04181","602110864497cf011d9c0822","0","f","NA","space","space","space","NA","f","1091","NA","1701","18551","10196","NA","1091","2","legacy","1024","2","48000","-16","task","5213612","even","NA","42939","46645","44944","95046","5366","34141","23935","95550","NA","95044","95550","94996","46645","96642","41099","90753","5293","93496","Lexical Decision Task","24","27821","27","yes","1024"
"2.9737419","7.69","7","claw","word","89.28571428571429","89.28571428571429","1018.1428571428571","1018.1428571428571","black","no","legacy","legacy","legacy","0","uniform","1","undefined","undefined","undefined","1","j","0","0","0","0","27","0","0","0","27","NA","23","27","23","0","23","3","27","0","27","Wed Feb 24 18:43:28 2021","The main experiment item","yes","Lexical_Decision_Task.osexp","/Users/miaodonnell/Desktop","no","Andale Mono","no","18","no","white","no","yes","576","legacy","23","23","3","/Users/miaodonnell/Desktop/subject-5213612.csv","legacy","Lentiform Loewenfeld","3.3.7","yes","yes","600bd7cfb6416f0113b04181","602110864497cf011d9c0822","0","j","NA","space","space","space","NA","j","687","NA","1701","18551","10196","NA","687","2","legacy","1024","2","48000","-16","task","5213612","even","NA","42939","46645","44944","97190","5366","34141","23935","97693","NA","97188","97693","97145","46645","98381","41099","96645","5293","93496","Lexical Decision Task","25","28508","28","yes","1024"
"2.668385917","5.48","4","twig","word","89.65517241379311","89.65517241379311","1005.4827586206897","1005.4827586206897","black","no","legacy","legacy","legacy","0","uniform","1","undefined","undefined","undefined","1","j","0","0","0","0","28","0","0","0","28","NA","24","28","24","0","24","3","28","0","28","Wed Feb 24 18:43:28 2021","The main experiment item","yes","Lexical_Decision_Task.osexp","/Users/miaodonnell/Desktop","no","Andale Mono","no","18","no","white","no","yes","576","legacy","24","24","3","/Users/miaodonnell/Desktop/subject-5213612.csv","legacy","Lentiform Loewenfeld","3.3.7","yes","yes","600bd7cfb6416f0113b04181","602110864497cf011d9c0822","0","j","NA","space","space","space","NA","j","651","NA","1701","18551","10196","NA","651","2","legacy","1024","2","48000","-16","task","5213612","even","NA","42939","46645","44944","98930","5366","34141","23935","99433","NA","98928","99433","98884","46645","100085","41099","98384","5293","93496","Lexical Decision Task","26","29159","29","yes","1024"
"3.088136089","8.32","9","worm","word","90","90","992.5666666666667","992.5666666666667","black","no","legacy","legacy","legacy","0","uniform","1","undefined","undefined","undefined","1","j","0","0","0","0","29","0","0","0","29","NA","25","29","25","0","25","3","29","0","29","Wed Feb 24 18:43:28 2021","The main experiment item","yes","Lexical_Decision_Task.osexp","/Users/miaodonnell/Desktop","no","Andale Mono","no","18","no","white","no","yes","576","legacy","25","25","3","/Users/miaodonnell/Desktop/subject-5213612.csv","legacy","Lentiform Loewenfeld","3.3.7","yes","yes","600bd7cfb6416f0113b04181","602110864497cf011d9c0822","0","j","NA","space","space","space","NA","j","618","NA","1701","18551","10196","NA","618","2","legacy","1024","2","48000","-16","task","5213612","even","NA","42939","46645","44944","100632","5366","34141","23935","101135","NA","100630","101135","100588","46645","101754","41099","100088","5293","93496","Lexical Decision Task","27","29777","30","yes","1024"
"2.778633532","0","3","jurp","non-word","90.3225806451613","90.3225806451613","989.0967741935484","989.0967741935484","black","no","legacy","legacy","legacy","0","uniform","1","undefined","undefined","undefined","1","f","0","0","0","0","30","0","0","0","30","NA","26","30","26","0","26","3","30","0","30","Wed Feb 24 18:43:28 2021","The main experiment item","yes","Lexical_Decision_Task.osexp","/Users/miaodonnell/Desktop","no","Andale Mono","no","18","no","white","no","yes","576","legacy","26","26","3","/Users/miaodonnell/Desktop/subject-5213612.csv","legacy","Lentiform Loewenfeld","3.3.7","yes","yes","600bd7cfb6416f0113b04181","602110864497cf011d9c0822","0","f","NA","space","space","space","NA","f","885","NA","1701","18551","10196","NA","885","2","legacy","1024","2","48000","-16","task","5213612","even","NA","42939","46645","44944","102302","5366","34141","23935","102805","NA","102300","102805","102257","46645","103691","41099","101757","5293","93496","Lexical Decision Task","28","30662","31","yes","1024"
"3.064581521","5.51","6","cask","word","87.5","87.5","1002.3125","1002.3125","black","no","legacy","legacy","legacy","0","uniform","0","undefined","undefined","undefined","0","j","0","0","0","0","31","0","0","0","31","NA","27","31","27","0","27","3","31","0","31","Wed Feb 24 18:43:28 2021","The main experiment item","yes","Lexical_Decision_Task.osexp","/Users/miaodonnell/Desktop","no","Andale Mono","no","18","no","white","no","yes","576","legacy","27","27","3","/Users/miaodonnell/Desktop/subject-5213612.csv","legacy","Lentiform Loewenfeld","3.3.7","yes","yes","600bd7cfb6416f0113b04181","602110864497cf011d9c0822","0","f","NA","space","space","space","NA","f","1412","NA","1701","18551","10196","NA","1412","2","legacy","1024","2","48000","-16","task","5213612","even","NA","42939","46645","44944","104236","5366","34141","23935","104739","NA","104234","104739","104194","46645","106152","41099","103694","5293","93496","Lexical Decision Task","28","32074","32","yes","1024"
"3.474361976","5.24","6","veer","word","84.84848484848484","84.84848484848484","1006.2727272727273","1006.2727272727273","black","no","legacy","legacy","legacy","0","uniform","0","undefined","undefined","undefined","0","j","0","0","0","0","32","0","0","0","32","NA","28","32","28","0","28","3","32","0","32","Wed Feb 24 18:43:28 2021","The main experiment item","yes","Lexical_Decision_Task.osexp","/Users/miaodonnell/Desktop","no","Andale Mono","no","18","no","white","no","yes","576","legacy","28","28","3","/Users/miaodonnell/Desktop/subject-5213612.csv","legacy","Lentiform Loewenfeld","3.3.7","yes","yes","600bd7cfb6416f0113b04181","602110864497cf011d9c0822","0","f","NA","space","space","space","NA","f","1133","NA","1701","18551","10196","NA","1133","2","legacy","1024","2","48000","-16","task","5213612","even","NA","42939","46645","44944","107705","5366","34141","23935","108208","NA","107703","108208","107655","46645","109342","41099","103694","5293","106155","Lexical Decision Task","28","33207","33","yes","1024"
"2.705007959","6.01","4","wept","word","85.29411764705883","85.29411764705883","996.3823529411765","996.3823529411765","black","no","legacy","legacy","legacy","0","uniform","1","undefined","undefined","undefined","1","j","0","0","0","0","33","0","0","0","33","NA","29","33","29","0","29","3","33","0","33","Wed Feb 24 18:43:28 2021","The main experiment item","yes","Lexical_Decision_Task.osexp","/Users/miaodonnell/Desktop","no","Andale Mono","no","18","no","white","no","yes","576","legacy","29","29","3","/Users/miaodonnell/Desktop/subject-5213612.csv","legacy","Lentiform Loewenfeld","3.3.7","yes","yes","600bd7cfb6416f0113b04181","602110864497cf011d9c0822","0","j","NA","space","space","space","NA","j","670","NA","1701","18551","10196","NA","670","2","legacy","1024","2","48000","-16","task","5213612","even","NA","42939","46645","44944","110895","5366","34141","23935","111398","NA","110893","111398","110845","46645","112069","41099","103694","5293","109345","Lexical Decision Task","29","33877","34","yes","1024"
"2.693726949","5.08","3","swig","word","85.71428571428571","85.71428571428571","994.9714285714285","994.9714285714285","black","no","legacy","legacy","legacy","0","uniform","1","undefined","undefined","undefined","1","j","0","0","0","0","34","0","0","0","34","NA","30","34","30","0","30","3","34","0","34","Wed Feb 24 18:43:28 2021","The main experiment item","yes","Lexical_Decision_Task.osexp","/Users/miaodonnell/Desktop","no","Andale Mono","no","18","no","white","no","yes","576","legacy","30","30","3","/Users/miaodonnell/Desktop/subject-5213612.csv","legacy","Lentiform Loewenfeld","3.3.7","yes","yes","600bd7cfb6416f0113b04181","602110864497cf011d9c0822","0","j","NA","space","space","space","NA","j","947","NA","1701","18551","10196","NA","947","2","legacy","1024","2","48000","-16","task","5213612","even","NA","42939","46645","44944","112620","5366","34141","23935","113123","NA","112618","113123","112573","46645","114071","41099","112072","5293","109345","Lexical Decision Task","30","34824","35","yes","1024"
"2.898725182","0","7","turl","non-word","86.11111111111111","86.11111111111111","989.3333333333334","989.3333333333334","black","no","legacy","legacy","legacy","0","uniform","1","undefined","undefined","undefined","1","f","0","0","0","0","35","0","0","0","35","NA","31","35","31","0","31","3","35","0","35","Wed Feb 24 18:43:28 2021","The main experiment item","yes","Lexical_Decision_Task.osexp","/Users/miaodonnell/Desktop","no","Andale Mono","no","18","no","white","no","yes","576","legacy","31","31","3","/Users/miaodonnell/Desktop/subject-5213612.csv","legacy","Lentiform Loewenfeld","3.3.7","yes","yes","600bd7cfb6416f0113b04181","602110864497cf011d9c0822","0","f","NA","space","space","space","NA","f","792","NA","1701","18551","10196","NA","792","2","legacy","1024","2","48000","-16","task","5213612","even","NA","42939","46645","44944","114620","5366","34141","23935","115123","NA","114618","115123","114574","46645","115916","41099","114074","5293","109345","Lexical Decision Task","31","35616","36","yes","1024"
"3.366547468","0","6","plat","non-word","83.78378378378379","83.78378378378379","983.2432432432432","983.2432432432432","black","no","legacy","legacy","legacy","0","uniform","0","undefined","undefined","undefined","0","f","0","0","0","0","36","0","0","0","36","NA","32","36","32","0","32","3","36","0","36","Wed Feb 24 18:43:28 2021","The main experiment item","yes","Lexical_Decision_Task.osexp","/Users/miaodonnell/Desktop","no","Andale Mono","no","18","no","white","no","yes","576","legacy","32","32","3","/Users/miaodonnell/Desktop/subject-5213612.csv","legacy","Lentiform Loewenfeld","3.3.7","yes","yes","600bd7cfb6416f0113b04181","602110864497cf011d9c0822","0","j","NA","space","space","space","NA","j","764","NA","1701","18551","10196","NA","764","2","legacy","1024","2","48000","-16","task","5213612","even","NA","42939","46645","44944","116465","5366","34141","23935","116968","NA","116463","116968","116419","46645","117733","41099","115919","5293","109345","Lexical Decision Task","31","36380","37","yes","1024"
"3.105055783","0","2","norp","non-word","84.21052631578948","84.21052631578948","979.578947368421","979.578947368421","black","no","legacy","legacy","legacy","0","uniform","1","undefined","undefined","undefined","1","f","0","0","0","0","37","0","0","0","37","NA","33","37","33","0","33","3","37","0","37","Wed Feb 24 18:43:28 2021","The main experiment item","yes","Lexical_Decision_Task.osexp","/Users/miaodonnell/Desktop","no","Andale Mono","no","18","no","white","no","yes","576","legacy","33","33","3","/Users/miaodonnell/Desktop/subject-5213612.csv","legacy","Lentiform Loewenfeld","3.3.7","yes","yes","600bd7cfb6416f0113b04181","602110864497cf011d9c0822","0","f","NA","space","space","space","NA","f","844","NA","1701","18551","10196","NA","844","2","legacy","1024","2","48000","-16","task","5213612","even","NA","42939","46645","44944","119286","5366","34141","23935","119789","NA","119284","119789","119236","46645","120634","41099","115919","5293","117736","Lexical Decision Task","32","37224","38","yes","1024"
"3.274157849","0","8","leet","non-word","84.61538461538461","84.61538461538461","975.025641025641","975.025641025641","black","no","legacy","legacy","legacy","0","uniform","1","undefined","undefined","undefined","1","f","0","0","0","0","38","0","0","0","38","NA","34","38","34","0","34","3","38","0","38","Wed Feb 24 18:43:28 2021","The main experiment item","yes","Lexical_Decision_Task.osexp","/Users/miaodonnell/Desktop","no","Andale Mono","no","18","no","white","no","yes","576","legacy","34","34","3","/Users/miaodonnell/Desktop/subject-5213612.csv","legacy","Lentiform Loewenfeld","3.3.7","yes","yes","600bd7cfb6416f0113b04181","602110864497cf011d9c0822","0","f","NA","space","space","space","NA","f","802","NA","1701","18551","10196","NA","802","2","legacy","1024","2","48000","-16","task","5213612","even","NA","42939","46645","44944","121184","5366","34141","23935","121687","NA","121182","121687","121137","46645","122489","41099","120637","5293","117736","Lexical Decision Task","33","38026","39","yes","1024"
"3.209246849","0","7","slem","non-word","85","85","972.575","972.575","black","no","legacy","legacy","legacy","0","uniform","1","undefined","undefined","undefined","1","f","0","0","0","0","39","0","0","0","39","NA","35","39","35","0","35","3","39","0","39","Wed Feb 24 18:43:28 2021","The main experiment item","yes","Lexical_Decision_Task.osexp","/Users/miaodonnell/Desktop","no","Andale Mono","no","18","no","white","no","yes","576","legacy","35","35","3","/Users/miaodonnell/Desktop/subject-5213612.csv","legacy","Lentiform Loewenfeld","3.3.7","yes","yes","600bd7cfb6416f0113b04181","602110864497cf011d9c0822","0","f","NA","space","space","space","NA","f","877","NA","1701","18551","10196","NA","877","2","legacy","1024","2","48000","-16","task","5213612","even","NA","42939","46645","44944","123041","5366","34141","23935","123544","NA","123039","123544","122993","46645","124421","41099","122492","5293","117736","Lexical Decision Task","34","38903","40","yes","1024"
"3.303771854","0","9","dath","non-word","85.36585365853658","85.36585365853658","978.9268292682926","978.9268292682926","black","no","legacy","legacy","legacy","0","uniform","1","undefined","undefined","undefined","1","f","0","0","0","0","40","0","0","0","40","NA","36","40","36","0","36","3","40","0","40","Wed Feb 24 18:43:28 2021","The main experiment item","yes","Lexical_Decision_Task.osexp","/Users/miaodonnell/Desktop","no","Andale Mono","no","18","no","white","no","yes","576","legacy","36","36","3","/Users/miaodonnell/Desktop/subject-5213612.csv","legacy","Lentiform Loewenfeld","3.3.7","yes","yes","600bd7cfb6416f0113b04181","602110864497cf011d9c0822","0","f","NA","space","space","space","NA","f","1233","NA","1701","18551","10196","NA","1233","2","legacy","1024","2","48000","-16","task","5213612","even","NA","42939","46645","44944","124970","5366","34141","23935","125473","NA","124968","125473","124924","46645","126707","41099","124424","5293","117736","Lexical Decision Task","35","40136","41","yes","1024"
"3.397302518","7.01","2","knit","word","85.71428571428571","85.71428571428571","979.7619047619048","979.7619047619048","black","no","legacy","legacy","legacy","0","uniform","1","undefined","undefined","undefined","1","j","0","0","0","0","41","0","0","0","41","NA","37","41","37","0","37","3","41","0","41","Wed Feb 24 18:43:28 2021","The main experiment item","yes","Lexical_Decision_Task.osexp","/Users/miaodonnell/Desktop","no","Andale Mono","no","18","no","white","no","yes","576","legacy","37","37","3","/Users/miaodonnell/Desktop/subject-5213612.csv","legacy","Lentiform Loewenfeld","3.3.7","yes","yes","600bd7cfb6416f0113b04181","602110864497cf011d9c0822","0","j","NA","space","space","space","NA","j","1014","NA","1701","18551","10196","NA","1014","2","legacy","1024","2","48000","-16","task","5213612","even","NA","42939","46645","44944","127256","5366","34141","23935","127759","NA","127254","127759","127210","46645","128773","41099","126709","5293","117736","Lexical Decision Task","36","41150","42","yes","1024"
"2.924968096","0","4","phim","non-word","86.04651162790698","86.04651162790698","972.5813953488372","972.5813953488372","black","no","legacy","legacy","legacy","0","uniform","1","undefined","undefined","undefined","1","f","0","0","0","0","42","0","0","0","42","NA","38","42","38","0","38","3","42","0","42","Wed Feb 24 18:43:28 2021","The main experiment item","yes","Lexical_Decision_Task.osexp","/Users/miaodonnell/Desktop","no","Andale Mono","no","18","no","white","no","yes","576","legacy","38","38","3","/Users/miaodonnell/Desktop/subject-5213612.csv","legacy","Lentiform Loewenfeld","3.3.7","yes","yes","600bd7cfb6416f0113b04181","602110864497cf011d9c0822","0","f","NA","space","space","space","NA","f","671","NA","1701","18551","10196","NA","671","2","legacy","1024","2","48000","-16","task","5213612","even","NA","42939","46645","44944","129323","5366","34141","23935","129826","NA","129321","129826","129277","46645","130497","41099","128777","5293","117736","Lexical Decision Task","37","41821","43","yes","1024"
"2.794720352","0","9","koot","non-word","86.36363636363636","86.36363636363636","968.2272727272727","968.2272727272727","black","no","legacy","legacy","legacy","0","uniform","1","undefined","undefined","undefined","1","f","0","0","0","0","43","0","0","0","43","NA","39","43","39","0","39","3","43","0","43","Wed Feb 24 18:43:28 2021","The main experiment item","yes","Lexical_Decision_Task.osexp","/Users/miaodonnell/Desktop","no","Andale Mono","no","18","no","white","no","yes","576","legacy","39","39","3","/Users/miaodonnell/Desktop/subject-5213612.csv","legacy","Lentiform Loewenfeld","3.3.7","yes","yes","600bd7cfb6416f0113b04181","602110864497cf011d9c0822","0","f","NA","space","space","space","NA","f","781","NA","1701","18551","10196","NA","781","2","legacy","1024","2","48000","-16","task","5213612","even","NA","42939","46645","44944","131046","5366","34141","23935","131549","NA","131044","131549","131001","46645","132331","41099","130501","5293","117736","Lexical Decision Task","38","42602","44","yes","1024"
"2.576725172","0","8","gowl","non-word","86.66666666666667","86.66666666666667","962.0888888888888","962.0888888888888","black","no","legacy","legacy","legacy","0","uniform","1","undefined","undefined","undefined","1","f","0","0","0","0","44","0","0","0","44","NA","40","44","40","0","40","3","44","0","44","Wed Feb 24 18:43:28 2021","The main experiment item","yes","Lexical_Decision_Task.osexp","/Users/miaodonnell/Desktop","no","Andale Mono","no","18","no","white","no","yes","576","legacy","40","40","3","/Users/miaodonnell/Desktop/subject-5213612.csv","legacy","Lentiform Loewenfeld","3.3.7","yes","yes","600bd7cfb6416f0113b04181","602110864497cf011d9c0822","0","f","NA","space","space","space","NA","f","692","NA","1701","18551","10196","NA","692","2","legacy","1024","2","48000","-16","task","5213612","even","NA","42939","46645","44944","132880","5366","34141","23935","133383","NA","132878","133383","132834","46645","134075","41099","132334","5293","117736","Lexical Decision Task","39","43294","45","yes","1024"
"2.971428938","9.86","7","spot","word","86.95652173913044","86.95652173913044","953.5652173913044","953.5652173913044","black","no","legacy","legacy","legacy","0","uniform","1","undefined","undefined","undefined","1","j","0","0","0","0","45","0","0","0","45","NA","41","45","41","0","41","3","45","0","45","Wed Feb 24 18:43:28 2021","The main experiment item","yes","Lexical_Decision_Task.osexp","/Users/miaodonnell/Desktop","no","Andale Mono","no","18","no","white","no","yes","576","legacy","41","41","3","/Users/miaodonnell/Desktop/subject-5213612.csv","legacy","Lentiform Loewenfeld","3.3.7","yes","yes","600bd7cfb6416f0113b04181","602110864497cf011d9c0822","0","j","NA","space","space","space","NA","j","570","NA","1701","18551","10196","NA","570","2","legacy","1024","2","48000","-16","task","5213612","even","NA","42939","46645","44944","134624","5366","34141","23935","135127","NA","134622","135127","134578","46645","135698","41099","134078","5293","117736","Lexical Decision Task","40","43864","46","yes","1024"
"2.983324025","9.56","2","debt","word","87.23404255319149","87.23404255319149","949.4042553191489","949.4042553191489","black","no","legacy","legacy","legacy","0","uniform","1","undefined","undefined","undefined","1","j","0","0","0","0","46","0","0","0","46","NA","42","46","42","0","42","3","46","0","46","Wed Feb 24 18:43:28 2021","The main experiment item","yes","Lexical_Decision_Task.osexp","/Users/miaodonnell/Desktop","no","Andale Mono","no","18","no","white","no","yes","576","legacy","42","42","3","/Users/miaodonnell/Desktop/subject-5213612.csv","legacy","Lentiform Loewenfeld","3.3.7","yes","yes","600bd7cfb6416f0113b04181","602110864497cf011d9c0822","0","j","NA","space","space","space","NA","j","758","NA","1701","18551","10196","NA","758","2","legacy","1024","2","48000","-16","task","5213612","even","NA","42939","46645","44944","136248","5366","34141","23935","136751","NA","136246","136751","136201","46645","137510","41099","135701","5293","117736","Lexical Decision Task","41","44622","47","yes","1024"
"3.156347201","0","8","lasp","non-word","87.5","87.5","945.75","945.75","black","no","legacy","legacy","legacy","0","uniform","1","undefined","undefined","undefined","1","f","0","0","0","0","47","0","0","0","47","NA","43","47","43","0","43","3","47","0","47","Wed Feb 24 18:43:28 2021","The main experiment item","yes","Lexical_Decision_Task.osexp","/Users/miaodonnell/Desktop","no","Andale Mono","no","18","no","white","no","yes","576","legacy","43","43","3","/Users/miaodonnell/Desktop/subject-5213612.csv","legacy","Lentiform Loewenfeld","3.3.7","yes","yes","600bd7cfb6416f0113b04181","602110864497cf011d9c0822","0","f","NA","space","space","space","NA","f","774","NA","1701","18551","10196","NA","774","2","legacy","1024","2","48000","-16","task","5213612","even","NA","42939","46645","44944","138060","5366","34141","23935","138563","NA","138058","138563","138013","46645","139338","41099","137513","5293","117736","Lexical Decision Task","42","45396","48","yes","1024"
"3.216517684","10.87","3","film","word","87.75510204081633","87.75510204081633","938.9591836734694","938.9591836734694","black","no","legacy","legacy","legacy","0","uniform","1","undefined","undefined","undefined","1","j","0","0","0","0","48","0","0","0","48","NA","44","48","44","0","44","3","48","0","48","Wed Feb 24 18:43:28 2021","The main experiment item","yes","Lexical_Decision_Task.osexp","/Users/miaodonnell/Desktop","no","Andale Mono","no","18","no","white","no","yes","576","legacy","44","44","3","/Users/miaodonnell/Desktop/subject-5213612.csv","legacy","Lentiform Loewenfeld","3.3.7","yes","yes","600bd7cfb6416f0113b04181","602110864497cf011d9c0822","0","j","NA","space","space","space","NA","j","613","NA","1701","18551","10196","NA","613","2","legacy","1024","2","48000","-16","task","5213612","even","NA","42939","46645","44944","139887","5366","34141","23935","140390","NA","139885","140390","139841","46645","141004","41099","139341","5293","117736","Lexical Decision Task","43","46009","49","yes","1024"
"2.920123326","7.43","4","duel","word","88","88","937.96","937.96","black","no","legacy","legacy","legacy","0","uniform","1","undefined","undefined","undefined","1","j","0","0","0","0","49","0","0","0","49","NA","45","49","45","0","45","3","49","0","49","Wed Feb 24 18:43:28 2021","The main experiment item","yes","Lexical_Decision_Task.osexp","/Users/miaodonnell/Desktop","no","Andale Mono","no","18","no","white","no","yes","576","legacy","45","45","3","/Users/miaodonnell/Desktop/subject-5213612.csv","legacy","Lentiform Loewenfeld","3.3.7","yes","yes","600bd7cfb6416f0113b04181","602110864497cf011d9c0822","0","j","NA","space","space","space","NA","j","889","NA","1701","18551","10196","NA","889","2","legacy","1024","2","48000","-16","task","5213612","even","NA","42939","46645","44944","141552","5366","34141","23935","142055","NA","141550","142055","141506","46645","142945","41099","141006","5293","117736","Lexical Decision Task","44","46898","50","yes","1024"
"3.120135028","0","3","vals","non-word","88.23529411764706","88.23529411764706","932.1372549019608","932.1372549019608","black","no","legacy","legacy","legacy","0","uniform","1","undefined","undefined","undefined","1","f","0","0","0","0","50","0","0","0","50","NA","46","50","46","0","46","3","50","0","50","Wed Feb 24 18:43:28 2021","The main experiment item","yes","Lexical_Decision_Task.osexp","/Users/miaodonnell/Desktop","no","Andale Mono","no","18","no","white","no","yes","576","legacy","46","46","3","/Users/miaodonnell/Desktop/subject-5213612.csv","legacy","Lentiform Loewenfeld","3.3.7","yes","yes","600bd7cfb6416f0113b04181","602110864497cf011d9c0822","0","f","NA","space","space","space","NA","f","641","NA","1701","18551","10196","NA","641","2","legacy","1024","2","48000","-16","task","5213612","even","NA","42939","46645","44944","143493","5366","34141","23935","143996","NA","143491","143996","143448","46645","144638","41099","142948","5293","117736","Lexical Decision Task","45","47539","51","yes","1024"
"2.897810299","0","5","glur","non-word","88.46153846153847","88.46153846153847","928.5384615384615","928.5384615384615","black","no","legacy","legacy","legacy","0","uniform","1","undefined","undefined","undefined","1","f","0","0","0","0","51","0","0","0","51","NA","47","51","47","0","47","3","51","0","51","Wed Feb 24 18:43:28 2021","The main experiment item","yes","Lexical_Decision_Task.osexp","/Users/miaodonnell/Desktop","no","Andale Mono","no","18","no","white","no","yes","576","legacy","47","47","3","/Users/miaodonnell/Desktop/subject-5213612.csv","legacy","Lentiform Loewenfeld","3.3.7","yes","yes","600bd7cfb6416f0113b04181","602110864497cf011d9c0822","0","f","NA","space","space","space","NA","f","745","NA","1701","18551","10196","NA","745","2","legacy","1024","2","48000","-16","task","5213612","even","NA","42939","46645","44944","145188","5366","34141","23935","145691","NA","145186","145691","145142","46645","146437","41099","144642","5293","117736","Lexical Decision Task","46","48284","52","yes","1024"
"3.2757719","0","5","slea","non-word","88.67924528301887","88.67924528301887","920.7169811320755","920.7169811320755","black","no","legacy","legacy","legacy","0","uniform","1","undefined","undefined","undefined","1","f","0","0","0","0","52","0","0","0","52","NA","48","52","48","0","48","3","52","0","52","Wed Feb 24 18:43:28 2021","The main experiment item","yes","Lexical_Decision_Task.osexp","/Users/miaodonnell/Desktop","no","Andale Mono","no","18","no","white","no","yes","576","legacy","48","48","3","/Users/miaodonnell/Desktop/subject-5213612.csv","legacy","Lentiform Loewenfeld","3.3.7","yes","yes","600bd7cfb6416f0113b04181","602110864497cf011d9c0822","0","f","NA","space","space","space","NA","f","514","NA","1701","18551","10196","NA","514","2","legacy","1024","2","48000","-16","task","5213612","even","NA","42939","46645","44944","146986","5366","34141","23935","147489","NA","146984","147489","146940","46645","148004","41099","146440","5293","117736","Lexical Decision Task","47","48798","53","yes","1024"
"2.793790385","5.67","9","swab","word","88.88888888888889","88.88888888888889","935.8148148148148","935.8148148148148","black","no","legacy","legacy","legacy","0","uniform","1","undefined","undefined","undefined","1","j","0","0","0","0","53","0","0","0","53","NA","49","53","49","0","49","3","53","0","53","Wed Feb 24 18:43:28 2021","The main experiment item","yes","Lexical_Decision_Task.osexp","/Users/miaodonnell/Desktop","no","Andale Mono","no","18","no","white","no","yes","576","legacy","49","49","3","/Users/miaodonnell/Desktop/subject-5213612.csv","legacy","Lentiform Loewenfeld","3.3.7","yes","yes","600bd7cfb6416f0113b04181","602110864497cf011d9c0822","0","j","NA","space","space","space","NA","j","1736","NA","1701","18551","10196","NA","1736","2","legacy","1024","2","48000","-16","task","5213612","even","NA","42939","46645","44944","148555","5366","34141","23935","149058","NA","148553","149058","148508","46645","150795","41099","148008","5293","117736","Lexical Decision Task","48","50534","54","yes","1024"
"3.076883066","0","8","mout","non-word","89.0909090909091","89.0909090909091","937.5818181818182","937.5818181818182","black","no","legacy","legacy","legacy","0","uniform","1","undefined","undefined","undefined","1","f","0","0","0","0","54","0","0","0","54","0","50","54","50","0","50","3","54","0","54","Wed Feb 24 18:43:28 2021","The main experiment item","yes","Lexical_Decision_Task.osexp","/Users/miaodonnell/Desktop","no","Andale Mono","no","18","no","white","no","yes","576","legacy","50","50","3","/Users/miaodonnell/Desktop/subject-5213612.csv","legacy","Lentiform Loewenfeld","3.3.7","yes","yes","600bd7cfb6416f0113b04181","602110864497cf011d9c0822","0","f","NA","space","space","space","space","f","1033","NA","1701","18551","10196","8737","1033","2","legacy","1024","2","48000","-16","task","5213612","even","NA","42939","46645","44944","160104","5366","34141","23935","160608","151325","160102","160608","151299","46645","161642","41099","150799","5293","117736","Lexical Decision Task","49","51567","55","yes","1024"
"2.839898939","8.99","6","soap","word","89.28571428571429","89.28571428571429","936.5178571428571","936.5178571428571","black","no","legacy","legacy","legacy","0","uniform","1","undefined","undefined","undefined","1","j","0","0","0","0","55","0","0","0","55","0","51","55","51","0","51","3","55","0","55","Wed Feb 24 18:43:28 2021","The main experiment item","yes","Lexical_Decision_Task.osexp","/Users/miaodonnell/Desktop","no","Andale Mono","no","18","no","white","no","yes","576","legacy","51","51","3","/Users/miaodonnell/Desktop/subject-5213612.csv","legacy","Lentiform Loewenfeld","3.3.7","yes","yes","600bd7cfb6416f0113b04181","602110864497cf011d9c0822","0","j","NA","space","space","space","space","j","878","NA","1701","18551","10196","8737","878","2","legacy","1024","2","48000","-16","task","5213612","even","NA","42939","46645","44944","162191","5366","34141","23935","162695","151325","162190","162695","162145","46645","163574","41099","161645","5293","117736","Lexical Decision Task","50","52445","56","yes","1024"
"3.311895072","0","9","gung","non-word","89.47368421052632","89.47368421052632","936.2456140350877","936.2456140350877","black","no","legacy","legacy","legacy","0","uniform","1","undefined","undefined","undefined","1","f","0","0","0","0","56","0","0","0","56","0","52","56","52","0","52","3","56","0","56","Wed Feb 24 18:43:28 2021","The main experiment item","yes","Lexical_Decision_Task.osexp","/Users/miaodonnell/Desktop","no","Andale Mono","no","18","no","white","no","yes","576","legacy","52","52","3","/Users/miaodonnell/Desktop/subject-5213612.csv","legacy","Lentiform Loewenfeld","3.3.7","yes","yes","600bd7cfb6416f0113b04181","602110864497cf011d9c0822","0","f","NA","space","space","space","space","f","921","NA","1701","18551","10196","8737","921","2","legacy","1024","2","48000","-16","task","5213612","even","NA","42939","46645","44944","164124","5366","34141","23935","164627","151325","164122","164627","164078","46645","165548","41099","163578","5293","117736","Lexical Decision Task","51","53366","57","yes","1024"
"3.165936429","0","7","leps","non-word","89.65517241379311","89.65517241379311","932.5172413793103","932.5172413793103","black","no","legacy","legacy","legacy","0","uniform","1","undefined","undefined","undefined","1","f","0","0","0","0","57","0","0","0","57","0","53","57","53","0","53","3","57","0","57","Wed Feb 24 18:43:28 2021","The main experiment item","yes","Lexical_Decision_Task.osexp","/Users/miaodonnell/Desktop","no","Andale Mono","no","18","no","white","no","yes","576","legacy","53","53","3","/Users/miaodonnell/Desktop/subject-5213612.csv","legacy","Lentiform Loewenfeld","3.3.7","yes","yes","600bd7cfb6416f0113b04181","602110864497cf011d9c0822","0","f","NA","space","space","space","space","f","720","NA","1701","18551","10196","8737","720","2","legacy","1024","2","48000","-16","task","5213612","even","NA","42939","46645","44944","166096","5366","34141","23935","166600","151325","166095","166600","166051","46645","167321","41099","165551","5293","117736","Lexical Decision Task","52","54086","58","yes","1024"
"3.010582609","0","2","drod","non-word","89.83050847457628","89.83050847457628","928.1355932203389","928.1355932203389","black","no","legacy","legacy","legacy","0","uniform","1","undefined","undefined","undefined","1","f","0","0","0","0","58","0","0","0","58","0","54","58","54","0","54","3","58","0","58","Wed Feb 24 18:43:28 2021","The main experiment item","yes","Lexical_Decision_Task.osexp","/Users/miaodonnell/Desktop","no","Andale Mono","no","18","no","white","no","yes","576","legacy","54","54","3","/Users/miaodonnell/Desktop/subject-5213612.csv","legacy","Lentiform Loewenfeld","3.3.7","yes","yes","600bd7cfb6416f0113b04181","602110864497cf011d9c0822","0","f","NA","space","space","space","space","f","674","NA","1701","18551","10196","8737","674","2","legacy","1024","2","48000","-16","task","5213612","even","NA","42939","46645","44944","167872","5366","34141","23935","168375","151325","167870","168375","167824","46645","169049","41099","167324","5293","117736","Lexical Decision Task","53","54760","59","yes","1024"
"3.094121596","0","8","fode","non-word","90","90","925.5166666666667","925.5166666666667","black","no","legacy","legacy","legacy","0","uniform","1","undefined","undefined","undefined","1","f","0","0","0","0","59","0","0","0","59","0","55","59","55","0","55","3","59","0","59","Wed Feb 24 18:43:28 2021","The main experiment item","yes","Lexical_Decision_Task.osexp","/Users/miaodonnell/Desktop","no","Andale Mono","no","18","no","white","no","yes","576","legacy","55","55","3","/Users/miaodonnell/Desktop/subject-5213612.csv","legacy","Lentiform Loewenfeld","3.3.7","yes","yes","600bd7cfb6416f0113b04181","602110864497cf011d9c0822","0","f","NA","space","space","space","space","f","771","NA","1701","18551","10196","8737","771","2","legacy","1024","2","48000","-16","task","5213612","even","NA","42939","46645","44944","169599","5366","34141","23935","170102","151325","169597","170102","169553","46645","170874","41099","169053","5293","117736","Lexical Decision Task","54","55531","60","yes","1024"
"3.299579929","0","2","flis","non-word","90.1639344262295","90.1639344262295","929.9508196721312","929.9508196721312","black","no","legacy","legacy","legacy","0","uniform","1","undefined","undefined","undefined","1","f","0","0","0","0","60","0","0","0","60","0","56","60","56","0","56","3","60","0","60","Wed Feb 24 18:43:28 2021","The main experiment item","yes","Lexical_Decision_Task.osexp","/Users/miaodonnell/Desktop","no","Andale Mono","no","18","no","white","no","yes","576","legacy","56","56","3","/Users/miaodonnell/Desktop/subject-5213612.csv","legacy","Lentiform Loewenfeld","3.3.7","yes","yes","600bd7cfb6416f0113b04181","602110864497cf011d9c0822","0","f","NA","space","space","space","space","f","1196","NA","1701","18551","10196","8737","1196","2","legacy","1024","2","48000","-16","task","5213612","even","NA","42939","46645","44944","171424","5366","34141","23935","171927","151325","171422","171927","171377","46645","173124","41099","170877","5293","117736","Lexical Decision Task","55","56727","61","yes","1024"
"3.208978517","10.33","4","fish","word","90.3225806451613","90.3225806451613","924.3387096774194","924.3387096774194","black","no","legacy","legacy","legacy","0","uniform","1","undefined","undefined","undefined","1","j","0","0","0","0","61","0","0","0","61","0","57","61","57","0","57","3","61","0","61","Wed Feb 24 18:43:28 2021","The main experiment item","yes","Lexical_Decision_Task.osexp","/Users/miaodonnell/Desktop","no","Andale Mono","no","18","no","white","no","yes","576","legacy","57","57","3","/Users/miaodonnell/Desktop/subject-5213612.csv","legacy","Lentiform Loewenfeld","3.3.7","yes","yes","600bd7cfb6416f0113b04181","602110864497cf011d9c0822","0","j","NA","space","space","space","space","j","582","NA","1701","18551","10196","8737","582","2","legacy","1024","2","48000","-16","task","5213612","even","NA","42939","46645","44944","173673","5366","34141","23935","174176","151325","173671","174176","173627","46645","174759","41099","173127","5293","117736","Lexical Decision Task","56","57309","62","yes","1024"
"2.892836167","10.01","5","soft","word","90.47619047619048","90.47619047619048","920.3809523809524","920.3809523809524","black","no","legacy","legacy","legacy","0","uniform","1","undefined","undefined","undefined","1","j","0","0","0","0","62","0","0","0","62","0","58","62","58","0","58","3","62","0","62","Wed Feb 24 18:43:28 2021","The main experiment item","yes","Lexical_Decision_Task.osexp","/Users/miaodonnell/Desktop","no","Andale Mono","no","18","no","white","no","yes","576","legacy","58","58","3","/Users/miaodonnell/Desktop/subject-5213612.csv","legacy","Lentiform Loewenfeld","3.3.7","yes","yes","600bd7cfb6416f0113b04181","602110864497cf011d9c0822","0","j","NA","space","space","space","space","j","675","NA","1701","18551","10196","8737","675","2","legacy","1024","2","48000","-16","task","5213612","even","NA","42939","46645","44944","175310","5366","34141","23935","175813","151325","175308","175813","175262","46645","176488","41099","174762","5293","117736","Lexical Decision Task","57","57984","63","yes","1024"
"3.039414119","0","9","meep","non-word","90.625","90.625","916.984375","916.984375","black","no","legacy","legacy","legacy","0","uniform","1","undefined","undefined","undefined","1","f","0","0","0","0","63","0","0","0","63","0","59","63","59","0","59","3","63","0","63","Wed Feb 24 18:43:28 2021","The main experiment item","yes","Lexical_Decision_Task.osexp","/Users/miaodonnell/Desktop","no","Andale Mono","no","18","no","white","no","yes","576","legacy","59","59","3","/Users/miaodonnell/Desktop/subject-5213612.csv","legacy","Lentiform Loewenfeld","3.3.7","yes","yes","600bd7cfb6416f0113b04181","602110864497cf011d9c0822","0","f","NA","space","space","space","space","f","703","NA","1701","18551","10196","8737","703","2","legacy","1024","2","48000","-16","task","5213612","even","NA","42939","46645","44944","177039","5366","34141","23935","177542","151325","177037","177542","176992","46645","178246","41099","176492","5293","117736","Lexical Decision Task","58","58687","64","yes","1024"
"3.031408464","0","7","drow","non-word","90.76923076923077","90.76923076923077","917.5384615384615","917.5384615384615","black","no","legacy","legacy","legacy","0","uniform","1","undefined","undefined","undefined","1","f","0","0","0","0","64","0","0","0","64","0","60","64","60","0","60","3","64","0","64","Wed Feb 24 18:43:28 2021","The main experiment item","yes","Lexical_Decision_Task.osexp","/Users/miaodonnell/Desktop","no","Andale Mono","no","18","no","white","no","yes","576","legacy","60","60","3","/Users/miaodonnell/Desktop/subject-5213612.csv","legacy","Lentiform Loewenfeld","3.3.7","yes","yes","600bd7cfb6416f0113b04181","602110864497cf011d9c0822","0","f","NA","space","space","space","space","f","953","NA","1701","18551","10196","8737","953","2","legacy","1024","2","48000","-16","task","5213612","even","NA","42939","46645","44944","178796","5366","34141","23935","179299","151325","178794","179299","178750","46645","180252","41099","178250","5293","117736","Lexical Decision Task","59","59640","65","yes","1024"
"3.168890155","0","6","thet","non-word","90.9090909090909","90.9090909090909","914.3484848484849","914.3484848484849","black","no","legacy","legacy","legacy","0","uniform","1","undefined","undefined","undefined","1","f","0","0","0","0","65","0","0","0","65","0","61","65","61","0","61","3","65","0","65","Wed Feb 24 18:43:28 2021","The main experiment item","yes","Lexical_Decision_Task.osexp","/Users/miaodonnell/Desktop","no","Andale Mono","no","18","no","white","no","yes","576","legacy","61","61","3","/Users/miaodonnell/Desktop/subject-5213612.csv","legacy","Lentiform Loewenfeld","3.3.7","yes","yes","600bd7cfb6416f0113b04181","602110864497cf011d9c0822","0","f","NA","space","space","space","space","f","707","NA","1701","18551","10196","8737","707","2","legacy","1024","2","48000","-16","task","5213612","even","NA","42939","46645","44944","180802","5366","34141","23935","181305","151325","180800","181305","180756","46645","182013","41099","180256","5293","117736","Lexical Decision Task","60","60347","66","yes","1024"
"2.744553742","0","2","nawk","non-word","91.04477611940298","91.04477611940298","909.8358208955224","909.8358208955224","black","no","legacy","legacy","legacy","0","uniform","1","undefined","undefined","undefined","1","f","0","0","0","0","66","0","0","0","66","0","62","66","62","0","62","3","66","0","66","Wed Feb 24 18:43:28 2021","The main experiment item","yes","Lexical_Decision_Task.osexp","/Users/miaodonnell/Desktop","no","Andale Mono","no","18","no","white","no","yes","576","legacy","62","62","3","/Users/miaodonnell/Desktop/subject-5213612.csv","legacy","Lentiform Loewenfeld","3.3.7","yes","yes","600bd7cfb6416f0113b04181","602110864497cf011d9c0822","0","f","NA","space","space","space","space","f","612","NA","1701","18551","10196","8737","612","2","legacy","1024","2","48000","-16","task","5213612","even","NA","42939","46645","44944","182563","5366","34141","23935","183066","151325","182561","183066","182516","46645","183679","41099","182016","5293","117736","Lexical Decision Task","61","60959","67","yes","1024"
"2.68604012","0","3","mulb","non-word","91.17647058823529","91.17647058823529","905.1911764705883","905.1911764705883","black","no","legacy","legacy","legacy","0","uniform","1","undefined","undefined","undefined","1","f","0","0","0","0","67","0","0","0","67","0","63","67","63","0","63","3","67","0","67","Wed Feb 24 18:43:28 2021","The main experiment item","yes","Lexical_Decision_Task.osexp","/Users/miaodonnell/Desktop","no","Andale Mono","no","18","no","white","no","yes","576","legacy","63","63","3","/Users/miaodonnell/Desktop/subject-5213612.csv","legacy","Lentiform Loewenfeld","3.3.7","yes","yes","600bd7cfb6416f0113b04181","602110864497cf011d9c0822","0","f","NA","space","space","space","space","f","594","NA","1701","18551","10196","8737","594","2","legacy","1024","2","48000","-16","task","5213612","even","NA","42939","46645","44944","184228","5366","34141","23935","184731","151325","184226","184731","184183","46645","185326","41099","183682","5293","117736","Lexical Decision Task","62","61553","68","yes","1024"
"2.746890964","9.67","3","plug","word","91.30434782608695","91.30434782608695","901.9855072463768","901.9855072463768","black","no","legacy","legacy","legacy","0","uniform","1","undefined","undefined","undefined","1","j","0","0","0","0","68","0","0","0","68","0","64","68","64","0","64","3","68","0","68","Wed Feb 24 18:43:28 2021","The main experiment item","yes","Lexical_Decision_Task.osexp","/Users/miaodonnell/Desktop","no","Andale Mono","no","18","no","white","no","yes","576","legacy","64","64","3","/Users/miaodonnell/Desktop/subject-5213612.csv","legacy","Lentiform Loewenfeld","3.3.7","yes","yes","600bd7cfb6416f0113b04181","602110864497cf011d9c0822","0","j","NA","space","space","space","space","j","684","NA","1701","18551","10196","8737","684","2","legacy","1024","2","48000","-16","task","5213612","even","NA","42939","46645","44944","185875","5366","34141","23935","186378","151325","185873","186378","185829","46645","187063","41099","185329","5293","117736","Lexical Decision Task","63","62237","69","yes","1024"
"3.066077331","0","7","vorn","non-word","91.42857142857143","91.42857142857143","898.2142857142857","898.2142857142857","black","no","legacy","legacy","legacy","0","uniform","1","undefined","undefined","undefined","1","f","0","0","0","0","69","0","0","0","69","0","65","69","65","0","65","3","69","0","69","Wed Feb 24 18:43:28 2021","The main experiment item","yes","Lexical_Decision_Task.osexp","/Users/miaodonnell/Desktop","no","Andale Mono","no","18","no","white","no","yes","576","legacy","65","65","3","/Users/miaodonnell/Desktop/subject-5213612.csv","legacy","Lentiform Loewenfeld","3.3.7","yes","yes","600bd7cfb6416f0113b04181","602110864497cf011d9c0822","0","f","NA","space","space","space","space","f","638","NA","1701","18551","10196","8737","638","2","legacy","1024","2","48000","-16","task","5213612","even","NA","42939","46645","44944","187613","5366","34141","23935","188116","151325","187611","188116","187566","46645","188755","41099","187066","5293","117736","Lexical Decision Task","64","62875","70","yes","1024"
"2.713490543","0","3","feps","non-word","91.54929577464789","91.54929577464789","894.2253521126761","894.2253521126761","black","no","legacy","legacy","legacy","0","uniform","1","undefined","undefined","undefined","1","f","0","0","0","0","70","0","0","0","70","0","66","70","66","0","66","3","70","0","70","Wed Feb 24 18:43:28 2021","The main experiment item","yes","Lexical_Decision_Task.osexp","/Users/miaodonnell/Desktop","no","Andale Mono","no","18","no","white","no","yes","576","legacy","66","66","3","/Users/miaodonnell/Desktop/subject-5213612.csv","legacy","Lentiform Loewenfeld","3.3.7","yes","yes","600bd7cfb6416f0113b04181","602110864497cf011d9c0822","0","f","NA","space","space","space","space","f","615","NA","1701","18551","10196","8737","615","2","legacy","1024","2","48000","-16","task","5213612","even","NA","42939","46645","44944","189304","5366","34141","23935","189808","151325","189302","189808","189258","46645","190424","41099","188758","5293","117736","Lexical Decision Task","65","63490","71","yes","1024"
"2.981215883","10.66","5","hair","word","91.66666666666667","91.66666666666667","889.1944444444445","889.1944444444445","black","no","legacy","legacy","legacy","0","uniform","1","undefined","undefined","undefined","1","j","0","0","0","0","71","0","0","0","71","0","67","71","67","0","67","3","71","0","71","Wed Feb 24 18:43:28 2021","The main experiment item","yes","Lexical_Decision_Task.osexp","/Users/miaodonnell/Desktop","no","Andale Mono","no","18","no","white","no","yes","576","legacy","67","67","3","/Users/miaodonnell/Desktop/subject-5213612.csv","legacy","Lentiform Loewenfeld","3.3.7","yes","yes","600bd7cfb6416f0113b04181","602110864497cf011d9c0822","0","j","NA","space","space","space","space","j","532","NA","1701","18551","10196","8737","532","2","legacy","1024","2","48000","-16","task","5213612","even","NA","42939","46645","44944","190972","5366","34141","23935","191476","151325","190971","191476","190927","46645","192009","41099","190427","5293","117736","Lexical Decision Task","66","64022","72","yes","1024"
"2.799799878","0","4","ciff","non-word","91.78082191780823","91.78082191780823","887.8904109589041","887.8904109589041","black","no","legacy","legacy","legacy","0","uniform","1","undefined","undefined","undefined","1","f","0","0","0","0","72","0","0","0","72","0","68","72","68","0","68","3","72","0","72","Wed Feb 24 18:43:28 2021","The main experiment item","yes","Lexical_Decision_Task.osexp","/Users/miaodonnell/Desktop","no","Andale Mono","no","18","no","white","no","yes","576","legacy","68","68","3","/Users/miaodonnell/Desktop/subject-5213612.csv","legacy","Lentiform Loewenfeld","3.3.7","yes","yes","600bd7cfb6416f0113b04181","602110864497cf011d9c0822","0","f","NA","space","space","space","space","f","794","NA","1701","18551","10196","8737","794","2","legacy","1024","2","48000","-16","task","5213612","even","NA","42939","46645","44944","192558","5366","34141","23935","193061","151325","192556","193061","192512","46645","193856","41099","192012","5293","117736","Lexical Decision Task","67","64816","73","yes","1024"
"2.937852093","0","7","bamp","non-word","91.89189189189189","91.89189189189189","884.4594594594595","884.4594594594595","black","no","legacy","legacy","legacy","0","uniform","1","undefined","undefined","undefined","1","f","0","0","0","0","73","0","0","0","73","0","69","73","69","0","69","3","73","0","73","Wed Feb 24 18:43:28 2021","The main experiment item","yes","Lexical_Decision_Task.osexp","/Users/miaodonnell/Desktop","no","Andale Mono","no","18","no","white","no","yes","576","legacy","69","69","3","/Users/miaodonnell/Desktop/subject-5213612.csv","legacy","Lentiform Loewenfeld","3.3.7","yes","yes","600bd7cfb6416f0113b04181","602110864497cf011d9c0822","0","f","NA","space","space","space","space","f","634","NA","1701","18551","10196","8737","634","2","legacy","1024","2","48000","-16","task","5213612","even","NA","42939","46645","44944","194405","5366","34141","23935","194908","151325","194403","194908","194359","46645","195543","41099","193859","5293","117736","Lexical Decision Task","68","65450","74","yes","1024"
"3.195807436","0","6","stup","non-word","92","92","881.1866666666666","881.1866666666666","black","no","legacy","legacy","legacy","0","uniform","1","undefined","undefined","undefined","1","f","0","0","0","0","74","0","0","0","74","0","70","74","70","0","70","3","74","0","74","Wed Feb 24 18:43:28 2021","The main experiment item","yes","Lexical_Decision_Task.osexp","/Users/miaodonnell/Desktop","no","Andale Mono","no","18","no","white","no","yes","576","legacy","70","70","3","/Users/miaodonnell/Desktop/subject-5213612.csv","legacy","Lentiform Loewenfeld","3.3.7","yes","yes","600bd7cfb6416f0113b04181","602110864497cf011d9c0822","0","f","NA","space","space","space","space","f","639","NA","1701","18551","10196","8737","639","2","legacy","1024","2","48000","-16","task","5213612","even","NA","42939","46645","44944","196092","5366","34141","23935","196595","151325","196090","196595","196046","46645","197235","41099","195546","5293","117736","Lexical Decision Task","69","66089","75","yes","1024"
"2.703007489","8.37","3","pulp","word","92.10526315789474","92.10526315789474","879.7763157894736","879.7763157894736","black","no","legacy","legacy","legacy","0","uniform","1","undefined","undefined","undefined","1","j","0","0","0","0","75","0","0","0","75","0","71","75","71","0","71","3","75","0","75","Wed Feb 24 18:43:28 2021","The main experiment item","yes","Lexical_Decision_Task.osexp","/Users/miaodonnell/Desktop","no","Andale Mono","no","18","no","white","no","yes","576","legacy","71","71","3","/Users/miaodonnell/Desktop/subject-5213612.csv","legacy","Lentiform Loewenfeld","3.3.7","yes","yes","600bd7cfb6416f0113b04181","602110864497cf011d9c0822","0","j","NA","space","space","space","space","j","774","NA","1701","18551","10196","8737","774","2","legacy","1024","2","48000","-16","task","5213612","even","NA","42939","46645","44944","197785","5366","34141","23935","198288","151325","197783","198288","197738","46645","199063","41099","197238","5293","117736","Lexical Decision Task","70","66863","76","yes","1024"
"3.091901331","0","9","nipe","non-word","92.20779220779221","92.20779220779221","879.4285714285714","879.4285714285714","black","no","legacy","legacy","legacy","0","uniform","1","undefined","undefined","undefined","1","f","0","0","0","0","76","0","0","0","76","0","72","76","72","0","72","3","76","0","76","Wed Feb 24 18:43:28 2021","The main experiment item","yes","Lexical_Decision_Task.osexp","/Users/miaodonnell/Desktop","no","Andale Mono","no","18","no","white","no","yes","576","legacy","72","72","3","/Users/miaodonnell/Desktop/subject-5213612.csv","legacy","Lentiform Loewenfeld","3.3.7","yes","yes","600bd7cfb6416f0113b04181","602110864497cf011d9c0822","0","f","NA","space","space","space","space","f","853","NA","1701","18551","10196","8737","853","2","legacy","1024","2","48000","-16","task","5213612","even","NA","42939","46645","44944","199611","5366","34141","23935","200114","151325","199609","200114","199566","46645","200968","41099","199066","5293","117736","Lexical Decision Task","71","67716","77","yes","1024"
"2.807758206","6.25","4","hurl","word","92.3076923076923","92.3076923076923","881.0384615384615","881.0384615384615","black","no","legacy","legacy","legacy","0","uniform","1","undefined","undefined","undefined","1","j","0","0","0","0","77","0","0","0","77","0","73","77","73","0","73","3","77","0","77","Wed Feb 24 18:43:28 2021","The main experiment item","yes","Lexical_Decision_Task.osexp","/Users/miaodonnell/Desktop","no","Andale Mono","no","18","no","white","no","yes","576","legacy","73","73","3","/Users/miaodonnell/Desktop/subject-5213612.csv","legacy","Lentiform Loewenfeld","3.3.7","yes","yes","600bd7cfb6416f0113b04181","602110864497cf011d9c0822","0","j","NA","space","space","space","space","j","1005","NA","1701","18551","10196","8737","1005","2","legacy","1024","2","48000","-16","task","5213612","even","NA","42939","46645","44944","201518","5366","34141","23935","202021","151325","201516","202021","201472","46645","203027","41099","200972","5293","117736","Lexical Decision Task","72","68721","78","yes","1024"
"3.028977705","0","7","frow","non-word","92.40506329113924","92.40506329113924","878.9873417721519","878.9873417721519","black","no","legacy","legacy","legacy","0","uniform","1","undefined","undefined","undefined","1","f","0","0","0","0","78","0","0","0","78","0","74","78","74","0","74","3","78","0","78","Wed Feb 24 18:43:28 2021","The main experiment item","yes","Lexical_Decision_Task.osexp","/Users/miaodonnell/Desktop","no","Andale Mono","no","18","no","white","no","yes","576","legacy","74","74","3","/Users/miaodonnell/Desktop/subject-5213612.csv","legacy","Lentiform Loewenfeld","3.3.7","yes","yes","600bd7cfb6416f0113b04181","602110864497cf011d9c0822","0","f","NA","space","space","space","space","f","719","NA","1701","18551","10196","8737","719","2","legacy","1024","2","48000","-16","task","5213612","even","NA","42939","46645","44944","203577","5366","34141","23935","204080","151325","203575","204080","203530","46645","204799","41099","203030","5293","117736","Lexical Decision Task","73","69440","79","yes","1024"
"3.531734309","0","6","lerd","non-word","92.5","92.5","877.575","877.575","black","no","legacy","legacy","legacy","0","uniform","1","undefined","undefined","undefined","1","f","0","0","0","0","79","0","0","0","79","0","75","79","75","0","75","3","79","0","79","Wed Feb 24 18:43:28 2021","The main experiment item","yes","Lexical_Decision_Task.osexp","/Users/miaodonnell/Desktop","no","Andale Mono","no","18","no","white","no","yes","576","legacy","75","75","3","/Users/miaodonnell/Desktop/subject-5213612.csv","legacy","Lentiform Loewenfeld","3.3.7","yes","yes","600bd7cfb6416f0113b04181","602110864497cf011d9c0822","0","f","NA","space","space","space","space","f","766","NA","1701","18551","10196","8737","766","2","legacy","1024","2","48000","-16","task","5213612","even","NA","42939","46645","44944","205351","5366","34141","23935","205854","151325","205349","205854","205303","46645","206621","41099","204803","5293","117736","Lexical Decision Task","74","70206","80","yes","1024"
"3.14849993","10.75","7","hour","word","92.5925925925926","92.5925925925926","874.1234567901234","874.1234567901234","black","no","legacy","legacy","legacy","0","uniform","1","undefined","undefined","undefined","1","j","0","0","0","0","80","0","0","0","80","0","76","80","76","0","76","3","80","0","80","Wed Feb 24 18:43:28 2021","The main experiment item","yes","Lexical_Decision_Task.osexp","/Users/miaodonnell/Desktop","no","Andale Mono","no","18","no","white","no","yes","576","legacy","76","76","3","/Users/miaodonnell/Desktop/subject-5213612.csv","legacy","Lentiform Loewenfeld","3.3.7","yes","yes","600bd7cfb6416f0113b04181","602110864497cf011d9c0822","0","j","NA","space","space","space","space","j","598","NA","1701","18551","10196","8737","598","2","legacy","1024","2","48000","-16","task","5213612","even","NA","42939","46645","44944","207171","5366","34141","23935","207674","151325","207169","207674","207125","46645","208273","41099","206625","5293","117736","Lexical Decision Task","75","70804","81","yes","1024"
"2.972819734","0","4","scew","non-word","92.6829268292683","92.6829268292683","875.8414634146342","875.8414634146342","black","no","legacy","legacy","legacy","0","uniform","1","undefined","undefined","undefined","1","f","0","0","0","0","81","0","0","0","81","0","77","81","77","0","77","3","81","0","81","Wed Feb 24 18:43:28 2021","The main experiment item","yes","Lexical_Decision_Task.osexp","/Users/miaodonnell/Desktop","no","Andale Mono","no","18","no","white","no","yes","576","legacy","77","77","3","/Users/miaodonnell/Desktop/subject-5213612.csv","legacy","Lentiform Loewenfeld","3.3.7","yes","yes","600bd7cfb6416f0113b04181","602110864497cf011d9c0822","0","f","NA","space","space","space","space","f","1015","NA","1701","18551","10196","8737","1015","2","legacy","1024","2","48000","-16","task","5213612","even","NA","42939","46645","44944","208822","5366","34141","23935","209325","151325","208820","209325","208776","46645","210341","41099","208276","5293","117736","Lexical Decision Task","76","71819","82","yes","1024"
"2.80048796","0","8","pife","non-word","92.7710843373494","92.7710843373494","874.0602409638554","874.0602409638554","black","no","legacy","legacy","legacy","0","uniform","1","undefined","undefined","undefined","1","f","0","0","0","0","82","0","0","0","82","0","78","82","78","0","78","3","82","0","82","Wed Feb 24 18:43:28 2021","The main experiment item","yes","Lexical_Decision_Task.osexp","/Users/miaodonnell/Desktop","no","Andale Mono","no","18","no","white","no","yes","576","legacy","78","78","3","/Users/miaodonnell/Desktop/subject-5213612.csv","legacy","Lentiform Loewenfeld","3.3.7","yes","yes","600bd7cfb6416f0113b04181","602110864497cf011d9c0822","0","f","NA","space","space","space","space","f","728","NA","1701","18551","10196","8737","728","2","legacy","1024","2","48000","-16","task","5213612","even","NA","42939","46645","44944","210891","5366","34141","23935","211394","151325","210889","211394","210844","46645","212123","41099","210344","5293","117736","Lexical Decision Task","77","72547","83","yes","1024"
"3.145920145","8.51","8","flew","word","92.85714285714286","92.85714285714286","873.8095238095239","873.8095238095239","black","no","legacy","legacy","legacy","0","uniform","1","undefined","undefined","undefined","1","j","0","0","0","0","83","0","0","0","83","0","79","83","79","0","79","3","83","0","83","Wed Feb 24 18:43:28 2021","The main experiment item","yes","Lexical_Decision_Task.osexp","/Users/miaodonnell/Desktop","no","Andale Mono","no","18","no","white","no","yes","576","legacy","79","79","3","/Users/miaodonnell/Desktop/subject-5213612.csv","legacy","Lentiform Loewenfeld","3.3.7","yes","yes","600bd7cfb6416f0113b04181","602110864497cf011d9c0822","0","j","NA","space","space","space","space","j","853","NA","1701","18551","10196","8737","853","2","legacy","1024","2","48000","-16","task","5213612","even","NA","42939","46645","44944","212675","5366","34141","23935","213179","151325","212673","213179","212629","46645","214033","41099","212129","5293","117736","Lexical Decision Task","78","73400","84","yes","1024"
"3.29439347","8.6","9","wand","word","92.94117647058823","92.94117647058823","872.0823529411765","872.0823529411765","black","no","legacy","legacy","legacy","0","uniform","1","undefined","undefined","undefined","1","j","0","0","0","0","84","0","0","0","84","0","80","84","80","0","80","3","84","0","84","Wed Feb 24 18:43:28 2021","The main experiment item","yes","Lexical_Decision_Task.osexp","/Users/miaodonnell/Desktop","no","Andale Mono","no","18","no","white","no","yes","576","legacy","80","80","3","/Users/miaodonnell/Desktop/subject-5213612.csv","legacy","Lentiform Loewenfeld","3.3.7","yes","yes","600bd7cfb6416f0113b04181","602110864497cf011d9c0822","0","j","NA","space","space","space","space","j","727","NA","1701","18551","10196","8737","727","2","legacy","1024","2","48000","-16","task","5213612","even","NA","42939","46645","44944","214583","5366","34141","23935","215086","151325","214581","215086","214536","46645","215814","41099","214036","5293","117736","Lexical Decision Task","79","74127","85","yes","1024"
"2.767650507","0","6","yolt","non-word","93.02325581395348","93.02325581395348","872.2325581395348","872.2325581395348","black","no","legacy","legacy","legacy","0","uniform","1","undefined","undefined","undefined","1","f","0","0","0","0","85","0","0","0","85","0","81","85","81","0","81","3","85","0","85","Wed Feb 24 18:43:28 2021","The main experiment item","yes","Lexical_Decision_Task.osexp","/Users/miaodonnell/Desktop","no","Andale Mono","no","18","no","white","no","yes","576","legacy","81","81","3","/Users/miaodonnell/Desktop/subject-5213612.csv","legacy","Lentiform Loewenfeld","3.3.7","yes","yes","600bd7cfb6416f0113b04181","602110864497cf011d9c0822","0","f","NA","space","space","space","space","f","885","NA","1701","18551","10196","8737","885","2","legacy","1024","2","48000","-16","task","5213612","even","NA","42939","46645","44944","216363","5366","34141","23935","216866","151325","216361","216866","216317","46645","217752","41099","215817","5293","117736","Lexical Decision Task","80","75012","86","yes","1024"
"3.003891166","8.05","2","frog","word","93.10344827586206","93.10344827586206","868.1954022988506","868.1954022988506","black","no","legacy","legacy","legacy","0","uniform","1","undefined","undefined","undefined","1","j","0","0","0","0","86","0","0","0","86","0","82","86","82","0","82","3","86","0","86","Wed Feb 24 18:43:28 2021","The main experiment item","yes","Lexical_Decision_Task.osexp","/Users/miaodonnell/Desktop","no","Andale Mono","no","18","no","white","no","yes","576","legacy","82","82","3","/Users/miaodonnell/Desktop/subject-5213612.csv","legacy","Lentiform Loewenfeld","3.3.7","yes","yes","600bd7cfb6416f0113b04181","602110864497cf011d9c0822","0","j","NA","space","space","space","space","j","521","NA","1701","18551","10196","8737","521","2","legacy","1024","2","48000","-16","task","5213612","even","NA","42939","46645","44944","218301","5366","34141","23935","218804","151325","218299","218804","218255","46645","219326","41099","217755","5293","117736","Lexical Decision Task","81","75533","87","yes","1024"
"3.307211407","6.07","7","honk","word","93.18181818181819","93.18181818181819","868.0113636363636","868.0113636363636","black","no","legacy","legacy","legacy","0","uniform","1","undefined","undefined","undefined","1","j","0","0","0","0","87","0","0","0","87","0","83","87","83","0","83","3","87","0","87","Wed Feb 24 18:43:28 2021","The main experiment item","yes","Lexical_Decision_Task.osexp","/Users/miaodonnell/Desktop","no","Andale Mono","no","18","no","white","no","yes","576","legacy","83","83","3","/Users/miaodonnell/Desktop/subject-5213612.csv","legacy","Lentiform Loewenfeld","3.3.7","yes","yes","600bd7cfb6416f0113b04181","602110864497cf011d9c0822","0","j","NA","space","space","space","space","j","852","NA","1701","18551","10196","8737","852","2","legacy","1024","2","48000","-16","task","5213612","even","NA","42939","46645","44944","219876","5366","34141","23935","220379","151325","219874","220379","219830","46645","221232","41099","219330","5293","117736","Lexical Decision Task","82","76385","88","yes","1024"
"3.137775856","7.39","5","comb","word","93.25842696629213","93.25842696629213","864.4044943820224","864.4044943820224","black","no","legacy","legacy","legacy","0","uniform","1","undefined","undefined","undefined","1","j","0","0","0","0","88","0","0","0","88","0","84","88","84","0","84","3","88","0","88","Wed Feb 24 18:43:28 2021","The main experiment item","yes","Lexical_Decision_Task.osexp","/Users/miaodonnell/Desktop","no","Andale Mono","no","18","no","white","no","yes","576","legacy","84","84","3","/Users/miaodonnell/Desktop/subject-5213612.csv","legacy","Lentiform Loewenfeld","3.3.7","yes","yes","600bd7cfb6416f0113b04181","602110864497cf011d9c0822","0","j","NA","space","space","space","space","j","547","NA","1701","18551","10196","8737","547","2","legacy","1024","2","48000","-16","task","5213612","even","NA","42939","46645","44944","221782","5366","34141","23935","222285","151325","221780","222285","221736","46645","222833","41099","221236","5293","117736","Lexical Decision Task","83","76932","89","yes","1024"
"3.197740804","6.74","3","ache","word","93.33333333333333","93.33333333333333","862.1111111111111","862.1111111111111","black","no","legacy","legacy","legacy","0","uniform","1","undefined","undefined","undefined","1","j","0","0","0","0","89","0","0","0","89","0","85","89","85","0","85","3","89","0","89","Wed Feb 24 18:43:28 2021","The main experiment item","yes","Lexical_Decision_Task.osexp","/Users/miaodonnell/Desktop","no","Andale Mono","no","18","no","white","no","yes","576","legacy","85","85","3","/Users/miaodonnell/Desktop/subject-5213612.csv","legacy","Lentiform Loewenfeld","3.3.7","yes","yes","600bd7cfb6416f0113b04181","602110864497cf011d9c0822","0","j","NA","space","space","space","space","j","658","NA","1701","18551","10196","8737","658","2","legacy","1024","2","48000","-16","task","5213612","even","NA","42939","46645","44944","223383","5366","34141","23935","223886","151325","223381","223886","223337","46645","224545","41099","222837","5293","117736","Lexical Decision Task","84","77590","90","yes","1024"
"2.64476673","0","5","moft","non-word","93.4065934065934","93.4065934065934","858.0439560439561","858.0439560439561","black","no","legacy","legacy","legacy","0","uniform","1","undefined","undefined","undefined","1","f","0","0","0","0","90","0","0","0","90","0","86","90","86","0","86","3","90","0","90","Wed Feb 24 18:43:28 2021","The main experiment item","yes","Lexical_Decision_Task.osexp","/Users/miaodonnell/Desktop","no","Andale Mono","no","18","no","white","no","yes","576","legacy","86","86","3","/Users/miaodonnell/Desktop/subject-5213612.csv","legacy","Lentiform Loewenfeld","3.3.7","yes","yes","600bd7cfb6416f0113b04181","602110864497cf011d9c0822","0","f","NA","space","space","space","space","f","492","NA","1701","18551","10196","8737","492","2","legacy","1024","2","48000","-16","task","5213612","even","NA","42939","46645","44944","225095","5366","34141","23935","225598","151325","225093","225598","225048","46645","226091","41099","224548","5293","117736","Lexical Decision Task","85","78082","91","yes","1024"
"2.6599162","0","2","saff","non-word","93.47826086956522","93.47826086956522","855.8913043478261","855.8913043478261","black","no","legacy","legacy","legacy","0","uniform","1","undefined","undefined","undefined","1","f","0","0","0","0","91","0","0","0","91","0","87","91","87","0","87","3","91","0","91","Wed Feb 24 18:43:28 2021","The main experiment item","yes","Lexical_Decision_Task.osexp","/Users/miaodonnell/Desktop","no","Andale Mono","no","18","no","white","no","yes","576","legacy","87","87","3","/Users/miaodonnell/Desktop/subject-5213612.csv","legacy","Lentiform Loewenfeld","3.3.7","yes","yes","600bd7cfb6416f0113b04181","602110864497cf011d9c0822","0","f","NA","space","space","space","space","f","660","NA","1701","18551","10196","8737","660","2","legacy","1024","2","48000","-16","task","5213612","even","NA","42939","46645","44944","226640","5366","34141","23935","227143","151325","226638","227143","226594","46645","227804","41099","226094","5293","117736","Lexical Decision Task","86","78742","92","yes","1024"
"3.090140555","5.81","8","pout","word","93.54838709677419","93.54838709677419","856.6344086021505","856.6344086021505","black","no","legacy","legacy","legacy","0","uniform","1","undefined","undefined","undefined","1","j","0","0","0","0","92","0","0","0","92","0","88","92","88","0","88","3","92","0","92","Wed Feb 24 18:43:28 2021","The main experiment item","yes","Lexical_Decision_Task.osexp","/Users/miaodonnell/Desktop","no","Andale Mono","no","18","no","white","no","yes","576","legacy","88","88","3","/Users/miaodonnell/Desktop/subject-5213612.csv","legacy","Lentiform Loewenfeld","3.3.7","yes","yes","600bd7cfb6416f0113b04181","602110864497cf011d9c0822","0","j","NA","space","space","space","space","j","925","NA","1701","18551","10196","8737","925","2","legacy","1024","2","48000","-16","task","5213612","even","NA","42939","46645","44944","228353","5366","34141","23935","228856","151325","228351","228856","228307","46645","229782","41099","227807","5293","117736","Lexical Decision Task","87","79667","93","yes","1024"
"2.966923697","5.4","2","fume","word","93.61702127659575","93.61702127659575","854.0744680851063","854.0744680851063","black","no","legacy","legacy","legacy","0","uniform","1","undefined","undefined","undefined","1","j","0","0","0","0","93","0","0","0","93","0","89","93","89","0","89","3","93","0","93","Wed Feb 24 18:43:28 2021","The main experiment item","yes","Lexical_Decision_Task.osexp","/Users/miaodonnell/Desktop","no","Andale Mono","no","18","no","white","no","yes","576","legacy","89","89","3","/Users/miaodonnell/Desktop/subject-5213612.csv","legacy","Lentiform Loewenfeld","3.3.7","yes","yes","600bd7cfb6416f0113b04181","602110864497cf011d9c0822","0","j","NA","space","space","space","space","j","616","NA","1701","18551","10196","8737","616","2","legacy","1024","2","48000","-16","task","5213612","even","NA","42939","46645","44944","230331","5366","34141","23935","230834","151325","230329","230834","230285","46645","231451","41099","229785","5293","117736","Lexical Decision Task","88","80283","94","yes","1024"
"3.174641193","0","3","ramb","non-word","93.6842105263158","93.6842105263158","854.3894736842105","854.3894736842105","black","no","legacy","legacy","legacy","0","uniform","1","undefined","undefined","undefined","1","f","0","0","0","0","94","0","0","0","94","0","90","94","90","0","90","3","94","0","94","Wed Feb 24 18:43:28 2021","The main experiment item","yes","Lexical_Decision_Task.osexp","/Users/miaodonnell/Desktop","no","Andale Mono","no","18","no","white","no","yes","576","legacy","90","90","3","/Users/miaodonnell/Desktop/subject-5213612.csv","legacy","Lentiform Loewenfeld","3.3.7","yes","yes","600bd7cfb6416f0113b04181","602110864497cf011d9c0822","0","f","NA","space","space","space","space","f","884","NA","1701","18551","10196","8737","884","2","legacy","1024","2","48000","-16","task","5213612","even","NA","42939","46645","44944","232000","5366","34141","23935","232503","151325","231998","232503","231954","46645","233388","41099","231454","5293","117736","Lexical Decision Task","89","81167","95","yes","1024"
"2.895974732","6.65","5","sift","word","92.70833333333333","92.70833333333333","856.0208333333334","856.0208333333334","black","no","legacy","legacy","legacy","0","uniform","0","undefined","undefined","undefined","0","j","0","0","0","0","95","0","0","0","95","0","91","95","91","0","91","3","95","0","95","Wed Feb 24 18:43:28 2021","The main experiment item","yes","Lexical_Decision_Task.osexp","/Users/miaodonnell/Desktop","no","Andale Mono","no","18","no","white","no","yes","576","legacy","91","91","3","/Users/miaodonnell/Desktop/subject-5213612.csv","legacy","Lentiform Loewenfeld","3.3.7","yes","yes","600bd7cfb6416f0113b04181","602110864497cf011d9c0822","0","f","NA","space","space","space","space","f","1011","NA","1701","18551","10196","8737","1011","2","legacy","1024","2","48000","-16","task","5213612","even","NA","42939","46645","44944","233937","5366","34141","23935","234440","151325","233935","234440","233891","46645","235452","41099","233391","5293","117736","Lexical Decision Task","89","82178","96","yes","1024"
"3.068433376","8.09","2","bulb","word","92.78350515463917","92.78350515463917","853.319587628866","853.319587628866","black","no","legacy","legacy","legacy","0","uniform","1","undefined","undefined","undefined","1","j","0","0","0","0","96","0","0","0","96","0","92","96","92","0","92","3","96","0","96","Wed Feb 24 18:43:28 2021","The main experiment item","yes","Lexical_Decision_Task.osexp","/Users/miaodonnell/Desktop","no","Andale Mono","no","18","no","white","no","yes","576","legacy","92","92","3","/Users/miaodonnell/Desktop/subject-5213612.csv","legacy","Lentiform Loewenfeld","3.3.7","yes","yes","600bd7cfb6416f0113b04181","602110864497cf011d9c0822","0","j","NA","space","space","space","space","j","594","NA","1701","18551","10196","8737","594","2","legacy","1024","2","48000","-16","task","5213612","even","NA","42939","46645","44944","237006","5366","34141","23935","237509","151325","237004","237509","236956","46645","238104","41099","233391","5293","235455","Lexical Decision Task","90","82772","97","yes","1024"
"2.858136002","0","4","phip","non-word","92.85714285714286","92.85714285714286","851.4897959183673","851.4897959183673","black","no","legacy","legacy","legacy","0","uniform","1","undefined","undefined","undefined","1","f","0","0","0","0","97","0","0","0","97","0","93","97","93","0","93","3","97","0","97","Wed Feb 24 18:43:28 2021","The main experiment item","yes","Lexical_Decision_Task.osexp","/Users/miaodonnell/Desktop","no","Andale Mono","no","18","no","white","no","yes","576","legacy","93","93","3","/Users/miaodonnell/Desktop/subject-5213612.csv","legacy","Lentiform Loewenfeld","3.3.7","yes","yes","600bd7cfb6416f0113b04181","602110864497cf011d9c0822","0","f","NA","space","space","space","space","f","674","NA","1701","18551","10196","8737","674","2","legacy","1024","2","48000","-16","task","5213612","even","NA","42939","46645","44944","238653","5366","34141","23935","239156","151325","238651","239156","238607","46645","239831","41099","238107","5293","235455","Lexical Decision Task","91","83446","98","yes","1024"
"3.082307743","9.68","8","camp","word","91.91919191919192","91.91919191919192","850.3434343434343","850.3434343434343","black","no","legacy","legacy","legacy","0","uniform","0","undefined","undefined","undefined","0","j","0","0","0","0","98","0","0","0","98","0","94","98","94","0","94","3","98","0","98","Wed Feb 24 18:43:28 2021","The main experiment item","yes","Lexical_Decision_Task.osexp","/Users/miaodonnell/Desktop","no","Andale Mono","no","18","no","white","no","yes","576","legacy","94","94","3","/Users/miaodonnell/Desktop/subject-5213612.csv","legacy","Lentiform Loewenfeld","3.3.7","yes","yes","600bd7cfb6416f0113b04181","602110864497cf011d9c0822","0","f","NA","space","space","space","space","f","738","NA","1701","18551","10196","8737","738","2","legacy","1024","2","48000","-16","task","5213612","even","NA","42939","46645","44944","240378","5366","34141","23935","240881","151325","240376","240881","240333","46645","241620","41099","239833","5293","235455","Lexical Decision Task","91","84184","99","yes","1024"
"2.771097306","0","9","jold","non-word","92","92","850.8","850.8","black","no","legacy","legacy","legacy","0","uniform","1","undefined","undefined","undefined","1","f","0","0","0","0","99","0","0","0","99","0","95","99","95","0","95","3","99","0","99","Wed Feb 24 18:43:28 2021","The main experiment item","yes","Lexical_Decision_Task.osexp","/Users/miaodonnell/Desktop","no","Andale Mono","no","18","no","white","no","yes","576","legacy","95","95","3","/Users/miaodonnell/Desktop/subject-5213612.csv","legacy","Lentiform Loewenfeld","3.3.7","yes","yes","600bd7cfb6416f0113b04181","602110864497cf011d9c0822","0","f","NA","space","space","space","space","f","896","NA","1701","18551","10196","8737","896","2","legacy","1024","2","48000","-16","task","5213612","even","NA","42939","46645","44944","243173","5366","34141","23935","243675","151325","243171","243676","243124","46645","244573","41099","239833","5293","241624","Lexical Decision Task","92","85080","100","yes","1024"
