"Log_BG","Log_Freq_HAL","Ortho_N","Stimulus","Type","acc","accuracy","average_response_time","avg_rt","background","bidi","canvas_backend","clock_backend","color_backend","compensation","coordinates","correct","correct_Experimental_intro","correct_Introduction","correct_Practice_intro","correct_experimenter_kb","correct_response","count_End_Of_Experiment","count_End_Of_Practice","count_Experimental_Loop","count_Experimental_intro","count_Fixation","count_Introduction","count_Practice_Loop","count_Practice_intro","count_Stimulus","count_block_break_feedback","count_experimental_sequence","count_experimenter_kb","count_increment_trial_count","count_init_trial_count","count_logger","count_practice_sequence","count_right","count_task","count_wrong","datetime","description","disable_garbage_collection","experiment_file","experiment_path","font_bold","font_family","font_italic","font_size","font_underline","foreground","form_clicks","fullscreen","height","keyboard_backend","live_row","live_row_Experimental_Loop","live_row_Practice_Loop","logfile","mouse_backend","opensesame_codename","opensesame_version","osf_always_upload_data","osf_always_upload_experiment","osf_datanode_id","osf_id","repeat_cycle","response","response_End_Of_Experiment","response_Experimental_intro","response_Introduction","response_Practice_intro","response_block_break_feedback","response_experimenter_kb","response_time","response_time_End_Of_Experiment","response_time_Experimental_intro","response_time_Introduction","response_time_Practice_intro","response_time_block_break_feedback","response_time_experimenter_kb","round_decimals","sampler_backend","sound_buf_size","sound_channels","sound_freq","sound_sample_size","start","subject_nr","subject_parity","time_End_Of_Experiment","time_End_Of_Practice","time_Experimental_Loop","time_Experimental_intro","time_Fixation","time_Introduction","time_Practice_Loop","time_Practice_intro","time_Stimulus","time_block_break_feedback","time_experimental_sequence","time_experimenter_kb","time_increment_trial_count","time_init_trial_count","time_logger","time_practice_sequence","time_right","time_task","time_wrong","title","total_correct","total_response_time","total_responses","uniform_coordinates","width"
"3.076883066","0","8","mout","non-word","100","100","807.6","807.6","black","no","legacy","legacy","legacy","0","uniform","1","undefined","undefined","undefined","1","f","0","0","0","0","4","0","0","0","4","NA","0","4","0","0","0","3","4","0","4","Tue Feb 16 13:12:13 2021","The main experiment item","yes","Lexical_Decision_Task.osexp","/Users/jessedegroot/Documents/Bournemouth University/Year 2/CAL","no","Andale Mono","no","18","no","white","no","yes","576","legacy","0","0","3","/Users/jessedegroot/Documents/Bournemouth University/Year 2/CAL/subject-5226159.csv","legacy","Lentiform Loewenfeld","3.3.7","yes","yes","600bd7cfb6416f0113b04181","602110864497cf011d9c0822","0","f","NA","space","space","space","NA","f","1017","NA","2930","15352","11704","NA","1017","2","legacy","1024","2","48000","-16","task","5226159","odd","NA","36303","41241","38311","41260","1937","29009","17299","41768","NA","41257","41768","NA","41241","42786","34569","35773","1901","NA","Lexical Decision Task","5","4038","5","yes","1024"
"2.675164031","8.57","6","glue","word","100","100","786.5","786.5","black","no","legacy","legacy","legacy","0","uniform","1","undefined","undefined","undefined","1","j","0","0","0","0","5","0","0","0","5","NA","1","5","1","0","1","3","5","0","5","Tue Feb 16 13:12:13 2021","The main experiment item","yes","Lexical_Decision_Task.osexp","/Users/jessedegroot/Documents/Bournemouth University/Year 2/CAL","no","Andale Mono","no","18","no","white","no","yes","576","legacy","1","1","3","/Users/jessedegroot/Documents/Bournemouth University/Year 2/CAL/subject-5226159.csv","legacy","Lentiform Loewenfeld","3.3.7","yes","yes","600bd7cfb6416f0113b04181","602110864497cf011d9c0822","0","j","NA","space","space","space","NA","j","681","NA","2930","15352","11704","NA","681","2","legacy","1024","2","48000","-16","task","5226159","odd","NA","36303","41241","38311","43348","1937","29009","17299","43855","NA","43343","43856","43291","41241","44538","34569","42791","1901","NA","Lexical Decision Task","6","4719","6","yes","1024"
"3.208978517","10.33","4","fish","word","100","100","769.7142857142857","769.7142857142857","black","no","legacy","legacy","legacy","0","uniform","1","undefined","undefined","undefined","1","j","0","0","0","0","6","0","0","0","6","NA","2","6","2","0","2","3","6","0","6","Tue Feb 16 13:12:13 2021","The main experiment item","yes","Lexical_Decision_Task.osexp","/Users/jessedegroot/Documents/Bournemouth University/Year 2/CAL","no","Andale Mono","no","18","no","white","no","yes","576","legacy","2","2","3","/Users/jessedegroot/Documents/Bournemouth University/Year 2/CAL/subject-5226159.csv","legacy","Lentiform Loewenfeld","3.3.7","yes","yes","600bd7cfb6416f0113b04181","602110864497cf011d9c0822","0","j","NA","space","space","space","NA","j","669","NA","2930","15352","11704","NA","669","2","legacy","1024","2","48000","-16","task","5226159","odd","NA","36303","41241","38311","45095","1937","29009","17299","45604","NA","45091","45604","45042","41241","46274","34569","44542","1901","NA","Lexical Decision Task","7","5388","7","yes","1024"
"3.1430148","7.92","8","bald","word","100","100","768.25","768.25","black","no","legacy","legacy","legacy","0","uniform","1","undefined","undefined","undefined","1","j","0","0","0","0","7","0","0","0","7","NA","3","7","3","0","3","3","7","0","7","Tue Feb 16 13:12:13 2021","The main experiment item","yes","Lexical_Decision_Task.osexp","/Users/jessedegroot/Documents/Bournemouth University/Year 2/CAL","no","Andale Mono","no","18","no","white","no","yes","576","legacy","3","3","3","/Users/jessedegroot/Documents/Bournemouth University/Year 2/CAL/subject-5226159.csv","legacy","Lentiform Loewenfeld","3.3.7","yes","yes","600bd7cfb6416f0113b04181","602110864497cf011d9c0822","0","j","NA","space","space","space","NA","j","758","NA","2930","15352","11704","NA","758","2","legacy","1024","2","48000","-16","task","5226159","odd","NA","36303","41241","38311","46831","1937","29009","17299","47339","NA","46827","47339","46777","41241","48097","34569","46277","1901","NA","Lexical Decision Task","8","6146","8","yes","1024"
"2.705007959","6.01","4","wept","word","100","100","766.3333333333334","766.3333333333334","black","no","legacy","legacy","legacy","0","uniform","1","undefined","undefined","undefined","1","j","0","0","0","0","8","0","0","0","8","NA","4","8","4","0","4","3","8","0","8","Tue Feb 16 13:12:13 2021","The main experiment item","yes","Lexical_Decision_Task.osexp","/Users/jessedegroot/Documents/Bournemouth University/Year 2/CAL","no","Andale Mono","no","18","no","white","no","yes","576","legacy","4","4","3","/Users/jessedegroot/Documents/Bournemouth University/Year 2/CAL/subject-5226159.csv","legacy","Lentiform Loewenfeld","3.3.7","yes","yes","600bd7cfb6416f0113b04181","602110864497cf011d9c0822","0","j","NA","space","space","space","NA","j","751","NA","2930","15352","11704","NA","751","2","legacy","1024","2","48000","-16","task","5226159","odd","NA","36303","41241","38311","48656","1937","29009","17299","49164","NA","48652","49164","48601","41241","49916","34569","48101","1901","NA","Lexical Decision Task","9","6897","9","yes","1024"
"3.218535505","7.85","7","goat","word","100","100","745.5","745.5","black","no","legacy","legacy","legacy","0","uniform","1","undefined","undefined","undefined","1","j","0","0","0","0","9","0","0","0","9","NA","5","9","5","0","5","3","9","0","9","Tue Feb 16 13:12:13 2021","The main experiment item","yes","Lexical_Decision_Task.osexp","/Users/jessedegroot/Documents/Bournemouth University/Year 2/CAL","no","Andale Mono","no","18","no","white","no","yes","576","legacy","5","5","3","/Users/jessedegroot/Documents/Bournemouth University/Year 2/CAL/subject-5226159.csv","legacy","Lentiform Loewenfeld","3.3.7","yes","yes","600bd7cfb6416f0113b04181","602110864497cf011d9c0822","0","j","NA","space","space","space","NA","j","558","NA","2930","15352","11704","NA","558","2","legacy","1024","2","48000","-16","task","5226159","odd","NA","36303","41241","38311","50475","1937","29009","17299","50983","NA","50471","50983","50419","41241","51541","34569","49919","1901","NA","Lexical Decision Task","10","7455","10","yes","1024"
"2.843025032","0","9","pusk","non-word","100","100","760.7272727272727","760.7272727272727","black","no","legacy","legacy","legacy","0","uniform","1","undefined","undefined","undefined","1","f","0","0","0","0","10","0","0","0","10","NA","6","10","6","0","6","3","10","0","10","Tue Feb 16 13:12:13 2021","The main experiment item","yes","Lexical_Decision_Task.osexp","/Users/jessedegroot/Documents/Bournemouth University/Year 2/CAL","no","Andale Mono","no","18","no","white","no","yes","576","legacy","6","6","3","/Users/jessedegroot/Documents/Bournemouth University/Year 2/CAL/subject-5226159.csv","legacy","Lentiform Loewenfeld","3.3.7","yes","yes","600bd7cfb6416f0113b04181","602110864497cf011d9c0822","0","f","NA","space","space","space","NA","f","913","NA","2930","15352","11704","NA","913","2","legacy","1024","2","48000","-16","task","5226159","odd","NA","36303","41241","38311","52099","1937","29009","17299","52607","NA","52094","52607","52045","41241","53521","34569","51545","1901","NA","Lexical Decision Task","11","8368","11","yes","1024"
"3.082307743","9.68","8","camp","word","100","100","752.0833333333334","752.0833333333334","black","no","legacy","legacy","legacy","0","uniform","1","undefined","undefined","undefined","1","j","0","0","0","0","11","0","0","0","11","NA","7","11","7","0","7","3","11","0","11","Tue Feb 16 13:12:13 2021","The main experiment item","yes","Lexical_Decision_Task.osexp","/Users/jessedegroot/Documents/Bournemouth University/Year 2/CAL","no","Andale Mono","no","18","no","white","no","yes","576","legacy","7","7","3","/Users/jessedegroot/Documents/Bournemouth University/Year 2/CAL/subject-5226159.csv","legacy","Lentiform Loewenfeld","3.3.7","yes","yes","600bd7cfb6416f0113b04181","602110864497cf011d9c0822","0","j","NA","space","space","space","NA","j","657","NA","2930","15352","11704","NA","657","2","legacy","1024","2","48000","-16","task","5226159","odd","NA","36303","41241","38311","54080","1937","29009","17299","54588","NA","54075","54588","54024","41241","55245","34569","53524","1901","NA","Lexical Decision Task","12","9025","12","yes","1024"
"2.696356389","0","1","pizz","non-word","100","100","762.6923076923077","762.6923076923077","black","no","legacy","legacy","legacy","0","uniform","1","undefined","undefined","undefined","1","f","0","0","0","0","12","0","0","0","12","NA","8","12","8","0","8","3","12","0","12","Tue Feb 16 13:12:13 2021","The main experiment item","yes","Lexical_Decision_Task.osexp","/Users/jessedegroot/Documents/Bournemouth University/Year 2/CAL","no","Andale Mono","no","18","no","white","no","yes","576","legacy","8","8","3","/Users/jessedegroot/Documents/Bournemouth University/Year 2/CAL/subject-5226159.csv","legacy","Lentiform Loewenfeld","3.3.7","yes","yes","600bd7cfb6416f0113b04181","602110864497cf011d9c0822","0","f","NA","space","space","space","NA","f","890","NA","2930","15352","11704","NA","890","2","legacy","1024","2","48000","-16","task","5226159","odd","NA","36303","41241","38311","55803","1937","29009","17299","56311","NA","55799","56311","55749","41241","57202","34569","55249","1901","NA","Lexical Decision Task","13","9915","13","yes","1024"
"2.664328519","0","4","plux","non-word","100","100","775.9285714285714","775.9285714285714","black","no","legacy","legacy","legacy","0","uniform","1","undefined","undefined","undefined","1","f","0","0","0","0","13","0","0","0","13","NA","9","13","9","0","9","3","13","0","13","Tue Feb 16 13:12:13 2021","The main experiment item","yes","Lexical_Decision_Task.osexp","/Users/jessedegroot/Documents/Bournemouth University/Year 2/CAL","no","Andale Mono","no","18","no","white","no","yes","576","legacy","9","9","3","/Users/jessedegroot/Documents/Bournemouth University/Year 2/CAL/subject-5226159.csv","legacy","Lentiform Loewenfeld","3.3.7","yes","yes","600bd7cfb6416f0113b04181","602110864497cf011d9c0822","0","f","NA","space","space","space","NA","f","948","NA","2930","15352","11704","NA","948","2","legacy","1024","2","48000","-16","task","5226159","odd","NA","36303","41241","38311","57760","1937","29009","17299","58267","NA","57756","58268","57705","41241","59216","34569","57205","1901","NA","Lexical Decision Task","14","10863","14","yes","1024"
"2.8162413","0","5","nusk","non-word","100","100","778.0666666666667","778.0666666666667","black","no","legacy","legacy","legacy","0","uniform","1","undefined","undefined","undefined","1","f","0","0","0","0","14","0","0","0","14","NA","10","14","10","0","10","3","14","0","14","Tue Feb 16 13:12:13 2021","The main experiment item","yes","Lexical_Decision_Task.osexp","/Users/jessedegroot/Documents/Bournemouth University/Year 2/CAL","no","Andale Mono","no","18","no","white","no","yes","576","legacy","10","10","3","/Users/jessedegroot/Documents/Bournemouth University/Year 2/CAL/subject-5226159.csv","legacy","Lentiform Loewenfeld","3.3.7","yes","yes","600bd7cfb6416f0113b04181","602110864497cf011d9c0822","0","f","NA","space","space","space","NA","f","808","NA","2930","15352","11704","NA","808","2","legacy","1024","2","48000","-16","task","5226159","odd","NA","36303","41241","38311","59774","1937","29009","17299","60282","NA","59770","60282","59720","41241","61091","34569","59220","1901","NA","Lexical Decision Task","15","11671","15","yes","1024"
"2.80048796","0","8","pife","non-word","100","100","770.625","770.625","black","no","legacy","legacy","legacy","0","uniform","1","undefined","undefined","undefined","1","f","0","0","0","0","15","0","0","0","15","NA","11","15","11","0","11","3","15","0","15","Tue Feb 16 13:12:13 2021","The main experiment item","yes","Lexical_Decision_Task.osexp","/Users/jessedegroot/Documents/Bournemouth University/Year 2/CAL","no","Andale Mono","no","18","no","white","no","yes","576","legacy","11","11","3","/Users/jessedegroot/Documents/Bournemouth University/Year 2/CAL/subject-5226159.csv","legacy","Lentiform Loewenfeld","3.3.7","yes","yes","600bd7cfb6416f0113b04181","602110864497cf011d9c0822","0","f","NA","space","space","space","NA","f","659","NA","2930","15352","11704","NA","659","2","legacy","1024","2","48000","-16","task","5226159","odd","NA","36303","41241","38311","61652","1937","29009","17299","62160","NA","61648","62160","61594","41241","62819","34569","61094","1901","NA","Lexical Decision Task","16","12330","16","yes","1024"
"3.066077331","0","7","vorn","non-word","100","100","759.5294117647059","759.5294117647059","black","no","legacy","legacy","legacy","0","uniform","1","undefined","undefined","undefined","1","f","0","0","0","0","16","0","0","0","16","NA","12","16","12","0","12","3","16","0","16","Tue Feb 16 13:12:13 2021","The main experiment item","yes","Lexical_Decision_Task.osexp","/Users/jessedegroot/Documents/Bournemouth University/Year 2/CAL","no","Andale Mono","no","18","no","white","no","yes","576","legacy","12","12","3","/Users/jessedegroot/Documents/Bournemouth University/Year 2/CAL/subject-5226159.csv","legacy","Lentiform Loewenfeld","3.3.7","yes","yes","600bd7cfb6416f0113b04181","602110864497cf011d9c0822","0","f","NA","space","space","space","NA","f","582","NA","2930","15352","11704","NA","582","2","legacy","1024","2","48000","-16","task","5226159","odd","NA","36303","41241","38311","63376","1937","29009","17299","63884","NA","63372","63885","63323","41241","64468","34569","62823","1901","NA","Lexical Decision Task","17","12912","17","yes","1024"
"2.898725182","0","7","turl","non-word","100","100","745.9444444444445","745.9444444444445","black","no","legacy","legacy","legacy","0","uniform","1","undefined","undefined","undefined","1","f","0","0","0","0","17","0","0","0","17","NA","13","17","13","0","13","3","17","0","17","Tue Feb 16 13:12:13 2021","The main experiment item","yes","Lexical_Decision_Task.osexp","/Users/jessedegroot/Documents/Bournemouth University/Year 2/CAL","no","Andale Mono","no","18","no","white","no","yes","576","legacy","13","13","3","/Users/jessedegroot/Documents/Bournemouth University/Year 2/CAL/subject-5226159.csv","legacy","Lentiform Loewenfeld","3.3.7","yes","yes","600bd7cfb6416f0113b04181","602110864497cf011d9c0822","0","f","NA","space","space","space","NA","f","515","NA","2930","15352","11704","NA","515","2","legacy","1024","2","48000","-16","task","5226159","odd","NA","36303","41241","38311","65027","1937","29009","17299","65535","NA","65022","65535","64972","41241","66050","34569","64472","1901","NA","Lexical Decision Task","18","13427","18","yes","1024"
"3.119255889","6.63","2","itch","word","100","100","739.7368421052631","739.7368421052631","black","no","legacy","legacy","legacy","0","uniform","1","undefined","undefined","undefined","1","j","0","0","0","0","18","0","0","0","18","NA","14","18","14","0","14","3","18","0","18","Tue Feb 16 13:12:13 2021","The main experiment item","yes","Lexical_Decision_Task.osexp","/Users/jessedegroot/Documents/Bournemouth University/Year 2/CAL","no","Andale Mono","no","18","no","white","no","yes","576","legacy","14","14","3","/Users/jessedegroot/Documents/Bournemouth University/Year 2/CAL/subject-5226159.csv","legacy","Lentiform Loewenfeld","3.3.7","yes","yes","600bd7cfb6416f0113b04181","602110864497cf011d9c0822","0","j","NA","space","space","space","NA","j","628","NA","2930","15352","11704","NA","628","2","legacy","1024","2","48000","-16","task","5226159","odd","NA","36303","41241","38311","66611","1937","29009","17299","67118","NA","66606","67118","66554","41241","67746","34569","66054","1901","NA","Lexical Decision Task","19","14055","19","yes","1024"
"2.6599162","0","6","flug","non-word","100","100","744.8","744.8","black","no","legacy","legacy","legacy","0","uniform","1","undefined","undefined","undefined","1","f","0","0","0","0","19","0","0","0","19","NA","15","19","15","0","15","3","19","0","19","Tue Feb 16 13:12:13 2021","The main experiment item","yes","Lexical_Decision_Task.osexp","/Users/jessedegroot/Documents/Bournemouth University/Year 2/CAL","no","Andale Mono","no","18","no","white","no","yes","576","legacy","15","15","3","/Users/jessedegroot/Documents/Bournemouth University/Year 2/CAL/subject-5226159.csv","legacy","Lentiform Loewenfeld","3.3.7","yes","yes","600bd7cfb6416f0113b04181","602110864497cf011d9c0822","0","f","NA","space","space","space","NA","f","841","NA","2930","15352","11704","NA","841","2","legacy","1024","2","48000","-16","task","5226159","odd","NA","36303","41241","38311","68305","1937","29009","17299","68812","NA","68300","68813","68250","41241","69654","34569","67750","1901","NA","Lexical Decision Task","20","14896","20","yes","1024"
"3.460446784","0","5","dess","non-word","100","100","759.952380952381","759.952380952381","black","no","legacy","legacy","legacy","0","uniform","1","undefined","undefined","undefined","1","f","0","0","0","0","20","0","0","0","20","NA","16","20","16","0","16","3","20","0","20","Tue Feb 16 13:12:13 2021","The main experiment item","yes","Lexical_Decision_Task.osexp","/Users/jessedegroot/Documents/Bournemouth University/Year 2/CAL","no","Andale Mono","no","18","no","white","no","yes","576","legacy","16","16","3","/Users/jessedegroot/Documents/Bournemouth University/Year 2/CAL/subject-5226159.csv","legacy","Lentiform Loewenfeld","3.3.7","yes","yes","600bd7cfb6416f0113b04181","602110864497cf011d9c0822","0","f","NA","space","space","space","NA","f","1063","NA","2930","15352","11704","NA","1063","2","legacy","1024","2","48000","-16","task","5226159","odd","NA","36303","41241","38311","70213","1937","29009","17299","70721","NA","70208","70721","70158","41241","71785","34569","69658","1901","NA","Lexical Decision Task","21","15959","21","yes","1024"
"3.081107167","0","6","chot","non-word","100","100","758.8181818181819","758.8181818181819","black","no","legacy","legacy","legacy","0","uniform","1","undefined","undefined","undefined","1","f","0","0","0","0","21","0","0","0","21","NA","17","21","17","0","17","3","21","0","21","Tue Feb 16 13:12:13 2021","The main experiment item","yes","Lexical_Decision_Task.osexp","/Users/jessedegroot/Documents/Bournemouth University/Year 2/CAL","no","Andale Mono","no","18","no","white","no","yes","576","legacy","17","17","3","/Users/jessedegroot/Documents/Bournemouth University/Year 2/CAL/subject-5226159.csv","legacy","Lentiform Loewenfeld","3.3.7","yes","yes","600bd7cfb6416f0113b04181","602110864497cf011d9c0822","0","f","NA","space","space","space","NA","f","735","NA","2930","15352","11704","NA","735","2","legacy","1024","2","48000","-16","task","5226159","odd","NA","36303","41241","38311","72345","1937","29009","17299","72852","NA","72340","72853","72289","41241","73589","34569","71789","1901","NA","Lexical Decision Task","22","16694","22","yes","1024"
"3.529815197","0","3","lerm","non-word","100","100","754.0869565217391","754.0869565217391","black","no","legacy","legacy","legacy","0","uniform","1","undefined","undefined","undefined","1","f","0","0","0","0","22","0","0","0","22","NA","18","22","18","0","18","3","22","0","22","Tue Feb 16 13:12:13 2021","The main experiment item","yes","Lexical_Decision_Task.osexp","/Users/jessedegroot/Documents/Bournemouth University/Year 2/CAL","no","Andale Mono","no","18","no","white","no","yes","576","legacy","18","18","3","/Users/jessedegroot/Documents/Bournemouth University/Year 2/CAL/subject-5226159.csv","legacy","Lentiform Loewenfeld","3.3.7","yes","yes","600bd7cfb6416f0113b04181","602110864497cf011d9c0822","0","f","NA","space","space","space","NA","f","650","NA","2930","15352","11704","NA","650","2","legacy","1024","2","48000","-16","task","5226159","odd","NA","36303","41241","38311","74146","1937","29009","17299","74653","NA","74141","74653","74092","41241","75304","34569","73592","1901","NA","Lexical Decision Task","23","17344","23","yes","1024"
"3.043885998","0","9","gome","non-word","100","100","750.9166666666666","750.9166666666666","black","no","legacy","legacy","legacy","0","uniform","1","undefined","undefined","undefined","1","f","0","0","0","0","23","0","0","0","23","NA","19","23","19","0","19","3","23","0","23","Tue Feb 16 13:12:13 2021","The main experiment item","yes","Lexical_Decision_Task.osexp","/Users/jessedegroot/Documents/Bournemouth University/Year 2/CAL","no","Andale Mono","no","18","no","white","no","yes","576","legacy","19","19","3","/Users/jessedegroot/Documents/Bournemouth University/Year 2/CAL/subject-5226159.csv","legacy","Lentiform Loewenfeld","3.3.7","yes","yes","600bd7cfb6416f0113b04181","602110864497cf011d9c0822","0","f","NA","space","space","space","NA","f","678","NA","2930","15352","11704","NA","678","2","legacy","1024","2","48000","-16","task","5226159","odd","NA","36303","41241","38311","75863","1937","29009","17299","76371","NA","75859","76371","75807","41241","77050","34569","75307","1901","NA","Lexical Decision Task","24","18022","24","yes","1024"
"2.839268497","0","8","maft","non-word","100","100","748.88","748.88","black","no","legacy","legacy","legacy","0","uniform","1","undefined","undefined","undefined","1","f","0","0","0","0","24","0","0","0","24","NA","20","24","20","0","20","3","24","0","24","Tue Feb 16 13:12:13 2021","The main experiment item","yes","Lexical_Decision_Task.osexp","/Users/jessedegroot/Documents/Bournemouth University/Year 2/CAL","no","Andale Mono","no","18","no","white","no","yes","576","legacy","20","20","3","/Users/jessedegroot/Documents/Bournemouth University/Year 2/CAL/subject-5226159.csv","legacy","Lentiform Loewenfeld","3.3.7","yes","yes","600bd7cfb6416f0113b04181","602110864497cf011d9c0822","0","f","NA","space","space","space","NA","f","700","NA","2930","15352","11704","NA","700","2","legacy","1024","2","48000","-16","task","5226159","odd","NA","36303","41241","38311","77611","1937","29009","17299","78119","NA","77607","78119","77554","41241","78819","34569","77054","1901","NA","Lexical Decision Task","25","18722","25","yes","1024"
"3.031812271","6.52","3","gulp","word","96.15384615384616","96.15384615384616","738.9615384615385","738.9615384615385","black","no","legacy","legacy","legacy","0","uniform","0","undefined","undefined","undefined","0","j","0","0","0","0","25","0","0","0","25","NA","21","25","21","0","21","3","25","0","25","Tue Feb 16 13:12:13 2021","The main experiment item","yes","Lexical_Decision_Task.osexp","/Users/jessedegroot/Documents/Bournemouth University/Year 2/CAL","no","Andale Mono","no","18","no","white","no","yes","576","legacy","21","21","3","/Users/jessedegroot/Documents/Bournemouth University/Year 2/CAL/subject-5226159.csv","legacy","Lentiform Loewenfeld","3.3.7","yes","yes","600bd7cfb6416f0113b04181","602110864497cf011d9c0822","0","f","NA","space","space","space","NA","f","491","NA","2930","15352","11704","NA","491","2","legacy","1024","2","48000","-16","task","5226159","odd","NA","36303","41241","38311","79379","1937","29009","17299","79887","NA","79374","79887","79323","41241","80379","34569","78823","1901","NA","Lexical Decision Task","25","19213","26","yes","1024"
"3.121778632","0","9","sark","non-word","96.29629629629629","96.29629629629629","750.925925925926","750.925925925926","black","no","legacy","legacy","legacy","0","uniform","1","undefined","undefined","undefined","1","f","0","0","0","0","26","0","0","0","26","NA","22","26","22","0","22","3","26","0","26","Tue Feb 16 13:12:13 2021","The main experiment item","yes","Lexical_Decision_Task.osexp","/Users/jessedegroot/Documents/Bournemouth University/Year 2/CAL","no","Andale Mono","no","18","no","white","no","yes","576","legacy","22","22","3","/Users/jessedegroot/Documents/Bournemouth University/Year 2/CAL/subject-5226159.csv","legacy","Lentiform Loewenfeld","3.3.7","yes","yes","600bd7cfb6416f0113b04181","602110864497cf011d9c0822","0","f","NA","space","space","space","NA","f","1062","NA","2930","15352","11704","NA","1062","2","legacy","1024","2","48000","-16","task","5226159","odd","NA","36303","41241","38311","81943","1937","29009","17299","82451","NA","81938","82451","81883","41241","83514","34569","78823","1901","80383","Lexical Decision Task","26","20275","27","yes","1024"
"2.953276337","6.32","4","thaw","word","92.85714285714286","92.85714285714286","745.4285714285714","745.4285714285714","black","no","legacy","legacy","legacy","0","uniform","0","undefined","undefined","undefined","0","j","0","0","0","0","27","0","0","0","27","NA","23","27","23","0","23","3","27","0","27","Tue Feb 16 13:12:13 2021","The main experiment item","yes","Lexical_Decision_Task.osexp","/Users/jessedegroot/Documents/Bournemouth University/Year 2/CAL","no","Andale Mono","no","18","no","white","no","yes","576","legacy","23","23","3","/Users/jessedegroot/Documents/Bournemouth University/Year 2/CAL/subject-5226159.csv","legacy","Lentiform Loewenfeld","3.3.7","yes","yes","600bd7cfb6416f0113b04181","602110864497cf011d9c0822","0","f","NA","space","space","space","NA","f","597","NA","2930","15352","11704","NA","597","2","legacy","1024","2","48000","-16","task","5226159","odd","NA","36303","41241","38311","84071","1937","29009","17299","84579","NA","84066","84579","84017","41241","85176","34569","83517","1901","80383","Lexical Decision Task","26","20872","28","yes","1024"
"2.664011697","8.19","4","hawk","word","93.10344827586206","93.10344827586206","743.2758620689655","743.2758620689655","black","no","legacy","legacy","legacy","0","uniform","1","undefined","undefined","undefined","1","j","0","0","0","0","28","0","0","0","28","NA","24","28","24","0","24","3","28","0","28","Tue Feb 16 13:12:13 2021","The main experiment item","yes","Lexical_Decision_Task.osexp","/Users/jessedegroot/Documents/Bournemouth University/Year 2/CAL","no","Andale Mono","no","18","no","white","no","yes","576","legacy","24","24","3","/Users/jessedegroot/Documents/Bournemouth University/Year 2/CAL/subject-5226159.csv","legacy","Lentiform Loewenfeld","3.3.7","yes","yes","600bd7cfb6416f0113b04181","602110864497cf011d9c0822","0","j","NA","space","space","space","NA","j","683","NA","2930","15352","11704","NA","683","2","legacy","1024","2","48000","-16","task","5226159","odd","NA","36303","41241","38311","86742","1937","29009","17299","87250","NA","86737","87250","86680","41241","87933","34569","83517","1901","85180","Lexical Decision Task","27","21555","29","yes","1024"
"3.368162872","0","4","ferk","non-word","93.33333333333333","93.33333333333333","742.3666666666667","742.3666666666667","black","no","legacy","legacy","legacy","0","uniform","1","undefined","undefined","undefined","1","f","0","0","0","0","29","0","0","0","29","NA","25","29","25","0","25","3","29","0","29","Tue Feb 16 13:12:13 2021","The main experiment item","yes","Lexical_Decision_Task.osexp","/Users/jessedegroot/Documents/Bournemouth University/Year 2/CAL","no","Andale Mono","no","18","no","white","no","yes","576","legacy","25","25","3","/Users/jessedegroot/Documents/Bournemouth University/Year 2/CAL/subject-5226159.csv","legacy","Lentiform Loewenfeld","3.3.7","yes","yes","600bd7cfb6416f0113b04181","602110864497cf011d9c0822","0","f","NA","space","space","space","NA","f","716","NA","2930","15352","11704","NA","716","2","legacy","1024","2","48000","-16","task","5226159","odd","NA","36303","41241","38311","88491","1937","29009","17299","88999","NA","88487","88999","88437","41241","89715","34569","87937","1901","85180","Lexical Decision Task","28","22271","30","yes","1024"
"2.793790385","5.67","9","swab","word","93.54838709677419","93.54838709677419","736.4516129032259","736.4516129032259","black","no","legacy","legacy","legacy","0","uniform","1","undefined","undefined","undefined","1","j","0","0","0","0","30","0","0","0","30","NA","26","30","26","0","26","3","30","0","30","Tue Feb 16 13:12:13 2021","The main experiment item","yes","Lexical_Decision_Task.osexp","/Users/jessedegroot/Documents/Bournemouth University/Year 2/CAL","no","Andale Mono","no","18","no","white","no","yes","576","legacy","26","26","3","/Users/jessedegroot/Documents/Bournemouth University/Year 2/CAL/subject-5226159.csv","legacy","Lentiform Loewenfeld","3.3.7","yes","yes","600bd7cfb6416f0113b04181","602110864497cf011d9c0822","0","j","NA","space","space","space","NA","j","559","NA","2930","15352","11704","NA","559","2","legacy","1024","2","48000","-16","task","5226159","odd","NA","36303","41241","38311","90274","1937","29009","17299","90782","NA","90269","90782","90219","41241","91342","34569","89719","1901","85180","Lexical Decision Task","29","22830","31","yes","1024"
"2.899092422","7.27","6","snag","word","90.625","90.625","738.4375","738.4375","black","no","legacy","legacy","legacy","0","uniform","0","undefined","undefined","undefined","0","j","0","0","0","0","31","0","0","0","31","NA","27","31","27","0","27","3","31","0","31","Tue Feb 16 13:12:13 2021","The main experiment item","yes","Lexical_Decision_Task.osexp","/Users/jessedegroot/Documents/Bournemouth University/Year 2/CAL","no","Andale Mono","no","18","no","white","no","yes","576","legacy","27","27","3","/Users/jessedegroot/Documents/Bournemouth University/Year 2/CAL/subject-5226159.csv","legacy","Lentiform Loewenfeld","3.3.7","yes","yes","600bd7cfb6416f0113b04181","602110864497cf011d9c0822","0","f","NA","space","space","space","NA","f","800","NA","2930","15352","11704","NA","800","2","legacy","1024","2","48000","-16","task","5226159","odd","NA","36303","41241","38311","91901","1937","29009","17299","92407","NA","91897","92407","91846","41241","93207","34569","91346","1901","85180","Lexical Decision Task","29","23630","32","yes","1024"
"2.714888338","0","3","brug","non-word","90.9090909090909","90.9090909090909","740.9090909090909","740.9090909090909","black","no","legacy","legacy","legacy","0","uniform","1","undefined","undefined","undefined","1","f","0","0","0","0","32","0","0","0","32","NA","28","32","28","0","28","3","32","0","32","Tue Feb 16 13:12:13 2021","The main experiment item","yes","Lexical_Decision_Task.osexp","/Users/jessedegroot/Documents/Bournemouth University/Year 2/CAL","no","Andale Mono","no","18","no","white","no","yes","576","legacy","28","28","3","/Users/jessedegroot/Documents/Bournemouth University/Year 2/CAL/subject-5226159.csv","legacy","Lentiform Loewenfeld","3.3.7","yes","yes","600bd7cfb6416f0113b04181","602110864497cf011d9c0822","0","f","NA","space","space","space","NA","f","820","NA","2930","15352","11704","NA","820","2","legacy","1024","2","48000","-16","task","5226159","odd","NA","36303","41241","38311","94773","1937","29009","17299","95280","NA","94768","95280","94711","41241","96101","34569","91346","1901","93211","Lexical Decision Task","30","24450","33","yes","1024"
"2.899638141","0","3","hapt","non-word","91.17647058823529","91.17647058823529","734.8529411764706","734.8529411764706","black","no","legacy","legacy","legacy","0","uniform","1","undefined","undefined","undefined","1","f","0","0","0","0","33","0","0","0","33","NA","29","33","29","0","29","3","33","0","33","Tue Feb 16 13:12:13 2021","The main experiment item","yes","Lexical_Decision_Task.osexp","/Users/jessedegroot/Documents/Bournemouth University/Year 2/CAL","no","Andale Mono","no","18","no","white","no","yes","576","legacy","29","29","3","/Users/jessedegroot/Documents/Bournemouth University/Year 2/CAL/subject-5226159.csv","legacy","Lentiform Loewenfeld","3.3.7","yes","yes","600bd7cfb6416f0113b04181","602110864497cf011d9c0822","0","f","NA","space","space","space","NA","f","535","NA","2930","15352","11704","NA","535","2","legacy","1024","2","48000","-16","task","5226159","odd","NA","36303","41241","38311","96658","1937","29009","17299","97166","NA","96654","97166","96605","41241","97702","34569","96105","1901","93211","Lexical Decision Task","31","24985","34","yes","1024"
"3.102203805","7.21","3","drip","word","91.42857142857143","91.42857142857143","730.6285714285714","730.6285714285714","black","no","legacy","legacy","legacy","0","uniform","1","undefined","undefined","undefined","1","j","0","0","0","0","34","0","0","0","34","NA","30","34","30","0","30","3","34","0","34","Tue Feb 16 13:12:13 2021","The main experiment item","yes","Lexical_Decision_Task.osexp","/Users/jessedegroot/Documents/Bournemouth University/Year 2/CAL","no","Andale Mono","no","18","no","white","no","yes","576","legacy","30","30","3","/Users/jessedegroot/Documents/Bournemouth University/Year 2/CAL/subject-5226159.csv","legacy","Lentiform Loewenfeld","3.3.7","yes","yes","600bd7cfb6416f0113b04181","602110864497cf011d9c0822","0","j","NA","space","space","space","NA","j","587","NA","2930","15352","11704","NA","587","2","legacy","1024","2","48000","-16","task","5226159","odd","NA","36303","41241","38311","98260","1937","29009","17299","98768","NA","98256","98768","98205","41241","99355","34569","97705","1901","93211","Lexical Decision Task","32","25572","35","yes","1024"
"3.384413096","10.15","3","glad","word","91.66666666666667","91.66666666666667","725.0555555555555","725.0555555555555","black","no","legacy","legacy","legacy","0","uniform","1","undefined","undefined","undefined","1","j","0","0","0","0","35","0","0","0","35","NA","31","35","31","0","31","3","35","0","35","Tue Feb 16 13:12:13 2021","The main experiment item","yes","Lexical_Decision_Task.osexp","/Users/jessedegroot/Documents/Bournemouth University/Year 2/CAL","no","Andale Mono","no","18","no","white","no","yes","576","legacy","31","31","3","/Users/jessedegroot/Documents/Bournemouth University/Year 2/CAL/subject-5226159.csv","legacy","Lentiform Loewenfeld","3.3.7","yes","yes","600bd7cfb6416f0113b04181","602110864497cf011d9c0822","0","j","NA","space","space","space","NA","j","530","NA","2930","15352","11704","NA","530","2","legacy","1024","2","48000","-16","task","5226159","odd","NA","36303","41241","38311","99914","1937","29009","17299","100422","NA","99909","100422","99859","41241","100953","34569","99359","1901","93211","Lexical Decision Task","33","26102","36","yes","1024"
"2.986323777","10.85","8","ship","word","91.89189189189189","91.89189189189189","718.0540540540541","718.0540540540541","black","no","legacy","legacy","legacy","0","uniform","1","undefined","undefined","undefined","1","j","0","0","0","0","36","0","0","0","36","NA","32","36","32","0","32","3","36","0","36","Tue Feb 16 13:12:13 2021","The main experiment item","yes","Lexical_Decision_Task.osexp","/Users/jessedegroot/Documents/Bournemouth University/Year 2/CAL","no","Andale Mono","no","18","no","white","no","yes","576","legacy","32","32","3","/Users/jessedegroot/Documents/Bournemouth University/Year 2/CAL/subject-5226159.csv","legacy","Lentiform Loewenfeld","3.3.7","yes","yes","600bd7cfb6416f0113b04181","602110864497cf011d9c0822","0","j","NA","space","space","space","NA","j","466","NA","2930","15352","11704","NA","466","2","legacy","1024","2","48000","-16","task","5226159","odd","NA","36303","41241","38311","101510","1937","29009","17299","102018","NA","101506","102018","101457","41241","102484","34569","100956","1901","93211","Lexical Decision Task","34","26568","37","yes","1024"
"3.049218023","7.4","9","robe","word","92.10526315789474","92.10526315789474","713.6578947368421","713.6578947368421","black","no","legacy","legacy","legacy","0","uniform","1","undefined","undefined","undefined","1","j","0","0","0","0","37","0","0","0","37","NA","33","37","33","0","33","3","37","0","37","Tue Feb 16 13:12:13 2021","The main experiment item","yes","Lexical_Decision_Task.osexp","/Users/jessedegroot/Documents/Bournemouth University/Year 2/CAL","no","Andale Mono","no","18","no","white","no","yes","576","legacy","33","33","3","/Users/jessedegroot/Documents/Bournemouth University/Year 2/CAL/subject-5226159.csv","legacy","Lentiform Loewenfeld","3.3.7","yes","yes","600bd7cfb6416f0113b04181","602110864497cf011d9c0822","0","j","NA","space","space","space","NA","j","551","NA","2930","15352","11704","NA","551","2","legacy","1024","2","48000","-16","task","5226159","odd","NA","36303","41241","38311","103042","1937","29009","17299","103549","NA","103038","103550","102988","41241","104101","34569","102488","1901","93211","Lexical Decision Task","35","27119","38","yes","1024"
"3.274543461","7.46","7","scar","word","92.3076923076923","92.3076923076923","708.4871794871794","708.4871794871794","black","no","legacy","legacy","legacy","0","uniform","1","undefined","undefined","undefined","1","j","0","0","0","0","38","0","0","0","38","NA","34","38","34","0","34","3","38","0","38","Tue Feb 16 13:12:13 2021","The main experiment item","yes","Lexical_Decision_Task.osexp","/Users/jessedegroot/Documents/Bournemouth University/Year 2/CAL","no","Andale Mono","no","18","no","white","no","yes","576","legacy","34","34","3","/Users/jessedegroot/Documents/Bournemouth University/Year 2/CAL/subject-5226159.csv","legacy","Lentiform Loewenfeld","3.3.7","yes","yes","600bd7cfb6416f0113b04181","602110864497cf011d9c0822","0","j","NA","space","space","space","NA","j","512","NA","2930","15352","11704","NA","512","2","legacy","1024","2","48000","-16","task","5226159","odd","NA","36303","41241","38311","104660","1937","29009","17299","105168","NA","104656","105168","104605","41241","105681","34569","104105","1901","93211","Lexical Decision Task","36","27631","39","yes","1024"
"3.316948329","0","1","besc","non-word","92.5","92.5","706.975","706.975","black","no","legacy","legacy","legacy","0","uniform","1","undefined","undefined","undefined","1","f","0","0","0","0","39","0","0","0","39","NA","35","39","35","0","35","3","39","0","39","Tue Feb 16 13:12:13 2021","The main experiment item","yes","Lexical_Decision_Task.osexp","/Users/jessedegroot/Documents/Bournemouth University/Year 2/CAL","no","Andale Mono","no","18","no","white","no","yes","576","legacy","35","35","3","/Users/jessedegroot/Documents/Bournemouth University/Year 2/CAL/subject-5226159.csv","legacy","Lentiform Loewenfeld","3.3.7","yes","yes","600bd7cfb6416f0113b04181","602110864497cf011d9c0822","0","f","NA","space","space","space","NA","f","648","NA","2930","15352","11704","NA","648","2","legacy","1024","2","48000","-16","task","5226159","odd","NA","36303","41241","38311","106239","1937","29009","17299","106747","NA","106235","106747","106184","41241","107396","34569","105684","1901","93211","Lexical Decision Task","37","28279","40","yes","1024"
"2.996511672","0","7","hoil","non-word","92.6829268292683","92.6829268292683","716","716","black","no","legacy","legacy","legacy","0","uniform","1","undefined","undefined","undefined","1","f","0","0","0","0","40","0","0","0","40","NA","36","40","36","0","36","3","40","0","40","Tue Feb 16 13:12:13 2021","The main experiment item","yes","Lexical_Decision_Task.osexp","/Users/jessedegroot/Documents/Bournemouth University/Year 2/CAL","no","Andale Mono","no","18","no","white","no","yes","576","legacy","36","36","3","/Users/jessedegroot/Documents/Bournemouth University/Year 2/CAL/subject-5226159.csv","legacy","Lentiform Loewenfeld","3.3.7","yes","yes","600bd7cfb6416f0113b04181","602110864497cf011d9c0822","0","f","NA","space","space","space","NA","f","1077","NA","2930","15352","11704","NA","1077","2","legacy","1024","2","48000","-16","task","5226159","odd","NA","36303","41241","38311","107955","1937","29009","17299","108463","NA","107951","108463","107900","41241","109541","34569","107400","1901","93211","Lexical Decision Task","38","29356","41","yes","1024"
"3.302475237","0","7","leel","non-word","92.85714285714286","92.85714285714286","716.6666666666666","716.6666666666666","black","no","legacy","legacy","legacy","0","uniform","1","undefined","undefined","undefined","1","f","0","0","0","0","41","0","0","0","41","NA","37","41","37","0","37","3","41","0","41","Tue Feb 16 13:12:13 2021","The main experiment item","yes","Lexical_Decision_Task.osexp","/Users/jessedegroot/Documents/Bournemouth University/Year 2/CAL","no","Andale Mono","no","18","no","white","no","yes","576","legacy","37","37","3","/Users/jessedegroot/Documents/Bournemouth University/Year 2/CAL/subject-5226159.csv","legacy","Lentiform Loewenfeld","3.3.7","yes","yes","600bd7cfb6416f0113b04181","602110864497cf011d9c0822","0","f","NA","space","space","space","NA","f","744","NA","2930","15352","11704","NA","744","2","legacy","1024","2","48000","-16","task","5226159","odd","NA","36303","41241","38311","110098","1937","29009","17299","110605","NA","110094","110605","110045","41241","111350","34569","109545","1901","93211","Lexical Decision Task","39","30100","42","yes","1024"
"2.755364069","7.72","2","hoax","word","93.02325581395348","93.02325581395348","721.0232558139535","721.0232558139535","black","no","legacy","legacy","legacy","0","uniform","1","undefined","undefined","undefined","1","j","0","0","0","0","42","0","0","0","42","NA","38","42","38","0","38","3","42","0","42","Tue Feb 16 13:12:13 2021","The main experiment item","yes","Lexical_Decision_Task.osexp","/Users/jessedegroot/Documents/Bournemouth University/Year 2/CAL","no","Andale Mono","no","18","no","white","no","yes","576","legacy","38","38","3","/Users/jessedegroot/Documents/Bournemouth University/Year 2/CAL/subject-5226159.csv","legacy","Lentiform Loewenfeld","3.3.7","yes","yes","600bd7cfb6416f0113b04181","602110864497cf011d9c0822","0","j","NA","space","space","space","NA","j","904","NA","2930","15352","11704","NA","904","2","legacy","1024","2","48000","-16","task","5226159","odd","NA","36303","41241","38311","111909","1937","29009","17299","112417","NA","111905","112417","111853","41241","113322","34569","111353","1901","93211","Lexical Decision Task","40","31004","43","yes","1024"
"3.374137706","10.21","4","tree","word","93.18181818181819","93.18181818181819","728.4090909090909","728.4090909090909","black","no","legacy","legacy","legacy","0","uniform","1","undefined","undefined","undefined","1","j","0","0","0","0","43","0","0","0","43","NA","39","43","39","0","39","3","43","0","43","Tue Feb 16 13:12:13 2021","The main experiment item","yes","Lexical_Decision_Task.osexp","/Users/jessedegroot/Documents/Bournemouth University/Year 2/CAL","no","Andale Mono","no","18","no","white","no","yes","576","legacy","39","39","3","/Users/jessedegroot/Documents/Bournemouth University/Year 2/CAL/subject-5226159.csv","legacy","Lentiform Loewenfeld","3.3.7","yes","yes","600bd7cfb6416f0113b04181","602110864497cf011d9c0822","0","j","NA","space","space","space","NA","j","1046","NA","2930","15352","11704","NA","1046","2","legacy","1024","2","48000","-16","task","5226159","odd","NA","36303","41241","38311","113879","1937","29009","17299","114387","NA","113875","114387","113825","41241","115434","34569","113325","1901","93211","Lexical Decision Task","41","32050","44","yes","1024"
"2.594027722","9.08","8","skip","word","93.33333333333333","93.33333333333333","723.5333333333333","723.5333333333333","black","no","legacy","legacy","legacy","0","uniform","1","undefined","undefined","undefined","1","j","0","0","0","0","44","0","0","0","44","NA","40","44","40","0","40","3","44","0","44","Tue Feb 16 13:12:13 2021","The main experiment item","yes","Lexical_Decision_Task.osexp","/Users/jessedegroot/Documents/Bournemouth University/Year 2/CAL","no","Andale Mono","no","18","no","white","no","yes","576","legacy","40","40","3","/Users/jessedegroot/Documents/Bournemouth University/Year 2/CAL/subject-5226159.csv","legacy","Lentiform Loewenfeld","3.3.7","yes","yes","600bd7cfb6416f0113b04181","602110864497cf011d9c0822","0","j","NA","space","space","space","NA","j","509","NA","2930","15352","11704","NA","509","2","legacy","1024","2","48000","-16","task","5226159","odd","NA","36303","41241","38311","115991","1937","29009","17299","116499","NA","115987","116499","115937","41241","117008","34569","115437","1901","93211","Lexical Decision Task","42","32559","45","yes","1024"
"2.892836167","10.01","5","soft","word","93.47826086956522","93.47826086956522","716.804347826087","716.804347826087","black","no","legacy","legacy","legacy","0","uniform","1","undefined","undefined","undefined","1","j","0","0","0","0","45","0","0","0","45","NA","41","45","41","0","41","3","45","0","45","Tue Feb 16 13:12:13 2021","The main experiment item","yes","Lexical_Decision_Task.osexp","/Users/jessedegroot/Documents/Bournemouth University/Year 2/CAL","no","Andale Mono","no","18","no","white","no","yes","576","legacy","41","41","3","/Users/jessedegroot/Documents/Bournemouth University/Year 2/CAL/subject-5226159.csv","legacy","Lentiform Loewenfeld","3.3.7","yes","yes","600bd7cfb6416f0113b04181","602110864497cf011d9c0822","0","j","NA","space","space","space","NA","j","414","NA","2930","15352","11704","NA","414","2","legacy","1024","2","48000","-16","task","5226159","odd","NA","36303","41241","38311","117566","1937","29009","17299","118073","NA","117562","118073","117512","41241","118487","34569","117012","1901","93211","Lexical Decision Task","43","32973","46","yes","1024"
"3.091901331","0","9","nipe","non-word","93.61702127659575","93.61702127659575","717.063829787234","717.063829787234","black","no","legacy","legacy","legacy","0","uniform","1","undefined","undefined","undefined","1","f","0","0","0","0","46","0","0","0","46","NA","42","46","42","0","42","3","46","0","46","Tue Feb 16 13:12:13 2021","The main experiment item","yes","Lexical_Decision_Task.osexp","/Users/jessedegroot/Documents/Bournemouth University/Year 2/CAL","no","Andale Mono","no","18","no","white","no","yes","576","legacy","42","42","3","/Users/jessedegroot/Documents/Bournemouth University/Year 2/CAL/subject-5226159.csv","legacy","Lentiform Loewenfeld","3.3.7","yes","yes","600bd7cfb6416f0113b04181","602110864497cf011d9c0822","0","f","NA","space","space","space","NA","f","729","NA","2930","15352","11704","NA","729","2","legacy","1024","2","48000","-16","task","5226159","odd","NA","36303","41241","38311","119046","1937","29009","17299","119553","NA","119041","119553","118991","41241","120283","34569","118491","1901","93211","Lexical Decision Task","44","33702","47","yes","1024"
"2.979548375","8.71","4","soup","word","93.75","93.75","711.8958333333334","711.8958333333334","black","no","legacy","legacy","legacy","0","uniform","1","undefined","undefined","undefined","1","j","0","0","0","0","47","0","0","0","47","NA","43","47","43","0","43","3","47","0","47","Tue Feb 16 13:12:13 2021","The main experiment item","yes","Lexical_Decision_Task.osexp","/Users/jessedegroot/Documents/Bournemouth University/Year 2/CAL","no","Andale Mono","no","18","no","white","no","yes","576","legacy","43","43","3","/Users/jessedegroot/Documents/Bournemouth University/Year 2/CAL/subject-5226159.csv","legacy","Lentiform Loewenfeld","3.3.7","yes","yes","600bd7cfb6416f0113b04181","602110864497cf011d9c0822","0","j","NA","space","space","space","NA","j","469","NA","2930","15352","11704","NA","469","2","legacy","1024","2","48000","-16","task","5226159","odd","NA","36303","41241","38311","120842","1937","29009","17299","121350","NA","120838","121350","120787","41241","121819","34569","120287","1901","93211","Lexical Decision Task","45","34171","48","yes","1024"
"3.068433376","8.09","2","bulb","word","93.87755102040816","93.87755102040816","714.7755102040817","714.7755102040817","black","no","legacy","legacy","legacy","0","uniform","1","undefined","undefined","undefined","1","j","0","0","0","0","48","0","0","0","48","NA","44","48","44","0","44","3","48","0","48","Tue Feb 16 13:12:13 2021","The main experiment item","yes","Lexical_Decision_Task.osexp","/Users/jessedegroot/Documents/Bournemouth University/Year 2/CAL","no","Andale Mono","no","18","no","white","no","yes","576","legacy","44","44","3","/Users/jessedegroot/Documents/Bournemouth University/Year 2/CAL/subject-5226159.csv","legacy","Lentiform Loewenfeld","3.3.7","yes","yes","600bd7cfb6416f0113b04181","602110864497cf011d9c0822","0","j","NA","space","space","space","NA","j","853","NA","2930","15352","11704","NA","853","2","legacy","1024","2","48000","-16","task","5226159","odd","NA","36303","41241","38311","122377","1937","29009","17299","122885","NA","122373","122885","122323","41241","123739","34569","121823","1901","93211","Lexical Decision Task","46","35024","49","yes","1024"
"3.105055783","0","2","norp","non-word","94","94","711.38","711.38","black","no","legacy","legacy","legacy","0","uniform","1","undefined","undefined","undefined","1","f","0","0","0","0","49","0","0","0","49","NA","45","49","45","0","45","3","49","0","49","Tue Feb 16 13:12:13 2021","The main experiment item","yes","Lexical_Decision_Task.osexp","/Users/jessedegroot/Documents/Bournemouth University/Year 2/CAL","no","Andale Mono","no","18","no","white","no","yes","576","legacy","45","45","3","/Users/jessedegroot/Documents/Bournemouth University/Year 2/CAL/subject-5226159.csv","legacy","Lentiform Loewenfeld","3.3.7","yes","yes","600bd7cfb6416f0113b04181","602110864497cf011d9c0822","0","f","NA","space","space","space","NA","f","545","NA","2930","15352","11704","NA","545","2","legacy","1024","2","48000","-16","task","5226159","odd","NA","36303","41241","38311","124297","1937","29009","17299","124806","NA","124293","124806","124242","41241","125352","34569","123742","1901","93211","Lexical Decision Task","47","35569","50","yes","1024"
"3.20871002","7.15","8","cram","word","92.15686274509804","92.15686274509804","711.9215686274509","711.9215686274509","black","no","legacy","legacy","legacy","0","uniform","0","undefined","undefined","undefined","0","j","0","0","0","0","50","0","0","0","50","NA","46","50","46","0","46","3","50","0","50","Tue Feb 16 13:12:13 2021","The main experiment item","yes","Lexical_Decision_Task.osexp","/Users/jessedegroot/Documents/Bournemouth University/Year 2/CAL","no","Andale Mono","no","18","no","white","no","yes","576","legacy","46","46","3","/Users/jessedegroot/Documents/Bournemouth University/Year 2/CAL/subject-5226159.csv","legacy","Lentiform Loewenfeld","3.3.7","yes","yes","600bd7cfb6416f0113b04181","602110864497cf011d9c0822","0","f","NA","space","space","space","NA","f","739","NA","2930","15352","11704","NA","739","2","legacy","1024","2","48000","-16","task","5226159","odd","NA","36303","41241","38311","125911","1937","29009","17299","126419","NA","125906","126419","125855","41241","127159","34569","125355","1901","93211","Lexical Decision Task","47","36308","51","yes","1024"
"2.68604012","0","4","pumb","non-word","92.3076923076923","92.3076923076923","714.1730769230769","714.1730769230769","black","no","legacy","legacy","legacy","0","uniform","1","undefined","undefined","undefined","1","f","0","0","0","0","51","0","0","0","51","NA","47","51","47","0","47","3","51","0","51","Tue Feb 16 13:12:13 2021","The main experiment item","yes","Lexical_Decision_Task.osexp","/Users/jessedegroot/Documents/Bournemouth University/Year 2/CAL","no","Andale Mono","no","18","no","white","no","yes","576","legacy","47","47","3","/Users/jessedegroot/Documents/Bournemouth University/Year 2/CAL/subject-5226159.csv","legacy","Lentiform Loewenfeld","3.3.7","yes","yes","600bd7cfb6416f0113b04181","602110864497cf011d9c0822","0","f","NA","space","space","space","NA","f","829","NA","2930","15352","11704","NA","829","2","legacy","1024","2","48000","-16","task","5226159","odd","NA","36303","41241","38311","128724","1937","29009","17299","129230","NA","128719","129230","128662","41241","130060","34569","125355","1901","127162","Lexical Decision Task","48","37137","52","yes","1024"
"3.216517684","10.87","3","film","word","92.45283018867924","92.45283018867924","713.3396226415094","713.3396226415094","black","no","legacy","legacy","legacy","0","uniform","1","undefined","undefined","undefined","1","j","0","0","0","0","52","0","0","0","52","NA","48","52","48","0","48","3","52","0","52","Tue Feb 16 13:12:13 2021","The main experiment item","yes","Lexical_Decision_Task.osexp","/Users/jessedegroot/Documents/Bournemouth University/Year 2/CAL","no","Andale Mono","no","18","no","white","no","yes","576","legacy","48","48","3","/Users/jessedegroot/Documents/Bournemouth University/Year 2/CAL/subject-5226159.csv","legacy","Lentiform Loewenfeld","3.3.7","yes","yes","600bd7cfb6416f0113b04181","602110864497cf011d9c0822","0","j","NA","space","space","space","NA","j","670","NA","2930","15352","11704","NA","670","2","legacy","1024","2","48000","-16","task","5226159","odd","NA","36303","41241","38311","130618","1937","29009","17299","131125","NA","130614","131125","130564","41241","131795","34569","130064","1901","127162","Lexical Decision Task","49","37807","53","yes","1024"
"3.488597715","0","9","nain","non-word","92.5925925925926","92.5925925925926","712.1296296296297","712.1296296296297","black","no","legacy","legacy","legacy","0","uniform","1","undefined","undefined","undefined","1","f","0","0","0","0","53","0","0","0","53","NA","49","53","49","0","49","3","53","0","53","Tue Feb 16 13:12:13 2021","The main experiment item","yes","Lexical_Decision_Task.osexp","/Users/jessedegroot/Documents/Bournemouth University/Year 2/CAL","no","Andale Mono","no","18","no","white","no","yes","576","legacy","49","49","3","/Users/jessedegroot/Documents/Bournemouth University/Year 2/CAL/subject-5226159.csv","legacy","Lentiform Loewenfeld","3.3.7","yes","yes","600bd7cfb6416f0113b04181","602110864497cf011d9c0822","0","f","NA","space","space","space","NA","f","648","NA","2930","15352","11704","NA","648","2","legacy","1024","2","48000","-16","task","5226159","odd","NA","36303","41241","38311","132353","1937","29009","17299","132861","NA","132349","132861","132299","41241","133510","34569","131799","1901","127162","Lexical Decision Task","50","38455","54","yes","1024"
"3.372543801","9.24","8","coat","word","92.72727272727273","92.72727272727273","712.6181818181818","712.6181818181818","black","no","legacy","legacy","legacy","0","uniform","1","undefined","undefined","undefined","1","j","0","0","0","0","54","0","0","0","54","0","50","54","50","0","50","3","54","0","54","Tue Feb 16 13:12:13 2021","The main experiment item","yes","Lexical_Decision_Task.osexp","/Users/jessedegroot/Documents/Bournemouth University/Year 2/CAL","no","Andale Mono","no","18","no","white","no","yes","576","legacy","50","50","3","/Users/jessedegroot/Documents/Bournemouth University/Year 2/CAL/subject-5226159.csv","legacy","Lentiform Loewenfeld","3.3.7","yes","yes","600bd7cfb6416f0113b04181","602110864497cf011d9c0822","0","j","NA","space","space","space","space","j","739","NA","2930","15352","11704","9490","739","2","legacy","1024","2","48000","-16","task","5226159","odd","NA","36303","41241","38311","143576","1937","29009","17299","144084","134055","143573","144084","134014","41241","144823","34569","133514","1901","127162","Lexical Decision Task","51","39194","55","yes","1024"
"3.474361976","5.24","6","veer","word","91.07142857142857","91.07142857142857","712.4642857142857","712.4642857142857","black","no","legacy","legacy","legacy","0","uniform","0","undefined","undefined","undefined","0","j","0","0","0","0","55","0","0","0","55","0","51","55","51","0","51","3","55","0","55","Tue Feb 16 13:12:13 2021","The main experiment item","yes","Lexical_Decision_Task.osexp","/Users/jessedegroot/Documents/Bournemouth University/Year 2/CAL","no","Andale Mono","no","18","no","white","no","yes","576","legacy","51","51","3","/Users/jessedegroot/Documents/Bournemouth University/Year 2/CAL/subject-5226159.csv","legacy","Lentiform Loewenfeld","3.3.7","yes","yes","600bd7cfb6416f0113b04181","602110864497cf011d9c0822","0","f","NA","space","space","space","space","f","704","NA","2930","15352","11704","9490","704","2","legacy","1024","2","48000","-16","task","5226159","odd","NA","36303","41241","38311","145381","1937","29009","17299","145890","134055","145377","145890","145327","41241","146595","34569","144827","1901","127162","Lexical Decision Task","51","39898","56","yes","1024"
"3.443783828","7.65","3","verb","word","91.2280701754386","91.2280701754386","708.7368421052631","708.7368421052631","black","no","legacy","legacy","legacy","0","uniform","1","undefined","undefined","undefined","1","j","0","0","0","0","56","0","0","0","56","0","52","56","52","0","52","3","56","0","56","Tue Feb 16 13:12:13 2021","The main experiment item","yes","Lexical_Decision_Task.osexp","/Users/jessedegroot/Documents/Bournemouth University/Year 2/CAL","no","Andale Mono","no","18","no","white","no","yes","576","legacy","52","52","3","/Users/jessedegroot/Documents/Bournemouth University/Year 2/CAL/subject-5226159.csv","legacy","Lentiform Loewenfeld","3.3.7","yes","yes","600bd7cfb6416f0113b04181","602110864497cf011d9c0822","0","j","NA","space","space","space","space","j","500","NA","2930","15352","11704","9490","500","2","legacy","1024","2","48000","-16","task","5226159","odd","NA","36303","41241","38311","148160","1937","29009","17299","148668","134055","148155","148668","148099","41241","149169","34569","144827","1901","146598","Lexical Decision Task","52","40398","57","yes","1024"
"2.6599162","0","2","saff","non-word","89.65517241379311","89.65517241379311","705.4137931034483","705.4137931034483","black","no","legacy","legacy","legacy","0","uniform","0","undefined","undefined","undefined","0","f","0","0","0","0","57","0","0","0","57","0","53","57","53","0","53","3","57","0","57","Tue Feb 16 13:12:13 2021","The main experiment item","yes","Lexical_Decision_Task.osexp","/Users/jessedegroot/Documents/Bournemouth University/Year 2/CAL","no","Andale Mono","no","18","no","white","no","yes","576","legacy","53","53","3","/Users/jessedegroot/Documents/Bournemouth University/Year 2/CAL/subject-5226159.csv","legacy","Lentiform Loewenfeld","3.3.7","yes","yes","600bd7cfb6416f0113b04181","602110864497cf011d9c0822","0","j","NA","space","space","space","space","j","516","NA","2930","15352","11704","9490","516","2","legacy","1024","2","48000","-16","task","5226159","odd","NA","36303","41241","38311","149727","1937","29009","17299","150237","134055","149723","150237","149672","41241","150754","34569","149172","1901","146598","Lexical Decision Task","52","40914","58","yes","1024"
"3.159867847","5.98","5","brim","word","88.13559322033899","88.13559322033899","717.7966101694915","717.7966101694915","black","no","legacy","legacy","legacy","0","uniform","0","undefined","undefined","undefined","0","j","0","0","0","0","58","0","0","0","58","0","54","58","54","0","54","3","58","0","58","Tue Feb 16 13:12:13 2021","The main experiment item","yes","Lexical_Decision_Task.osexp","/Users/jessedegroot/Documents/Bournemouth University/Year 2/CAL","no","Andale Mono","no","18","no","white","no","yes","576","legacy","54","54","3","/Users/jessedegroot/Documents/Bournemouth University/Year 2/CAL/subject-5226159.csv","legacy","Lentiform Loewenfeld","3.3.7","yes","yes","600bd7cfb6416f0113b04181","602110864497cf011d9c0822","0","f","NA","space","space","space","space","f","1436","NA","2930","15352","11704","9490","1436","2","legacy","1024","2","48000","-16","task","5226159","odd","NA","36303","41241","38311","152319","1937","29009","17299","152827","134055","152314","152827","152258","41241","154264","34569","149172","1901","150758","Lexical Decision Task","52","42350","59","yes","1024"
"3.132473155","0","4","glim","non-word","88.33333333333333","88.33333333333333","716.9833333333333","716.9833333333333","black","no","legacy","legacy","legacy","0","uniform","1","undefined","undefined","undefined","1","f","0","0","0","0","59","0","0","0","59","0","55","59","55","0","55","3","59","0","59","Tue Feb 16 13:12:13 2021","The main experiment item","yes","Lexical_Decision_Task.osexp","/Users/jessedegroot/Documents/Bournemouth University/Year 2/CAL","no","Andale Mono","no","18","no","white","no","yes","576","legacy","55","55","3","/Users/jessedegroot/Documents/Bournemouth University/Year 2/CAL/subject-5226159.csv","legacy","Lentiform Loewenfeld","3.3.7","yes","yes","600bd7cfb6416f0113b04181","602110864497cf011d9c0822","0","f","NA","space","space","space","space","f","669","NA","2930","15352","11704","9490","669","2","legacy","1024","2","48000","-16","task","5226159","odd","NA","36303","41241","38311","155828","1937","29009","17299","156335","134055","155823","156336","155768","41241","157005","34569","149172","1901","154268","Lexical Decision Task","53","43019","60","yes","1024"
"2.576725172","0","8","gowl","non-word","88.52459016393442","88.52459016393442","722.0983606557377","722.0983606557377","black","no","legacy","legacy","legacy","0","uniform","1","undefined","undefined","undefined","1","f","0","0","0","0","60","0","0","0","60","0","56","60","56","0","56","3","60","0","60","Tue Feb 16 13:12:13 2021","The main experiment item","yes","Lexical_Decision_Task.osexp","/Users/jessedegroot/Documents/Bournemouth University/Year 2/CAL","no","Andale Mono","no","18","no","white","no","yes","576","legacy","56","56","3","/Users/jessedegroot/Documents/Bournemouth University/Year 2/CAL/subject-5226159.csv","legacy","Lentiform Loewenfeld","3.3.7","yes","yes","600bd7cfb6416f0113b04181","602110864497cf011d9c0822","0","f","NA","space","space","space","space","f","1029","NA","2930","15352","11704","9490","1029","2","legacy","1024","2","48000","-16","task","5226159","odd","NA","36303","41241","38311","157564","1937","29009","17299","158072","134055","157560","158072","157509","41241","159102","34569","157009","1901","154268","Lexical Decision Task","54","44048","61","yes","1024"
"2.708989954","9.28","9","bowl","word","87.09677419354838","87.09677419354838","724.1612903225806","724.1612903225806","black","no","legacy","legacy","legacy","0","uniform","0","undefined","undefined","undefined","0","j","0","0","0","0","61","0","0","0","61","0","57","61","57","0","57","3","61","0","61","Tue Feb 16 13:12:13 2021","The main experiment item","yes","Lexical_Decision_Task.osexp","/Users/jessedegroot/Documents/Bournemouth University/Year 2/CAL","no","Andale Mono","no","18","no","white","no","yes","576","legacy","57","57","3","/Users/jessedegroot/Documents/Bournemouth University/Year 2/CAL/subject-5226159.csv","legacy","Lentiform Loewenfeld","3.3.7","yes","yes","600bd7cfb6416f0113b04181","602110864497cf011d9c0822","0","f","NA","space","space","space","space","f","850","NA","2930","15352","11704","9490","850","2","legacy","1024","2","48000","-16","task","5226159","odd","NA","36303","41241","38311","159661","1937","29009","17299","160169","134055","159657","160169","159606","41241","161020","34569","159106","1901","154268","Lexical Decision Task","54","44898","62","yes","1024"
"3.363486562","6.93","9","lush","word","87.3015873015873","87.3015873015873","722.5555555555555","722.5555555555555","black","no","legacy","legacy","legacy","0","uniform","1","undefined","undefined","undefined","1","j","0","0","0","0","62","0","0","0","62","0","58","62","58","0","58","3","62","0","62","Tue Feb 16 13:12:13 2021","The main experiment item","yes","Lexical_Decision_Task.osexp","/Users/jessedegroot/Documents/Bournemouth University/Year 2/CAL","no","Andale Mono","no","18","no","white","no","yes","576","legacy","58","58","3","/Users/jessedegroot/Documents/Bournemouth University/Year 2/CAL/subject-5226159.csv","legacy","Lentiform Loewenfeld","3.3.7","yes","yes","600bd7cfb6416f0113b04181","602110864497cf011d9c0822","0","j","NA","space","space","space","space","j","623","NA","2930","15352","11704","9490","623","2","legacy","1024","2","48000","-16","task","5226159","odd","NA","36303","41241","38311","162584","1937","29009","17299","163092","134055","162579","163092","162523","41241","163716","34569","159106","1901","161023","Lexical Decision Task","55","45521","63","yes","1024"
"2.746890964","9.67","3","plug","word","87.5","87.5","723.921875","723.921875","black","no","legacy","legacy","legacy","0","uniform","1","undefined","undefined","undefined","1","j","0","0","0","0","63","0","0","0","63","0","59","63","59","0","59","3","63","0","63","Tue Feb 16 13:12:13 2021","The main experiment item","yes","Lexical_Decision_Task.osexp","/Users/jessedegroot/Documents/Bournemouth University/Year 2/CAL","no","Andale Mono","no","18","no","white","no","yes","576","legacy","59","59","3","/Users/jessedegroot/Documents/Bournemouth University/Year 2/CAL/subject-5226159.csv","legacy","Lentiform Loewenfeld","3.3.7","yes","yes","600bd7cfb6416f0113b04181","602110864497cf011d9c0822","0","j","NA","space","space","space","space","j","810","NA","2930","15352","11704","9490","810","2","legacy","1024","2","48000","-16","task","5226159","odd","NA","36303","41241","38311","164273","1937","29009","17299","164781","134055","164269","164781","164219","41241","165591","34569","163719","1901","161023","Lexical Decision Task","56","46331","64","yes","1024"
"2.858136002","0","4","phip","non-word","87.6923076923077","87.6923076923077","725.4153846153846","725.4153846153846","black","no","legacy","legacy","legacy","0","uniform","1","undefined","undefined","undefined","1","f","0","0","0","0","64","0","0","0","64","0","60","64","60","0","60","3","64","0","64","Tue Feb 16 13:12:13 2021","The main experiment item","yes","Lexical_Decision_Task.osexp","/Users/jessedegroot/Documents/Bournemouth University/Year 2/CAL","no","Andale Mono","no","18","no","white","no","yes","576","legacy","60","60","3","/Users/jessedegroot/Documents/Bournemouth University/Year 2/CAL/subject-5226159.csv","legacy","Lentiform Loewenfeld","3.3.7","yes","yes","600bd7cfb6416f0113b04181","602110864497cf011d9c0822","0","f","NA","space","space","space","space","f","821","NA","2930","15352","11704","9490","821","2","legacy","1024","2","48000","-16","task","5226159","odd","NA","36303","41241","38311","166151","1937","29009","17299","166659","134055","166147","166659","166095","41241","167481","34569","165595","1901","161023","Lexical Decision Task","57","47152","65","yes","1024"
"3.195807436","0","6","stup","non-word","87.87878787878788","87.87878787878788","732.1818181818181","732.1818181818181","black","no","legacy","legacy","legacy","0","uniform","1","undefined","undefined","undefined","1","f","0","0","0","0","65","0","0","0","65","0","61","65","61","0","61","3","65","0","65","Tue Feb 16 13:12:13 2021","The main experiment item","yes","Lexical_Decision_Task.osexp","/Users/jessedegroot/Documents/Bournemouth University/Year 2/CAL","no","Andale Mono","no","18","no","white","no","yes","576","legacy","61","61","3","/Users/jessedegroot/Documents/Bournemouth University/Year 2/CAL/subject-5226159.csv","legacy","Lentiform Loewenfeld","3.3.7","yes","yes","600bd7cfb6416f0113b04181","602110864497cf011d9c0822","0","f","NA","space","space","space","space","f","1172","NA","2930","15352","11704","9490","1172","2","legacy","1024","2","48000","-16","task","5226159","odd","NA","36303","41241","38311","168037","1937","29009","17299","168545","134055","168033","168545","167984","41241","169717","34569","167484","1901","161023","Lexical Decision Task","58","48324","66","yes","1024"
"3.037294994","8.64","7","roof","word","88.05970149253731","88.05970149253731","730.9402985074627","730.9402985074627","black","no","legacy","legacy","legacy","0","uniform","1","undefined","undefined","undefined","1","j","0","0","0","0","66","0","0","0","66","0","62","66","62","0","62","3","66","0","66","Tue Feb 16 13:12:13 2021","The main experiment item","yes","Lexical_Decision_Task.osexp","/Users/jessedegroot/Documents/Bournemouth University/Year 2/CAL","no","Andale Mono","no","18","no","white","no","yes","576","legacy","62","62","3","/Users/jessedegroot/Documents/Bournemouth University/Year 2/CAL/subject-5226159.csv","legacy","Lentiform Loewenfeld","3.3.7","yes","yes","600bd7cfb6416f0113b04181","602110864497cf011d9c0822","0","j","NA","space","space","space","space","j","649","NA","2930","15352","11704","9490","649","2","legacy","1024","2","48000","-16","task","5226159","odd","NA","36303","41241","38311","170275","1937","29009","17299","170783","134055","170271","170783","170221","41241","171433","34569","169721","1901","161023","Lexical Decision Task","59","48973","67","yes","1024"
"3.064581521","5.51","6","cask","word","88.23529411764706","88.23529411764706","728.0882352941177","728.0882352941177","black","no","legacy","legacy","legacy","0","uniform","1","undefined","undefined","undefined","1","j","0","0","0","0","67","0","0","0","67","0","63","67","63","0","63","3","67","0","67","Tue Feb 16 13:12:13 2021","The main experiment item","yes","Lexical_Decision_Task.osexp","/Users/jessedegroot/Documents/Bournemouth University/Year 2/CAL","no","Andale Mono","no","18","no","white","no","yes","576","legacy","63","63","3","/Users/jessedegroot/Documents/Bournemouth University/Year 2/CAL/subject-5226159.csv","legacy","Lentiform Loewenfeld","3.3.7","yes","yes","600bd7cfb6416f0113b04181","602110864497cf011d9c0822","0","j","NA","space","space","space","space","j","537","NA","2930","15352","11704","9490","537","2","legacy","1024","2","48000","-16","task","5226159","odd","NA","36303","41241","38311","171991","1937","29009","17299","172499","134055","171986","172499","171937","41241","173037","34569","171437","1901","161023","Lexical Decision Task","60","49510","68","yes","1024"
"3.705778213","0","6","stin","non-word","88.40579710144928","88.40579710144928","727.9710144927536","727.9710144927536","black","no","legacy","legacy","legacy","0","uniform","1","undefined","undefined","undefined","1","f","0","0","0","0","68","0","0","0","68","0","64","68","64","0","64","3","68","0","68","Tue Feb 16 13:12:13 2021","The main experiment item","yes","Lexical_Decision_Task.osexp","/Users/jessedegroot/Documents/Bournemouth University/Year 2/CAL","no","Andale Mono","no","18","no","white","no","yes","576","legacy","64","64","3","/Users/jessedegroot/Documents/Bournemouth University/Year 2/CAL/subject-5226159.csv","legacy","Lentiform Loewenfeld","3.3.7","yes","yes","600bd7cfb6416f0113b04181","602110864497cf011d9c0822","0","f","NA","space","space","space","space","f","720","NA","2930","15352","11704","9490","720","2","legacy","1024","2","48000","-16","task","5226159","odd","NA","36303","41241","38311","173596","1937","29009","17299","174104","134055","173591","174105","173541","41241","174826","34569","173041","1901","161023","Lexical Decision Task","61","50230","69","yes","1024"
"2.782472624","10.55","2","huge","word","88.57142857142857","88.57142857142857","725.1714285714286","725.1714285714286","black","no","legacy","legacy","legacy","0","uniform","1","undefined","undefined","undefined","1","j","0","0","0","0","69","0","0","0","69","0","65","69","65","0","65","3","69","0","69","Tue Feb 16 13:12:13 2021","The main experiment item","yes","Lexical_Decision_Task.osexp","/Users/jessedegroot/Documents/Bournemouth University/Year 2/CAL","no","Andale Mono","no","18","no","white","no","yes","576","legacy","65","65","3","/Users/jessedegroot/Documents/Bournemouth University/Year 2/CAL/subject-5226159.csv","legacy","Lentiform Loewenfeld","3.3.7","yes","yes","600bd7cfb6416f0113b04181","602110864497cf011d9c0822","0","j","NA","space","space","space","space","j","532","NA","2930","15352","11704","9490","532","2","legacy","1024","2","48000","-16","task","5226159","odd","NA","36303","41241","38311","175385","1937","29009","17299","175893","134055","175380","175893","175330","41241","176425","34569","174830","1901","161023","Lexical Decision Task","62","50762","70","yes","1024"
"2.875447132","0","9","jelt","non-word","88.73239436619718","88.73239436619718","726.6901408450705","726.6901408450705","black","no","legacy","legacy","legacy","0","uniform","1","undefined","undefined","undefined","1","f","0","0","0","0","70","0","0","0","70","0","66","70","66","0","66","3","70","0","70","Tue Feb 16 13:12:13 2021","The main experiment item","yes","Lexical_Decision_Task.osexp","/Users/jessedegroot/Documents/Bournemouth University/Year 2/CAL","no","Andale Mono","no","18","no","white","no","yes","576","legacy","66","66","3","/Users/jessedegroot/Documents/Bournemouth University/Year 2/CAL/subject-5226159.csv","legacy","Lentiform Loewenfeld","3.3.7","yes","yes","600bd7cfb6416f0113b04181","602110864497cf011d9c0822","0","f","NA","space","space","space","space","f","833","NA","2930","15352","11704","9490","833","2","legacy","1024","2","48000","-16","task","5226159","odd","NA","36303","41241","38311","176983","1937","29009","17299","177491","134055","176979","177491","176929","41241","178325","34569","176429","1901","161023","Lexical Decision Task","63","51595","71","yes","1024"
"3.156347201","0","8","lasp","non-word","88.88888888888889","88.88888888888889","727.6111111111111","727.6111111111111","black","no","legacy","legacy","legacy","0","uniform","1","undefined","undefined","undefined","1","f","0","0","0","0","71","0","0","0","71","0","67","71","67","0","67","3","71","0","71","Tue Feb 16 13:12:13 2021","The main experiment item","yes","Lexical_Decision_Task.osexp","/Users/jessedegroot/Documents/Bournemouth University/Year 2/CAL","no","Andale Mono","no","18","no","white","no","yes","576","legacy","67","67","3","/Users/jessedegroot/Documents/Bournemouth University/Year 2/CAL/subject-5226159.csv","legacy","Lentiform Loewenfeld","3.3.7","yes","yes","600bd7cfb6416f0113b04181","602110864497cf011d9c0822","0","f","NA","space","space","space","space","f","793","NA","2930","15352","11704","9490","793","2","legacy","1024","2","48000","-16","task","5226159","odd","NA","36303","41241","38311","178883","1937","29009","17299","179391","134055","178879","179391","178829","41241","180185","34569","178329","1901","161023","Lexical Decision Task","64","52388","72","yes","1024"
"2.807758206","6.25","4","hurl","word","89.04109589041096","89.04109589041096","728.4109589041096","728.4109589041096","black","no","legacy","legacy","legacy","0","uniform","1","undefined","undefined","undefined","1","j","0","0","0","0","72","0","0","0","72","0","68","72","68","0","68","3","72","0","72","Tue Feb 16 13:12:13 2021","The main experiment item","yes","Lexical_Decision_Task.osexp","/Users/jessedegroot/Documents/Bournemouth University/Year 2/CAL","no","Andale Mono","no","18","no","white","no","yes","576","legacy","68","68","3","/Users/jessedegroot/Documents/Bournemouth University/Year 2/CAL/subject-5226159.csv","legacy","Lentiform Loewenfeld","3.3.7","yes","yes","600bd7cfb6416f0113b04181","602110864497cf011d9c0822","0","j","NA","space","space","space","space","j","786","NA","2930","15352","11704","9490","786","2","legacy","1024","2","48000","-16","task","5226159","odd","NA","36303","41241","38311","180743","1937","29009","17299","181250","134055","180739","181250","180688","41241","182037","34569","180188","1901","161023","Lexical Decision Task","65","53174","73","yes","1024"
"3.090140555","5.81","8","pout","word","89.1891891891892","89.1891891891892","726.0135135135135","726.0135135135135","black","no","legacy","legacy","legacy","0","uniform","1","undefined","undefined","undefined","1","j","0","0","0","0","73","0","0","0","73","0","69","73","69","0","69","3","73","0","73","Tue Feb 16 13:12:13 2021","The main experiment item","yes","Lexical_Decision_Task.osexp","/Users/jessedegroot/Documents/Bournemouth University/Year 2/CAL","no","Andale Mono","no","18","no","white","no","yes","576","legacy","69","69","3","/Users/jessedegroot/Documents/Bournemouth University/Year 2/CAL/subject-5226159.csv","legacy","Lentiform Loewenfeld","3.3.7","yes","yes","600bd7cfb6416f0113b04181","602110864497cf011d9c0822","0","j","NA","space","space","space","space","j","551","NA","2930","15352","11704","9490","551","2","legacy","1024","2","48000","-16","task","5226159","odd","NA","36303","41241","38311","182597","1937","29009","17299","183105","134055","182592","183105","182541","41241","183656","34569","182041","1901","161023","Lexical Decision Task","66","53725","74","yes","1024"
"2.799799878","0","4","ciff","non-word","89.33333333333333","89.33333333333333","728.6533333333333","728.6533333333333","black","no","legacy","legacy","legacy","0","uniform","1","undefined","undefined","undefined","1","f","0","0","0","0","74","0","0","0","74","0","70","74","70","0","70","3","74","0","74","Tue Feb 16 13:12:13 2021","The main experiment item","yes","Lexical_Decision_Task.osexp","/Users/jessedegroot/Documents/Bournemouth University/Year 2/CAL","no","Andale Mono","no","18","no","white","no","yes","576","legacy","70","70","3","/Users/jessedegroot/Documents/Bournemouth University/Year 2/CAL/subject-5226159.csv","legacy","Lentiform Loewenfeld","3.3.7","yes","yes","600bd7cfb6416f0113b04181","602110864497cf011d9c0822","0","f","NA","space","space","space","space","f","924","NA","2930","15352","11704","9490","924","2","legacy","1024","2","48000","-16","task","5226159","odd","NA","36303","41241","38311","184214","1937","29009","17299","184722","134055","184209","184722","184160","41241","185647","34569","183660","1901","161023","Lexical Decision Task","67","54649","75","yes","1024"
"3.378276681","6.39","8","bran","word","89.47368421052632","89.47368421052632","727.6842105263158","727.6842105263158","black","no","legacy","legacy","legacy","0","uniform","1","undefined","undefined","undefined","1","j","0","0","0","0","75","0","0","0","75","0","71","75","71","0","71","3","75","0","75","Tue Feb 16 13:12:13 2021","The main experiment item","yes","Lexical_Decision_Task.osexp","/Users/jessedegroot/Documents/Bournemouth University/Year 2/CAL","no","Andale Mono","no","18","no","white","no","yes","576","legacy","71","71","3","/Users/jessedegroot/Documents/Bournemouth University/Year 2/CAL/subject-5226159.csv","legacy","Lentiform Loewenfeld","3.3.7","yes","yes","600bd7cfb6416f0113b04181","602110864497cf011d9c0822","0","j","NA","space","space","space","space","j","655","NA","2930","15352","11704","9490","655","2","legacy","1024","2","48000","-16","task","5226159","odd","NA","36303","41241","38311","186205","1937","29009","17299","186713","134055","186200","186713","186151","41241","187369","34569","185651","1901","161023","Lexical Decision Task","68","55304","76","yes","1024"
"2.813801082","5.47","7","nook","word","89.6103896103896","89.6103896103896","729.7792207792207","729.7792207792207","black","no","legacy","legacy","legacy","0","uniform","1","undefined","undefined","undefined","1","j","0","0","0","0","76","0","0","0","76","0","72","76","72","0","72","3","76","0","76","Tue Feb 16 13:12:13 2021","The main experiment item","yes","Lexical_Decision_Task.osexp","/Users/jessedegroot/Documents/Bournemouth University/Year 2/CAL","no","Andale Mono","no","18","no","white","no","yes","576","legacy","72","72","3","/Users/jessedegroot/Documents/Bournemouth University/Year 2/CAL/subject-5226159.csv","legacy","Lentiform Loewenfeld","3.3.7","yes","yes","600bd7cfb6416f0113b04181","602110864497cf011d9c0822","0","j","NA","space","space","space","space","j","889","NA","2930","15352","11704","9490","889","2","legacy","1024","2","48000","-16","task","5226159","odd","NA","36303","41241","38311","187927","1937","29009","17299","188434","134055","187923","188434","187873","41241","189324","34569","187373","1901","161023","Lexical Decision Task","69","56193","77","yes","1024"
"2.719886232","7.98","2","quiz","word","89.74358974358974","89.74358974358974","755.5384615384615","755.5384615384615","black","no","legacy","legacy","legacy","0","uniform","1","undefined","undefined","undefined","1","j","0","0","0","0","77","0","0","0","77","0","73","77","73","0","73","3","77","0","77","Tue Feb 16 13:12:13 2021","The main experiment item","yes","Lexical_Decision_Task.osexp","/Users/jessedegroot/Documents/Bournemouth University/Year 2/CAL","no","Andale Mono","no","18","no","white","no","yes","576","legacy","73","73","3","/Users/jessedegroot/Documents/Bournemouth University/Year 2/CAL/subject-5226159.csv","legacy","Lentiform Loewenfeld","3.3.7","yes","yes","600bd7cfb6416f0113b04181","602110864497cf011d9c0822","0","j","NA","space","space","space","space","j","2739","NA","2930","15352","11704","9490","2739","2","legacy","1024","2","48000","-16","task","5226159","odd","NA","36303","41241","38311","189881","1937","29009","17299","190388","134055","189877","190389","189827","41241","193129","34569","189327","1901","161023","Lexical Decision Task","70","58932","78","yes","1024"
"3.14849993","10.75","7","hour","word","89.87341772151899","89.87341772151899","753.8227848101266","753.8227848101266","black","no","legacy","legacy","legacy","0","uniform","1","undefined","undefined","undefined","1","j","0","0","0","0","78","0","0","0","78","0","74","78","74","0","74","3","78","0","78","Tue Feb 16 13:12:13 2021","The main experiment item","yes","Lexical_Decision_Task.osexp","/Users/jessedegroot/Documents/Bournemouth University/Year 2/CAL","no","Andale Mono","no","18","no","white","no","yes","576","legacy","74","74","3","/Users/jessedegroot/Documents/Bournemouth University/Year 2/CAL/subject-5226159.csv","legacy","Lentiform Loewenfeld","3.3.7","yes","yes","600bd7cfb6416f0113b04181","602110864497cf011d9c0822","0","j","NA","space","space","space","space","j","620","NA","2930","15352","11704","9490","620","2","legacy","1024","2","48000","-16","task","5226159","odd","NA","36303","41241","38311","193687","1937","29009","17299","194194","134055","193682","194194","193632","41241","194814","34569","193132","1901","161023","Lexical Decision Task","71","59552","79","yes","1024"
"3.531734309","0","6","lerd","non-word","90","90","754.025","754.025","black","no","legacy","legacy","legacy","0","uniform","1","undefined","undefined","undefined","1","f","0","0","0","0","79","0","0","0","79","0","75","79","75","0","75","3","79","0","79","Tue Feb 16 13:12:13 2021","The main experiment item","yes","Lexical_Decision_Task.osexp","/Users/jessedegroot/Documents/Bournemouth University/Year 2/CAL","no","Andale Mono","no","18","no","white","no","yes","576","legacy","75","75","3","/Users/jessedegroot/Documents/Bournemouth University/Year 2/CAL/subject-5226159.csv","legacy","Lentiform Loewenfeld","3.3.7","yes","yes","600bd7cfb6416f0113b04181","602110864497cf011d9c0822","0","f","NA","space","space","space","space","f","770","NA","2930","15352","11704","9490","770","2","legacy","1024","2","48000","-16","task","5226159","odd","NA","36303","41241","38311","195373","1937","29009","17299","195880","134055","195368","195880","195318","41241","196651","34569","194818","1901","161023","Lexical Decision Task","72","60322","80","yes","1024"
"3.133964479","0","8","graw","non-word","90.12345679012346","90.12345679012346","756.2098765432099","756.2098765432099","black","no","legacy","legacy","legacy","0","uniform","1","undefined","undefined","undefined","1","f","0","0","0","0","80","0","0","0","80","0","76","80","76","0","76","3","80","0","80","Tue Feb 16 13:12:13 2021","The main experiment item","yes","Lexical_Decision_Task.osexp","/Users/jessedegroot/Documents/Bournemouth University/Year 2/CAL","no","Andale Mono","no","18","no","white","no","yes","576","legacy","76","76","3","/Users/jessedegroot/Documents/Bournemouth University/Year 2/CAL/subject-5226159.csv","legacy","Lentiform Loewenfeld","3.3.7","yes","yes","600bd7cfb6416f0113b04181","602110864497cf011d9c0822","0","f","NA","space","space","space","space","f","931","NA","2930","15352","11704","9490","931","2","legacy","1024","2","48000","-16","task","5226159","odd","NA","36303","41241","38311","197209","1937","29009","17299","197716","134055","197205","197717","197155","41241","198649","34569","196655","1901","161023","Lexical Decision Task","73","61253","81","yes","1024"
"3.145920145","8.51","8","flew","word","90.2439024390244","90.2439024390244","755.829268292683","755.829268292683","black","no","legacy","legacy","legacy","0","uniform","1","undefined","undefined","undefined","1","j","0","0","0","0","81","0","0","0","81","0","77","81","77","0","77","3","81","0","81","Tue Feb 16 13:12:13 2021","The main experiment item","yes","Lexical_Decision_Task.osexp","/Users/jessedegroot/Documents/Bournemouth University/Year 2/CAL","no","Andale Mono","no","18","no","white","no","yes","576","legacy","77","77","3","/Users/jessedegroot/Documents/Bournemouth University/Year 2/CAL/subject-5226159.csv","legacy","Lentiform Loewenfeld","3.3.7","yes","yes","600bd7cfb6416f0113b04181","602110864497cf011d9c0822","0","j","NA","space","space","space","space","j","725","NA","2930","15352","11704","9490","725","2","legacy","1024","2","48000","-16","task","5226159","odd","NA","36303","41241","38311","199206","1937","29009","17299","199714","134055","199202","199714","199153","41241","200440","34569","198653","1901","161023","Lexical Decision Task","74","61978","82","yes","1024"
"3.208172527","10.27","7","deck","word","90.36144578313252","90.36144578313252","755.1686746987951","755.1686746987951","black","no","legacy","legacy","legacy","0","uniform","1","undefined","undefined","undefined","1","j","0","0","0","0","82","0","0","0","82","0","78","82","78","0","78","3","82","0","82","Tue Feb 16 13:12:13 2021","The main experiment item","yes","Lexical_Decision_Task.osexp","/Users/jessedegroot/Documents/Bournemouth University/Year 2/CAL","no","Andale Mono","no","18","no","white","no","yes","576","legacy","78","78","3","/Users/jessedegroot/Documents/Bournemouth University/Year 2/CAL/subject-5226159.csv","legacy","Lentiform Loewenfeld","3.3.7","yes","yes","600bd7cfb6416f0113b04181","602110864497cf011d9c0822","0","j","NA","space","space","space","space","j","701","NA","2930","15352","11704","9490","701","2","legacy","1024","2","48000","-16","task","5226159","odd","NA","36303","41241","38311","201001","1937","29009","17299","201509","134055","200996","201509","200944","41241","202211","34569","200444","1901","161023","Lexical Decision Task","75","62679","83","yes","1024"
"3.353210739","0","9","reet","non-word","90.47619047619048","90.47619047619048","761.2261904761905","761.2261904761905","black","no","legacy","legacy","legacy","0","uniform","1","undefined","undefined","undefined","1","f","0","0","0","0","83","0","0","0","83","0","79","83","79","0","79","3","83","0","83","Tue Feb 16 13:12:13 2021","The main experiment item","yes","Lexical_Decision_Task.osexp","/Users/jessedegroot/Documents/Bournemouth University/Year 2/CAL","no","Andale Mono","no","18","no","white","no","yes","576","legacy","79","79","3","/Users/jessedegroot/Documents/Bournemouth University/Year 2/CAL/subject-5226159.csv","legacy","Lentiform Loewenfeld","3.3.7","yes","yes","600bd7cfb6416f0113b04181","602110864497cf011d9c0822","0","f","NA","space","space","space","space","f","1264","NA","2930","15352","11704","9490","1264","2","legacy","1024","2","48000","-16","task","5226159","odd","NA","36303","41241","38311","202768","1937","29009","17299","203276","134055","202764","203276","202714","41241","204541","34569","202214","1901","161023","Lexical Decision Task","76","63943","84","yes","1024"
"3.269668578","0","7","trag","non-word","90.58823529411765","90.58823529411765","761.8","761.8","black","no","legacy","legacy","legacy","0","uniform","1","undefined","undefined","undefined","1","f","0","0","0","0","84","0","0","0","84","0","80","84","80","0","80","3","84","0","84","Tue Feb 16 13:12:13 2021","The main experiment item","yes","Lexical_Decision_Task.osexp","/Users/jessedegroot/Documents/Bournemouth University/Year 2/CAL","no","Andale Mono","no","18","no","white","no","yes","576","legacy","80","80","3","/Users/jessedegroot/Documents/Bournemouth University/Year 2/CAL/subject-5226159.csv","legacy","Lentiform Loewenfeld","3.3.7","yes","yes","600bd7cfb6416f0113b04181","602110864497cf011d9c0822","0","f","NA","space","space","space","space","f","810","NA","2930","15352","11704","9490","810","2","legacy","1024","2","48000","-16","task","5226159","odd","NA","36303","41241","38311","205098","1937","29009","17299","205606","134055","205094","205606","205044","41241","206417","34569","204544","1901","161023","Lexical Decision Task","77","64753","85","yes","1024"
"2.845304797","0","6","buct","non-word","90.69767441860465","90.69767441860465","764.2558139534884","764.2558139534884","black","no","legacy","legacy","legacy","0","uniform","1","undefined","undefined","undefined","1","f","0","0","0","0","85","0","0","0","85","0","81","85","81","0","81","3","85","0","85","Tue Feb 16 13:12:13 2021","The main experiment item","yes","Lexical_Decision_Task.osexp","/Users/jessedegroot/Documents/Bournemouth University/Year 2/CAL","no","Andale Mono","no","18","no","white","no","yes","576","legacy","81","81","3","/Users/jessedegroot/Documents/Bournemouth University/Year 2/CAL/subject-5226159.csv","legacy","Lentiform Loewenfeld","3.3.7","yes","yes","600bd7cfb6416f0113b04181","602110864497cf011d9c0822","0","f","NA","space","space","space","space","f","973","NA","2930","15352","11704","9490","973","2","legacy","1024","2","48000","-16","task","5226159","odd","NA","36303","41241","38311","206976","1937","29009","17299","207484","134055","206971","207484","206921","41241","208458","34569","206421","1901","161023","Lexical Decision Task","78","65726","86","yes","1024"
"2.814027728","8.2","4","foam","word","90.80459770114942","90.80459770114942","772.6551724137931","772.6551724137931","black","no","legacy","legacy","legacy","0","uniform","1","undefined","undefined","undefined","1","j","0","0","0","0","86","0","0","0","86","0","82","86","82","0","82","3","86","0","86","Tue Feb 16 13:12:13 2021","The main experiment item","yes","Lexical_Decision_Task.osexp","/Users/jessedegroot/Documents/Bournemouth University/Year 2/CAL","no","Andale Mono","no","18","no","white","no","yes","576","legacy","82","82","3","/Users/jessedegroot/Documents/Bournemouth University/Year 2/CAL/subject-5226159.csv","legacy","Lentiform Loewenfeld","3.3.7","yes","yes","600bd7cfb6416f0113b04181","602110864497cf011d9c0822","0","j","NA","space","space","space","space","j","1495","NA","2930","15352","11704","9490","1495","2","legacy","1024","2","48000","-16","task","5226159","odd","NA","36303","41241","38311","209016","1937","29009","17299","209524","134055","209012","209524","208962","41241","211020","34569","208462","1901","161023","Lexical Decision Task","79","67221","87","yes","1024"
"3.259832699","0","9","flar","non-word","90.9090909090909","90.9090909090909","773.9318181818181","773.9318181818181","black","no","legacy","legacy","legacy","0","uniform","1","undefined","undefined","undefined","1","f","0","0","0","0","87","0","0","0","87","0","83","87","83","0","83","3","87","0","87","Tue Feb 16 13:12:13 2021","The main experiment item","yes","Lexical_Decision_Task.osexp","/Users/jessedegroot/Documents/Bournemouth University/Year 2/CAL","no","Andale Mono","no","18","no","white","no","yes","576","legacy","83","83","3","/Users/jessedegroot/Documents/Bournemouth University/Year 2/CAL/subject-5226159.csv","legacy","Lentiform Loewenfeld","3.3.7","yes","yes","600bd7cfb6416f0113b04181","602110864497cf011d9c0822","0","f","NA","space","space","space","space","f","885","NA","2930","15352","11704","9490","885","2","legacy","1024","2","48000","-16","task","5226159","odd","NA","36303","41241","38311","211577","1937","29009","17299","212084","134055","211572","212084","211524","41241","212970","34569","211024","1901","161023","Lexical Decision Task","80","68106","88","yes","1024"
"3.140404328","10.66","9","deep","word","91.01123595505618","91.01123595505618","772.6516853932584","772.6516853932584","black","no","legacy","legacy","legacy","0","uniform","1","undefined","undefined","undefined","1","j","0","0","0","0","88","0","0","0","88","0","84","88","84","0","84","3","88","0","88","Tue Feb 16 13:12:13 2021","The main experiment item","yes","Lexical_Decision_Task.osexp","/Users/jessedegroot/Documents/Bournemouth University/Year 2/CAL","no","Andale Mono","no","18","no","white","no","yes","576","legacy","84","84","3","/Users/jessedegroot/Documents/Bournemouth University/Year 2/CAL/subject-5226159.csv","legacy","Lentiform Loewenfeld","3.3.7","yes","yes","600bd7cfb6416f0113b04181","602110864497cf011d9c0822","0","j","NA","space","space","space","space","j","660","NA","2930","15352","11704","9490","660","2","legacy","1024","2","48000","-16","task","5226159","odd","NA","36303","41241","38311","213529","1937","29009","17299","214037","134055","213525","214037","213475","41241","214698","34569","212975","1901","161023","Lexical Decision Task","81","68766","89","yes","1024"
"2.990042563","6.64","9","plow","word","90","90","772.7777777777778","772.7777777777778","black","no","legacy","legacy","legacy","0","uniform","0","undefined","undefined","undefined","0","j","0","0","0","0","89","0","0","0","89","0","85","89","85","0","85","3","89","0","89","Tue Feb 16 13:12:13 2021","The main experiment item","yes","Lexical_Decision_Task.osexp","/Users/jessedegroot/Documents/Bournemouth University/Year 2/CAL","no","Andale Mono","no","18","no","white","no","yes","576","legacy","85","85","3","/Users/jessedegroot/Documents/Bournemouth University/Year 2/CAL/subject-5226159.csv","legacy","Lentiform Loewenfeld","3.3.7","yes","yes","600bd7cfb6416f0113b04181","602110864497cf011d9c0822","0","f","NA","space","space","space","space","f","784","NA","2930","15352","11704","9490","784","2","legacy","1024","2","48000","-16","task","5226159","odd","NA","36303","41241","38311","215257","1937","29009","17299","215765","134055","215252","215765","215202","41241","216549","34569","214702","1901","161023","Lexical Decision Task","81","69550","90","yes","1024"
"2.706148589","0","4","hube","non-word","90.10989010989012","90.10989010989012","773.3076923076923","773.3076923076923","black","no","legacy","legacy","legacy","0","uniform","1","undefined","undefined","undefined","1","f","0","0","0","0","90","0","0","0","90","0","86","90","86","0","86","3","90","0","90","Tue Feb 16 13:12:13 2021","The main experiment item","yes","Lexical_Decision_Task.osexp","/Users/jessedegroot/Documents/Bournemouth University/Year 2/CAL","no","Andale Mono","no","18","no","white","no","yes","576","legacy","86","86","3","/Users/jessedegroot/Documents/Bournemouth University/Year 2/CAL/subject-5226159.csv","legacy","Lentiform Loewenfeld","3.3.7","yes","yes","600bd7cfb6416f0113b04181","602110864497cf011d9c0822","0","f","NA","space","space","space","space","f","821","NA","2930","15352","11704","9490","821","2","legacy","1024","2","48000","-16","task","5226159","odd","NA","36303","41241","38311","218114","1937","29009","17299","218623","134055","218110","218623","218053","41241","219445","34569","214702","1901","216553","Lexical Decision Task","82","70371","91","yes","1024"
"3.003891166","8.05","2","frog","word","90.21739130434783","90.21739130434783","771.7717391304348","771.7717391304348","black","no","legacy","legacy","legacy","0","uniform","1","undefined","undefined","undefined","1","j","0","0","0","0","91","0","0","0","91","0","87","91","87","0","87","3","91","0","91","Tue Feb 16 13:12:13 2021","The main experiment item","yes","Lexical_Decision_Task.osexp","/Users/jessedegroot/Documents/Bournemouth University/Year 2/CAL","no","Andale Mono","no","18","no","white","no","yes","576","legacy","87","87","3","/Users/jessedegroot/Documents/Bournemouth University/Year 2/CAL/subject-5226159.csv","legacy","Lentiform Loewenfeld","3.3.7","yes","yes","600bd7cfb6416f0113b04181","602110864497cf011d9c0822","0","j","NA","space","space","space","space","j","632","NA","2930","15352","11704","9490","632","2","legacy","1024","2","48000","-16","task","5226159","odd","NA","36303","41241","38311","220002","1937","29009","17299","220511","134055","219998","220511","219949","41241","221144","34569","219448","1901","216553","Lexical Decision Task","83","71003","92","yes","1024"
"3.303771854","0","9","dath","non-word","90.3225806451613","90.3225806451613","772.7741935483871","772.7741935483871","black","no","legacy","legacy","legacy","0","uniform","1","undefined","undefined","undefined","1","f","0","0","0","0","92","0","0","0","92","0","88","92","88","0","88","3","92","0","92","Tue Feb 16 13:12:13 2021","The main experiment item","yes","Lexical_Decision_Task.osexp","/Users/jessedegroot/Documents/Bournemouth University/Year 2/CAL","no","Andale Mono","no","18","no","white","no","yes","576","legacy","88","88","3","/Users/jessedegroot/Documents/Bournemouth University/Year 2/CAL/subject-5226159.csv","legacy","Lentiform Loewenfeld","3.3.7","yes","yes","600bd7cfb6416f0113b04181","602110864497cf011d9c0822","0","f","NA","space","space","space","space","f","865","NA","2930","15352","11704","9490","865","2","legacy","1024","2","48000","-16","task","5226159","odd","NA","36303","41241","38311","221701","1937","29009","17299","222209","134055","221697","222209","221647","41241","223075","34569","221147","1901","216553","Lexical Decision Task","84","71868","93","yes","1024"
"2.812467698","0","7","hafe","non-word","90.42553191489361","90.42553191489361","773.2021276595744","773.2021276595744","black","no","legacy","legacy","legacy","0","uniform","1","undefined","undefined","undefined","1","f","0","0","0","0","93","0","0","0","93","0","89","93","89","0","89","3","93","0","93","Tue Feb 16 13:12:13 2021","The main experiment item","yes","Lexical_Decision_Task.osexp","/Users/jessedegroot/Documents/Bournemouth University/Year 2/CAL","no","Andale Mono","no","18","no","white","no","yes","576","legacy","89","89","3","/Users/jessedegroot/Documents/Bournemouth University/Year 2/CAL/subject-5226159.csv","legacy","Lentiform Loewenfeld","3.3.7","yes","yes","600bd7cfb6416f0113b04181","602110864497cf011d9c0822","0","f","NA","space","space","space","space","f","813","NA","2930","15352","11704","9490","813","2","legacy","1024","2","48000","-16","task","5226159","odd","NA","36303","41241","38311","223633","1937","29009","17299","224141","134055","223629","224141","223578","41241","224954","34569","223078","1901","216553","Lexical Decision Task","85","72681","94","yes","1024"
