"Log_BG","Log_Freq_HAL","Ortho_N","Stimulus","Type","acc","accuracy","average_response_time","avg_rt","background","bidi","canvas_backend","clock_backend","color_backend","compensation","coordinates","correct","correct_Experimental_intro","correct_Introduction","correct_Practice_intro","correct_experimenter_kb","correct_response","count_End_Of_Experiment","count_End_Of_Practice","count_Experimental_Loop","count_Experimental_intro","count_Fixation","count_Introduction","count_Practice_Loop","count_Practice_intro","count_Stimulus","count_block_break_feedback","count_experimental_sequence","count_experimenter_kb","count_increment_trial_count","count_init_trial_count","count_logger","count_practice_sequence","count_right","count_task","count_wrong","datetime","description","disable_garbage_collection","experiment_file","experiment_path","font_bold","font_family","font_italic","font_size","font_underline","foreground","form_clicks","fullscreen","height","keyboard_backend","live_row","live_row_Experimental_Loop","live_row_Practice_Loop","logfile","mouse_backend","opensesame_codename","opensesame_version","osf_always_upload_data","osf_always_upload_experiment","osf_datanode_id","osf_id","repeat_cycle","response","response_End_Of_Experiment","response_Experimental_intro","response_Introduction","response_Practice_intro","response_block_break_feedback","response_experimenter_kb","response_time","response_time_End_Of_Experiment","response_time_Experimental_intro","response_time_Introduction","response_time_Practice_intro","response_time_block_break_feedback","response_time_experimenter_kb","round_decimals","sampler_backend","sound_buf_size","sound_channels","sound_freq","sound_sample_size","start","subject_nr","subject_parity","time_End_Of_Experiment","time_End_Of_Practice","time_Experimental_Loop","time_Experimental_intro","time_Fixation","time_Introduction","time_Practice_Loop","time_Practice_intro","time_Stimulus","time_block_break_feedback","time_experimental_sequence","time_experimenter_kb","time_increment_trial_count","time_init_trial_count","time_logger","time_practice_sequence","time_right","time_task","time_wrong","title","total_correct","total_response_time","total_responses","uniform_coordinates","width"
"2.696644658","5.78","2","yolk","word","60","60","1454.8","1454.8","black","no","legacy","legacy","legacy","0","uniform","0","undefined","undefined","undefined","0","j","0","0","0","0","4","0","0","0","4","NA","0","4","0","0","0","3","4","0","4","Fri Feb 19 11:54:52 2021","The main experiment item","yes","Lexical_Decision_Task.osexp","C:/Users/myste/OneDrive/Desktop","no","Andale Mono","no","18","no","white","no","yes","576","legacy","0","0","3","C:/Users/myste/OneDrive/Desktop/subject-5221597.csv","legacy","Lentiform Loewenfeld","3.3.7","yes","yes","600bd7cfb6416f0113b04181","602110864497cf011d9c0822","0","f","NA","return","return","return","NA","f","1096","NA","1721","18015","1607","NA","1096","2","legacy","1024","2","48000","-16","task","5221597","odd","NA","37745","41470","39748","41509","6265","25891","24283","42012","NA","41507","42013","NA","41470","43110","36088","37189","6254","29473","Lexical Decision Task","3","7274","5","yes","1024"
"3.488597715","0","9","nain","non-word","66.66666666666667","66.66666666666667","1378","1378","black","no","legacy","legacy","legacy","0","uniform","1","undefined","undefined","undefined","1","f","0","0","0","0","5","0","0","0","5","NA","1","5","1","0","1","3","5","0","5","Fri Feb 19 11:54:52 2021","The main experiment item","yes","Lexical_Decision_Task.osexp","C:/Users/myste/OneDrive/Desktop","no","Andale Mono","no","18","no","white","no","yes","576","legacy","1","1","3","C:/Users/myste/OneDrive/Desktop/subject-5221597.csv","legacy","Lentiform Loewenfeld","3.3.7","yes","yes","600bd7cfb6416f0113b04181","602110864497cf011d9c0822","0","f","NA","return","return","return","NA","f","994","NA","1721","18015","1607","NA","994","2","legacy","1024","2","48000","-16","task","5221597","odd","NA","37745","41470","39748","44962","6265","25891","24283","45465","NA","44959","45466","44757","41470","46461","36088","37189","6254","43256","Lexical Decision Task","4","8268","6","yes","1024"
"2.668385917","5.48","4","twig","word","71.42857142857143","71.42857142857143","1270.2857142857142","1270.2857142857142","black","no","legacy","legacy","legacy","0","uniform","1","undefined","undefined","undefined","1","j","0","0","0","0","6","0","0","0","6","NA","2","6","2","0","2","3","6","0","6","Fri Feb 19 11:54:52 2021","The main experiment item","yes","Lexical_Decision_Task.osexp","C:/Users/myste/OneDrive/Desktop","no","Andale Mono","no","18","no","white","no","yes","576","legacy","2","2","3","C:/Users/myste/OneDrive/Desktop/subject-5221597.csv","legacy","Lentiform Loewenfeld","3.3.7","yes","yes","600bd7cfb6416f0113b04181","602110864497cf011d9c0822","0","j","NA","return","return","return","NA","j","624","NA","1721","18015","1607","NA","624","2","legacy","1024","2","48000","-16","task","5221597","odd","NA","37745","41470","39748","47055","6265","25891","24283","47557","NA","47053","47557","46968","41470","48181","36088","46468","6254","43256","Lexical Decision Task","5","8892","7","yes","1024"
"3.102203805","7.21","3","drip","word","75","75","1186.25","1186.25","black","no","legacy","legacy","legacy","0","uniform","1","undefined","undefined","undefined","1","j","0","0","0","0","7","0","0","0","7","NA","3","7","3","0","3","3","7","0","7","Fri Feb 19 11:54:52 2021","The main experiment item","yes","Lexical_Decision_Task.osexp","C:/Users/myste/OneDrive/Desktop","no","Andale Mono","no","18","no","white","no","yes","576","legacy","3","3","3","C:/Users/myste/OneDrive/Desktop/subject-5221597.csv","legacy","Lentiform Loewenfeld","3.3.7","yes","yes","600bd7cfb6416f0113b04181","602110864497cf011d9c0822","0","j","NA","return","return","return","NA","j","598","NA","1721","18015","1607","NA","598","2","legacy","1024","2","48000","-16","task","5221597","odd","NA","37745","41470","39748","48859","6265","25891","24283","49362","NA","48854","49362","48711","41470","49961","36088","48211","6254","43256","Lexical Decision Task","6","9490","8","yes","1024"
"3.174641193","0","3","ramb","non-word","77.77777777777777","77.77777777777777","1119","1119","black","no","legacy","legacy","legacy","0","uniform","1","undefined","undefined","undefined","1","f","0","0","0","0","8","0","0","0","8","NA","4","8","4","0","4","3","8","0","8","Fri Feb 19 11:54:52 2021","The main experiment item","yes","Lexical_Decision_Task.osexp","C:/Users/myste/OneDrive/Desktop","no","Andale Mono","no","18","no","white","no","yes","576","legacy","4","4","3","C:/Users/myste/OneDrive/Desktop/subject-5221597.csv","legacy","Lentiform Loewenfeld","3.3.7","yes","yes","600bd7cfb6416f0113b04181","602110864497cf011d9c0822","0","f","NA","return","return","return","NA","f","581","NA","1721","18015","1607","NA","581","2","legacy","1024","2","48000","-16","task","5221597","odd","NA","37745","41470","39748","50692","6265","25891","24283","51195","NA","50688","51195","50516","41470","51777","36088","50016","6254","43256","Lexical Decision Task","7","10071","9","yes","1024"
"2.924968096","0","4","phim","non-word","80","80","1059.8","1059.8","black","no","legacy","legacy","legacy","0","uniform","1","undefined","undefined","undefined","1","f","0","0","0","0","9","0","0","0","9","NA","5","9","5","0","5","3","9","0","9","Fri Feb 19 11:54:52 2021","The main experiment item","yes","Lexical_Decision_Task.osexp","C:/Users/myste/OneDrive/Desktop","no","Andale Mono","no","18","no","white","no","yes","576","legacy","5","5","3","C:/Users/myste/OneDrive/Desktop/subject-5221597.csv","legacy","Lentiform Loewenfeld","3.3.7","yes","yes","600bd7cfb6416f0113b04181","602110864497cf011d9c0822","0","f","NA","return","return","return","NA","f","527","NA","1721","18015","1607","NA","527","2","legacy","1024","2","48000","-16","task","5221597","odd","NA","37745","41470","39748","52525","6265","25891","24283","53029","NA","52520","53029","52343","41470","53557","36088","51843","6254","43256","Lexical Decision Task","8","10598","10","yes","1024"
"3.440331212","7.35","6","stew","word","81.81818181818181","81.81818181818181","1021.0909090909091","1021.0909090909091","black","no","legacy","legacy","legacy","0","uniform","1","undefined","undefined","undefined","1","j","0","0","0","0","10","0","0","0","10","NA","6","10","6","0","6","3","10","0","10","Fri Feb 19 11:54:52 2021","The main experiment item","yes","Lexical_Decision_Task.osexp","C:/Users/myste/OneDrive/Desktop","no","Andale Mono","no","18","no","white","no","yes","576","legacy","6","6","3","C:/Users/myste/OneDrive/Desktop/subject-5221597.csv","legacy","Lentiform Loewenfeld","3.3.7","yes","yes","600bd7cfb6416f0113b04181","602110864497cf011d9c0822","0","j","NA","return","return","return","NA","j","634","NA","1721","18015","1607","NA","634","2","legacy","1024","2","48000","-16","task","5221597","odd","NA","37745","41470","39748","54223","6265","25891","24283","54727","NA","54220","54727","54065","41470","55362","36088","53565","6254","43256","Lexical Decision Task","9","11232","11","yes","1024"
"2.6599162","0","6","flug","non-word","83.33333333333333","83.33333333333333","999.25","999.25","black","no","legacy","legacy","legacy","0","uniform","1","undefined","undefined","undefined","1","f","0","0","0","0","11","0","0","0","11","NA","7","11","7","0","7","3","11","0","11","Fri Feb 19 11:54:52 2021","The main experiment item","yes","Lexical_Decision_Task.osexp","C:/Users/myste/OneDrive/Desktop","no","Andale Mono","no","18","no","white","no","yes","576","legacy","7","7","3","C:/Users/myste/OneDrive/Desktop/subject-5221597.csv","legacy","Lentiform Loewenfeld","3.3.7","yes","yes","600bd7cfb6416f0113b04181","602110864497cf011d9c0822","0","f","NA","return","return","return","NA","f","759","NA","1721","18015","1607","NA","759","2","legacy","1024","2","48000","-16","task","5221597","odd","NA","37745","41470","39748","56040","6265","25891","24283","56543","NA","56039","56544","55918","41470","57305","36088","55418","6254","43256","Lexical Decision Task","10","11991","12","yes","1024"
"3.031812271","6.52","3","gulp","word","84.61538461538461","84.61538461538461","971.6923076923077","971.6923076923077","black","no","legacy","legacy","legacy","0","uniform","1","undefined","undefined","undefined","1","j","0","0","0","0","12","0","0","0","12","NA","8","12","8","0","8","3","12","0","12","Fri Feb 19 11:54:52 2021","The main experiment item","yes","Lexical_Decision_Task.osexp","C:/Users/myste/OneDrive/Desktop","no","Andale Mono","no","18","no","white","no","yes","576","legacy","8","8","3","C:/Users/myste/OneDrive/Desktop/subject-5221597.csv","legacy","Lentiform Loewenfeld","3.3.7","yes","yes","600bd7cfb6416f0113b04181","602110864497cf011d9c0822","0","j","NA","return","return","return","NA","j","641","NA","1721","18015","1607","NA","641","2","legacy","1024","2","48000","-16","task","5221597","odd","NA","37745","41470","39748","58072","6265","25891","24283","58576","NA","58069","58576","57882","41470","59218","36088","57382","6254","43256","Lexical Decision Task","11","12632","13","yes","1024"
"2.719886232","7.98","2","quiz","word","85.71428571428571","85.71428571428571","950.5714285714286","950.5714285714286","black","no","legacy","legacy","legacy","0","uniform","1","undefined","undefined","undefined","1","j","0","0","0","0","13","0","0","0","13","NA","9","13","9","0","9","3","13","0","13","Fri Feb 19 11:54:52 2021","The main experiment item","yes","Lexical_Decision_Task.osexp","C:/Users/myste/OneDrive/Desktop","no","Andale Mono","no","18","no","white","no","yes","576","legacy","9","9","3","C:/Users/myste/OneDrive/Desktop/subject-5221597.csv","legacy","Lentiform Loewenfeld","3.3.7","yes","yes","600bd7cfb6416f0113b04181","602110864497cf011d9c0822","0","j","NA","return","return","return","NA","j","676","NA","1721","18015","1607","NA","676","2","legacy","1024","2","48000","-16","task","5221597","odd","NA","37745","41470","39748","59979","6265","25891","24283","60483","NA","59976","60483","59798","41470","61160","36088","59297","6254","43256","Lexical Decision Task","12","13308","14","yes","1024"
"3.230789326","5.38","5","prim","word","80","80","940.4","940.4","black","no","legacy","legacy","legacy","0","uniform","0","undefined","undefined","undefined","0","j","0","0","0","0","14","0","0","0","14","NA","10","14","10","0","10","3","14","0","14","Fri Feb 19 11:54:52 2021","The main experiment item","yes","Lexical_Decision_Task.osexp","C:/Users/myste/OneDrive/Desktop","no","Andale Mono","no","18","no","white","no","yes","576","legacy","10","10","3","C:/Users/myste/OneDrive/Desktop/subject-5221597.csv","legacy","Lentiform Loewenfeld","3.3.7","yes","yes","600bd7cfb6416f0113b04181","602110864497cf011d9c0822","0","f","NA","return","return","return","NA","f","798","NA","1721","18015","1607","NA","798","2","legacy","1024","2","48000","-16","task","5221597","odd","NA","37745","41470","39748","61908","6265","25891","24283","62412","NA","61904","62412","61741","41470","63211","36088","61241","6254","43256","Lexical Decision Task","12","14106","15","yes","1024"
"3.225825991","0","7","talm","non-word","81.25","81.25","935","935","black","no","legacy","legacy","legacy","0","uniform","1","undefined","undefined","undefined","1","f","0","0","0","0","15","0","0","0","15","NA","11","15","11","0","11","3","15","0","15","Fri Feb 19 11:54:52 2021","The main experiment item","yes","Lexical_Decision_Task.osexp","C:/Users/myste/OneDrive/Desktop","no","Andale Mono","no","18","no","white","no","yes","576","legacy","11","11","3","C:/Users/myste/OneDrive/Desktop/subject-5221597.csv","legacy","Lentiform Loewenfeld","3.3.7","yes","yes","600bd7cfb6416f0113b04181","602110864497cf011d9c0822","0","f","NA","return","return","return","NA","f","854","NA","1721","18015","1607","NA","854","2","legacy","1024","2","48000","-16","task","5221597","odd","NA","37745","41470","39748","64873","6265","25891","24283","65377","NA","64871","65378","64738","41470","66234","36088","61241","6254","63238","Lexical Decision Task","13","14960","16","yes","1024"
"3.20871002","7.15","8","cram","word","82.3529411764706","82.3529411764706","915.0588235294117","915.0588235294117","black","no","legacy","legacy","legacy","0","uniform","1","undefined","undefined","undefined","1","j","0","0","0","0","16","0","0","0","16","NA","12","16","12","0","12","3","16","0","16","Fri Feb 19 11:54:52 2021","The main experiment item","yes","Lexical_Decision_Task.osexp","C:/Users/myste/OneDrive/Desktop","no","Andale Mono","no","18","no","white","no","yes","576","legacy","12","12","3","C:/Users/myste/OneDrive/Desktop/subject-5221597.csv","legacy","Lentiform Loewenfeld","3.3.7","yes","yes","600bd7cfb6416f0113b04181","602110864497cf011d9c0822","0","j","NA","return","return","return","NA","j","596","NA","1721","18015","1607","NA","596","2","legacy","1024","2","48000","-16","task","5221597","odd","NA","37745","41470","39748","66980","6265","25891","24283","67483","NA","66976","67484","66826","41470","68081","36088","66325","6254","63238","Lexical Decision Task","14","15556","17","yes","1024"
"3.299579929","0","2","flis","non-word","83.33333333333333","83.33333333333333","898.1666666666666","898.1666666666666","black","no","legacy","legacy","legacy","0","uniform","1","undefined","undefined","undefined","1","f","0","0","0","0","17","0","0","0","17","NA","13","17","13","0","13","3","17","0","17","Fri Feb 19 11:54:52 2021","The main experiment item","yes","Lexical_Decision_Task.osexp","C:/Users/myste/OneDrive/Desktop","no","Andale Mono","no","18","no","white","no","yes","576","legacy","13","13","3","C:/Users/myste/OneDrive/Desktop/subject-5221597.csv","legacy","Lentiform Loewenfeld","3.3.7","yes","yes","600bd7cfb6416f0113b04181","602110864497cf011d9c0822","0","f","NA","return","return","return","NA","f","611","NA","1721","18015","1607","NA","611","2","legacy","1024","2","48000","-16","task","5221597","odd","NA","37745","41470","39748","68766","6265","25891","24283","69269","NA","68762","69270","68603","41470","69881","36088","68103","6254","63238","Lexical Decision Task","15","16167","18","yes","1024"
"3.495914186","0","4","peng","non-word","84.21052631578948","84.21052631578948","893.8421052631579","893.8421052631579","black","no","legacy","legacy","legacy","0","uniform","1","undefined","undefined","undefined","1","f","0","0","0","0","18","0","0","0","18","NA","14","18","14","0","14","3","18","0","18","Fri Feb 19 11:54:52 2021","The main experiment item","yes","Lexical_Decision_Task.osexp","C:/Users/myste/OneDrive/Desktop","no","Andale Mono","no","18","no","white","no","yes","576","legacy","14","14","3","C:/Users/myste/OneDrive/Desktop/subject-5221597.csv","legacy","Lentiform Loewenfeld","3.3.7","yes","yes","600bd7cfb6416f0113b04181","602110864497cf011d9c0822","0","f","NA","return","return","return","NA","f","816","NA","1721","18015","1607","NA","816","2","legacy","1024","2","48000","-16","task","5221597","odd","NA","37745","41470","39748","70564","6265","25891","24283","71067","NA","70560","71067","70389","41470","71884","36088","69889","6254","63238","Lexical Decision Task","16","16983","19","yes","1024"
"2.69019608","9.01","2","myth","word","85","85","878.3","878.3","black","no","legacy","legacy","legacy","0","uniform","1","undefined","undefined","undefined","1","j","0","0","0","0","19","0","0","0","19","NA","15","19","15","0","15","3","19","0","19","Fri Feb 19 11:54:52 2021","The main experiment item","yes","Lexical_Decision_Task.osexp","C:/Users/myste/OneDrive/Desktop","no","Andale Mono","no","18","no","white","no","yes","576","legacy","15","15","3","C:/Users/myste/OneDrive/Desktop/subject-5221597.csv","legacy","Lentiform Loewenfeld","3.3.7","yes","yes","600bd7cfb6416f0113b04181","602110864497cf011d9c0822","0","j","NA","return","return","return","NA","j","583","NA","1721","18015","1607","NA","583","2","legacy","1024","2","48000","-16","task","5221597","odd","NA","37745","41470","39748","72552","6265","25891","24283","73055","NA","72550","73055","72391","41470","73639","36088","71891","6254","63238","Lexical Decision Task","17","17566","20","yes","1024"
"3.218535505","7.85","7","goat","word","85.71428571428571","85.71428571428571","860.9047619047619","860.9047619047619","black","no","legacy","legacy","legacy","0","uniform","1","undefined","undefined","undefined","1","j","0","0","0","0","20","0","0","0","20","NA","16","20","16","0","16","3","20","0","20","Fri Feb 19 11:54:52 2021","The main experiment item","yes","Lexical_Decision_Task.osexp","C:/Users/myste/OneDrive/Desktop","no","Andale Mono","no","18","no","white","no","yes","576","legacy","16","16","3","C:/Users/myste/OneDrive/Desktop/subject-5221597.csv","legacy","Lentiform Loewenfeld","3.3.7","yes","yes","600bd7cfb6416f0113b04181","602110864497cf011d9c0822","0","j","NA","return","return","return","NA","j","513","NA","1721","18015","1607","NA","513","2","legacy","1024","2","48000","-16","task","5221597","odd","NA","37745","41470","39748","74387","6265","25891","24283","74890","NA","74382","74891","74207","41470","75405","36088","73707","6254","63238","Lexical Decision Task","18","18079","21","yes","1024"
"3.269668578","0","7","trag","non-word","86.36363636363636","86.36363636363636","849.8636363636364","849.8636363636364","black","no","legacy","legacy","legacy","0","uniform","1","undefined","undefined","undefined","1","f","0","0","0","0","21","0","0","0","21","NA","17","21","17","0","17","3","21","0","21","Fri Feb 19 11:54:52 2021","The main experiment item","yes","Lexical_Decision_Task.osexp","C:/Users/myste/OneDrive/Desktop","no","Andale Mono","no","18","no","white","no","yes","576","legacy","17","17","3","C:/Users/myste/OneDrive/Desktop/subject-5221597.csv","legacy","Lentiform Loewenfeld","3.3.7","yes","yes","600bd7cfb6416f0113b04181","602110864497cf011d9c0822","0","f","NA","return","return","return","NA","f","618","NA","1721","18015","1607","NA","618","2","legacy","1024","2","48000","-16","task","5221597","odd","NA","37745","41470","39748","76129","6265","25891","24283","76633","NA","76126","76633","75937","41470","77252","36088","75437","6254","63238","Lexical Decision Task","19","18697","22","yes","1024"
"2.990042563","6.64","9","plow","word","82.6086956521739","82.6086956521739","837.304347826087","837.304347826087","black","no","legacy","legacy","legacy","0","uniform","0","undefined","undefined","undefined","0","j","0","0","0","0","22","0","0","0","22","NA","18","22","18","0","18","3","22","0","22","Fri Feb 19 11:54:52 2021","The main experiment item","yes","Lexical_Decision_Task.osexp","C:/Users/myste/OneDrive/Desktop","no","Andale Mono","no","18","no","white","no","yes","576","legacy","18","18","3","C:/Users/myste/OneDrive/Desktop/subject-5221597.csv","legacy","Lentiform Loewenfeld","3.3.7","yes","yes","600bd7cfb6416f0113b04181","602110864497cf011d9c0822","0","f","NA","return","return","return","NA","f","561","NA","1721","18015","1607","NA","561","2","legacy","1024","2","48000","-16","task","5221597","odd","NA","37745","41470","39748","77954","6265","25891","24283","78458","NA","77951","78458","77825","41470","79020","36088","77325","6254","63238","Lexical Decision Task","19","19258","23","yes","1024"
"3.195807436","0","6","stup","non-word","83.33333333333333","83.33333333333333","838.9166666666666","838.9166666666666","black","no","legacy","legacy","legacy","0","uniform","1","undefined","undefined","undefined","1","f","0","0","0","0","23","0","0","0","23","NA","19","23","19","0","19","3","23","0","23","Fri Feb 19 11:54:52 2021","The main experiment item","yes","Lexical_Decision_Task.osexp","C:/Users/myste/OneDrive/Desktop","no","Andale Mono","no","18","no","white","no","yes","576","legacy","19","19","3","C:/Users/myste/OneDrive/Desktop/subject-5221597.csv","legacy","Lentiform Loewenfeld","3.3.7","yes","yes","600bd7cfb6416f0113b04181","602110864497cf011d9c0822","0","f","NA","return","return","return","NA","f","876","NA","1721","18015","1607","NA","876","2","legacy","1024","2","48000","-16","task","5221597","odd","NA","37745","41470","39748","80804","6265","25891","24283","81308","NA","80799","81308","80596","41470","82185","36088","77325","6254","79096","Lexical Decision Task","20","20134","24","yes","1024"
"2.86332286","6.71","2","feud","word","80","80","828.96","828.96","black","no","legacy","legacy","legacy","0","uniform","0","undefined","undefined","undefined","0","j","0","0","0","0","24","0","0","0","24","NA","20","24","20","0","20","3","24","0","24","Fri Feb 19 11:54:52 2021","The main experiment item","yes","Lexical_Decision_Task.osexp","C:/Users/myste/OneDrive/Desktop","no","Andale Mono","no","18","no","white","no","yes","576","legacy","20","20","3","C:/Users/myste/OneDrive/Desktop/subject-5221597.csv","legacy","Lentiform Loewenfeld","3.3.7","yes","yes","600bd7cfb6416f0113b04181","602110864497cf011d9c0822","0","f","NA","return","return","return","NA","f","590","NA","1721","18015","1607","NA","590","2","legacy","1024","2","48000","-16","task","5221597","odd","NA","37745","41470","39748","82882","6265","25891","24283","83385","NA","82879","83385","82730","41470","83978","36088","82230","6254","79096","Lexical Decision Task","20","20724","25","yes","1024"
"2.892836167","10.01","5","soft","word","80.76923076923077","80.76923076923077","819.6153846153846","819.6153846153846","black","no","legacy","legacy","legacy","0","uniform","1","undefined","undefined","undefined","1","j","0","0","0","0","25","0","0","0","25","NA","21","25","21","0","21","3","25","0","25","Fri Feb 19 11:54:52 2021","The main experiment item","yes","Lexical_Decision_Task.osexp","C:/Users/myste/OneDrive/Desktop","no","Andale Mono","no","18","no","white","no","yes","576","legacy","21","21","3","C:/Users/myste/OneDrive/Desktop/subject-5221597.csv","legacy","Lentiform Loewenfeld","3.3.7","yes","yes","600bd7cfb6416f0113b04181","602110864497cf011d9c0822","0","j","NA","return","return","return","NA","j","586","NA","1721","18015","1607","NA","586","2","legacy","1024","2","48000","-16","task","5221597","odd","NA","37745","41470","39748","85719","6265","25891","24283","86223","NA","85716","86223","85556","41470","86812","36088","82230","6254","84056","Lexical Decision Task","21","21310","26","yes","1024"
"2.893578687","8.69","3","surf","word","81.48148148148148","81.48148148148148","813.2592592592592","813.2592592592592","black","no","legacy","legacy","legacy","0","uniform","1","undefined","undefined","undefined","1","j","0","0","0","0","26","0","0","0","26","NA","22","26","22","0","22","3","26","0","26","Fri Feb 19 11:54:52 2021","The main experiment item","yes","Lexical_Decision_Task.osexp","C:/Users/myste/OneDrive/Desktop","no","Andale Mono","no","18","no","white","no","yes","576","legacy","22","22","3","C:/Users/myste/OneDrive/Desktop/subject-5221597.csv","legacy","Lentiform Loewenfeld","3.3.7","yes","yes","600bd7cfb6416f0113b04181","602110864497cf011d9c0822","0","j","NA","return","return","return","NA","j","648","NA","1721","18015","1607","NA","648","2","legacy","1024","2","48000","-16","task","5221597","odd","NA","37745","41470","39748","87514","6265","25891","24283","88016","NA","87513","88016","87379","41470","88667","36088","86879","6254","84056","Lexical Decision Task","22","21958","27","yes","1024"
"3.168400243","9.12","6","horn","word","82.14285714285714","82.14285714285714","803.7142857142857","803.7142857142857","black","no","legacy","legacy","legacy","0","uniform","1","undefined","undefined","undefined","1","j","0","0","0","0","27","0","0","0","27","NA","23","27","23","0","23","3","27","0","27","Fri Feb 19 11:54:52 2021","The main experiment item","yes","Lexical_Decision_Task.osexp","C:/Users/myste/OneDrive/Desktop","no","Andale Mono","no","18","no","white","no","yes","576","legacy","23","23","3","C:/Users/myste/OneDrive/Desktop/subject-5221597.csv","legacy","Lentiform Loewenfeld","3.3.7","yes","yes","600bd7cfb6416f0113b04181","602110864497cf011d9c0822","0","j","NA","return","return","return","NA","j","546","NA","1721","18015","1607","NA","546","2","legacy","1024","2","48000","-16","task","5221597","odd","NA","37745","41470","39748","89415","6265","25891","24283","89918","NA","89410","89919","89236","41470","90466","36088","88736","6254","84056","Lexical Decision Task","23","22504","28","yes","1024"
"3.378276681","6.39","8","bran","word","79.3103448275862","79.3103448275862","799.0344827586207","799.0344827586207","black","no","legacy","legacy","legacy","0","uniform","0","undefined","undefined","undefined","0","j","0","0","0","0","28","0","0","0","28","NA","24","28","24","0","24","3","28","0","28","Fri Feb 19 11:54:52 2021","The main experiment item","yes","Lexical_Decision_Task.osexp","C:/Users/myste/OneDrive/Desktop","no","Andale Mono","no","18","no","white","no","yes","576","legacy","24","24","3","C:/Users/myste/OneDrive/Desktop/subject-5221597.csv","legacy","Lentiform Loewenfeld","3.3.7","yes","yes","600bd7cfb6416f0113b04181","602110864497cf011d9c0822","0","f","NA","return","return","return","NA","f","668","NA","1721","18015","1607","NA","668","2","legacy","1024","2","48000","-16","task","5221597","odd","NA","37745","41470","39748","91138","6265","25891","24283","91641","NA","91135","91641","90998","41470","92311","36088","90498","6254","84056","Lexical Decision Task","23","23172","29","yes","1024"
"3.082307743","9.68","8","camp","word","80","80","794.6333333333333","794.6333333333333","black","no","legacy","legacy","legacy","0","uniform","1","undefined","undefined","undefined","1","j","0","0","0","0","29","0","0","0","29","NA","25","29","25","0","25","3","29","0","29","Fri Feb 19 11:54:52 2021","The main experiment item","yes","Lexical_Decision_Task.osexp","C:/Users/myste/OneDrive/Desktop","no","Andale Mono","no","18","no","white","no","yes","576","legacy","25","25","3","C:/Users/myste/OneDrive/Desktop/subject-5221597.csv","legacy","Lentiform Loewenfeld","3.3.7","yes","yes","600bd7cfb6416f0113b04181","602110864497cf011d9c0822","0","j","NA","return","return","return","NA","j","667","NA","1721","18015","1607","NA","667","2","legacy","1024","2","48000","-16","task","5221597","odd","NA","37745","41470","39748","94060","6265","25891","24283","94563","NA","94056","94563","93882","41470","95232","36088","90498","6254","92382","Lexical Decision Task","24","23839","30","yes","1024"
"2.714888338","0","3","brug","non-word","77.41935483870968","77.41935483870968","799.0967741935484","799.0967741935484","black","no","legacy","legacy","legacy","0","uniform","0","undefined","undefined","undefined","0","f","0","0","0","0","30","0","0","0","30","NA","26","30","26","0","26","3","30","0","30","Fri Feb 19 11:54:52 2021","The main experiment item","yes","Lexical_Decision_Task.osexp","C:/Users/myste/OneDrive/Desktop","no","Andale Mono","no","18","no","white","no","yes","576","legacy","26","26","3","C:/Users/myste/OneDrive/Desktop/subject-5221597.csv","legacy","Lentiform Loewenfeld","3.3.7","yes","yes","600bd7cfb6416f0113b04181","602110864497cf011d9c0822","0","j","NA","return","return","return","NA","j","933","NA","1721","18015","1607","NA","933","2","legacy","1024","2","48000","-16","task","5221597","odd","NA","37745","41470","39748","95907","6265","25891","24283","96410","NA","95905","96411","95803","41470","97347","36088","95303","6254","92382","Lexical Decision Task","24","24772","31","yes","1024"
"3.492014979","0","9","yine","non-word","78.125","78.125","799.21875","799.21875","black","no","legacy","legacy","legacy","0","uniform","1","undefined","undefined","undefined","1","f","0","0","0","0","31","0","0","0","31","NA","27","31","27","0","27","3","31","0","31","Fri Feb 19 11:54:52 2021","The main experiment item","yes","Lexical_Decision_Task.osexp","C:/Users/myste/OneDrive/Desktop","no","Andale Mono","no","18","no","white","no","yes","576","legacy","27","27","3","C:/Users/myste/OneDrive/Desktop/subject-5221597.csv","legacy","Lentiform Loewenfeld","3.3.7","yes","yes","600bd7cfb6416f0113b04181","602110864497cf011d9c0822","0","f","NA","return","return","return","NA","f","803","NA","1721","18015","1607","NA","803","2","legacy","1024","2","48000","-16","task","5221597","odd","NA","37745","41470","39748","99031","6265","25891","24283","99533","NA","99029","99534","98922","41470","100338","36088","95303","6254","97421","Lexical Decision Task","25","25575","32","yes","1024"
"2.6599162","0","2","saff","non-word","78.78787878787878","78.78787878787878","793.5757575757576","793.5757575757576","black","no","legacy","legacy","legacy","0","uniform","1","undefined","undefined","undefined","1","f","0","0","0","0","32","0","0","0","32","NA","28","32","28","0","28","3","32","0","32","Fri Feb 19 11:54:52 2021","The main experiment item","yes","Lexical_Decision_Task.osexp","C:/Users/myste/OneDrive/Desktop","no","Andale Mono","no","18","no","white","no","yes","576","legacy","28","28","3","C:/Users/myste/OneDrive/Desktop/subject-5221597.csv","legacy","Lentiform Loewenfeld","3.3.7","yes","yes","600bd7cfb6416f0113b04181","602110864497cf011d9c0822","0","f","NA","return","return","return","NA","f","613","NA","1721","18015","1607","NA","613","2","legacy","1024","2","48000","-16","task","5221597","odd","NA","37745","41470","39748","101088","6265","25891","24283","101590","NA","101085","101591","100913","41470","102205","36088","100413","6254","97421","Lexical Decision Task","26","26188","33","yes","1024"
"2.95456409","0","4","taud","non-word","79.41176470588235","79.41176470588235","784.7352941176471","784.7352941176471","black","no","legacy","legacy","legacy","0","uniform","1","undefined","undefined","undefined","1","f","0","0","0","0","33","0","0","0","33","NA","29","33","29","0","29","3","33","0","33","Fri Feb 19 11:54:52 2021","The main experiment item","yes","Lexical_Decision_Task.osexp","C:/Users/myste/OneDrive/Desktop","no","Andale Mono","no","18","no","white","no","yes","576","legacy","29","29","3","C:/Users/myste/OneDrive/Desktop/subject-5221597.csv","legacy","Lentiform Loewenfeld","3.3.7","yes","yes","600bd7cfb6416f0113b04181","602110864497cf011d9c0822","0","f","NA","return","return","return","NA","f","493","NA","1721","18015","1607","NA","493","2","legacy","1024","2","48000","-16","task","5221597","odd","NA","37745","41470","39748","102918","6265","25891","24283","103422","NA","102915","103422","102769","41470","103916","36088","102268","6254","97421","Lexical Decision Task","27","26681","34","yes","1024"
"3.397302518","7.01","2","knit","word","77.14285714285714","77.14285714285714","777.8571428571429","777.8571428571429","black","no","legacy","legacy","legacy","0","uniform","0","undefined","undefined","undefined","0","j","0","0","0","0","34","0","0","0","34","NA","30","34","30","0","30","3","34","0","34","Fri Feb 19 11:54:52 2021","The main experiment item","yes","Lexical_Decision_Task.osexp","C:/Users/myste/OneDrive/Desktop","no","Andale Mono","no","18","no","white","no","yes","576","legacy","30","30","3","C:/Users/myste/OneDrive/Desktop/subject-5221597.csv","legacy","Lentiform Loewenfeld","3.3.7","yes","yes","600bd7cfb6416f0113b04181","602110864497cf011d9c0822","0","f","NA","return","return","return","NA","f","544","NA","1721","18015","1607","NA","544","2","legacy","1024","2","48000","-16","task","5221597","odd","NA","37745","41470","39748","104602","6265","25891","24283","105106","NA","104600","105106","104449","41470","105652","36088","103949","6254","97421","Lexical Decision Task","27","27225","35","yes","1024"
"2.771097306","0","9","jold","non-word","77.77777777777777","77.77777777777777","779.6388888888889","779.6388888888889","black","no","legacy","legacy","legacy","0","uniform","1","undefined","undefined","undefined","1","f","0","0","0","0","35","0","0","0","35","NA","31","35","31","0","31","3","35","0","35","Fri Feb 19 11:54:52 2021","The main experiment item","yes","Lexical_Decision_Task.osexp","C:/Users/myste/OneDrive/Desktop","no","Andale Mono","no","18","no","white","no","yes","576","legacy","31","31","3","C:/Users/myste/OneDrive/Desktop/subject-5221597.csv","legacy","Lentiform Loewenfeld","3.3.7","yes","yes","600bd7cfb6416f0113b04181","602110864497cf011d9c0822","0","f","NA","return","return","return","NA","f","842","NA","1721","18015","1607","NA","842","2","legacy","1024","2","48000","-16","task","5221597","odd","NA","37745","41470","39748","107400","6265","25891","24283","107903","NA","107393","107904","107222","41470","108748","36088","103949","6254","105722","Lexical Decision Task","28","28067","36","yes","1024"
"3.039414119","0","9","meep","non-word","78.37837837837837","78.37837837837837","782.5675675675676","782.5675675675676","black","no","legacy","legacy","legacy","0","uniform","1","undefined","undefined","undefined","1","f","0","0","0","0","36","0","0","0","36","NA","32","36","32","0","32","3","36","0","36","Fri Feb 19 11:54:52 2021","The main experiment item","yes","Lexical_Decision_Task.osexp","C:/Users/myste/OneDrive/Desktop","no","Andale Mono","no","18","no","white","no","yes","576","legacy","32","32","3","C:/Users/myste/OneDrive/Desktop/subject-5221597.csv","legacy","Lentiform Loewenfeld","3.3.7","yes","yes","600bd7cfb6416f0113b04181","602110864497cf011d9c0822","0","f","NA","return","return","return","NA","f","888","NA","1721","18015","1607","NA","888","2","legacy","1024","2","48000","-16","task","5221597","odd","NA","37745","41470","39748","109485","6265","25891","24283","109988","NA","109481","109988","109314","41470","110877","36088","108814","6254","105722","Lexical Decision Task","29","28955","37","yes","1024"
"2.80048796","0","8","pife","non-word","78.94736842105263","78.94736842105263","779.1052631578947","779.1052631578947","black","no","legacy","legacy","legacy","0","uniform","1","undefined","undefined","undefined","1","f","0","0","0","0","37","0","0","0","37","NA","33","37","33","0","33","3","37","0","37","Fri Feb 19 11:54:52 2021","The main experiment item","yes","Lexical_Decision_Task.osexp","C:/Users/myste/OneDrive/Desktop","no","Andale Mono","no","18","no","white","no","yes","576","legacy","33","33","3","C:/Users/myste/OneDrive/Desktop/subject-5221597.csv","legacy","Lentiform Loewenfeld","3.3.7","yes","yes","600bd7cfb6416f0113b04181","602110864497cf011d9c0822","0","f","NA","return","return","return","NA","f","651","NA","1721","18015","1607","NA","651","2","legacy","1024","2","48000","-16","task","5221597","odd","NA","37745","41470","39748","111592","6265","25891","24283","112095","NA","111590","112096","111454","41470","112748","36088","110954","6254","105722","Lexical Decision Task","30","29606","38","yes","1024"
"2.698100546","0","9","mulk","non-word","79.48717948717949","79.48717948717949","779.2820512820513","779.2820512820513","black","no","legacy","legacy","legacy","0","uniform","1","undefined","undefined","undefined","1","f","0","0","0","0","38","0","0","0","38","NA","34","38","34","0","34","3","38","0","38","Fri Feb 19 11:54:52 2021","The main experiment item","yes","Lexical_Decision_Task.osexp","C:/Users/myste/OneDrive/Desktop","no","Andale Mono","no","18","no","white","no","yes","576","legacy","34","34","3","C:/Users/myste/OneDrive/Desktop/subject-5221597.csv","legacy","Lentiform Loewenfeld","3.3.7","yes","yes","600bd7cfb6416f0113b04181","602110864497cf011d9c0822","0","f","NA","return","return","return","NA","f","786","NA","1721","18015","1607","NA","786","2","legacy","1024","2","48000","-16","task","5221597","odd","NA","37745","41470","39748","113494","6265","25891","24283","113997","NA","113491","113997","113327","41470","114784","36088","112827","6254","105722","Lexical Decision Task","31","30392","39","yes","1024"
"2.767650507","0","6","yolt","non-word","80","80","778.5","778.5","black","no","legacy","legacy","legacy","0","uniform","1","undefined","undefined","undefined","1","f","0","0","0","0","39","0","0","0","39","NA","35","39","35","0","35","3","39","0","39","Fri Feb 19 11:54:52 2021","The main experiment item","yes","Lexical_Decision_Task.osexp","C:/Users/myste/OneDrive/Desktop","no","Andale Mono","no","18","no","white","no","yes","576","legacy","35","35","3","C:/Users/myste/OneDrive/Desktop/subject-5221597.csv","legacy","Lentiform Loewenfeld","3.3.7","yes","yes","600bd7cfb6416f0113b04181","602110864497cf011d9c0822","0","f","NA","return","return","return","NA","f","748","NA","1721","18015","1607","NA","748","2","legacy","1024","2","48000","-16","task","5221597","odd","NA","37745","41470","39748","115508","6265","25891","24283","116012","NA","115504","116012","115342","41470","116761","36088","114842","6254","105722","Lexical Decision Task","32","31140","40","yes","1024"
"3.1430148","7.92","8","bald","word","80.48780487804878","80.48780487804878","775.219512195122","775.219512195122","black","no","legacy","legacy","legacy","0","uniform","1","undefined","undefined","undefined","1","j","0","0","0","0","40","0","0","0","40","NA","36","40","36","0","36","3","40","0","40","Fri Feb 19 11:54:52 2021","The main experiment item","yes","Lexical_Decision_Task.osexp","C:/Users/myste/OneDrive/Desktop","no","Andale Mono","no","18","no","white","no","yes","576","legacy","36","36","3","C:/Users/myste/OneDrive/Desktop/subject-5221597.csv","legacy","Lentiform Loewenfeld","3.3.7","yes","yes","600bd7cfb6416f0113b04181","602110864497cf011d9c0822","0","j","NA","return","return","return","NA","j","644","NA","1721","18015","1607","NA","644","2","legacy","1024","2","48000","-16","task","5221597","odd","NA","37745","41470","39748","117505","6265","25891","24283","118009","NA","117501","118009","117340","41470","118655","36088","116840","6254","105722","Lexical Decision Task","33","31784","41","yes","1024"
"3.363486562","6.93","9","lush","word","80.95238095238095","80.95238095238095","771.5238095238095","771.5238095238095","black","no","legacy","legacy","legacy","0","uniform","1","undefined","undefined","undefined","1","j","0","0","0","0","41","0","0","0","41","NA","37","41","37","0","37","3","41","0","41","Fri Feb 19 11:54:52 2021","The main experiment item","yes","Lexical_Decision_Task.osexp","C:/Users/myste/OneDrive/Desktop","no","Andale Mono","no","18","no","white","no","yes","576","legacy","37","37","3","C:/Users/myste/OneDrive/Desktop/subject-5221597.csv","legacy","Lentiform Loewenfeld","3.3.7","yes","yes","600bd7cfb6416f0113b04181","602110864497cf011d9c0822","0","j","NA","return","return","return","NA","j","620","NA","1721","18015","1607","NA","620","2","legacy","1024","2","48000","-16","task","5221597","odd","NA","37745","41470","39748","119397","6265","25891","24283","119901","NA","119396","119901","119237","41470","120522","36088","118737","6254","105722","Lexical Decision Task","34","32404","42","yes","1024"
"3.165936429","0","7","leps","non-word","81.3953488372093","81.3953488372093","770.1860465116279","770.1860465116279","black","no","legacy","legacy","legacy","0","uniform","1","undefined","undefined","undefined","1","f","0","0","0","0","42","0","0","0","42","NA","38","42","38","0","38","3","42","0","42","Fri Feb 19 11:54:52 2021","The main experiment item","yes","Lexical_Decision_Task.osexp","C:/Users/myste/OneDrive/Desktop","no","Andale Mono","no","18","no","white","no","yes","576","legacy","38","38","3","C:/Users/myste/OneDrive/Desktop/subject-5221597.csv","legacy","Lentiform Loewenfeld","3.3.7","yes","yes","600bd7cfb6416f0113b04181","602110864497cf011d9c0822","0","f","NA","return","return","return","NA","f","714","NA","1721","18015","1607","NA","714","2","legacy","1024","2","48000","-16","task","5221597","odd","NA","37745","41470","39748","121244","6265","25891","24283","121747","NA","121242","121748","121095","41470","122465","36088","120594","6254","105722","Lexical Decision Task","35","33118","43","yes","1024"
"3.274157849","0","8","leet","non-word","81.81818181818181","81.81818181818181","767.7727272727273","767.7727272727273","black","no","legacy","legacy","legacy","0","uniform","1","undefined","undefined","undefined","1","f","0","0","0","0","43","0","0","0","43","NA","39","43","39","0","39","3","43","0","43","Fri Feb 19 11:54:52 2021","The main experiment item","yes","Lexical_Decision_Task.osexp","C:/Users/myste/OneDrive/Desktop","no","Andale Mono","no","18","no","white","no","yes","576","legacy","39","39","3","C:/Users/myste/OneDrive/Desktop/subject-5221597.csv","legacy","Lentiform Loewenfeld","3.3.7","yes","yes","600bd7cfb6416f0113b04181","602110864497cf011d9c0822","0","f","NA","return","return","return","NA","f","664","NA","1721","18015","1607","NA","664","2","legacy","1024","2","48000","-16","task","5221597","odd","NA","37745","41470","39748","123185","6265","25891","24283","123687","NA","123183","123687","123040","41470","124352","36088","122540","6254","105722","Lexical Decision Task","36","33782","44","yes","1024"
"3.168890155","0","6","thet","non-word","82.22222222222223","82.22222222222223","765.1111111111111","765.1111111111111","black","no","legacy","legacy","legacy","0","uniform","1","undefined","undefined","undefined","1","f","0","0","0","0","44","0","0","0","44","NA","40","44","40","0","40","3","44","0","44","Fri Feb 19 11:54:52 2021","The main experiment item","yes","Lexical_Decision_Task.osexp","C:/Users/myste/OneDrive/Desktop","no","Andale Mono","no","18","no","white","no","yes","576","legacy","40","40","3","C:/Users/myste/OneDrive/Desktop/subject-5221597.csv","legacy","Lentiform Loewenfeld","3.3.7","yes","yes","600bd7cfb6416f0113b04181","602110864497cf011d9c0822","0","f","NA","return","return","return","NA","f","648","NA","1721","18015","1607","NA","648","2","legacy","1024","2","48000","-16","task","5221597","odd","NA","37745","41470","39748","125018","6265","25891","24283","125521","NA","125015","125521","124872","41470","126170","36088","124372","6254","105722","Lexical Decision Task","37","34430","45","yes","1024"
"2.64476673","0","5","moft","non-word","82.6086956521739","82.6086956521739","761.4130434782609","761.4130434782609","black","no","legacy","legacy","legacy","0","uniform","1","undefined","undefined","undefined","1","f","0","0","0","0","45","0","0","0","45","NA","41","45","41","0","41","3","45","0","45","Fri Feb 19 11:54:52 2021","The main experiment item","yes","Lexical_Decision_Task.osexp","C:/Users/myste/OneDrive/Desktop","no","Andale Mono","no","18","no","white","no","yes","576","legacy","41","41","3","C:/Users/myste/OneDrive/Desktop/subject-5221597.csv","legacy","Lentiform Loewenfeld","3.3.7","yes","yes","600bd7cfb6416f0113b04181","602110864497cf011d9c0822","0","f","NA","return","return","return","NA","f","595","NA","1721","18015","1607","NA","595","2","legacy","1024","2","48000","-16","task","5221597","odd","NA","37745","41470","39748","126911","6265","25891","24283","127415","NA","126909","127415","126750","41470","128013","36088","126250","6254","105722","Lexical Decision Task","38","35025","46","yes","1024"
"2.67699827","0","6","hulf","non-word","82.97872340425532","82.97872340425532","755.1489361702128","755.1489361702128","black","no","legacy","legacy","legacy","0","uniform","1","undefined","undefined","undefined","1","f","0","0","0","0","46","0","0","0","46","NA","42","46","42","0","42","3","46","0","46","Fri Feb 19 11:54:52 2021","The main experiment item","yes","Lexical_Decision_Task.osexp","C:/Users/myste/OneDrive/Desktop","no","Andale Mono","no","18","no","white","no","yes","576","legacy","42","42","3","C:/Users/myste/OneDrive/Desktop/subject-5221597.csv","legacy","Lentiform Loewenfeld","3.3.7","yes","yes","600bd7cfb6416f0113b04181","602110864497cf011d9c0822","0","f","NA","return","return","return","NA","f","467","NA","1721","18015","1607","NA","467","2","legacy","1024","2","48000","-16","task","5221597","odd","NA","37745","41470","39748","128750","6265","25891","24283","129253","NA","128748","129253","128585","41470","129722","36088","128085","6254","105722","Lexical Decision Task","39","35492","47","yes","1024"
"3.064581521","5.51","6","cask","word","81.25","81.25","749.5416666666666","749.5416666666666","black","no","legacy","legacy","legacy","0","uniform","0","undefined","undefined","undefined","0","j","0","0","0","0","47","0","0","0","47","NA","43","47","43","0","43","3","47","0","47","Fri Feb 19 11:54:52 2021","The main experiment item","yes","Lexical_Decision_Task.osexp","C:/Users/myste/OneDrive/Desktop","no","Andale Mono","no","18","no","white","no","yes","576","legacy","43","43","3","C:/Users/myste/OneDrive/Desktop/subject-5221597.csv","legacy","Lentiform Loewenfeld","3.3.7","yes","yes","600bd7cfb6416f0113b04181","602110864497cf011d9c0822","0","f","NA","return","return","return","NA","f","486","NA","1721","18015","1607","NA","486","2","legacy","1024","2","48000","-16","task","5221597","odd","NA","37745","41470","39748","130467","6265","25891","24283","130970","NA","130465","130970","130295","41470","131457","36088","129795","6254","105722","Lexical Decision Task","39","35978","48","yes","1024"
"3.209246849","0","7","slem","non-word","81.63265306122449","81.63265306122449","749.2448979591836","749.2448979591836","black","no","legacy","legacy","legacy","0","uniform","1","undefined","undefined","undefined","1","f","0","0","0","0","48","0","0","0","48","NA","44","48","44","0","44","3","48","0","48","Fri Feb 19 11:54:52 2021","The main experiment item","yes","Lexical_Decision_Task.osexp","C:/Users/myste/OneDrive/Desktop","no","Andale Mono","no","18","no","white","no","yes","576","legacy","44","44","3","C:/Users/myste/OneDrive/Desktop/subject-5221597.csv","legacy","Lentiform Loewenfeld","3.3.7","yes","yes","600bd7cfb6416f0113b04181","602110864497cf011d9c0822","0","f","NA","return","return","return","NA","f","735","NA","1721","18015","1607","NA","735","2","legacy","1024","2","48000","-16","task","5221597","odd","NA","37745","41470","39748","133213","6265","25891","24283","133717","NA","133210","133717","133031","41470","134453","36088","129795","6254","131531","Lexical Decision Task","40","36713","49","yes","1024"
"2.664328519","0","4","plux","non-word","82","82","743.7","743.7","black","no","legacy","legacy","legacy","0","uniform","1","undefined","undefined","undefined","1","f","0","0","0","0","49","0","0","0","49","NA","45","49","45","0","45","3","49","0","49","Fri Feb 19 11:54:52 2021","The main experiment item","yes","Lexical_Decision_Task.osexp","C:/Users/myste/OneDrive/Desktop","no","Andale Mono","no","18","no","white","no","yes","576","legacy","45","45","3","C:/Users/myste/OneDrive/Desktop/subject-5221597.csv","legacy","Lentiform Loewenfeld","3.3.7","yes","yes","600bd7cfb6416f0113b04181","602110864497cf011d9c0822","0","f","NA","return","return","return","NA","f","472","NA","1721","18015","1607","NA","472","2","legacy","1024","2","48000","-16","task","5221597","odd","NA","37745","41470","39748","135190","6265","25891","24283","135694","NA","135189","135694","135029","41470","136168","36088","134529","6254","131531","Lexical Decision Task","41","37185","50","yes","1024"
"3.248054965","7.86","5","glow","word","82.3529411764706","82.3529411764706","747.3529411764706","747.3529411764706","black","no","legacy","legacy","legacy","0","uniform","1","undefined","undefined","undefined","1","j","0","0","0","0","50","0","0","0","50","NA","46","50","46","0","46","3","50","0","50","Fri Feb 19 11:54:52 2021","The main experiment item","yes","Lexical_Decision_Task.osexp","C:/Users/myste/OneDrive/Desktop","no","Andale Mono","no","18","no","white","no","yes","576","legacy","46","46","3","C:/Users/myste/OneDrive/Desktop/subject-5221597.csv","legacy","Lentiform Loewenfeld","3.3.7","yes","yes","600bd7cfb6416f0113b04181","602110864497cf011d9c0822","0","j","NA","return","return","return","NA","j","930","NA","1721","18015","1607","NA","930","2","legacy","1024","2","48000","-16","task","5221597","odd","NA","37745","41470","39748","136924","6265","25891","24283","137427","NA","136920","137428","136745","41470","138359","36088","136245","6254","131531","Lexical Decision Task","42","38115","51","yes","1024"
"3.031408464","0","7","drow","non-word","82.6923076923077","82.6923076923077","745.6346153846154","745.6346153846154","black","no","legacy","legacy","legacy","0","uniform","1","undefined","undefined","undefined","1","f","0","0","0","0","51","0","0","0","51","NA","47","51","47","0","47","3","51","0","51","Fri Feb 19 11:54:52 2021","The main experiment item","yes","Lexical_Decision_Task.osexp","C:/Users/myste/OneDrive/Desktop","no","Andale Mono","no","18","no","white","no","yes","576","legacy","47","47","3","C:/Users/myste/OneDrive/Desktop/subject-5221597.csv","legacy","Lentiform Loewenfeld","3.3.7","yes","yes","600bd7cfb6416f0113b04181","602110864497cf011d9c0822","0","f","NA","return","return","return","NA","f","658","NA","1721","18015","1607","NA","658","2","legacy","1024","2","48000","-16","task","5221597","odd","NA","37745","41470","39748","139038","6265","25891","24283","139541","NA","139035","139541","138913","41470","140200","36088","138413","6254","131531","Lexical Decision Task","43","38773","52","yes","1024"
"3.145920145","8.51","8","flew","word","81.13207547169812","81.13207547169812","743.0943396226415","743.0943396226415","black","no","legacy","legacy","legacy","0","uniform","0","undefined","undefined","undefined","0","j","0","0","0","0","52","0","0","0","52","NA","48","52","48","0","48","3","52","0","52","Fri Feb 19 11:54:52 2021","The main experiment item","yes","Lexical_Decision_Task.osexp","C:/Users/myste/OneDrive/Desktop","no","Andale Mono","no","18","no","white","no","yes","576","legacy","48","48","3","C:/Users/myste/OneDrive/Desktop/subject-5221597.csv","legacy","Lentiform Loewenfeld","3.3.7","yes","yes","600bd7cfb6416f0113b04181","602110864497cf011d9c0822","0","f","NA","return","return","return","NA","f","611","NA","1721","18015","1607","NA","611","2","legacy","1024","2","48000","-16","task","5221597","odd","NA","37745","41470","39748","140945","6265","25891","24283","141449","NA","140941","141449","140771","41470","142061","36088","140271","6254","131531","Lexical Decision Task","43","39384","53","yes","1024"
"3.20996159","0","4","clee","non-word","81.48148148148148","81.48148148148148","739.0925925925926","739.0925925925926","black","no","legacy","legacy","legacy","0","uniform","1","undefined","undefined","undefined","1","f","0","0","0","0","53","0","0","0","53","NA","49","53","49","0","49","3","53","0","53","Fri Feb 19 11:54:52 2021","The main experiment item","yes","Lexical_Decision_Task.osexp","C:/Users/myste/OneDrive/Desktop","no","Andale Mono","no","18","no","white","no","yes","576","legacy","49","49","3","C:/Users/myste/OneDrive/Desktop/subject-5221597.csv","legacy","Lentiform Loewenfeld","3.3.7","yes","yes","600bd7cfb6416f0113b04181","602110864497cf011d9c0822","0","f","NA","return","return","return","NA","f","527","NA","1721","18015","1607","NA","527","2","legacy","1024","2","48000","-16","task","5221597","odd","NA","37745","41470","39748","143787","6265","25891","24283","144290","NA","143784","144290","143601","41470","144818","36088","140271","6254","142101","Lexical Decision Task","44","39911","54","yes","1024"
"3.133964479","0","8","graw","non-word","81.81818181818181","81.81818181818181","748.5272727272727","748.5272727272727","black","no","legacy","legacy","legacy","0","uniform","1","undefined","undefined","undefined","1","f","0","0","0","0","54","0","0","0","54","0","50","54","50","0","50","3","54","0","54","Fri Feb 19 11:54:52 2021","The main experiment item","yes","Lexical_Decision_Task.osexp","C:/Users/myste/OneDrive/Desktop","no","Andale Mono","no","18","no","white","no","yes","576","legacy","50","50","3","C:/Users/myste/OneDrive/Desktop/subject-5221597.csv","legacy","Lentiform Loewenfeld","3.3.7","yes","yes","600bd7cfb6416f0113b04181","602110864497cf011d9c0822","0","f","NA","return","return","return","return","f","1258","NA","1721","18015","1607","21716","1258","2","legacy","1024","2","48000","-16","task","5221597","odd","NA","37745","41470","39748","167266","6265","25891","24283","167769","145476","167265","167769","145348","41470","169028","36088","144847","6254","142101","Lexical Decision Task","45","41169","55","yes","1024"
"3.067070856","9.39","3","loud","word","82.14285714285714","82.14285714285714","744.5","744.5","black","no","legacy","legacy","legacy","0","uniform","1","undefined","undefined","undefined","1","j","0","0","0","0","55","0","0","0","55","0","51","55","51","0","51","3","55","0","55","Fri Feb 19 11:54:52 2021","The main experiment item","yes","Lexical_Decision_Task.osexp","C:/Users/myste/OneDrive/Desktop","no","Andale Mono","no","18","no","white","no","yes","576","legacy","51","51","3","C:/Users/myste/OneDrive/Desktop/subject-5221597.csv","legacy","Lentiform Loewenfeld","3.3.7","yes","yes","600bd7cfb6416f0113b04181","602110864497cf011d9c0822","0","j","NA","return","return","return","return","j","523","NA","1721","18015","1607","21716","523","2","legacy","1024","2","48000","-16","task","5221597","odd","NA","37745","41470","39748","169792","6265","25891","24283","170296","145476","169787","170296","169608","41470","170822","36088","169107","6254","142101","Lexical Decision Task","46","41692","56","yes","1024"
"3.274543461","7.46","7","scar","word","82.45614035087719","82.45614035087719","740.6666666666666","740.6666666666666","black","no","legacy","legacy","legacy","0","uniform","1","undefined","undefined","undefined","1","j","0","0","0","0","56","0","0","0","56","0","52","56","52","0","52","3","56","0","56","Fri Feb 19 11:54:52 2021","The main experiment item","yes","Lexical_Decision_Task.osexp","C:/Users/myste/OneDrive/Desktop","no","Andale Mono","no","18","no","white","no","yes","576","legacy","52","52","3","C:/Users/myste/OneDrive/Desktop/subject-5221597.csv","legacy","Lentiform Loewenfeld","3.3.7","yes","yes","600bd7cfb6416f0113b04181","602110864497cf011d9c0822","0","j","NA","return","return","return","return","j","526","NA","1721","18015","1607","21716","526","2","legacy","1024","2","48000","-16","task","5221597","odd","NA","37745","41470","39748","171512","6265","25891","24283","172016","145476","171510","172016","171347","41470","172543","36088","170847","6254","142101","Lexical Decision Task","47","42218","57","yes","1024"
"3.431095062","5.74","9","perk","word","81.03448275862068","81.03448275862068","737.2241379310345","737.2241379310345","black","no","legacy","legacy","legacy","0","uniform","0","undefined","undefined","undefined","0","j","0","0","0","0","57","0","0","0","57","0","53","57","53","0","53","3","57","0","57","Fri Feb 19 11:54:52 2021","The main experiment item","yes","Lexical_Decision_Task.osexp","C:/Users/myste/OneDrive/Desktop","no","Andale Mono","no","18","no","white","no","yes","576","legacy","53","53","3","C:/Users/myste/OneDrive/Desktop/subject-5221597.csv","legacy","Lentiform Loewenfeld","3.3.7","yes","yes","600bd7cfb6416f0113b04181","602110864497cf011d9c0822","0","f","NA","return","return","return","return","f","541","NA","1721","18015","1607","21716","541","2","legacy","1024","2","48000","-16","task","5221597","odd","NA","37745","41470","39748","173251","6265","25891","24283","173754","145476","173249","173754","173121","41470","174296","36088","172620","6254","142101","Lexical Decision Task","47","42759","58","yes","1024"
"3.705778213","0","6","stin","non-word","81.35593220338983","81.35593220338983","734.7796610169491","734.7796610169491","black","no","legacy","legacy","legacy","0","uniform","1","undefined","undefined","undefined","1","f","0","0","0","0","58","0","0","0","58","0","54","58","54","0","54","3","58","0","58","Fri Feb 19 11:54:52 2021","The main experiment item","yes","Lexical_Decision_Task.osexp","C:/Users/myste/OneDrive/Desktop","no","Andale Mono","no","18","no","white","no","yes","576","legacy","54","54","3","C:/Users/myste/OneDrive/Desktop/subject-5221597.csv","legacy","Lentiform Loewenfeld","3.3.7","yes","yes","600bd7cfb6416f0113b04181","602110864497cf011d9c0822","0","f","NA","return","return","return","return","f","593","NA","1721","18015","1607","21716","593","2","legacy","1024","2","48000","-16","task","5221597","odd","NA","37745","41470","39748","176036","6265","25891","24283","176540","145476","176033","176540","175870","41470","177135","36088","172620","6254","174370","Lexical Decision Task","48","43352","59","yes","1024"
"2.696356389","0","1","pizz","non-word","81.66666666666667","81.66666666666667","733.6333333333333","733.6333333333333","black","no","legacy","legacy","legacy","0","uniform","1","undefined","undefined","undefined","1","f","0","0","0","0","59","0","0","0","59","0","55","59","55","0","55","3","59","0","59","Fri Feb 19 11:54:52 2021","The main experiment item","yes","Lexical_Decision_Task.osexp","C:/Users/myste/OneDrive/Desktop","no","Andale Mono","no","18","no","white","no","yes","576","legacy","55","55","3","C:/Users/myste/OneDrive/Desktop/subject-5221597.csv","legacy","Lentiform Loewenfeld","3.3.7","yes","yes","600bd7cfb6416f0113b04181","602110864497cf011d9c0822","0","f","NA","return","return","return","return","f","666","NA","1721","18015","1607","21716","666","2","legacy","1024","2","48000","-16","task","5221597","odd","NA","37745","41470","39748","177903","6265","25891","24283","178407","145476","177898","178407","177716","41470","179075","36088","177215","6254","174370","Lexical Decision Task","49","44018","60","yes","1024"
"3.368162872","0","4","ferk","non-word","81.9672131147541","81.9672131147541","730.983606557377","730.983606557377","black","no","legacy","legacy","legacy","0","uniform","1","undefined","undefined","undefined","1","f","0","0","0","0","60","0","0","0","60","0","56","60","56","0","56","3","60","0","60","Fri Feb 19 11:54:52 2021","The main experiment item","yes","Lexical_Decision_Task.osexp","C:/Users/myste/OneDrive/Desktop","no","Andale Mono","no","18","no","white","no","yes","576","legacy","56","56","3","C:/Users/myste/OneDrive/Desktop/subject-5221597.csv","legacy","Lentiform Loewenfeld","3.3.7","yes","yes","600bd7cfb6416f0113b04181","602110864497cf011d9c0822","0","f","NA","return","return","return","return","f","572","NA","1721","18015","1607","21716","572","2","legacy","1024","2","48000","-16","task","5221597","odd","NA","37745","41470","39748","179765","6265","25891","24283","180269","145476","179763","180269","179653","41470","180842","36088","179152","6254","174370","Lexical Decision Task","50","44590","61","yes","1024"
"2.821076612","0","4","lult","non-word","82.25806451612904","82.25806451612904","731.3870967741935","731.3870967741935","black","no","legacy","legacy","legacy","0","uniform","1","undefined","undefined","undefined","1","f","0","0","0","0","61","0","0","0","61","0","57","61","57","0","57","3","61","0","61","Fri Feb 19 11:54:52 2021","The main experiment item","yes","Lexical_Decision_Task.osexp","C:/Users/myste/OneDrive/Desktop","no","Andale Mono","no","18","no","white","no","yes","576","legacy","57","57","3","C:/Users/myste/OneDrive/Desktop/subject-5221597.csv","legacy","Lentiform Loewenfeld","3.3.7","yes","yes","600bd7cfb6416f0113b04181","602110864497cf011d9c0822","0","f","NA","return","return","return","return","f","756","NA","1721","18015","1607","21716","756","2","legacy","1024","2","48000","-16","task","5221597","odd","NA","37745","41470","39748","181568","6265","25891","24283","182070","145476","181564","182070","181415","41470","182827","36088","180914","6254","174370","Lexical Decision Task","51","45346","62","yes","1024"
"3.153104174","10.89","6","door","word","82.53968253968254","82.53968253968254","727","727","black","no","legacy","legacy","legacy","0","uniform","1","undefined","undefined","undefined","1","j","0","0","0","0","62","0","0","0","62","0","58","62","58","0","58","3","62","0","62","Fri Feb 19 11:54:52 2021","The main experiment item","yes","Lexical_Decision_Task.osexp","C:/Users/myste/OneDrive/Desktop","no","Andale Mono","no","18","no","white","no","yes","576","legacy","58","58","3","C:/Users/myste/OneDrive/Desktop/subject-5221597.csv","legacy","Lentiform Loewenfeld","3.3.7","yes","yes","600bd7cfb6416f0113b04181","602110864497cf011d9c0822","0","j","NA","return","return","return","return","j","455","NA","1721","18015","1607","21716","455","2","legacy","1024","2","48000","-16","task","5221597","odd","NA","37745","41470","39748","183561","6265","25891","24283","184064","145476","183557","184065","183411","41470","184522","36088","182910","6254","174370","Lexical Decision Task","52","45801","63","yes","1024"
"3.259832699","0","9","flar","non-word","81.25","81.25","722.21875","722.21875","black","no","legacy","legacy","legacy","0","uniform","0","undefined","undefined","undefined","0","f","0","0","0","0","63","0","0","0","63","0","59","63","59","0","59","3","63","0","63","Fri Feb 19 11:54:52 2021","The main experiment item","yes","Lexical_Decision_Task.osexp","C:/Users/myste/OneDrive/Desktop","no","Andale Mono","no","18","no","white","no","yes","576","legacy","59","59","3","C:/Users/myste/OneDrive/Desktop/subject-5221597.csv","legacy","Lentiform Loewenfeld","3.3.7","yes","yes","600bd7cfb6416f0113b04181","602110864497cf011d9c0822","0","j","NA","return","return","return","return","j","421","NA","1721","18015","1607","21716","421","2","legacy","1024","2","48000","-16","task","5221597","odd","NA","37745","41470","39748","185152","6265","25891","24283","185654","145476","185150","185655","185046","41470","186077","36088","184546","6254","174370","Lexical Decision Task","52","46222","64","yes","1024"
"3.081107167","0","6","chot","non-word","81.53846153846153","81.53846153846153","722.8615384615384","722.8615384615384","black","no","legacy","legacy","legacy","0","uniform","1","undefined","undefined","undefined","1","f","0","0","0","0","64","0","0","0","64","0","60","64","60","0","60","3","64","0","64","Fri Feb 19 11:54:52 2021","The main experiment item","yes","Lexical_Decision_Task.osexp","C:/Users/myste/OneDrive/Desktop","no","Andale Mono","no","18","no","white","no","yes","576","legacy","60","60","3","C:/Users/myste/OneDrive/Desktop/subject-5221597.csv","legacy","Lentiform Loewenfeld","3.3.7","yes","yes","600bd7cfb6416f0113b04181","602110864497cf011d9c0822","0","f","NA","return","return","return","return","f","764","NA","1721","18015","1607","21716","764","2","legacy","1024","2","48000","-16","task","5221597","odd","NA","37745","41470","39748","187777","6265","25891","24283","188281","145476","187773","188281","187626","41470","189046","36088","184546","6254","186126","Lexical Decision Task","53","46986","65","yes","1024"
"3.282244367","0","6","fute","non-word","81.81818181818181","81.81818181818181","721.3333333333334","721.3333333333334","black","no","legacy","legacy","legacy","0","uniform","1","undefined","undefined","undefined","1","f","0","0","0","0","65","0","0","0","65","0","61","65","61","0","61","3","65","0","65","Fri Feb 19 11:54:52 2021","The main experiment item","yes","Lexical_Decision_Task.osexp","C:/Users/myste/OneDrive/Desktop","no","Andale Mono","no","18","no","white","no","yes","576","legacy","61","61","3","C:/Users/myste/OneDrive/Desktop/subject-5221597.csv","legacy","Lentiform Loewenfeld","3.3.7","yes","yes","600bd7cfb6416f0113b04181","602110864497cf011d9c0822","0","f","NA","return","return","return","return","f","622","NA","1721","18015","1607","21716","622","2","legacy","1024","2","48000","-16","task","5221597","odd","NA","37745","41470","39748","189794","6265","25891","24283","190297","145476","189790","190297","189628","41470","190919","36088","189127","6254","186126","Lexical Decision Task","54","47608","66","yes","1024"
"3.15462682","0","6","noal","non-word","82.08955223880596","82.08955223880596","718.8358208955224","718.8358208955224","black","no","legacy","legacy","legacy","0","uniform","1","undefined","undefined","undefined","1","f","0","0","0","0","66","0","0","0","66","0","62","66","62","0","62","3","66","0","66","Fri Feb 19 11:54:52 2021","The main experiment item","yes","Lexical_Decision_Task.osexp","C:/Users/myste/OneDrive/Desktop","no","Andale Mono","no","18","no","white","no","yes","576","legacy","62","62","3","C:/Users/myste/OneDrive/Desktop/subject-5221597.csv","legacy","Lentiform Loewenfeld","3.3.7","yes","yes","600bd7cfb6416f0113b04181","602110864497cf011d9c0822","0","f","NA","return","return","return","return","f","554","NA","1721","18015","1607","21716","554","2","legacy","1024","2","48000","-16","task","5221597","odd","NA","37745","41470","39748","191642","6265","25891","24283","192145","145476","191637","192145","191479","41470","192701","36088","190979","6254","186126","Lexical Decision Task","55","48162","67","yes","1024"
"2.755364069","7.72","2","hoax","word","82.3529411764706","82.3529411764706","718.0147058823529","718.0147058823529","black","no","legacy","legacy","legacy","0","uniform","1","undefined","undefined","undefined","1","j","0","0","0","0","67","0","0","0","67","0","63","67","63","0","63","3","67","0","67","Fri Feb 19 11:54:52 2021","The main experiment item","yes","Lexical_Decision_Task.osexp","C:/Users/myste/OneDrive/Desktop","no","Andale Mono","no","18","no","white","no","yes","576","legacy","63","63","3","C:/Users/myste/OneDrive/Desktop/subject-5221597.csv","legacy","Lentiform Loewenfeld","3.3.7","yes","yes","600bd7cfb6416f0113b04181","602110864497cf011d9c0822","0","j","NA","return","return","return","return","j","663","NA","1721","18015","1607","21716","663","2","legacy","1024","2","48000","-16","task","5221597","odd","NA","37745","41470","39748","193393","6265","25891","24283","193896","145476","193391","193896","193236","41470","194561","36088","192736","6254","186126","Lexical Decision Task","56","48825","68","yes","1024"
"3.252447662","9.67","9","boat","word","82.6086956521739","82.6086956521739","716.1449275362319","716.1449275362319","black","no","legacy","legacy","legacy","0","uniform","1","undefined","undefined","undefined","1","j","0","0","0","0","68","0","0","0","68","0","64","68","64","0","64","3","68","0","68","Fri Feb 19 11:54:52 2021","The main experiment item","yes","Lexical_Decision_Task.osexp","C:/Users/myste/OneDrive/Desktop","no","Andale Mono","no","18","no","white","no","yes","576","legacy","64","64","3","C:/Users/myste/OneDrive/Desktop/subject-5221597.csv","legacy","Lentiform Loewenfeld","3.3.7","yes","yes","600bd7cfb6416f0113b04181","602110864497cf011d9c0822","0","j","NA","return","return","return","return","j","589","NA","1721","18015","1607","21716","589","2","legacy","1024","2","48000","-16","task","5221597","odd","NA","37745","41470","39748","195293","6265","25891","24283","195796","145476","195289","195797","195127","41470","196388","36088","194627","6254","186126","Lexical Decision Task","57","49414","69","yes","1024"
"2.703007489","8.37","3","pulp","word","82.85714285714286","82.85714285714286","713.4714285714285","713.4714285714285","black","no","legacy","legacy","legacy","0","uniform","1","undefined","undefined","undefined","1","j","0","0","0","0","69","0","0","0","69","0","65","69","65","0","65","3","69","0","69","Fri Feb 19 11:54:52 2021","The main experiment item","yes","Lexical_Decision_Task.osexp","C:/Users/myste/OneDrive/Desktop","no","Andale Mono","no","18","no","white","no","yes","576","legacy","65","65","3","C:/Users/myste/OneDrive/Desktop/subject-5221597.csv","legacy","Lentiform Loewenfeld","3.3.7","yes","yes","600bd7cfb6416f0113b04181","602110864497cf011d9c0822","0","j","NA","return","return","return","return","j","529","NA","1721","18015","1607","21716","529","2","legacy","1024","2","48000","-16","task","5221597","odd","NA","37745","41470","39748","197114","6265","25891","24283","197615","145476","197110","197616","196958","41470","198146","36088","196458","6254","186126","Lexical Decision Task","58","49943","70","yes","1024"
"2.880623071","0","9","curp","non-word","83.09859154929578","83.09859154929578","711.0845070422536","711.0845070422536","black","no","legacy","legacy","legacy","0","uniform","1","undefined","undefined","undefined","1","f","0","0","0","0","70","0","0","0","70","0","66","70","66","0","66","3","70","0","70","Fri Feb 19 11:54:52 2021","The main experiment item","yes","Lexical_Decision_Task.osexp","C:/Users/myste/OneDrive/Desktop","no","Andale Mono","no","18","no","white","no","yes","576","legacy","66","66","3","C:/Users/myste/OneDrive/Desktop/subject-5221597.csv","legacy","Lentiform Loewenfeld","3.3.7","yes","yes","600bd7cfb6416f0113b04181","602110864497cf011d9c0822","0","f","NA","return","return","return","return","f","544","NA","1721","18015","1607","21716","544","2","legacy","1024","2","48000","-16","task","5221597","odd","NA","37745","41470","39748","198869","6265","25891","24283","199372","145476","198865","199372","198677","41470","199917","36088","198177","6254","186126","Lexical Decision Task","59","50487","71","yes","1024"
"2.705007959","6.01","4","wept","word","83.33333333333333","83.33333333333333","709.5277777777778","709.5277777777778","black","no","legacy","legacy","legacy","0","uniform","1","undefined","undefined","undefined","1","j","0","0","0","0","71","0","0","0","71","0","67","71","67","0","67","3","71","0","71","Fri Feb 19 11:54:52 2021","The main experiment item","yes","Lexical_Decision_Task.osexp","C:/Users/myste/OneDrive/Desktop","no","Andale Mono","no","18","no","white","no","yes","576","legacy","67","67","3","C:/Users/myste/OneDrive/Desktop/subject-5221597.csv","legacy","Lentiform Loewenfeld","3.3.7","yes","yes","600bd7cfb6416f0113b04181","602110864497cf011d9c0822","0","j","NA","return","return","return","return","j","599","NA","1721","18015","1607","21716","599","2","legacy","1024","2","48000","-16","task","5221597","odd","NA","37745","41470","39748","200653","6265","25891","24283","201158","145476","200650","201158","200486","41470","201758","36088","199986","6254","186126","Lexical Decision Task","60","51086","72","yes","1024"
"3.2757719","0","5","slea","non-word","83.56164383561644","83.56164383561644","707.1369863013699","707.1369863013699","black","no","legacy","legacy","legacy","0","uniform","1","undefined","undefined","undefined","1","f","0","0","0","0","72","0","0","0","72","0","68","72","68","0","68","3","72","0","72","Fri Feb 19 11:54:52 2021","The main experiment item","yes","Lexical_Decision_Task.osexp","C:/Users/myste/OneDrive/Desktop","no","Andale Mono","no","18","no","white","no","yes","576","legacy","68","68","3","C:/Users/myste/OneDrive/Desktop/subject-5221597.csv","legacy","Lentiform Loewenfeld","3.3.7","yes","yes","600bd7cfb6416f0113b04181","602110864497cf011d9c0822","0","f","NA","return","return","return","return","f","535","NA","1721","18015","1607","21716","535","2","legacy","1024","2","48000","-16","task","5221597","odd","NA","37745","41470","39748","202533","6265","25891","24283","203037","145476","202529","203037","202328","41470","203574","36088","201828","6254","186126","Lexical Decision Task","61","51621","73","yes","1024"
"3.443783828","7.65","3","verb","word","83.78378378378379","83.78378378378379","708.472972972973","708.472972972973","black","no","legacy","legacy","legacy","0","uniform","1","undefined","undefined","undefined","1","j","0","0","0","0","73","0","0","0","73","0","69","73","69","0","69","3","73","0","73","Fri Feb 19 11:54:52 2021","The main experiment item","yes","Lexical_Decision_Task.osexp","C:/Users/myste/OneDrive/Desktop","no","Andale Mono","no","18","no","white","no","yes","576","legacy","69","69","3","C:/Users/myste/OneDrive/Desktop/subject-5221597.csv","legacy","Lentiform Loewenfeld","3.3.7","yes","yes","600bd7cfb6416f0113b04181","602110864497cf011d9c0822","0","j","NA","return","return","return","return","j","806","NA","1721","18015","1607","21716","806","2","legacy","1024","2","48000","-16","task","5221597","odd","NA","37745","41470","39748","204295","6265","25891","24283","204799","145476","204293","204799","204106","41470","205606","36088","203606","6254","186126","Lexical Decision Task","62","52427","74","yes","1024"
"2.664011697","8.19","4","hawk","word","84","84","706.7066666666667","706.7066666666667","black","no","legacy","legacy","legacy","0","uniform","1","undefined","undefined","undefined","1","j","0","0","0","0","74","0","0","0","74","0","70","74","70","0","70","3","74","0","74","Fri Feb 19 11:54:52 2021","The main experiment item","yes","Lexical_Decision_Task.osexp","C:/Users/myste/OneDrive/Desktop","no","Andale Mono","no","18","no","white","no","yes","576","legacy","70","70","3","C:/Users/myste/OneDrive/Desktop/subject-5221597.csv","legacy","Lentiform Loewenfeld","3.3.7","yes","yes","600bd7cfb6416f0113b04181","602110864497cf011d9c0822","0","j","NA","return","return","return","return","j","576","NA","1721","18015","1607","21716","576","2","legacy","1024","2","48000","-16","task","5221597","odd","NA","37745","41470","39748","206355","6265","25891","24283","206859","145476","206352","206859","206184","41470","207436","36088","205684","6254","186126","Lexical Decision Task","63","53003","75","yes","1024"
"3.194328374","9.42","6","harm","word","84.21052631578948","84.21052631578948","704.25","704.25","black","no","legacy","legacy","legacy","0","uniform","1","undefined","undefined","undefined","1","j","0","0","0","0","75","0","0","0","75","0","71","75","71","0","71","3","75","0","75","Fri Feb 19 11:54:52 2021","The main experiment item","yes","Lexical_Decision_Task.osexp","C:/Users/myste/OneDrive/Desktop","no","Andale Mono","no","18","no","white","no","yes","576","legacy","71","71","3","C:/Users/myste/OneDrive/Desktop/subject-5221597.csv","legacy","Lentiform Loewenfeld","3.3.7","yes","yes","600bd7cfb6416f0113b04181","602110864497cf011d9c0822","0","j","NA","return","return","return","return","j","520","NA","1721","18015","1607","21716","520","2","legacy","1024","2","48000","-16","task","5221597","odd","NA","37745","41470","39748","208150","6265","25891","24283","208651","145476","208148","208651","207993","41470","209172","36088","207493","6254","186126","Lexical Decision Task","64","53523","76","yes","1024"
"3.197740804","6.74","3","ache","word","84.41558441558442","84.41558441558442","702.7142857142857","702.7142857142857","black","no","legacy","legacy","legacy","0","uniform","1","undefined","undefined","undefined","1","j","0","0","0","0","76","0","0","0","76","0","72","76","72","0","72","3","76","0","76","Fri Feb 19 11:54:52 2021","The main experiment item","yes","Lexical_Decision_Task.osexp","C:/Users/myste/OneDrive/Desktop","no","Andale Mono","no","18","no","white","no","yes","576","legacy","72","72","3","C:/Users/myste/OneDrive/Desktop/subject-5221597.csv","legacy","Lentiform Loewenfeld","3.3.7","yes","yes","600bd7cfb6416f0113b04181","602110864497cf011d9c0822","0","j","NA","return","return","return","return","j","586","NA","1721","18015","1607","21716","586","2","legacy","1024","2","48000","-16","task","5221597","odd","NA","37745","41470","39748","209905","6265","25891","24283","210409","145476","209904","210409","209753","41470","210997","36088","209253","6254","186126","Lexical Decision Task","65","54109","77","yes","1024"
"3.043885998","0","9","gome","non-word","84.61538461538461","84.61538461538461","702.5897435897435","702.5897435897435","black","no","legacy","legacy","legacy","0","uniform","1","undefined","undefined","undefined","1","f","0","0","0","0","77","0","0","0","77","0","73","77","73","0","73","3","77","0","77","Fri Feb 19 11:54:52 2021","The main experiment item","yes","Lexical_Decision_Task.osexp","C:/Users/myste/OneDrive/Desktop","no","Andale Mono","no","18","no","white","no","yes","576","legacy","73","73","3","C:/Users/myste/OneDrive/Desktop/subject-5221597.csv","legacy","Lentiform Loewenfeld","3.3.7","yes","yes","600bd7cfb6416f0113b04181","602110864497cf011d9c0822","0","f","NA","return","return","return","return","f","693","NA","1721","18015","1607","21716","693","2","legacy","1024","2","48000","-16","task","5221597","odd","NA","37745","41470","39748","211758","6265","25891","24283","212261","145476","211753","212262","211579","41470","212956","36088","211079","6254","186126","Lexical Decision Task","66","54802","78","yes","1024"
"3.263399331","0","8","cour","non-word","84.81012658227849","84.81012658227849","701.873417721519","701.873417721519","black","no","legacy","legacy","legacy","0","uniform","1","undefined","undefined","undefined","1","f","0","0","0","0","78","0","0","0","78","0","74","78","74","0","74","3","78","0","78","Fri Feb 19 11:54:52 2021","The main experiment item","yes","Lexical_Decision_Task.osexp","C:/Users/myste/OneDrive/Desktop","no","Andale Mono","no","18","no","white","no","yes","576","legacy","74","74","3","C:/Users/myste/OneDrive/Desktop/subject-5221597.csv","legacy","Lentiform Loewenfeld","3.3.7","yes","yes","600bd7cfb6416f0113b04181","602110864497cf011d9c0822","0","f","NA","return","return","return","return","f","646","NA","1721","18015","1607","21716","646","2","legacy","1024","2","48000","-16","task","5221597","odd","NA","37745","41470","39748","213662","6265","25891","24283","214165","145476","213658","214165","213488","41470","214814","36088","212988","6254","186126","Lexical Decision Task","67","55448","79","yes","1024"
"2.898725182","0","7","turl","non-word","85","85","698.7875","698.7875","black","no","legacy","legacy","legacy","0","uniform","1","undefined","undefined","undefined","1","f","0","0","0","0","79","0","0","0","79","0","75","79","75","0","75","3","79","0","79","Fri Feb 19 11:54:52 2021","The main experiment item","yes","Lexical_Decision_Task.osexp","C:/Users/myste/OneDrive/Desktop","no","Andale Mono","no","18","no","white","no","yes","576","legacy","75","75","3","C:/Users/myste/OneDrive/Desktop/subject-5221597.csv","legacy","Lentiform Loewenfeld","3.3.7","yes","yes","600bd7cfb6416f0113b04181","602110864497cf011d9c0822","0","f","NA","return","return","return","return","f","455","NA","1721","18015","1607","21716","455","2","legacy","1024","2","48000","-16","task","5221597","odd","NA","37745","41470","39748","215549","6265","25891","24283","216051","145476","215545","216052","215382","41470","216509","36088","214882","6254","186126","Lexical Decision Task","68","55903","80","yes","1024"
"3.14849993","10.75","7","hour","word","85.18518518518519","85.18518518518519","695.8888888888889","695.8888888888889","black","no","legacy","legacy","legacy","0","uniform","1","undefined","undefined","undefined","1","j","0","0","0","0","80","0","0","0","80","0","76","80","76","0","76","3","80","0","80","Fri Feb 19 11:54:52 2021","The main experiment item","yes","Lexical_Decision_Task.osexp","C:/Users/myste/OneDrive/Desktop","no","Andale Mono","no","18","no","white","no","yes","576","legacy","76","76","3","C:/Users/myste/OneDrive/Desktop/subject-5221597.csv","legacy","Lentiform Loewenfeld","3.3.7","yes","yes","600bd7cfb6416f0113b04181","602110864497cf011d9c0822","0","j","NA","return","return","return","return","j","464","NA","1721","18015","1607","21716","464","2","legacy","1024","2","48000","-16","task","5221597","odd","NA","37745","41470","39748","217202","6265","25891","24283","217706","145476","217199","217706","217081","41470","218172","36088","216580","6254","186126","Lexical Decision Task","69","56367","81","yes","1024"
"3.261341392","5.08","8","reek","word","85.36585365853658","85.36585365853658","694.1951219512196","694.1951219512196","black","no","legacy","legacy","legacy","0","uniform","1","undefined","undefined","undefined","1","j","0","0","0","0","81","0","0","0","81","0","77","81","77","0","77","3","81","0","81","Fri Feb 19 11:54:52 2021","The main experiment item","yes","Lexical_Decision_Task.osexp","C:/Users/myste/OneDrive/Desktop","no","Andale Mono","no","18","no","white","no","yes","576","legacy","77","77","3","C:/Users/myste/OneDrive/Desktop/subject-5221597.csv","legacy","Lentiform Loewenfeld","3.3.7","yes","yes","600bd7cfb6416f0113b04181","602110864497cf011d9c0822","0","j","NA","return","return","return","return","j","557","NA","1721","18015","1607","21716","557","2","legacy","1024","2","48000","-16","task","5221597","odd","NA","37745","41470","39748","218940","6265","25891","24283","219444","145476","218935","219444","218749","41470","220002","36088","218249","6254","186126","Lexical Decision Task","70","56924","82","yes","1024"
"2.952953801","0","8","clax","non-word","85.5421686746988","85.5421686746988","692.9518072289156","692.9518072289156","black","no","legacy","legacy","legacy","0","uniform","1","undefined","undefined","undefined","1","f","0","0","0","0","82","0","0","0","82","0","78","82","78","0","78","3","82","0","82","Fri Feb 19 11:54:52 2021","The main experiment item","yes","Lexical_Decision_Task.osexp","C:/Users/myste/OneDrive/Desktop","no","Andale Mono","no","18","no","white","no","yes","576","legacy","78","78","3","C:/Users/myste/OneDrive/Desktop/subject-5221597.csv","legacy","Lentiform Loewenfeld","3.3.7","yes","yes","600bd7cfb6416f0113b04181","602110864497cf011d9c0822","0","f","NA","return","return","return","return","f","591","NA","1721","18015","1607","21716","591","2","legacy","1024","2","48000","-16","task","5221597","odd","NA","37745","41470","39748","220762","6265","25891","24283","221265","145476","220759","221265","220572","41470","221858","36088","220072","6254","186126","Lexical Decision Task","71","57515","83","yes","1024"
"3.105055783","0","2","norp","non-word","85.71428571428571","85.71428571428571","691.8095238095239","691.8095238095239","black","no","legacy","legacy","legacy","0","uniform","1","undefined","undefined","undefined","1","f","0","0","0","0","83","0","0","0","83","0","79","83","79","0","79","3","83","0","83","Fri Feb 19 11:54:52 2021","The main experiment item","yes","Lexical_Decision_Task.osexp","C:/Users/myste/OneDrive/Desktop","no","Andale Mono","no","18","no","white","no","yes","576","legacy","79","79","3","C:/Users/myste/OneDrive/Desktop/subject-5221597.csv","legacy","Lentiform Loewenfeld","3.3.7","yes","yes","600bd7cfb6416f0113b04181","602110864497cf011d9c0822","0","f","NA","return","return","return","return","f","597","NA","1721","18015","1607","21716","597","2","legacy","1024","2","48000","-16","task","5221597","odd","NA","37745","41470","39748","222604","6265","25891","24283","223108","145476","222601","223108","222440","41470","223707","36088","221940","6254","186126","Lexical Decision Task","72","58112","84","yes","1024"
"2.576725172","0","8","gowl","non-word","85.88235294117646","85.88235294117646","692.2117647058824","692.2117647058824","black","no","legacy","legacy","legacy","0","uniform","1","undefined","undefined","undefined","1","f","0","0","0","0","84","0","0","0","84","0","80","84","80","0","80","3","84","0","84","Fri Feb 19 11:54:52 2021","The main experiment item","yes","Lexical_Decision_Task.osexp","C:/Users/myste/OneDrive/Desktop","no","Andale Mono","no","18","no","white","no","yes","576","legacy","80","80","3","C:/Users/myste/OneDrive/Desktop/subject-5221597.csv","legacy","Lentiform Loewenfeld","3.3.7","yes","yes","600bd7cfb6416f0113b04181","602110864497cf011d9c0822","0","f","NA","return","return","return","return","f","726","NA","1721","18015","1607","21716","726","2","legacy","1024","2","48000","-16","task","5221597","odd","NA","37745","41470","39748","224432","6265","25891","24283","224935","145476","224429","224936","224278","41470","225663","36088","223777","6254","186126","Lexical Decision Task","73","58838","85","yes","1024"
"2.839268497","0","8","maft","non-word","86.04651162790698","86.04651162790698","689.5232558139535","689.5232558139535","black","no","legacy","legacy","legacy","0","uniform","1","undefined","undefined","undefined","1","f","0","0","0","0","85","0","0","0","85","0","81","85","81","0","81","3","85","0","85","Fri Feb 19 11:54:52 2021","The main experiment item","yes","Lexical_Decision_Task.osexp","C:/Users/myste/OneDrive/Desktop","no","Andale Mono","no","18","no","white","no","yes","576","legacy","81","81","3","C:/Users/myste/OneDrive/Desktop/subject-5221597.csv","legacy","Lentiform Loewenfeld","3.3.7","yes","yes","600bd7cfb6416f0113b04181","602110864497cf011d9c0822","0","f","NA","return","return","return","return","f","461","NA","1721","18015","1607","21716","461","2","legacy","1024","2","48000","-16","task","5221597","odd","NA","37745","41470","39748","226415","6265","25891","24283","226920","145476","226412","226921","226237","41470","227384","36088","225737","6254","186126","Lexical Decision Task","74","59299","86","yes","1024"
"2.706148589","0","4","hube","non-word","86.20689655172414","86.20689655172414","686.2068965517242","686.2068965517242","black","no","legacy","legacy","legacy","0","uniform","1","undefined","undefined","undefined","1","f","0","0","0","0","86","0","0","0","86","0","82","86","82","0","82","3","86","0","86","Fri Feb 19 11:54:52 2021","The main experiment item","yes","Lexical_Decision_Task.osexp","C:/Users/myste/OneDrive/Desktop","no","Andale Mono","no","18","no","white","no","yes","576","legacy","82","82","3","C:/Users/myste/OneDrive/Desktop/subject-5221597.csv","legacy","Lentiform Loewenfeld","3.3.7","yes","yes","600bd7cfb6416f0113b04181","602110864497cf011d9c0822","0","f","NA","return","return","return","return","f","401","NA","1721","18015","1607","21716","401","2","legacy","1024","2","48000","-16","task","5221597","odd","NA","37745","41470","39748","228138","6265","25891","24283","228641","145476","228135","228641","227964","41470","229043","36088","227464","6254","186126","Lexical Decision Task","75","59700","87","yes","1024"
"2.793790385","5.67","9","swab","word","85.22727272727273","85.22727272727273","684","684","black","no","legacy","legacy","legacy","0","uniform","0","undefined","undefined","undefined","0","j","0","0","0","0","87","0","0","0","87","0","83","87","83","0","83","3","87","0","87","Fri Feb 19 11:54:52 2021","The main experiment item","yes","Lexical_Decision_Task.osexp","C:/Users/myste/OneDrive/Desktop","no","Andale Mono","no","18","no","white","no","yes","576","legacy","83","83","3","C:/Users/myste/OneDrive/Desktop/subject-5221597.csv","legacy","Lentiform Loewenfeld","3.3.7","yes","yes","600bd7cfb6416f0113b04181","602110864497cf011d9c0822","0","f","NA","return","return","return","return","f","492","NA","1721","18015","1607","21716","492","2","legacy","1024","2","48000","-16","task","5221597","odd","NA","37745","41470","39748","229820","6265","25891","24283","230323","145476","229817","230323","229626","41470","230818","36088","229126","6254","186126","Lexical Decision Task","75","60192","88","yes","1024"
"2.8162413","0","5","nusk","non-word","85.3932584269663","85.3932584269663","682.9662921348314","682.9662921348314","black","no","legacy","legacy","legacy","0","uniform","1","undefined","undefined","undefined","1","f","0","0","0","0","88","0","0","0","88","0","84","88","84","0","84","3","88","0","88","Fri Feb 19 11:54:52 2021","The main experiment item","yes","Lexical_Decision_Task.osexp","C:/Users/myste/OneDrive/Desktop","no","Andale Mono","no","18","no","white","no","yes","576","legacy","84","84","3","C:/Users/myste/OneDrive/Desktop/subject-5221597.csv","legacy","Lentiform Loewenfeld","3.3.7","yes","yes","600bd7cfb6416f0113b04181","602110864497cf011d9c0822","0","f","NA","return","return","return","return","f","592","NA","1721","18015","1607","21716","592","2","legacy","1024","2","48000","-16","task","5221597","odd","NA","37745","41470","39748","232515","6265","25891","24283","233018","145476","232513","233018","232337","41470","233612","36088","229126","6254","230837","Lexical Decision Task","76","60784","89","yes","1024"
"2.784379519","0","2","snaf","non-word","85.55555555555556","85.55555555555556","681.8777777777777","681.8777777777777","black","no","legacy","legacy","legacy","0","uniform","1","undefined","undefined","undefined","1","f","0","0","0","0","89","0","0","0","89","0","85","89","85","0","85","3","89","0","89","Fri Feb 19 11:54:52 2021","The main experiment item","yes","Lexical_Decision_Task.osexp","C:/Users/myste/OneDrive/Desktop","no","Andale Mono","no","18","no","white","no","yes","576","legacy","85","85","3","C:/Users/myste/OneDrive/Desktop/subject-5221597.csv","legacy","Lentiform Loewenfeld","3.3.7","yes","yes","600bd7cfb6416f0113b04181","602110864497cf011d9c0822","0","f","NA","return","return","return","return","f","585","NA","1721","18015","1607","21716","585","2","legacy","1024","2","48000","-16","task","5221597","odd","NA","37745","41470","39748","234330","6265","25891","24283","234834","145476","234327","234834","234163","41470","235421","36088","233663","6254","230837","Lexical Decision Task","77","61369","90","yes","1024"
"2.675164031","8.57","6","glue","word","85.71428571428571","85.71428571428571","680.6043956043956","680.6043956043956","black","no","legacy","legacy","legacy","0","uniform","1","undefined","undefined","undefined","1","j","0","0","0","0","90","0","0","0","90","0","86","90","86","0","86","3","90","0","90","Fri Feb 19 11:54:52 2021","The main experiment item","yes","Lexical_Decision_Task.osexp","C:/Users/myste/OneDrive/Desktop","no","Andale Mono","no","18","no","white","no","yes","576","legacy","86","86","3","C:/Users/myste/OneDrive/Desktop/subject-5221597.csv","legacy","Lentiform Loewenfeld","3.3.7","yes","yes","600bd7cfb6416f0113b04181","602110864497cf011d9c0822","0","j","NA","return","return","return","return","j","566","NA","1721","18015","1607","21716","566","2","legacy","1024","2","48000","-16","task","5221597","odd","NA","37745","41470","39748","236156","6265","25891","24283","236659","145476","236152","236659","235962","41470","237227","36088","235461","6254","230837","Lexical Decision Task","78","61935","91","yes","1024"
"3.076883066","0","8","mout","non-word","85.8695652173913","85.8695652173913","680.6521739130435","680.6521739130435","black","no","legacy","legacy","legacy","0","uniform","1","undefined","undefined","undefined","1","f","0","0","0","0","91","0","0","0","91","0","87","91","87","0","87","3","91","0","91","Fri Feb 19 11:54:52 2021","The main experiment item","yes","Lexical_Decision_Task.osexp","C:/Users/myste/OneDrive/Desktop","no","Andale Mono","no","18","no","white","no","yes","576","legacy","87","87","3","C:/Users/myste/OneDrive/Desktop/subject-5221597.csv","legacy","Lentiform Loewenfeld","3.3.7","yes","yes","600bd7cfb6416f0113b04181","602110864497cf011d9c0822","0","f","NA","return","return","return","return","f","685","NA","1721","18015","1607","21716","685","2","legacy","1024","2","48000","-16","task","5221597","odd","NA","37745","41470","39748","237982","6265","25891","24283","238486","145476","237980","238486","237799","41470","239174","36088","237299","6254","230837","Lexical Decision Task","79","62620","92","yes","1024"
"3.481012421","8.34","5","teen","word","86.02150537634408","86.02150537634408","679.7956989247311","679.7956989247311","black","no","legacy","legacy","legacy","0","uniform","1","undefined","undefined","undefined","1","j","0","0","0","0","92","0","0","0","92","0","88","92","88","0","88","3","92","0","92","Fri Feb 19 11:54:52 2021","The main experiment item","yes","Lexical_Decision_Task.osexp","C:/Users/myste/OneDrive/Desktop","no","Andale Mono","no","18","no","white","no","yes","576","legacy","88","88","3","C:/Users/myste/OneDrive/Desktop/subject-5221597.csv","legacy","Lentiform Loewenfeld","3.3.7","yes","yes","600bd7cfb6416f0113b04181","602110864497cf011d9c0822","0","j","NA","return","return","return","return","j","601","NA","1721","18015","1607","21716","601","2","legacy","1024","2","48000","-16","task","5221597","odd","NA","37745","41470","39748","239914","6265","25891","24283","240418","145476","239911","240419","239752","41470","241021","36088","239252","6254","230837","Lexical Decision Task","80","63221","93","yes","1024"
"3.311895072","0","9","gung","non-word","86.17021276595744","86.17021276595744","678.7659574468086","678.7659574468086","black","no","legacy","legacy","legacy","0","uniform","1","undefined","undefined","undefined","1","f","0","0","0","0","93","0","0","0","93","0","89","93","89","0","89","3","93","0","93","Fri Feb 19 11:54:52 2021","The main experiment item","yes","Lexical_Decision_Task.osexp","C:/Users/myste/OneDrive/Desktop","no","Andale Mono","no","18","no","white","no","yes","576","legacy","89","89","3","C:/Users/myste/OneDrive/Desktop/subject-5221597.csv","legacy","Lentiform Loewenfeld","3.3.7","yes","yes","600bd7cfb6416f0113b04181","602110864497cf011d9c0822","0","f","NA","return","return","return","return","f","583","NA","1721","18015","1607","21716","583","2","legacy","1024","2","48000","-16","task","5221597","odd","NA","37745","41470","39748","241771","6265","25891","24283","242274","145476","241767","242274","241594","41470","242859","36088","241094","6254","230837","Lexical Decision Task","81","63804","94","yes","1024"
"3.374198258","0","8","vist","non-word","86.3157894736842","86.3157894736842","679.5473684210526","679.5473684210526","black","no","legacy","legacy","legacy","0","uniform","1","undefined","undefined","undefined","1","f","0","0","0","0","94","0","0","0","94","0","90","94","90","0","90","3","94","0","94","Fri Feb 19 11:54:52 2021","The main experiment item","yes","Lexical_Decision_Task.osexp","C:/Users/myste/OneDrive/Desktop","no","Andale Mono","no","18","no","white","no","yes","576","legacy","90","90","3","C:/Users/myste/OneDrive/Desktop/subject-5221597.csv","legacy","Lentiform Loewenfeld","3.3.7","yes","yes","600bd7cfb6416f0113b04181","602110864497cf011d9c0822","0","f","NA","return","return","return","return","f","753","NA","1721","18015","1607","21716","753","2","legacy","1024","2","48000","-16","task","5221597","odd","NA","37745","41470","39748","243558","6265","25891","24283","244062","145476","243555","244062","243418","41470","244816","36088","242918","6254","230837","Lexical Decision Task","82","64557","95","yes","1024"
"2.7084209","0","8","vump","non-word","86.45833333333333","86.45833333333333","678.1145833333334","678.1145833333334","black","no","legacy","legacy","legacy","0","uniform","1","undefined","undefined","undefined","1","f","0","0","0","0","95","0","0","0","95","0","91","95","91","0","91","3","95","0","95","Fri Feb 19 11:54:52 2021","The main experiment item","yes","Lexical_Decision_Task.osexp","C:/Users/myste/OneDrive/Desktop","no","Andale Mono","no","18","no","white","no","yes","576","legacy","91","91","3","C:/Users/myste/OneDrive/Desktop/subject-5221597.csv","legacy","Lentiform Loewenfeld","3.3.7","yes","yes","600bd7cfb6416f0113b04181","602110864497cf011d9c0822","0","f","NA","return","return","return","return","f","542","NA","1721","18015","1607","21716","542","2","legacy","1024","2","48000","-16","task","5221597","odd","NA","37745","41470","39748","245536","6265","25891","24283","246040","145476","245533","246041","245398","41470","246585","36088","244898","6254","230837","Lexical Decision Task","83","65099","96","yes","1024"
"2.82129731","6.72","5","plum","word","86.5979381443299","86.5979381443299","679.340206185567","679.340206185567","black","no","legacy","legacy","legacy","0","uniform","1","undefined","undefined","undefined","1","j","0","0","0","0","96","0","0","0","96","0","92","96","92","0","92","3","96","0","96","Fri Feb 19 11:54:52 2021","The main experiment item","yes","Lexical_Decision_Task.osexp","C:/Users/myste/OneDrive/Desktop","no","Andale Mono","no","18","no","white","no","yes","576","legacy","92","92","3","C:/Users/myste/OneDrive/Desktop/subject-5221597.csv","legacy","Lentiform Loewenfeld","3.3.7","yes","yes","600bd7cfb6416f0113b04181","602110864497cf011d9c0822","0","j","NA","return","return","return","return","j","797","NA","1721","18015","1607","21716","797","2","legacy","1024","2","48000","-16","task","5221597","odd","NA","37745","41470","39748","247292","6265","25891","24283","247795","145476","247291","247795","247156","41470","248593","36088","246656","6254","230837","Lexical Decision Task","84","65896","97","yes","1024"
"2.698387659","6.66","7","skid","word","85.71428571428571","85.71428571428571","678.8265306122449","678.8265306122449","black","no","legacy","legacy","legacy","0","uniform","0","undefined","undefined","undefined","0","j","0","0","0","0","97","0","0","0","97","0","93","97","93","0","93","3","97","0","97","Fri Feb 19 11:54:52 2021","The main experiment item","yes","Lexical_Decision_Task.osexp","C:/Users/myste/OneDrive/Desktop","no","Andale Mono","no","18","no","white","no","yes","576","legacy","93","93","3","C:/Users/myste/OneDrive/Desktop/subject-5221597.csv","legacy","Lentiform Loewenfeld","3.3.7","yes","yes","600bd7cfb6416f0113b04181","602110864497cf011d9c0822","0","f","NA","return","return","return","return","f","629","NA","1721","18015","1607","21716","629","2","legacy","1024","2","48000","-16","task","5221597","odd","NA","37745","41470","39748","249330","6265","25891","24283","249832","145476","249328","249833","249157","41470","250464","36088","248657","6254","230837","Lexical Decision Task","84","66525","98","yes","1024"
"2.594027722","9.08","8","skip","word","85.85858585858585","85.85858585858585","680.5353535353536","680.5353535353536","black","no","legacy","legacy","legacy","0","uniform","1","undefined","undefined","undefined","1","j","0","0","0","0","98","0","0","0","98","0","94","98","94","0","94","3","98","0","98","Fri Feb 19 11:54:52 2021","The main experiment item","yes","Lexical_Decision_Task.osexp","C:/Users/myste/OneDrive/Desktop","no","Andale Mono","no","18","no","white","no","yes","576","legacy","94","94","3","C:/Users/myste/OneDrive/Desktop/subject-5221597.csv","legacy","Lentiform Loewenfeld","3.3.7","yes","yes","600bd7cfb6416f0113b04181","602110864497cf011d9c0822","0","j","NA","return","return","return","return","j","848","NA","1721","18015","1607","21716","848","2","legacy","1024","2","48000","-16","task","5221597","odd","NA","37745","41470","39748","252198","6265","25891","24283","252702","145476","252193","252702","251993","41470","253551","36088","248657","6254","250493","Lexical Decision Task","85","67373","99","yes","1024"
