"Log_BG","Log_Freq_HAL","Ortho_N","Stimulus","Type","acc","accuracy","average_response_time","avg_rt","background","bidi","canvas_backend","clock_backend","color_backend","compensation","coordinates","correct","correct_Experimental_intro","correct_Introduction","correct_Practice_intro","correct_experimenter_kb","correct_response","count_End_Of_Experiment","count_End_Of_Practice","count_Experimental_Loop","count_Experimental_intro","count_Fixation","count_Introduction","count_Practice_Loop","count_Practice_intro","count_Stimulus","count_block_break_feedback","count_experimental_sequence","count_experimenter_kb","count_increment_trial_count","count_init_trial_count","count_logger","count_practice_sequence","count_right","count_task","count_wrong","datetime","description","disable_garbage_collection","experiment_file","experiment_path","font_bold","font_family","font_italic","font_size","font_underline","foreground","form_clicks","fullscreen","height","keyboard_backend","live_row","live_row_Experimental_Loop","live_row_Practice_Loop","logfile","mouse_backend","opensesame_codename","opensesame_version","osf_always_upload_data","osf_always_upload_experiment","osf_datanode_id","osf_id","repeat_cycle","response","response_End_Of_Experiment","response_Experimental_intro","response_Introduction","response_Practice_intro","response_block_break_feedback","response_experimenter_kb","response_time","response_time_End_Of_Experiment","response_time_Experimental_intro","response_time_Introduction","response_time_Practice_intro","response_time_block_break_feedback","response_time_experimenter_kb","round_decimals","sampler_backend","sound_buf_size","sound_channels","sound_freq","sound_sample_size","start","subject_nr","subject_parity","time_End_Of_Experiment","time_End_Of_Practice","time_Experimental_Loop","time_Experimental_intro","time_Fixation","time_Introduction","time_Practice_Loop","time_Practice_intro","time_Stimulus","time_block_break_feedback","time_experimental_sequence","time_experimenter_kb","time_increment_trial_count","time_init_trial_count","time_logger","time_practice_sequence","time_right","time_task","time_wrong","title","total_correct","total_response_time","total_responses","uniform_coordinates","width"
"3.094121596","0","8","fode","non-word","100","100","856","856","black","no","legacy","legacy","legacy","0","uniform","1","undefined","undefined","undefined","1","f","0","0","0","0","4","0","0","0","4","NA","0","4","0","0","0","3","4","0","4","Fri Mar 12 20:26:19 2021","The main experiment item","yes","Lexical_Decision_Task.osexp","C:/Users/chris/OneDrive/Desktop","no","Andale Mono","no","18","no","white","no","yes","576","legacy","0","0","3","C:/Users/chris/OneDrive/Desktop/subject-5206985.csv","legacy","Lentiform Loewenfeld","3.3.7","yes","yes","600bd7cfb6416f0113b04181","602110864497cf011d9c0822","0","f","NA","space","n","space","NA","f","963","NA","3781","11247","7134","NA","963","2","legacy","1024","2","48000","-16","task","5206985","odd","NA","31311","37095","33313","37172","5079","23471","16336","37677","NA","37170","37678","NA","37095","38642","29511","30767","5071","NA","Lexical Decision Task","5","4280","5","yes","1024"
"2.698387659","6.66","7","skid","word","100","100","822","822","black","no","legacy","legacy","legacy","0","uniform","1","undefined","undefined","undefined","1","j","0","0","0","0","5","0","0","0","5","NA","1","5","1","0","1","3","5","0","5","Fri Mar 12 20:26:19 2021","The main experiment item","yes","Lexical_Decision_Task.osexp","C:/Users/chris/OneDrive/Desktop","no","Andale Mono","no","18","no","white","no","yes","576","legacy","1","1","3","C:/Users/chris/OneDrive/Desktop/subject-5206985.csv","legacy","Lentiform Loewenfeld","3.3.7","yes","yes","600bd7cfb6416f0113b04181","602110864497cf011d9c0822","0","j","NA","space","n","space","NA","j","652","NA","3781","11247","7134","NA","652","2","legacy","1024","2","48000","-16","task","5206985","odd","NA","31311","37095","33313","39305","5079","23471","16336","39807","NA","39302","39808","39160","37095","40461","29511","38660","5071","NA","Lexical Decision Task","6","4932","6","yes","1024"
"2.794720352","0","9","koot","non-word","100","100","801.4285714285714","801.4285714285714","black","no","legacy","legacy","legacy","0","uniform","1","undefined","undefined","undefined","1","f","0","0","0","0","6","0","0","0","6","NA","2","6","2","0","2","3","6","0","6","Fri Mar 12 20:26:19 2021","The main experiment item","yes","Lexical_Decision_Task.osexp","C:/Users/chris/OneDrive/Desktop","no","Andale Mono","no","18","no","white","no","yes","576","legacy","2","2","3","C:/Users/chris/OneDrive/Desktop/subject-5206985.csv","legacy","Lentiform Loewenfeld","3.3.7","yes","yes","600bd7cfb6416f0113b04181","602110864497cf011d9c0822","0","f","NA","space","n","space","NA","f","678","NA","3781","11247","7134","NA","678","2","legacy","1024","2","48000","-16","task","5206985","odd","NA","31311","37095","33313","41084","5079","23471","16336","41587","NA","41081","41587","40972","37095","42266","29511","40472","5071","NA","Lexical Decision Task","7","5610","7","yes","1024"
"2.64476673","0","5","moft","non-word","100","100","796.75","796.75","black","no","legacy","legacy","legacy","0","uniform","1","undefined","undefined","undefined","1","f","0","0","0","0","7","0","0","0","7","NA","3","7","3","0","3","3","7","0","7","Fri Mar 12 20:26:19 2021","The main experiment item","yes","Lexical_Decision_Task.osexp","C:/Users/chris/OneDrive/Desktop","no","Andale Mono","no","18","no","white","no","yes","576","legacy","3","3","3","C:/Users/chris/OneDrive/Desktop/subject-5206985.csv","legacy","Lentiform Loewenfeld","3.3.7","yes","yes","600bd7cfb6416f0113b04181","602110864497cf011d9c0822","0","f","NA","space","n","space","NA","f","764","NA","3781","11247","7134","NA","764","2","legacy","1024","2","48000","-16","task","5206985","odd","NA","31311","37095","33313","42888","5079","23471","16336","43390","NA","42884","43391","42776","37095","44155","29511","42275","5071","NA","Lexical Decision Task","8","6374","8","yes","1024"
"3.133964479","0","8","graw","non-word","100","100","793.7777777777778","793.7777777777778","black","no","legacy","legacy","legacy","0","uniform","1","undefined","undefined","undefined","1","f","0","0","0","0","8","0","0","0","8","NA","4","8","4","0","4","3","8","0","8","Fri Mar 12 20:26:19 2021","The main experiment item","yes","Lexical_Decision_Task.osexp","C:/Users/chris/OneDrive/Desktop","no","Andale Mono","no","18","no","white","no","yes","576","legacy","4","4","3","C:/Users/chris/OneDrive/Desktop/subject-5206985.csv","legacy","Lentiform Loewenfeld","3.3.7","yes","yes","600bd7cfb6416f0113b04181","602110864497cf011d9c0822","0","f","NA","space","n","space","NA","f","770","NA","3781","11247","7134","NA","770","2","legacy","1024","2","48000","-16","task","5206985","odd","NA","31311","37095","33313","44779","5079","23471","16336","45284","NA","44776","45285","44664","37095","46056","29511","44164","5071","NA","Lexical Decision Task","9","7144","9","yes","1024"
"3.299579929","0","2","flis","non-word","100","100","776.1","776.1","black","no","legacy","legacy","legacy","0","uniform","1","undefined","undefined","undefined","1","f","0","0","0","0","9","0","0","0","9","NA","5","9","5","0","5","3","9","0","9","Fri Mar 12 20:26:19 2021","The main experiment item","yes","Lexical_Decision_Task.osexp","C:/Users/chris/OneDrive/Desktop","no","Andale Mono","no","18","no","white","no","yes","576","legacy","5","5","3","C:/Users/chris/OneDrive/Desktop/subject-5206985.csv","legacy","Lentiform Loewenfeld","3.3.7","yes","yes","600bd7cfb6416f0113b04181","602110864497cf011d9c0822","0","f","NA","space","n","space","NA","f","617","NA","3781","11247","7134","NA","617","2","legacy","1024","2","48000","-16","task","5206985","odd","NA","31311","37095","33313","46679","5079","23471","16336","47181","NA","46676","47182","46564","37095","47800","29511","46064","5071","NA","Lexical Decision Task","10","7761","10","yes","1024"
"2.880623071","0","9","curp","non-word","100","100","764.6363636363636","764.6363636363636","black","no","legacy","legacy","legacy","0","uniform","1","undefined","undefined","undefined","1","f","0","0","0","0","10","0","0","0","10","NA","6","10","6","0","6","3","10","0","10","Fri Mar 12 20:26:19 2021","The main experiment item","yes","Lexical_Decision_Task.osexp","C:/Users/chris/OneDrive/Desktop","no","Andale Mono","no","18","no","white","no","yes","576","legacy","6","6","3","C:/Users/chris/OneDrive/Desktop/subject-5206985.csv","legacy","Lentiform Loewenfeld","3.3.7","yes","yes","600bd7cfb6416f0113b04181","602110864497cf011d9c0822","0","f","NA","space","n","space","NA","f","650","NA","3781","11247","7134","NA","650","2","legacy","1024","2","48000","-16","task","5206985","odd","NA","31311","37095","33313","48422","5079","23471","16336","48924","NA","48419","48925","48309","37095","49577","29511","47809","5071","NA","Lexical Decision Task","11","8411","11","yes","1024"
"3.067193647","6.73","6","raft","word","100","100","758.5833333333334","758.5833333333334","black","no","legacy","legacy","legacy","0","uniform","1","undefined","undefined","undefined","1","j","0","0","0","0","11","0","0","0","11","NA","7","11","7","0","7","3","11","0","11","Fri Mar 12 20:26:19 2021","The main experiment item","yes","Lexical_Decision_Task.osexp","C:/Users/chris/OneDrive/Desktop","no","Andale Mono","no","18","no","white","no","yes","576","legacy","7","7","3","C:/Users/chris/OneDrive/Desktop/subject-5206985.csv","legacy","Lentiform Loewenfeld","3.3.7","yes","yes","600bd7cfb6416f0113b04181","602110864497cf011d9c0822","0","j","NA","space","n","space","NA","j","692","NA","3781","11247","7134","NA","692","2","legacy","1024","2","48000","-16","task","5206985","odd","NA","31311","37095","33313","50199","5079","23471","16336","50702","NA","50196","50702","50085","37095","51395","29511","49584","5071","NA","Lexical Decision Task","12","9103","12","yes","1024"
"2.714888338","0","3","brug","non-word","100","100","784.9230769230769","784.9230769230769","black","no","legacy","legacy","legacy","0","uniform","1","undefined","undefined","undefined","1","f","0","0","0","0","12","0","0","0","12","NA","8","12","8","0","8","3","12","0","12","Fri Mar 12 20:26:19 2021","The main experiment item","yes","Lexical_Decision_Task.osexp","C:/Users/chris/OneDrive/Desktop","no","Andale Mono","no","18","no","white","no","yes","576","legacy","8","8","3","C:/Users/chris/OneDrive/Desktop/subject-5206985.csv","legacy","Lentiform Loewenfeld","3.3.7","yes","yes","600bd7cfb6416f0113b04181","602110864497cf011d9c0822","0","f","NA","space","n","space","NA","f","1101","NA","3781","11247","7134","NA","1101","2","legacy","1024","2","48000","-16","task","5206985","odd","NA","31311","37095","33313","52028","5079","23471","16336","52530","NA","52025","52531","51904","37095","53633","29511","51404","5071","NA","Lexical Decision Task","13","10204","13","yes","1024"
"3.064581521","5.51","6","cask","word","100","100","782.9285714285714","782.9285714285714","black","no","legacy","legacy","legacy","0","uniform","1","undefined","undefined","undefined","1","j","0","0","0","0","13","0","0","0","13","NA","9","13","9","0","9","3","13","0","13","Fri Mar 12 20:26:19 2021","The main experiment item","yes","Lexical_Decision_Task.osexp","C:/Users/chris/OneDrive/Desktop","no","Andale Mono","no","18","no","white","no","yes","576","legacy","9","9","3","C:/Users/chris/OneDrive/Desktop/subject-5206985.csv","legacy","Lentiform Loewenfeld","3.3.7","yes","yes","600bd7cfb6416f0113b04181","602110864497cf011d9c0822","0","j","NA","space","n","space","NA","j","757","NA","3781","11247","7134","NA","757","2","legacy","1024","2","48000","-16","task","5206985","odd","NA","31311","37095","33313","54251","5079","23471","16336","54754","NA","54247","54754","54141","37095","55512","29511","53641","5071","NA","Lexical Decision Task","14","10961","14","yes","1024"
"2.7084209","0","8","vump","non-word","100","100","782.9333333333333","782.9333333333333","black","no","legacy","legacy","legacy","0","uniform","1","undefined","undefined","undefined","1","f","0","0","0","0","14","0","0","0","14","NA","10","14","10","0","10","3","14","0","14","Fri Mar 12 20:26:19 2021","The main experiment item","yes","Lexical_Decision_Task.osexp","C:/Users/chris/OneDrive/Desktop","no","Andale Mono","no","18","no","white","no","yes","576","legacy","10","10","3","C:/Users/chris/OneDrive/Desktop/subject-5206985.csv","legacy","Lentiform Loewenfeld","3.3.7","yes","yes","600bd7cfb6416f0113b04181","602110864497cf011d9c0822","0","f","NA","space","n","space","NA","f","783","NA","3781","11247","7134","NA","783","2","legacy","1024","2","48000","-16","task","5206985","odd","NA","31311","37095","33313","56128","5079","23471","16336","56631","NA","56125","56632","56020","37095","57416","29511","55520","5071","NA","Lexical Decision Task","15","11744","15","yes","1024"
"3.374137706","10.21","4","tree","word","100","100","779.875","779.875","black","no","legacy","legacy","legacy","0","uniform","1","undefined","undefined","undefined","1","j","0","0","0","0","15","0","0","0","15","NA","11","15","11","0","11","3","15","0","15","Fri Mar 12 20:26:19 2021","The main experiment item","yes","Lexical_Decision_Task.osexp","C:/Users/chris/OneDrive/Desktop","no","Andale Mono","no","18","no","white","no","yes","576","legacy","11","11","3","C:/Users/chris/OneDrive/Desktop/subject-5206985.csv","legacy","Lentiform Loewenfeld","3.3.7","yes","yes","600bd7cfb6416f0113b04181","602110864497cf011d9c0822","0","j","NA","space","n","space","NA","j","734","NA","3781","11247","7134","NA","734","2","legacy","1024","2","48000","-16","task","5206985","odd","NA","31311","37095","33313","58034","5079","23471","16336","58537","NA","58030","58537","57924","37095","59272","29511","57424","5071","NA","Lexical Decision Task","16","12478","16","yes","1024"
"3.153104174","10.89","6","door","word","100","100","771.5294117647059","771.5294117647059","black","no","legacy","legacy","legacy","0","uniform","1","undefined","undefined","undefined","1","j","0","0","0","0","16","0","0","0","16","NA","12","16","12","0","12","3","16","0","16","Fri Mar 12 20:26:19 2021","The main experiment item","yes","Lexical_Decision_Task.osexp","C:/Users/chris/OneDrive/Desktop","no","Andale Mono","no","18","no","white","no","yes","576","legacy","12","12","3","C:/Users/chris/OneDrive/Desktop/subject-5206985.csv","legacy","Lentiform Loewenfeld","3.3.7","yes","yes","600bd7cfb6416f0113b04181","602110864497cf011d9c0822","0","j","NA","space","n","space","NA","j","638","NA","3781","11247","7134","NA","638","2","legacy","1024","2","48000","-16","task","5206985","odd","NA","31311","37095","33313","59890","5079","23471","16336","60392","NA","59887","60393","59780","37095","61032","29511","59280","5071","NA","Lexical Decision Task","17","13116","17","yes","1024"
"3.529815197","0","3","lerm","non-word","100","100","773","773","black","no","legacy","legacy","legacy","0","uniform","1","undefined","undefined","undefined","1","f","0","0","0","0","17","0","0","0","17","NA","13","17","13","0","13","3","17","0","17","Fri Mar 12 20:26:19 2021","The main experiment item","yes","Lexical_Decision_Task.osexp","C:/Users/chris/OneDrive/Desktop","no","Andale Mono","no","18","no","white","no","yes","576","legacy","13","13","3","C:/Users/chris/OneDrive/Desktop/subject-5206985.csv","legacy","Lentiform Loewenfeld","3.3.7","yes","yes","600bd7cfb6416f0113b04181","602110864497cf011d9c0822","0","f","NA","space","n","space","NA","f","798","NA","3781","11247","7134","NA","798","2","legacy","1024","2","48000","-16","task","5206985","odd","NA","31311","37095","33313","61650","5079","23471","16336","62153","NA","61647","62153","61540","37095","62952","29511","61040","5071","NA","Lexical Decision Task","18","13914","18","yes","1024"
"2.899638141","0","3","hapt","non-word","100","100","773.2631578947369","773.2631578947369","black","no","legacy","legacy","legacy","0","uniform","1","undefined","undefined","undefined","1","f","0","0","0","0","18","0","0","0","18","NA","14","18","14","0","14","3","18","0","18","Fri Mar 12 20:26:19 2021","The main experiment item","yes","Lexical_Decision_Task.osexp","C:/Users/chris/OneDrive/Desktop","no","Andale Mono","no","18","no","white","no","yes","576","legacy","14","14","3","C:/Users/chris/OneDrive/Desktop/subject-5206985.csv","legacy","Lentiform Loewenfeld","3.3.7","yes","yes","600bd7cfb6416f0113b04181","602110864497cf011d9c0822","0","f","NA","space","n","space","NA","f","778","NA","3781","11247","7134","NA","778","2","legacy","1024","2","48000","-16","task","5206985","odd","NA","31311","37095","33313","63570","5079","23471","16336","64072","NA","63567","64073","63460","37095","64852","29511","62960","5071","NA","Lexical Decision Task","19","14692","19","yes","1024"
"2.839268497","0","8","maft","non-word","100","100","773.85","773.85","black","no","legacy","legacy","legacy","0","uniform","1","undefined","undefined","undefined","1","f","0","0","0","0","19","0","0","0","19","NA","15","19","15","0","15","3","19","0","19","Fri Mar 12 20:26:19 2021","The main experiment item","yes","Lexical_Decision_Task.osexp","C:/Users/chris/OneDrive/Desktop","no","Andale Mono","no","18","no","white","no","yes","576","legacy","15","15","3","C:/Users/chris/OneDrive/Desktop/subject-5206985.csv","legacy","Lentiform Loewenfeld","3.3.7","yes","yes","600bd7cfb6416f0113b04181","602110864497cf011d9c0822","0","f","NA","space","n","space","NA","f","785","NA","3781","11247","7134","NA","785","2","legacy","1024","2","48000","-16","task","5206985","odd","NA","31311","37095","33313","65476","5079","23471","16336","65978","NA","65473","65979","65360","37095","66765","29511","64860","5071","NA","Lexical Decision Task","20","15477","20","yes","1024"
"3.168400243","9.12","6","horn","word","100","100","769.8095238095239","769.8095238095239","black","no","legacy","legacy","legacy","0","uniform","1","undefined","undefined","undefined","1","j","0","0","0","0","20","0","0","0","20","NA","16","20","16","0","16","3","20","0","20","Fri Mar 12 20:26:19 2021","The main experiment item","yes","Lexical_Decision_Task.osexp","C:/Users/chris/OneDrive/Desktop","no","Andale Mono","no","18","no","white","no","yes","576","legacy","16","16","3","C:/Users/chris/OneDrive/Desktop/subject-5206985.csv","legacy","Lentiform Loewenfeld","3.3.7","yes","yes","600bd7cfb6416f0113b04181","602110864497cf011d9c0822","0","j","NA","space","n","space","NA","j","689","NA","3781","11247","7134","NA","689","2","legacy","1024","2","48000","-16","task","5206985","odd","NA","31311","37095","33313","67384","5079","23471","16336","67886","NA","67380","67887","67273","37095","68577","29511","66773","5071","NA","Lexical Decision Task","21","16166","21","yes","1024"
"3.282244367","0","6","fute","non-word","100","100","770.6818181818181","770.6818181818181","black","no","legacy","legacy","legacy","0","uniform","1","undefined","undefined","undefined","1","f","0","0","0","0","21","0","0","0","21","NA","17","21","17","0","17","3","21","0","21","Fri Mar 12 20:26:19 2021","The main experiment item","yes","Lexical_Decision_Task.osexp","C:/Users/chris/OneDrive/Desktop","no","Andale Mono","no","18","no","white","no","yes","576","legacy","17","17","3","C:/Users/chris/OneDrive/Desktop/subject-5206985.csv","legacy","Lentiform Loewenfeld","3.3.7","yes","yes","600bd7cfb6416f0113b04181","602110864497cf011d9c0822","0","f","NA","space","n","space","NA","f","789","NA","3781","11247","7134","NA","789","2","legacy","1024","2","48000","-16","task","5206985","odd","NA","31311","37095","33313","69197","5079","23471","16336","69699","NA","69194","69699","69086","37095","70489","29511","68585","5071","NA","Lexical Decision Task","22","16955","22","yes","1024"
"3.259832699","0","9","flar","non-word","100","100","774.2173913043479","774.2173913043479","black","no","legacy","legacy","legacy","0","uniform","1","undefined","undefined","undefined","1","f","0","0","0","0","22","0","0","0","22","NA","18","22","18","0","18","3","22","0","22","Fri Mar 12 20:26:19 2021","The main experiment item","yes","Lexical_Decision_Task.osexp","C:/Users/chris/OneDrive/Desktop","no","Andale Mono","no","18","no","white","no","yes","576","legacy","18","18","3","C:/Users/chris/OneDrive/Desktop/subject-5206985.csv","legacy","Lentiform Loewenfeld","3.3.7","yes","yes","600bd7cfb6416f0113b04181","602110864497cf011d9c0822","0","f","NA","space","n","space","NA","f","852","NA","3781","11247","7134","NA","852","2","legacy","1024","2","48000","-16","task","5206985","odd","NA","31311","37095","33313","71107","5079","23471","16336","71612","NA","71104","71612","70997","37095","72465","29511","70497","5071","NA","Lexical Decision Task","23","17807","23","yes","1024"
"3.131833513","7.66","4","limb","word","100","100","771.2916666666666","771.2916666666666","black","no","legacy","legacy","legacy","0","uniform","1","undefined","undefined","undefined","1","j","0","0","0","0","23","0","0","0","23","NA","19","23","19","0","19","3","23","0","23","Fri Mar 12 20:26:19 2021","The main experiment item","yes","Lexical_Decision_Task.osexp","C:/Users/chris/OneDrive/Desktop","no","Andale Mono","no","18","no","white","no","yes","576","legacy","19","19","3","C:/Users/chris/OneDrive/Desktop/subject-5206985.csv","legacy","Lentiform Loewenfeld","3.3.7","yes","yes","600bd7cfb6416f0113b04181","602110864497cf011d9c0822","0","j","NA","space","n","space","NA","j","704","NA","3781","11247","7134","NA","704","2","legacy","1024","2","48000","-16","task","5206985","odd","NA","31311","37095","33313","73088","5079","23471","16336","73590","NA","73085","73591","72977","37095","74296","29511","72476","5071","NA","Lexical Decision Task","24","18511","24","yes","1024"
"2.972819734","0","4","scew","non-word","100","100","776.96","776.96","black","no","legacy","legacy","legacy","0","uniform","1","undefined","undefined","undefined","1","f","0","0","0","0","24","0","0","0","24","NA","20","24","20","0","20","3","24","0","24","Fri Mar 12 20:26:19 2021","The main experiment item","yes","Lexical_Decision_Task.osexp","C:/Users/chris/OneDrive/Desktop","no","Andale Mono","no","18","no","white","no","yes","576","legacy","20","20","3","C:/Users/chris/OneDrive/Desktop/subject-5206985.csv","legacy","Lentiform Loewenfeld","3.3.7","yes","yes","600bd7cfb6416f0113b04181","602110864497cf011d9c0822","0","f","NA","space","n","space","NA","f","913","NA","3781","11247","7134","NA","913","2","legacy","1024","2","48000","-16","task","5206985","odd","NA","31311","37095","33313","74921","5079","23471","16336","75423","NA","74917","75424","74805","37095","76339","29511","74305","5071","NA","Lexical Decision Task","25","19424","25","yes","1024"
"3.22685757","9.99","7","roll","word","100","100","776.4615384615385","776.4615384615385","black","no","legacy","legacy","legacy","0","uniform","1","undefined","undefined","undefined","1","j","0","0","0","0","25","0","0","0","25","NA","21","25","21","0","21","3","25","0","25","Fri Mar 12 20:26:19 2021","The main experiment item","yes","Lexical_Decision_Task.osexp","C:/Users/chris/OneDrive/Desktop","no","Andale Mono","no","18","no","white","no","yes","576","legacy","21","21","3","C:/Users/chris/OneDrive/Desktop/subject-5206985.csv","legacy","Lentiform Loewenfeld","3.3.7","yes","yes","600bd7cfb6416f0113b04181","602110864497cf011d9c0822","0","j","NA","space","n","space","NA","j","764","NA","3781","11247","7134","NA","764","2","legacy","1024","2","48000","-16","task","5206985","odd","NA","31311","37095","33313","76958","5079","23471","16336","77460","NA","76955","77461","76847","37095","78226","29511","76347","5071","NA","Lexical Decision Task","26","20188","26","yes","1024"
"2.983324025","9.56","2","debt","word","100","100","776.7407407407408","776.7407407407408","black","no","legacy","legacy","legacy","0","uniform","1","undefined","undefined","undefined","1","j","0","0","0","0","26","0","0","0","26","NA","22","26","22","0","22","3","26","0","26","Fri Mar 12 20:26:19 2021","The main experiment item","yes","Lexical_Decision_Task.osexp","C:/Users/chris/OneDrive/Desktop","no","Andale Mono","no","18","no","white","no","yes","576","legacy","22","22","3","C:/Users/chris/OneDrive/Desktop/subject-5206985.csv","legacy","Lentiform Loewenfeld","3.3.7","yes","yes","600bd7cfb6416f0113b04181","602110864497cf011d9c0822","0","j","NA","space","n","space","NA","j","784","NA","3781","11247","7134","NA","784","2","legacy","1024","2","48000","-16","task","5206985","odd","NA","31311","37095","33313","78852","5079","23471","16336","79354","NA","78849","79355","78734","37095","80140","29511","78234","5071","NA","Lexical Decision Task","27","20972","27","yes","1024"
"3.443783828","7.65","3","verb","word","100","100","770.1428571428571","770.1428571428571","black","no","legacy","legacy","legacy","0","uniform","1","undefined","undefined","undefined","1","j","0","0","0","0","27","0","0","0","27","NA","23","27","23","0","23","3","27","0","27","Fri Mar 12 20:26:19 2021","The main experiment item","yes","Lexical_Decision_Task.osexp","C:/Users/chris/OneDrive/Desktop","no","Andale Mono","no","18","no","white","no","yes","576","legacy","23","23","3","C:/Users/chris/OneDrive/Desktop/subject-5206985.csv","legacy","Lentiform Loewenfeld","3.3.7","yes","yes","600bd7cfb6416f0113b04181","602110864497cf011d9c0822","0","j","NA","space","n","space","NA","j","592","NA","3781","11247","7134","NA","592","2","legacy","1024","2","48000","-16","task","5206985","odd","NA","31311","37095","33313","80758","5079","23471","16336","81259","NA","80755","81260","80648","37095","81853","29511","80148","5071","NA","Lexical Decision Task","28","21564","28","yes","1024"
"2.80048796","0","8","pife","non-word","100","100","775.2758620689655","775.2758620689655","black","no","legacy","legacy","legacy","0","uniform","1","undefined","undefined","undefined","1","f","0","0","0","0","28","0","0","0","28","NA","24","28","24","0","24","3","28","0","28","Fri Mar 12 20:26:19 2021","The main experiment item","yes","Lexical_Decision_Task.osexp","C:/Users/chris/OneDrive/Desktop","no","Andale Mono","no","18","no","white","no","yes","576","legacy","24","24","3","C:/Users/chris/OneDrive/Desktop/subject-5206985.csv","legacy","Lentiform Loewenfeld","3.3.7","yes","yes","600bd7cfb6416f0113b04181","602110864497cf011d9c0822","0","f","NA","space","n","space","NA","f","919","NA","3781","11247","7134","NA","919","2","legacy","1024","2","48000","-16","task","5206985","odd","NA","31311","37095","33313","82472","5079","23471","16336","82974","NA","82469","82975","82361","37095","83896","29511","81861","5071","NA","Lexical Decision Task","29","22483","29","yes","1024"
"2.807758206","6.25","4","hurl","word","96.66666666666667","96.66666666666667","769","769","black","no","legacy","legacy","legacy","0","uniform","0","undefined","undefined","undefined","0","j","0","0","0","0","29","0","0","0","29","NA","25","29","25","0","25","3","29","0","29","Fri Mar 12 20:26:19 2021","The main experiment item","yes","Lexical_Decision_Task.osexp","C:/Users/chris/OneDrive/Desktop","no","Andale Mono","no","18","no","white","no","yes","576","legacy","25","25","3","C:/Users/chris/OneDrive/Desktop/subject-5206985.csv","legacy","Lentiform Loewenfeld","3.3.7","yes","yes","600bd7cfb6416f0113b04181","602110864497cf011d9c0822","0","f","NA","space","n","space","NA","f","587","NA","3781","11247","7134","NA","587","2","legacy","1024","2","48000","-16","task","5206985","odd","NA","31311","37095","33313","84517","5079","23471","16336","85020","NA","84513","85021","84405","37095","85610","29511","83905","5071","NA","Lexical Decision Task","29","23070","30","yes","1024"
"2.899092422","7.27","6","snag","word","96.7741935483871","96.7741935483871","771.8709677419355","771.8709677419355","black","no","legacy","legacy","legacy","0","uniform","1","undefined","undefined","undefined","1","j","0","0","0","0","30","0","0","0","30","NA","26","30","26","0","26","3","30","0","30","Fri Mar 12 20:26:19 2021","The main experiment item","yes","Lexical_Decision_Task.osexp","C:/Users/chris/OneDrive/Desktop","no","Andale Mono","no","18","no","white","no","yes","576","legacy","26","26","3","C:/Users/chris/OneDrive/Desktop/subject-5206985.csv","legacy","Lentiform Loewenfeld","3.3.7","yes","yes","600bd7cfb6416f0113b04181","602110864497cf011d9c0822","0","j","NA","space","n","space","NA","j","858","NA","3781","11247","7134","NA","858","2","legacy","1024","2","48000","-16","task","5206985","odd","NA","31311","37095","33313","87230","5079","23471","16336","87736","NA","87227","87736","87118","37095","88595","29511","83905","5071","85618","Lexical Decision Task","30","23928","31","yes","1024"
"3.316948329","0","1","besc","non-word","96.875","96.875","770.34375","770.34375","black","no","legacy","legacy","legacy","0","uniform","1","undefined","undefined","undefined","1","f","0","0","0","0","31","0","0","0","31","NA","27","31","27","0","27","3","31","0","31","Fri Mar 12 20:26:19 2021","The main experiment item","yes","Lexical_Decision_Task.osexp","C:/Users/chris/OneDrive/Desktop","no","Andale Mono","no","18","no","white","no","yes","576","legacy","27","27","3","C:/Users/chris/OneDrive/Desktop/subject-5206985.csv","legacy","Lentiform Loewenfeld","3.3.7","yes","yes","600bd7cfb6416f0113b04181","602110864497cf011d9c0822","0","f","NA","space","n","space","NA","f","723","NA","3781","11247","7134","NA","723","2","legacy","1024","2","48000","-16","task","5206985","odd","NA","31311","37095","33313","89216","5079","23471","16336","89719","NA","89212","89720","89104","37095","90444","29511","88603","5071","85618","Lexical Decision Task","31","24651","32","yes","1024"
"3.216517684","10.87","3","film","word","96.96969696969697","96.96969696969697","766.6666666666666","766.6666666666666","black","no","legacy","legacy","legacy","0","uniform","1","undefined","undefined","undefined","1","j","0","0","0","0","32","0","0","0","32","NA","28","32","28","0","28","3","32","0","32","Fri Mar 12 20:26:19 2021","The main experiment item","yes","Lexical_Decision_Task.osexp","C:/Users/chris/OneDrive/Desktop","no","Andale Mono","no","18","no","white","no","yes","576","legacy","28","28","3","C:/Users/chris/OneDrive/Desktop/subject-5206985.csv","legacy","Lentiform Loewenfeld","3.3.7","yes","yes","600bd7cfb6416f0113b04181","602110864497cf011d9c0822","0","j","NA","space","n","space","NA","j","649","NA","3781","11247","7134","NA","649","2","legacy","1024","2","48000","-16","task","5206985","odd","NA","31311","37095","33313","91066","5079","23471","16336","91568","NA","91063","91569","90952","37095","92219","29511","90452","5071","85618","Lexical Decision Task","32","25300","33","yes","1024"
"2.767650507","0","6","yolt","non-word","97.05882352941177","97.05882352941177","774.8823529411765","774.8823529411765","black","no","legacy","legacy","legacy","0","uniform","1","undefined","undefined","undefined","1","f","0","0","0","0","33","0","0","0","33","NA","29","33","29","0","29","3","33","0","33","Fri Mar 12 20:26:19 2021","The main experiment item","yes","Lexical_Decision_Task.osexp","C:/Users/chris/OneDrive/Desktop","no","Andale Mono","no","18","no","white","no","yes","576","legacy","29","29","3","C:/Users/chris/OneDrive/Desktop/subject-5206985.csv","legacy","Lentiform Loewenfeld","3.3.7","yes","yes","600bd7cfb6416f0113b04181","602110864497cf011d9c0822","0","f","NA","space","n","space","NA","f","1046","NA","3781","11247","7134","NA","1046","2","legacy","1024","2","48000","-16","task","5206985","odd","NA","31311","37095","33313","92838","5079","23471","16336","93340","NA","92835","93341","92727","37095","94388","29511","92227","5071","85618","Lexical Decision Task","33","26346","34","yes","1024"
"3.076883066","0","8","mout","non-word","97.14285714285714","97.14285714285714","788.0285714285715","788.0285714285715","black","no","legacy","legacy","legacy","0","uniform","1","undefined","undefined","undefined","1","f","0","0","0","0","34","0","0","0","34","NA","30","34","30","0","30","3","34","0","34","Fri Mar 12 20:26:19 2021","The main experiment item","yes","Lexical_Decision_Task.osexp","C:/Users/chris/OneDrive/Desktop","no","Andale Mono","no","18","no","white","no","yes","576","legacy","30","30","3","C:/Users/chris/OneDrive/Desktop/subject-5206985.csv","legacy","Lentiform Loewenfeld","3.3.7","yes","yes","600bd7cfb6416f0113b04181","602110864497cf011d9c0822","0","f","NA","space","n","space","NA","f","1235","NA","3781","11247","7134","NA","1235","2","legacy","1024","2","48000","-16","task","5206985","odd","NA","31311","37095","33313","95006","5079","23471","16336","95508","NA","95004","95509","94897","37095","96746","29511","94396","5071","85618","Lexical Decision Task","34","27581","35","yes","1024"
"3.397302518","7.01","2","knit","word","97.22222222222223","97.22222222222223","783.7222222222222","783.7222222222222","black","no","legacy","legacy","legacy","0","uniform","1","undefined","undefined","undefined","1","j","0","0","0","0","35","0","0","0","35","NA","31","35","31","0","31","3","35","0","35","Fri Mar 12 20:26:19 2021","The main experiment item","yes","Lexical_Decision_Task.osexp","C:/Users/chris/OneDrive/Desktop","no","Andale Mono","no","18","no","white","no","yes","576","legacy","31","31","3","C:/Users/chris/OneDrive/Desktop/subject-5206985.csv","legacy","Lentiform Loewenfeld","3.3.7","yes","yes","600bd7cfb6416f0113b04181","602110864497cf011d9c0822","0","j","NA","space","n","space","NA","j","633","NA","3781","11247","7134","NA","633","2","legacy","1024","2","48000","-16","task","5206985","odd","NA","31311","37095","33313","97365","5079","23471","16336","97867","NA","97362","97868","97254","37095","98502","29511","96754","5071","85618","Lexical Decision Task","35","28214","36","yes","1024"
"2.703007489","8.37","3","pulp","word","97.29729729729729","97.29729729729729","782.3783783783783","782.3783783783783","black","no","legacy","legacy","legacy","0","uniform","1","undefined","undefined","undefined","1","j","0","0","0","0","36","0","0","0","36","NA","32","36","32","0","32","3","36","0","36","Fri Mar 12 20:26:19 2021","The main experiment item","yes","Lexical_Decision_Task.osexp","C:/Users/chris/OneDrive/Desktop","no","Andale Mono","no","18","no","white","no","yes","576","legacy","32","32","3","C:/Users/chris/OneDrive/Desktop/subject-5206985.csv","legacy","Lentiform Loewenfeld","3.3.7","yes","yes","600bd7cfb6416f0113b04181","602110864497cf011d9c0822","0","j","NA","space","n","space","NA","j","734","NA","3781","11247","7134","NA","734","2","legacy","1024","2","48000","-16","task","5206985","odd","NA","31311","37095","33313","99121","5079","23471","16336","99624","NA","99118","99625","99012","37095","100360","29511","98511","5071","85618","Lexical Decision Task","36","28948","37","yes","1024"
"2.803231716","5.26","3","kiln","word","97.36842105263158","97.36842105263158","780.078947368421","780.078947368421","black","no","legacy","legacy","legacy","0","uniform","1","undefined","undefined","undefined","1","j","0","0","0","0","37","0","0","0","37","NA","33","37","33","0","33","3","37","0","37","Fri Mar 12 20:26:19 2021","The main experiment item","yes","Lexical_Decision_Task.osexp","C:/Users/chris/OneDrive/Desktop","no","Andale Mono","no","18","no","white","no","yes","576","legacy","33","33","3","C:/Users/chris/OneDrive/Desktop/subject-5206985.csv","legacy","Lentiform Loewenfeld","3.3.7","yes","yes","600bd7cfb6416f0113b04181","602110864497cf011d9c0822","0","j","NA","space","n","space","NA","j","695","NA","3781","11247","7134","NA","695","2","legacy","1024","2","48000","-16","task","5206985","odd","NA","31311","37095","33313","100979","5079","23471","16336","101481","NA","100976","101482","100869","37095","102179","29511","100368","5071","85618","Lexical Decision Task","37","29643","38","yes","1024"
"3.481012421","8.34","5","teen","word","97.43589743589743","97.43589743589743","777.9487179487179","777.9487179487179","black","no","legacy","legacy","legacy","0","uniform","1","undefined","undefined","undefined","1","j","0","0","0","0","38","0","0","0","38","NA","34","38","34","0","34","3","38","0","38","Fri Mar 12 20:26:19 2021","The main experiment item","yes","Lexical_Decision_Task.osexp","C:/Users/chris/OneDrive/Desktop","no","Andale Mono","no","18","no","white","no","yes","576","legacy","34","34","3","C:/Users/chris/OneDrive/Desktop/subject-5206985.csv","legacy","Lentiform Loewenfeld","3.3.7","yes","yes","600bd7cfb6416f0113b04181","602110864497cf011d9c0822","0","j","NA","space","n","space","NA","j","697","NA","3781","11247","7134","NA","697","2","legacy","1024","2","48000","-16","task","5206985","odd","NA","31311","37095","33313","102797","5079","23471","16336","103299","NA","102794","103300","102687","37095","103998","29511","102187","5071","85618","Lexical Decision Task","38","30340","39","yes","1024"
"2.9737419","7.69","7","claw","word","97.5","97.5","774.9","774.9","black","no","legacy","legacy","legacy","0","uniform","1","undefined","undefined","undefined","1","j","0","0","0","0","39","0","0","0","39","NA","35","39","35","0","35","3","39","0","39","Fri Mar 12 20:26:19 2021","The main experiment item","yes","Lexical_Decision_Task.osexp","C:/Users/chris/OneDrive/Desktop","no","Andale Mono","no","18","no","white","no","yes","576","legacy","35","35","3","C:/Users/chris/OneDrive/Desktop/subject-5206985.csv","legacy","Lentiform Loewenfeld","3.3.7","yes","yes","600bd7cfb6416f0113b04181","602110864497cf011d9c0822","0","j","NA","space","n","space","NA","j","656","NA","3781","11247","7134","NA","656","2","legacy","1024","2","48000","-16","task","5206985","odd","NA","31311","37095","33313","104621","5079","23471","16336","105123","NA","104618","105124","104509","37095","105781","29511","104009","5071","85618","Lexical Decision Task","39","30996","40","yes","1024"
"3.372543801","9.24","8","coat","word","97.5609756097561","97.5609756097561","776.7073170731708","776.7073170731708","black","no","legacy","legacy","legacy","0","uniform","1","undefined","undefined","undefined","1","j","0","0","0","0","40","0","0","0","40","NA","36","40","36","0","36","3","40","0","40","Fri Mar 12 20:26:19 2021","The main experiment item","yes","Lexical_Decision_Task.osexp","C:/Users/chris/OneDrive/Desktop","no","Andale Mono","no","18","no","white","no","yes","576","legacy","36","36","3","C:/Users/chris/OneDrive/Desktop/subject-5206985.csv","legacy","Lentiform Loewenfeld","3.3.7","yes","yes","600bd7cfb6416f0113b04181","602110864497cf011d9c0822","0","j","NA","space","n","space","NA","j","849","NA","3781","11247","7134","NA","849","2","legacy","1024","2","48000","-16","task","5206985","odd","NA","31311","37095","33313","106399","5079","23471","16336","106901","NA","106396","106902","106290","37095","107752","29511","105790","5071","85618","Lexical Decision Task","40","31845","41","yes","1024"
"3.366547468","0","6","plat","non-word","95.23809523809524","95.23809523809524","776.6904761904761","776.6904761904761","black","no","legacy","legacy","legacy","0","uniform","0","undefined","undefined","undefined","0","f","0","0","0","0","41","0","0","0","41","NA","37","41","37","0","37","3","41","0","41","Fri Mar 12 20:26:19 2021","The main experiment item","yes","Lexical_Decision_Task.osexp","C:/Users/chris/OneDrive/Desktop","no","Andale Mono","no","18","no","white","no","yes","576","legacy","37","37","3","C:/Users/chris/OneDrive/Desktop/subject-5206985.csv","legacy","Lentiform Loewenfeld","3.3.7","yes","yes","600bd7cfb6416f0113b04181","602110864497cf011d9c0822","0","j","NA","space","n","space","NA","j","776","NA","3781","11247","7134","NA","776","2","legacy","1024","2","48000","-16","task","5206985","odd","NA","31311","37095","33313","108375","5079","23471","16336","108880","NA","108372","108880","108260","37095","109657","29511","107760","5071","85618","Lexical Decision Task","40","32621","42","yes","1024"
"2.893578687","8.69","3","surf","word","95.34883720930233","95.34883720930233","775.6046511627907","775.6046511627907","black","no","legacy","legacy","legacy","0","uniform","1","undefined","undefined","undefined","1","j","0","0","0","0","42","0","0","0","42","NA","38","42","38","0","38","3","42","0","42","Fri Mar 12 20:26:19 2021","The main experiment item","yes","Lexical_Decision_Task.osexp","C:/Users/chris/OneDrive/Desktop","no","Andale Mono","no","18","no","white","no","yes","576","legacy","38","38","3","C:/Users/chris/OneDrive/Desktop/subject-5206985.csv","legacy","Lentiform Loewenfeld","3.3.7","yes","yes","600bd7cfb6416f0113b04181","602110864497cf011d9c0822","0","j","NA","space","n","space","NA","j","730","NA","3781","11247","7134","NA","730","2","legacy","1024","2","48000","-16","task","5206985","odd","NA","31311","37095","33313","111275","5079","23471","16336","111778","NA","111272","111778","111166","37095","112509","29511","107760","5071","109666","Lexical Decision Task","41","33351","43","yes","1024"
"3.492014979","0","9","yine","non-word","95.45454545454545","95.45454545454545","777.7727272727273","777.7727272727273","black","no","legacy","legacy","legacy","0","uniform","1","undefined","undefined","undefined","1","f","0","0","0","0","43","0","0","0","43","NA","39","43","39","0","39","3","43","0","43","Fri Mar 12 20:26:19 2021","The main experiment item","yes","Lexical_Decision_Task.osexp","C:/Users/chris/OneDrive/Desktop","no","Andale Mono","no","18","no","white","no","yes","576","legacy","39","39","3","C:/Users/chris/OneDrive/Desktop/subject-5206985.csv","legacy","Lentiform Loewenfeld","3.3.7","yes","yes","600bd7cfb6416f0113b04181","602110864497cf011d9c0822","0","f","NA","space","n","space","NA","f","871","NA","3781","11247","7134","NA","871","2","legacy","1024","2","48000","-16","task","5206985","odd","NA","31311","37095","33313","113128","5079","23471","16336","113630","NA","113125","113631","113018","37095","114504","29511","112518","5071","109666","Lexical Decision Task","42","34222","44","yes","1024"
"2.980306438","0","7","slun","non-word","93.33333333333333","93.33333333333333","780.7555555555556","780.7555555555556","black","no","legacy","legacy","legacy","0","uniform","0","undefined","undefined","undefined","0","f","0","0","0","0","44","0","0","0","44","NA","40","44","40","0","40","3","44","0","44","Fri Mar 12 20:26:19 2021","The main experiment item","yes","Lexical_Decision_Task.osexp","C:/Users/chris/OneDrive/Desktop","no","Andale Mono","no","18","no","white","no","yes","576","legacy","40","40","3","C:/Users/chris/OneDrive/Desktop/subject-5206985.csv","legacy","Lentiform Loewenfeld","3.3.7","yes","yes","600bd7cfb6416f0113b04181","602110864497cf011d9c0822","0","j","NA","space","n","space","NA","j","912","NA","3781","11247","7134","NA","912","2","legacy","1024","2","48000","-16","task","5206985","odd","NA","31311","37095","33313","115127","5079","23471","16336","115629","NA","115123","115629","115012","37095","116542","29511","114512","5071","109666","Lexical Decision Task","42","35134","45","yes","1024"
"2.842815106","7.86","8","lump","word","93.47826086956522","93.47826086956522","780.5869565217391","780.5869565217391","black","no","legacy","legacy","legacy","0","uniform","1","undefined","undefined","undefined","1","j","0","0","0","0","45","0","0","0","45","NA","41","45","41","0","41","3","45","0","45","Fri Mar 12 20:26:19 2021","The main experiment item","yes","Lexical_Decision_Task.osexp","C:/Users/chris/OneDrive/Desktop","no","Andale Mono","no","18","no","white","no","yes","576","legacy","41","41","3","C:/Users/chris/OneDrive/Desktop/subject-5206985.csv","legacy","Lentiform Loewenfeld","3.3.7","yes","yes","600bd7cfb6416f0113b04181","602110864497cf011d9c0822","0","j","NA","space","n","space","NA","j","773","NA","3781","11247","7134","NA","773","2","legacy","1024","2","48000","-16","task","5206985","odd","NA","31311","37095","33313","118174","5079","23471","16336","118677","NA","118171","118677","118051","37095","119451","29511","114512","5071","116551","Lexical Decision Task","43","35907","46","yes","1024"
"3.1430148","7.92","8","bald","word","93.61702127659575","93.61702127659575","776.6382978723404","776.6382978723404","black","no","legacy","legacy","legacy","0","uniform","1","undefined","undefined","undefined","1","j","0","0","0","0","46","0","0","0","46","NA","42","46","42","0","42","3","46","0","46","Fri Mar 12 20:26:19 2021","The main experiment item","yes","Lexical_Decision_Task.osexp","C:/Users/chris/OneDrive/Desktop","no","Andale Mono","no","18","no","white","no","yes","576","legacy","42","42","3","C:/Users/chris/OneDrive/Desktop/subject-5206985.csv","legacy","Lentiform Loewenfeld","3.3.7","yes","yes","600bd7cfb6416f0113b04181","602110864497cf011d9c0822","0","j","NA","space","n","space","NA","j","595","NA","3781","11247","7134","NA","595","2","legacy","1024","2","48000","-16","task","5206985","odd","NA","31311","37095","33313","120070","5079","23471","16336","120572","NA","120067","120573","119960","37095","121169","29511","119460","5071","116551","Lexical Decision Task","44","36502","47","yes","1024"
"3.194328374","9.42","6","harm","word","93.75","93.75","775.6875","775.6875","black","no","legacy","legacy","legacy","0","uniform","1","undefined","undefined","undefined","1","j","0","0","0","0","47","0","0","0","47","NA","43","47","43","0","43","3","47","0","47","Fri Mar 12 20:26:19 2021","The main experiment item","yes","Lexical_Decision_Task.osexp","C:/Users/chris/OneDrive/Desktop","no","Andale Mono","no","18","no","white","no","yes","576","legacy","43","43","3","C:/Users/chris/OneDrive/Desktop/subject-5206985.csv","legacy","Lentiform Loewenfeld","3.3.7","yes","yes","600bd7cfb6416f0113b04181","602110864497cf011d9c0822","0","j","NA","space","n","space","NA","j","731","NA","3781","11247","7134","NA","731","2","legacy","1024","2","48000","-16","task","5206985","odd","NA","31311","37095","33313","121788","5079","23471","16336","122290","NA","121785","122291","121678","37095","123023","29511","121178","5071","116551","Lexical Decision Task","45","37233","48","yes","1024"
"3.068433376","8.09","2","bulb","word","93.87755102040816","93.87755102040816","777.0816326530612","777.0816326530612","black","no","legacy","legacy","legacy","0","uniform","1","undefined","undefined","undefined","1","j","0","0","0","0","48","0","0","0","48","NA","44","48","44","0","44","3","48","0","48","Fri Mar 12 20:26:19 2021","The main experiment item","yes","Lexical_Decision_Task.osexp","C:/Users/chris/OneDrive/Desktop","no","Andale Mono","no","18","no","white","no","yes","576","legacy","44","44","3","C:/Users/chris/OneDrive/Desktop/subject-5206985.csv","legacy","Lentiform Loewenfeld","3.3.7","yes","yes","600bd7cfb6416f0113b04181","602110864497cf011d9c0822","0","j","NA","space","n","space","NA","j","844","NA","3781","11247","7134","NA","844","2","legacy","1024","2","48000","-16","task","5206985","odd","NA","31311","37095","33313","123643","5079","23471","16336","124145","NA","123639","124146","123533","37095","124991","29511","123032","5071","116551","Lexical Decision Task","46","38077","49","yes","1024"
"2.69019608","9.01","2","myth","word","94","94","774.88","774.88","black","no","legacy","legacy","legacy","0","uniform","1","undefined","undefined","undefined","1","j","0","0","0","0","49","0","0","0","49","NA","45","49","45","0","45","3","49","0","49","Fri Mar 12 20:26:19 2021","The main experiment item","yes","Lexical_Decision_Task.osexp","C:/Users/chris/OneDrive/Desktop","no","Andale Mono","no","18","no","white","no","yes","576","legacy","45","45","3","C:/Users/chris/OneDrive/Desktop/subject-5206985.csv","legacy","Lentiform Loewenfeld","3.3.7","yes","yes","600bd7cfb6416f0113b04181","602110864497cf011d9c0822","0","j","NA","space","n","space","NA","j","667","NA","3781","11247","7134","NA","667","2","legacy","1024","2","48000","-16","task","5206985","odd","NA","31311","37095","33313","125619","5079","23471","16336","126121","NA","125616","126122","125500","37095","126790","29511","125000","5071","116551","Lexical Decision Task","47","38744","50","yes","1024"
"2.952953801","0","8","clax","non-word","94.11764705882354","94.11764705882354","772.843137254902","772.843137254902","black","no","legacy","legacy","legacy","0","uniform","1","undefined","undefined","undefined","1","f","0","0","0","0","50","0","0","0","50","NA","46","50","46","0","46","3","50","0","50","Fri Mar 12 20:26:19 2021","The main experiment item","yes","Lexical_Decision_Task.osexp","C:/Users/chris/OneDrive/Desktop","no","Andale Mono","no","18","no","white","no","yes","576","legacy","46","46","3","C:/Users/chris/OneDrive/Desktop/subject-5206985.csv","legacy","Lentiform Loewenfeld","3.3.7","yes","yes","600bd7cfb6416f0113b04181","602110864497cf011d9c0822","0","f","NA","space","n","space","NA","f","671","NA","3781","11247","7134","NA","671","2","legacy","1024","2","48000","-16","task","5206985","odd","NA","31311","37095","33313","127409","5079","23471","16336","127910","NA","127405","127911","127299","37095","128583","29511","126798","5071","116551","Lexical Decision Task","48","39415","51","yes","1024"
"3.091901331","0","9","nipe","non-word","94.23076923076923","94.23076923076923","774.0192307692307","774.0192307692307","black","no","legacy","legacy","legacy","0","uniform","1","undefined","undefined","undefined","1","f","0","0","0","0","51","0","0","0","51","NA","47","51","47","0","47","3","51","0","51","Fri Mar 12 20:26:19 2021","The main experiment item","yes","Lexical_Decision_Task.osexp","C:/Users/chris/OneDrive/Desktop","no","Andale Mono","no","18","no","white","no","yes","576","legacy","47","47","3","C:/Users/chris/OneDrive/Desktop/subject-5206985.csv","legacy","Lentiform Loewenfeld","3.3.7","yes","yes","600bd7cfb6416f0113b04181","602110864497cf011d9c0822","0","f","NA","space","n","space","NA","f","834","NA","3781","11247","7134","NA","834","2","legacy","1024","2","48000","-16","task","5206985","odd","NA","31311","37095","33313","129203","5079","23471","16336","129709","NA","129199","129710","129092","37095","130545","29511","128592","5071","116551","Lexical Decision Task","49","40249","52","yes","1024"
"3.257359335","8","6","brew","word","94.33962264150944","94.33962264150944","774.3962264150944","774.3962264150944","black","no","legacy","legacy","legacy","0","uniform","1","undefined","undefined","undefined","1","j","0","0","0","0","52","0","0","0","52","NA","48","52","48","0","48","3","52","0","52","Fri Mar 12 20:26:19 2021","The main experiment item","yes","Lexical_Decision_Task.osexp","C:/Users/chris/OneDrive/Desktop","no","Andale Mono","no","18","no","white","no","yes","576","legacy","48","48","3","C:/Users/chris/OneDrive/Desktop/subject-5206985.csv","legacy","Lentiform Loewenfeld","3.3.7","yes","yes","600bd7cfb6416f0113b04181","602110864497cf011d9c0822","0","j","NA","space","n","space","NA","j","794","NA","3781","11247","7134","NA","794","2","legacy","1024","2","48000","-16","task","5206985","odd","NA","31311","37095","33313","131163","5079","23471","16336","131665","NA","131160","131666","131054","37095","132462","29511","130554","5071","116551","Lexical Decision Task","50","41043","53","yes","1024"
"2.782472624","10.55","2","huge","word","94.44444444444444","94.44444444444444","770.074074074074","770.074074074074","black","no","legacy","legacy","legacy","0","uniform","1","undefined","undefined","undefined","1","j","0","0","0","0","53","0","0","0","53","NA","49","53","49","0","49","3","53","0","53","Fri Mar 12 20:26:19 2021","The main experiment item","yes","Lexical_Decision_Task.osexp","C:/Users/chris/OneDrive/Desktop","no","Andale Mono","no","18","no","white","no","yes","576","legacy","49","49","3","C:/Users/chris/OneDrive/Desktop/subject-5206985.csv","legacy","Lentiform Loewenfeld","3.3.7","yes","yes","600bd7cfb6416f0113b04181","602110864497cf011d9c0822","0","j","NA","space","n","space","NA","j","541","NA","3781","11247","7134","NA","541","2","legacy","1024","2","48000","-16","task","5206985","odd","NA","31311","37095","33313","133081","5079","23471","16336","133583","NA","133078","133584","132970","37095","134127","29511","132470","5071","116551","Lexical Decision Task","51","41584","54","yes","1024"
"3.378276681","6.39","8","bran","word","94.54545454545455","94.54545454545455","777","777","black","no","legacy","legacy","legacy","0","uniform","1","undefined","undefined","undefined","1","j","0","0","0","0","54","0","0","0","54","0","50","54","50","0","50","3","54","0","54","Fri Mar 12 20:26:19 2021","The main experiment item","yes","Lexical_Decision_Task.osexp","C:/Users/chris/OneDrive/Desktop","no","Andale Mono","no","18","no","white","no","yes","576","legacy","50","50","3","C:/Users/chris/OneDrive/Desktop/subject-5206985.csv","legacy","Lentiform Loewenfeld","3.3.7","yes","yes","600bd7cfb6416f0113b04181","602110864497cf011d9c0822","0","j","NA","space","n","space","f","j","1151","NA","3781","11247","7134","9151","1151","2","legacy","1024","2","48000","-16","task","5206985","odd","NA","31311","37095","33313","143959","5079","23471","16336","144463","134693","143956","144463","134635","37095","145615","29511","134135","5071","116551","Lexical Decision Task","52","42735","55","yes","1024"
"2.819763221","0","2","durp","non-word","94.64285714285714","94.64285714285714","775.4285714285714","775.4285714285714","black","no","legacy","legacy","legacy","0","uniform","1","undefined","undefined","undefined","1","f","0","0","0","0","55","0","0","0","55","0","51","55","51","0","51","3","55","0","55","Fri Mar 12 20:26:19 2021","The main experiment item","yes","Lexical_Decision_Task.osexp","C:/Users/chris/OneDrive/Desktop","no","Andale Mono","no","18","no","white","no","yes","576","legacy","51","51","3","C:/Users/chris/OneDrive/Desktop/subject-5206985.csv","legacy","Lentiform Loewenfeld","3.3.7","yes","yes","600bd7cfb6416f0113b04181","602110864497cf011d9c0822","0","f","NA","space","n","space","f","f","689","NA","3781","11247","7134","9151","689","2","legacy","1024","2","48000","-16","task","5206985","odd","NA","31311","37095","33313","146237","5079","23471","16336","146740","134693","146233","146740","146124","37095","147430","29511","145624","5071","116551","Lexical Decision Task","53","43424","56","yes","1024"
"3.003891166","8.05","2","frog","word","94.73684210526316","94.73684210526316","775.9122807017544","775.9122807017544","black","no","legacy","legacy","legacy","0","uniform","1","undefined","undefined","undefined","1","j","0","0","0","0","56","0","0","0","56","0","52","56","52","0","52","3","56","0","56","Fri Mar 12 20:26:19 2021","The main experiment item","yes","Lexical_Decision_Task.osexp","C:/Users/chris/OneDrive/Desktop","no","Andale Mono","no","18","no","white","no","yes","576","legacy","52","52","3","C:/Users/chris/OneDrive/Desktop/subject-5206985.csv","legacy","Lentiform Loewenfeld","3.3.7","yes","yes","600bd7cfb6416f0113b04181","602110864497cf011d9c0822","0","j","NA","space","n","space","f","j","803","NA","3781","11247","7134","9151","803","2","legacy","1024","2","48000","-16","task","5206985","odd","NA","31311","37095","33313","148050","5079","23471","16336","148552","134693","148046","148553","147939","37095","149357","29511","147439","5071","116551","Lexical Decision Task","54","44227","57","yes","1024"
"2.845304797","0","6","buct","non-word","94.82758620689656","94.82758620689656","774.8965517241379","774.8965517241379","black","no","legacy","legacy","legacy","0","uniform","1","undefined","undefined","undefined","1","f","0","0","0","0","57","0","0","0","57","0","53","57","53","0","53","3","57","0","57","Fri Mar 12 20:26:19 2021","The main experiment item","yes","Lexical_Decision_Task.osexp","C:/Users/chris/OneDrive/Desktop","no","Andale Mono","no","18","no","white","no","yes","576","legacy","53","53","3","C:/Users/chris/OneDrive/Desktop/subject-5206985.csv","legacy","Lentiform Loewenfeld","3.3.7","yes","yes","600bd7cfb6416f0113b04181","602110864497cf011d9c0822","0","f","NA","space","n","space","f","f","717","NA","3781","11247","7134","9151","717","2","legacy","1024","2","48000","-16","task","5206985","odd","NA","31311","37095","33313","149977","5079","23471","16336","150479","134693","149973","150480","149865","37095","151199","29511","149365","5071","116551","Lexical Decision Task","55","44944","58","yes","1024"
"2.695481676","0","7","goke","non-word","94.91525423728814","94.91525423728814","773.1864406779661","773.1864406779661","black","no","legacy","legacy","legacy","0","uniform","1","undefined","undefined","undefined","1","f","0","0","0","0","58","0","0","0","58","0","54","58","54","0","54","3","58","0","58","Fri Mar 12 20:26:19 2021","The main experiment item","yes","Lexical_Decision_Task.osexp","C:/Users/chris/OneDrive/Desktop","no","Andale Mono","no","18","no","white","no","yes","576","legacy","54","54","3","C:/Users/chris/OneDrive/Desktop/subject-5206985.csv","legacy","Lentiform Loewenfeld","3.3.7","yes","yes","600bd7cfb6416f0113b04181","602110864497cf011d9c0822","0","f","NA","space","n","space","f","f","674","NA","3781","11247","7134","9151","674","2","legacy","1024","2","48000","-16","task","5206985","odd","NA","31311","37095","33313","151819","5079","23471","16336","152322","134693","151816","152322","151708","37095","152998","29511","151208","5071","116551","Lexical Decision Task","56","45618","59","yes","1024"
"2.771097306","0","9","jold","non-word","95","95","769.65","769.65","black","no","legacy","legacy","legacy","0","uniform","1","undefined","undefined","undefined","1","f","0","0","0","0","59","0","0","0","59","0","55","59","55","0","55","3","59","0","59","Fri Mar 12 20:26:19 2021","The main experiment item","yes","Lexical_Decision_Task.osexp","C:/Users/chris/OneDrive/Desktop","no","Andale Mono","no","18","no","white","no","yes","576","legacy","55","55","3","C:/Users/chris/OneDrive/Desktop/subject-5206985.csv","legacy","Lentiform Loewenfeld","3.3.7","yes","yes","600bd7cfb6416f0113b04181","602110864497cf011d9c0822","0","f","NA","space","n","space","f","f","561","NA","3781","11247","7134","9151","561","2","legacy","1024","2","48000","-16","task","5206985","odd","NA","31311","37095","33313","153618","5079","23471","16336","154120","134693","153614","154121","153506","37095","154683","29511","153006","5071","116551","Lexical Decision Task","57","46179","60","yes","1024"
"2.907588697","8.91","9","mood","word","95.08196721311475","95.08196721311475","765.2131147540983","765.2131147540983","black","no","legacy","legacy","legacy","0","uniform","1","undefined","undefined","undefined","1","j","0","0","0","0","60","0","0","0","60","0","56","60","56","0","56","3","60","0","60","Fri Mar 12 20:26:19 2021","The main experiment item","yes","Lexical_Decision_Task.osexp","C:/Users/chris/OneDrive/Desktop","no","Andale Mono","no","18","no","white","no","yes","576","legacy","56","56","3","C:/Users/chris/OneDrive/Desktop/subject-5206985.csv","legacy","Lentiform Loewenfeld","3.3.7","yes","yes","600bd7cfb6416f0113b04181","602110864497cf011d9c0822","0","j","NA","space","n","space","f","j","499","NA","3781","11247","7134","9151","499","2","legacy","1024","2","48000","-16","task","5206985","odd","NA","31311","37095","33313","155303","5079","23471","16336","155805","134693","155300","155806","155192","37095","156306","29511","154691","5071","116551","Lexical Decision Task","58","46678","61","yes","1024"
"3.269668578","0","7","trag","non-word","95.16129032258064","95.16129032258064","764.3548387096774","764.3548387096774","black","no","legacy","legacy","legacy","0","uniform","1","undefined","undefined","undefined","1","f","0","0","0","0","61","0","0","0","61","0","57","61","57","0","57","3","61","0","61","Fri Mar 12 20:26:19 2021","The main experiment item","yes","Lexical_Decision_Task.osexp","C:/Users/chris/OneDrive/Desktop","no","Andale Mono","no","18","no","white","no","yes","576","legacy","57","57","3","C:/Users/chris/OneDrive/Desktop/subject-5206985.csv","legacy","Lentiform Loewenfeld","3.3.7","yes","yes","600bd7cfb6416f0113b04181","602110864497cf011d9c0822","0","f","NA","space","n","space","f","f","712","NA","3781","11247","7134","9151","712","2","legacy","1024","2","48000","-16","task","5206985","odd","NA","31311","37095","33313","156927","5079","23471","16336","157429","134693","156923","157430","156814","37095","158144","29511","156314","5071","116551","Lexical Decision Task","59","47390","62","yes","1024"
"3.29439347","8.6","9","wand","word","95.23809523809524","95.23809523809524","764.6984126984127","764.6984126984127","black","no","legacy","legacy","legacy","0","uniform","1","undefined","undefined","undefined","1","j","0","0","0","0","62","0","0","0","62","0","58","62","58","0","58","3","62","0","62","Fri Mar 12 20:26:19 2021","The main experiment item","yes","Lexical_Decision_Task.osexp","C:/Users/chris/OneDrive/Desktop","no","Andale Mono","no","18","no","white","no","yes","576","legacy","58","58","3","C:/Users/chris/OneDrive/Desktop/subject-5206985.csv","legacy","Lentiform Loewenfeld","3.3.7","yes","yes","600bd7cfb6416f0113b04181","602110864497cf011d9c0822","0","j","NA","space","n","space","f","j","786","NA","3781","11247","7134","9151","786","2","legacy","1024","2","48000","-16","task","5206985","odd","NA","31311","37095","33313","158772","5079","23471","16336","159274","134693","158768","159275","158653","37095","160062","29511","158153","5071","116551","Lexical Decision Task","60","48176","63","yes","1024"
"2.576725172","0","8","gowl","non-word","95.3125","95.3125","763.828125","763.828125","black","no","legacy","legacy","legacy","0","uniform","1","undefined","undefined","undefined","1","f","0","0","0","0","63","0","0","0","63","0","59","63","59","0","59","3","63","0","63","Fri Mar 12 20:26:19 2021","The main experiment item","yes","Lexical_Decision_Task.osexp","C:/Users/chris/OneDrive/Desktop","no","Andale Mono","no","18","no","white","no","yes","576","legacy","59","59","3","C:/Users/chris/OneDrive/Desktop/subject-5206985.csv","legacy","Lentiform Loewenfeld","3.3.7","yes","yes","600bd7cfb6416f0113b04181","602110864497cf011d9c0822","0","f","NA","space","n","space","f","f","709","NA","3781","11247","7134","9151","709","2","legacy","1024","2","48000","-16","task","5206985","odd","NA","31311","37095","33313","160681","5079","23471","16336","161183","134693","160678","161184","160571","37095","161895","29511","160071","5071","116551","Lexical Decision Task","61","48885","64","yes","1024"
"2.698100546","0","9","mulk","non-word","95.38461538461539","95.38461538461539","763.1692307692308","763.1692307692308","black","no","legacy","legacy","legacy","0","uniform","1","undefined","undefined","undefined","1","f","0","0","0","0","64","0","0","0","64","0","60","64","60","0","60","3","64","0","64","Fri Mar 12 20:26:19 2021","The main experiment item","yes","Lexical_Decision_Task.osexp","C:/Users/chris/OneDrive/Desktop","no","Andale Mono","no","18","no","white","no","yes","576","legacy","60","60","3","C:/Users/chris/OneDrive/Desktop/subject-5206985.csv","legacy","Lentiform Loewenfeld","3.3.7","yes","yes","600bd7cfb6416f0113b04181","602110864497cf011d9c0822","0","f","NA","space","n","space","f","f","721","NA","3781","11247","7134","9151","721","2","legacy","1024","2","48000","-16","task","5206985","odd","NA","31311","37095","33313","162513","5079","23471","16336","163015","134693","162510","163016","162404","37095","163739","29511","161904","5071","116551","Lexical Decision Task","62","49606","65","yes","1024"
"3.274543461","7.46","7","scar","word","95.45454545454545","95.45454545454545","760.5909090909091","760.5909090909091","black","no","legacy","legacy","legacy","0","uniform","1","undefined","undefined","undefined","1","j","0","0","0","0","65","0","0","0","65","0","61","65","61","0","61","3","65","0","65","Fri Mar 12 20:26:19 2021","The main experiment item","yes","Lexical_Decision_Task.osexp","C:/Users/chris/OneDrive/Desktop","no","Andale Mono","no","18","no","white","no","yes","576","legacy","61","61","3","C:/Users/chris/OneDrive/Desktop/subject-5206985.csv","legacy","Lentiform Loewenfeld","3.3.7","yes","yes","600bd7cfb6416f0113b04181","602110864497cf011d9c0822","0","j","NA","space","n","space","f","j","593","NA","3781","11247","7134","9151","593","2","legacy","1024","2","48000","-16","task","5206985","odd","NA","31311","37095","33313","164362","5079","23471","16336","164865","134693","164359","164866","164247","37095","165460","29511","163747","5071","116551","Lexical Decision Task","63","50199","66","yes","1024"
"2.616654026","9.37","5","gift","word","95.5223880597015","95.5223880597015","759.7462686567164","759.7462686567164","black","no","legacy","legacy","legacy","0","uniform","1","undefined","undefined","undefined","1","j","0","0","0","0","66","0","0","0","66","0","62","66","62","0","62","3","66","0","66","Fri Mar 12 20:26:19 2021","The main experiment item","yes","Lexical_Decision_Task.osexp","C:/Users/chris/OneDrive/Desktop","no","Andale Mono","no","18","no","white","no","yes","576","legacy","62","62","3","C:/Users/chris/OneDrive/Desktop/subject-5206985.csv","legacy","Lentiform Loewenfeld","3.3.7","yes","yes","600bd7cfb6416f0113b04181","602110864497cf011d9c0822","0","j","NA","space","n","space","f","j","704","NA","3781","11247","7134","9151","704","2","legacy","1024","2","48000","-16","task","5206985","odd","NA","31311","37095","33313","166090","5079","23471","16336","166592","134693","166087","166593","165969","37095","167298","29511","165469","5071","116551","Lexical Decision Task","64","50903","67","yes","1024"
"2.664011697","8.19","4","hawk","word","95.58823529411765","95.58823529411765","757.2352941176471","757.2352941176471","black","no","legacy","legacy","legacy","0","uniform","1","undefined","undefined","undefined","1","j","0","0","0","0","67","0","0","0","67","0","63","67","63","0","63","3","67","0","67","Fri Mar 12 20:26:19 2021","The main experiment item","yes","Lexical_Decision_Task.osexp","C:/Users/chris/OneDrive/Desktop","no","Andale Mono","no","18","no","white","no","yes","576","legacy","63","63","3","C:/Users/chris/OneDrive/Desktop/subject-5206985.csv","legacy","Lentiform Loewenfeld","3.3.7","yes","yes","600bd7cfb6416f0113b04181","602110864497cf011d9c0822","0","j","NA","space","n","space","f","j","589","NA","3781","11247","7134","9151","589","2","legacy","1024","2","48000","-16","task","5206985","odd","NA","31311","37095","33313","167920","5079","23471","16336","168425","134693","167916","168425","167807","37095","169016","29511","167307","5071","116551","Lexical Decision Task","65","51492","68","yes","1024"
"2.6599162","0","2","saff","non-word","95.65217391304348","95.65217391304348","754.9130434782609","754.9130434782609","black","no","legacy","legacy","legacy","0","uniform","1","undefined","undefined","undefined","1","f","0","0","0","0","68","0","0","0","68","0","64","68","64","0","64","3","68","0","68","Fri Mar 12 20:26:19 2021","The main experiment item","yes","Lexical_Decision_Task.osexp","C:/Users/chris/OneDrive/Desktop","no","Andale Mono","no","18","no","white","no","yes","576","legacy","64","64","3","C:/Users/chris/OneDrive/Desktop/subject-5206985.csv","legacy","Lentiform Loewenfeld","3.3.7","yes","yes","600bd7cfb6416f0113b04181","602110864497cf011d9c0822","0","f","NA","space","n","space","f","f","597","NA","3781","11247","7134","9151","597","2","legacy","1024","2","48000","-16","task","5206985","odd","NA","31311","37095","33313","169638","5079","23471","16336","170140","134693","169635","170141","169524","37095","170739","29511","169024","5071","116551","Lexical Decision Task","66","52089","69","yes","1024"
"3.067070856","9.39","3","loud","word","95.71428571428571","95.71428571428571","753.5857142857143","753.5857142857143","black","no","legacy","legacy","legacy","0","uniform","1","undefined","undefined","undefined","1","j","0","0","0","0","69","0","0","0","69","0","65","69","65","0","65","3","69","0","69","Fri Mar 12 20:26:19 2021","The main experiment item","yes","Lexical_Decision_Task.osexp","C:/Users/chris/OneDrive/Desktop","no","Andale Mono","no","18","no","white","no","yes","576","legacy","65","65","3","C:/Users/chris/OneDrive/Desktop/subject-5206985.csv","legacy","Lentiform Loewenfeld","3.3.7","yes","yes","600bd7cfb6416f0113b04181","602110864497cf011d9c0822","0","j","NA","space","n","space","f","j","662","NA","3781","11247","7134","9151","662","2","legacy","1024","2","48000","-16","task","5206985","odd","NA","31311","37095","33313","171359","5079","23471","16336","171861","134693","171355","171862","171247","37095","172526","29511","170747","5071","116551","Lexical Decision Task","67","52751","70","yes","1024"
"3.263399331","0","8","cour","non-word","95.77464788732394","95.77464788732394","753.7464788732394","753.7464788732394","black","no","legacy","legacy","legacy","0","uniform","1","undefined","undefined","undefined","1","f","0","0","0","0","70","0","0","0","70","0","66","70","66","0","66","3","70","0","70","Fri Mar 12 20:26:19 2021","The main experiment item","yes","Lexical_Decision_Task.osexp","C:/Users/chris/OneDrive/Desktop","no","Andale Mono","no","18","no","white","no","yes","576","legacy","66","66","3","C:/Users/chris/OneDrive/Desktop/subject-5206985.csv","legacy","Lentiform Loewenfeld","3.3.7","yes","yes","600bd7cfb6416f0113b04181","602110864497cf011d9c0822","0","f","NA","space","n","space","f","f","765","NA","3781","11247","7134","9151","765","2","legacy","1024","2","48000","-16","task","5206985","odd","NA","31311","37095","33313","173146","5079","23471","16336","173648","134693","173143","173649","173034","37095","174415","29511","172534","5071","116551","Lexical Decision Task","68","53516","71","yes","1024"
"3.174641193","0","3","ramb","non-word","95.83333333333333","95.83333333333333","753.7638888888889","753.7638888888889","black","no","legacy","legacy","legacy","0","uniform","1","undefined","undefined","undefined","1","f","0","0","0","0","71","0","0","0","71","0","67","71","67","0","67","3","71","0","71","Fri Mar 12 20:26:19 2021","The main experiment item","yes","Lexical_Decision_Task.osexp","C:/Users/chris/OneDrive/Desktop","no","Andale Mono","no","18","no","white","no","yes","576","legacy","67","67","3","C:/Users/chris/OneDrive/Desktop/subject-5206985.csv","legacy","Lentiform Loewenfeld","3.3.7","yes","yes","600bd7cfb6416f0113b04181","602110864497cf011d9c0822","0","f","NA","space","n","space","f","f","755","NA","3781","11247","7134","9151","755","2","legacy","1024","2","48000","-16","task","5206985","odd","NA","31311","37095","33313","175037","5079","23471","16336","175539","134693","175034","175540","174924","37095","176297","29511","174423","5071","116551","Lexical Decision Task","69","54271","72","yes","1024"
"3.248054965","7.86","5","glow","word","95.89041095890411","95.89041095890411","751.4931506849315","751.4931506849315","black","no","legacy","legacy","legacy","0","uniform","1","undefined","undefined","undefined","1","j","0","0","0","0","72","0","0","0","72","0","68","72","68","0","68","3","72","0","72","Fri Mar 12 20:26:19 2021","The main experiment item","yes","Lexical_Decision_Task.osexp","C:/Users/chris/OneDrive/Desktop","no","Andale Mono","no","18","no","white","no","yes","576","legacy","68","68","3","C:/Users/chris/OneDrive/Desktop/subject-5206985.csv","legacy","Lentiform Loewenfeld","3.3.7","yes","yes","600bd7cfb6416f0113b04181","602110864497cf011d9c0822","0","j","NA","space","n","space","f","j","588","NA","3781","11247","7134","9151","588","2","legacy","1024","2","48000","-16","task","5206985","odd","NA","31311","37095","33313","176917","5079","23471","16336","177420","134693","176913","177420","176805","37095","178009","29511","176305","5071","116551","Lexical Decision Task","70","54859","73","yes","1024"
"2.693726949","5.08","3","swig","word","95.94594594594595","95.94594594594595","750.7567567567568","750.7567567567568","black","no","legacy","legacy","legacy","0","uniform","1","undefined","undefined","undefined","1","j","0","0","0","0","73","0","0","0","73","0","69","73","69","0","69","3","73","0","73","Fri Mar 12 20:26:19 2021","The main experiment item","yes","Lexical_Decision_Task.osexp","C:/Users/chris/OneDrive/Desktop","no","Andale Mono","no","18","no","white","no","yes","576","legacy","69","69","3","C:/Users/chris/OneDrive/Desktop/subject-5206985.csv","legacy","Lentiform Loewenfeld","3.3.7","yes","yes","600bd7cfb6416f0113b04181","602110864497cf011d9c0822","0","j","NA","space","n","space","f","j","697","NA","3781","11247","7134","9151","697","2","legacy","1024","2","48000","-16","task","5206985","odd","NA","31311","37095","33313","178635","5079","23471","16336","179137","134693","178632","179138","178517","37095","179836","29511","178017","5071","116551","Lexical Decision Task","71","55556","74","yes","1024"
"2.6599162","0","6","flug","non-word","96","96","749.6","749.6","black","no","legacy","legacy","legacy","0","uniform","1","undefined","undefined","undefined","1","f","0","0","0","0","74","0","0","0","74","0","70","74","70","0","70","3","74","0","74","Fri Mar 12 20:26:19 2021","The main experiment item","yes","Lexical_Decision_Task.osexp","C:/Users/chris/OneDrive/Desktop","no","Andale Mono","no","18","no","white","no","yes","576","legacy","70","70","3","C:/Users/chris/OneDrive/Desktop/subject-5206985.csv","legacy","Lentiform Loewenfeld","3.3.7","yes","yes","600bd7cfb6416f0113b04181","602110864497cf011d9c0822","0","f","NA","space","n","space","f","f","664","NA","3781","11247","7134","9151","664","2","legacy","1024","2","48000","-16","task","5206985","odd","NA","31311","37095","33313","180464","5079","23471","16336","180967","134693","180461","180968","180344","37095","181634","29511","179844","5071","116551","Lexical Decision Task","72","56220","75","yes","1024"
"2.986323777","10.85","8","ship","word","96.05263157894737","96.05263157894737","748.0394736842105","748.0394736842105","black","no","legacy","legacy","legacy","0","uniform","1","undefined","undefined","undefined","1","j","0","0","0","0","75","0","0","0","75","0","71","75","71","0","71","3","75","0","75","Fri Mar 12 20:26:19 2021","The main experiment item","yes","Lexical_Decision_Task.osexp","C:/Users/chris/OneDrive/Desktop","no","Andale Mono","no","18","no","white","no","yes","576","legacy","71","71","3","C:/Users/chris/OneDrive/Desktop/subject-5206985.csv","legacy","Lentiform Loewenfeld","3.3.7","yes","yes","600bd7cfb6416f0113b04181","602110864497cf011d9c0822","0","j","NA","space","n","space","f","j","631","NA","3781","11247","7134","9151","631","2","legacy","1024","2","48000","-16","task","5206985","odd","NA","31311","37095","33313","182264","5079","23471","16336","182766","134693","182261","182767","182142","37095","183400","29511","181642","5071","116551","Lexical Decision Task","73","56851","76","yes","1024"
"3.119255889","6.63","2","itch","word","96.1038961038961","96.1038961038961","747.1688311688312","747.1688311688312","black","no","legacy","legacy","legacy","0","uniform","1","undefined","undefined","undefined","1","j","0","0","0","0","76","0","0","0","76","0","72","76","72","0","72","3","76","0","76","Fri Mar 12 20:26:19 2021","The main experiment item","yes","Lexical_Decision_Task.osexp","C:/Users/chris/OneDrive/Desktop","no","Andale Mono","no","18","no","white","no","yes","576","legacy","72","72","3","C:/Users/chris/OneDrive/Desktop/subject-5206985.csv","legacy","Lentiform Loewenfeld","3.3.7","yes","yes","600bd7cfb6416f0113b04181","602110864497cf011d9c0822","0","j","NA","space","n","space","f","j","681","NA","3781","11247","7134","9151","681","2","legacy","1024","2","48000","-16","task","5206985","odd","NA","31311","37095","33313","184027","5079","23471","16336","184529","134693","184024","184530","183908","37095","185213","29511","183408","5071","116551","Lexical Decision Task","74","57532","77","yes","1024"
"2.664328519","0","4","plux","non-word","96.15384615384616","96.15384615384616","746.5641025641025","746.5641025641025","black","no","legacy","legacy","legacy","0","uniform","1","undefined","undefined","undefined","1","f","0","0","0","0","77","0","0","0","77","0","73","77","73","0","73","3","77","0","77","Fri Mar 12 20:26:19 2021","The main experiment item","yes","Lexical_Decision_Task.osexp","C:/Users/chris/OneDrive/Desktop","no","Andale Mono","no","18","no","white","no","yes","576","legacy","73","73","3","C:/Users/chris/OneDrive/Desktop/subject-5206985.csv","legacy","Lentiform Loewenfeld","3.3.7","yes","yes","600bd7cfb6416f0113b04181","602110864497cf011d9c0822","0","f","NA","space","n","space","f","f","700","NA","3781","11247","7134","9151","700","2","legacy","1024","2","48000","-16","task","5206985","odd","NA","31311","37095","33313","185835","5079","23471","16336","186337","134693","185832","186338","185721","37095","187039","29511","185221","5071","116551","Lexical Decision Task","75","58232","78","yes","1024"
"2.708989954","9.28","9","bowl","word","96.20253164556962","96.20253164556962","744.5569620253165","744.5569620253165","black","no","legacy","legacy","legacy","0","uniform","1","undefined","undefined","undefined","1","j","0","0","0","0","78","0","0","0","78","0","74","78","74","0","74","3","78","0","78","Fri Mar 12 20:26:19 2021","The main experiment item","yes","Lexical_Decision_Task.osexp","C:/Users/chris/OneDrive/Desktop","no","Andale Mono","no","18","no","white","no","yes","576","legacy","74","74","3","C:/Users/chris/OneDrive/Desktop/subject-5206985.csv","legacy","Lentiform Loewenfeld","3.3.7","yes","yes","600bd7cfb6416f0113b04181","602110864497cf011d9c0822","0","j","NA","space","n","space","f","j","588","NA","3781","11247","7134","9151","588","2","legacy","1024","2","48000","-16","task","5206985","odd","NA","31311","37095","33313","187658","5079","23471","16336","188160","134693","187655","188161","187548","37095","188751","29511","187047","5071","116551","Lexical Decision Task","76","58820","79","yes","1024"
"3.368162872","0","4","ferk","non-word","96.25","96.25","743.125","743.125","black","no","legacy","legacy","legacy","0","uniform","1","undefined","undefined","undefined","1","f","0","0","0","0","79","0","0","0","79","0","75","79","75","0","75","3","79","0","79","Fri Mar 12 20:26:19 2021","The main experiment item","yes","Lexical_Decision_Task.osexp","C:/Users/chris/OneDrive/Desktop","no","Andale Mono","no","18","no","white","no","yes","576","legacy","75","75","3","C:/Users/chris/OneDrive/Desktop/subject-5206985.csv","legacy","Lentiform Loewenfeld","3.3.7","yes","yes","600bd7cfb6416f0113b04181","602110864497cf011d9c0822","0","f","NA","space","n","space","f","f","630","NA","3781","11247","7134","9151","630","2","legacy","1024","2","48000","-16","task","5206985","odd","NA","31311","37095","33313","189372","5079","23471","16336","189876","134693","189370","189876","189260","37095","190508","29511","188760","5071","116551","Lexical Decision Task","77","59450","80","yes","1024"
"3.120135028","0","3","vals","non-word","96.29629629629629","96.29629629629629","741.4938271604939","741.4938271604939","black","no","legacy","legacy","legacy","0","uniform","1","undefined","undefined","undefined","1","f","0","0","0","0","80","0","0","0","80","0","76","80","76","0","76","3","80","0","80","Fri Mar 12 20:26:19 2021","The main experiment item","yes","Lexical_Decision_Task.osexp","C:/Users/chris/OneDrive/Desktop","no","Andale Mono","no","18","no","white","no","yes","576","legacy","76","76","3","C:/Users/chris/OneDrive/Desktop/subject-5206985.csv","legacy","Lentiform Loewenfeld","3.3.7","yes","yes","600bd7cfb6416f0113b04181","602110864497cf011d9c0822","0","f","NA","space","n","space","f","f","611","NA","3781","11247","7134","9151","611","2","legacy","1024","2","48000","-16","task","5206985","odd","NA","31311","37095","33313","191128","5079","23471","16336","191634","134693","191125","191634","191016","37095","192247","29511","190516","5071","116551","Lexical Decision Task","78","60061","81","yes","1024"
"3.132473155","0","4","glim","non-word","96.34146341463415","96.34146341463415","740.939024390244","740.939024390244","black","no","legacy","legacy","legacy","0","uniform","1","undefined","undefined","undefined","1","f","0","0","0","0","81","0","0","0","81","0","77","81","77","0","77","3","81","0","81","Fri Mar 12 20:26:19 2021","The main experiment item","yes","Lexical_Decision_Task.osexp","C:/Users/chris/OneDrive/Desktop","no","Andale Mono","no","18","no","white","no","yes","576","legacy","77","77","3","C:/Users/chris/OneDrive/Desktop/subject-5206985.csv","legacy","Lentiform Loewenfeld","3.3.7","yes","yes","600bd7cfb6416f0113b04181","602110864497cf011d9c0822","0","f","NA","space","n","space","f","f","696","NA","3781","11247","7134","9151","696","2","legacy","1024","2","48000","-16","task","5206985","odd","NA","31311","37095","33313","192879","5079","23471","16336","193381","134693","192876","193382","192755","37095","194080","29511","192255","5071","116551","Lexical Decision Task","79","60757","82","yes","1024"
"2.696644658","5.78","2","yolk","word","96.3855421686747","96.3855421686747","740.2409638554217","740.2409638554217","black","no","legacy","legacy","legacy","0","uniform","1","undefined","undefined","undefined","1","j","0","0","0","0","82","0","0","0","82","0","78","82","78","0","78","3","82","0","82","Fri Mar 12 20:26:19 2021","The main experiment item","yes","Lexical_Decision_Task.osexp","C:/Users/chris/OneDrive/Desktop","no","Andale Mono","no","18","no","white","no","yes","576","legacy","78","78","3","C:/Users/chris/OneDrive/Desktop/subject-5206985.csv","legacy","Lentiform Loewenfeld","3.3.7","yes","yes","600bd7cfb6416f0113b04181","602110864497cf011d9c0822","0","j","NA","space","n","space","f","j","683","NA","3781","11247","7134","9151","683","2","legacy","1024","2","48000","-16","task","5206985","odd","NA","31311","37095","33313","194701","5079","23471","16336","195203","134693","194697","195204","194588","37095","195888","29511","194088","5071","116551","Lexical Decision Task","80","61440","83","yes","1024"
"2.966923697","5.4","2","fume","word","96.42857142857143","96.42857142857143","739.452380952381","739.452380952381","black","no","legacy","legacy","legacy","0","uniform","1","undefined","undefined","undefined","1","j","0","0","0","0","83","0","0","0","83","0","79","83","79","0","79","3","83","0","83","Fri Mar 12 20:26:19 2021","The main experiment item","yes","Lexical_Decision_Task.osexp","C:/Users/chris/OneDrive/Desktop","no","Andale Mono","no","18","no","white","no","yes","576","legacy","79","79","3","C:/Users/chris/OneDrive/Desktop/subject-5206985.csv","legacy","Lentiform Loewenfeld","3.3.7","yes","yes","600bd7cfb6416f0113b04181","602110864497cf011d9c0822","0","j","NA","space","n","space","f","j","674","NA","3781","11247","7134","9151","674","2","legacy","1024","2","48000","-16","task","5206985","odd","NA","31311","37095","33313","196515","5079","23471","16336","197018","134693","196512","197018","196397","37095","197694","29511","195897","5071","116551","Lexical Decision Task","81","62114","84","yes","1024"
"2.82129731","6.72","5","plum","word","96.47058823529412","96.47058823529412","739.3529411764706","739.3529411764706","black","no","legacy","legacy","legacy","0","uniform","1","undefined","undefined","undefined","1","j","0","0","0","0","84","0","0","0","84","0","80","84","80","0","80","3","84","0","84","Fri Mar 12 20:26:19 2021","The main experiment item","yes","Lexical_Decision_Task.osexp","C:/Users/chris/OneDrive/Desktop","no","Andale Mono","no","18","no","white","no","yes","576","legacy","80","80","3","C:/Users/chris/OneDrive/Desktop/subject-5206985.csv","legacy","Lentiform Loewenfeld","3.3.7","yes","yes","600bd7cfb6416f0113b04181","602110864497cf011d9c0822","0","j","NA","space","n","space","f","j","731","NA","3781","11247","7134","9151","731","2","legacy","1024","2","48000","-16","task","5206985","odd","NA","31311","37095","33313","198318","5079","23471","16336","198820","134693","198315","198821","198202","37095","199554","29511","197702","5071","116551","Lexical Decision Task","82","62845","85","yes","1024"
"3.311895072","0","9","gung","non-word","96.51162790697674","96.51162790697674","738.9186046511628","738.9186046511628","black","no","legacy","legacy","legacy","0","uniform","1","undefined","undefined","undefined","1","f","0","0","0","0","85","0","0","0","85","0","81","85","81","0","81","3","85","0","85","Fri Mar 12 20:26:19 2021","The main experiment item","yes","Lexical_Decision_Task.osexp","C:/Users/chris/OneDrive/Desktop","no","Andale Mono","no","18","no","white","no","yes","576","legacy","81","81","3","C:/Users/chris/OneDrive/Desktop/subject-5206985.csv","legacy","Lentiform Loewenfeld","3.3.7","yes","yes","600bd7cfb6416f0113b04181","602110864497cf011d9c0822","0","f","NA","space","n","space","f","f","702","NA","3781","11247","7134","9151","702","2","legacy","1024","2","48000","-16","task","5206985","odd","NA","31311","37095","33313","200180","5079","23471","16336","200684","134693","200177","200684","200062","37095","201387","29511","199562","5071","116551","Lexical Decision Task","83","63547","86","yes","1024"
"2.814027728","8.2","4","foam","word","96.55172413793103","96.55172413793103","744","744","black","no","legacy","legacy","legacy","0","uniform","1","undefined","undefined","undefined","1","j","0","0","0","0","86","0","0","0","86","0","82","86","82","0","82","3","86","0","86","Fri Mar 12 20:26:19 2021","The main experiment item","yes","Lexical_Decision_Task.osexp","C:/Users/chris/OneDrive/Desktop","no","Andale Mono","no","18","no","white","no","yes","576","legacy","82","82","3","C:/Users/chris/OneDrive/Desktop/subject-5206985.csv","legacy","Lentiform Loewenfeld","3.3.7","yes","yes","600bd7cfb6416f0113b04181","602110864497cf011d9c0822","0","j","NA","space","n","space","f","j","1181","NA","3781","11247","7134","9151","1181","2","legacy","1024","2","48000","-16","task","5206985","odd","NA","31311","37095","33313","202009","5079","23471","16336","202514","134693","202005","202515","201896","37095","203698","29511","201395","5071","116551","Lexical Decision Task","84","64728","87","yes","1024"
"2.895974732","6.65","5","sift","word","95.45454545454545","95.45454545454545","742.3977272727273","742.3977272727273","black","no","legacy","legacy","legacy","0","uniform","0","undefined","undefined","undefined","0","j","0","0","0","0","87","0","0","0","87","0","83","87","83","0","83","3","87","0","87","Fri Mar 12 20:26:19 2021","The main experiment item","yes","Lexical_Decision_Task.osexp","C:/Users/chris/OneDrive/Desktop","no","Andale Mono","no","18","no","white","no","yes","576","legacy","83","83","3","C:/Users/chris/OneDrive/Desktop/subject-5206985.csv","legacy","Lentiform Loewenfeld","3.3.7","yes","yes","600bd7cfb6416f0113b04181","602110864497cf011d9c0822","0","f","NA","space","n","space","f","f","603","NA","3781","11247","7134","9151","603","2","legacy","1024","2","48000","-16","task","5206985","odd","NA","31311","37095","33313","204323","5079","23471","16336","204825","134693","204320","204826","204206","37095","205431","29511","203706","5071","116551","Lexical Decision Task","84","65331","88","yes","1024"
"3.384413096","10.15","3","glad","word","95.50561797752809","95.50561797752809","748.0898876404494","748.0898876404494","black","no","legacy","legacy","legacy","0","uniform","1","undefined","undefined","undefined","1","j","0","0","0","0","88","0","0","0","88","0","84","88","84","0","84","3","88","0","88","Fri Mar 12 20:26:19 2021","The main experiment item","yes","Lexical_Decision_Task.osexp","C:/Users/chris/OneDrive/Desktop","no","Andale Mono","no","18","no","white","no","yes","576","legacy","84","84","3","C:/Users/chris/OneDrive/Desktop/subject-5206985.csv","legacy","Lentiform Loewenfeld","3.3.7","yes","yes","600bd7cfb6416f0113b04181","602110864497cf011d9c0822","0","j","NA","space","n","space","f","j","1249","NA","3781","11247","7134","9151","1249","2","legacy","1024","2","48000","-16","task","5206985","odd","NA","31311","37095","33313","207050","5079","23471","16336","207552","134693","207048","207553","206939","37095","208804","29511","203706","5071","205439","Lexical Decision Task","85","66580","89","yes","1024"
"3.168890155","0","6","thet","non-word","95.55555555555556","95.55555555555556","747.3111111111111","747.3111111111111","black","no","legacy","legacy","legacy","0","uniform","1","undefined","undefined","undefined","1","f","0","0","0","0","89","0","0","0","89","0","85","89","85","0","85","3","89","0","89","Fri Mar 12 20:26:19 2021","The main experiment item","yes","Lexical_Decision_Task.osexp","C:/Users/chris/OneDrive/Desktop","no","Andale Mono","no","18","no","white","no","yes","576","legacy","85","85","3","C:/Users/chris/OneDrive/Desktop/subject-5206985.csv","legacy","Lentiform Loewenfeld","3.3.7","yes","yes","600bd7cfb6416f0113b04181","602110864497cf011d9c0822","0","f","NA","space","n","space","f","f","678","NA","3781","11247","7134","9151","678","2","legacy","1024","2","48000","-16","task","5206985","odd","NA","31311","37095","33313","209427","5079","23471","16336","209933","134693","209424","209933","209314","37095","210613","29511","208814","5071","205439","Lexical Decision Task","86","67258","90","yes","1024"
"2.709837904","6.85","8","skim","word","95.6043956043956","95.6043956043956","747.2197802197802","747.2197802197802","black","no","legacy","legacy","legacy","0","uniform","1","undefined","undefined","undefined","1","j","0","0","0","0","90","0","0","0","90","0","86","90","86","0","86","3","90","0","90","Fri Mar 12 20:26:19 2021","The main experiment item","yes","Lexical_Decision_Task.osexp","C:/Users/chris/OneDrive/Desktop","no","Andale Mono","no","18","no","white","no","yes","576","legacy","86","86","3","C:/Users/chris/OneDrive/Desktop/subject-5206985.csv","legacy","Lentiform Loewenfeld","3.3.7","yes","yes","600bd7cfb6416f0113b04181","602110864497cf011d9c0822","0","j","NA","space","n","space","f","j","739","NA","3781","11247","7134","9151","739","2","legacy","1024","2","48000","-16","task","5206985","odd","NA","31311","37095","33313","211232","5079","23471","16336","211735","134693","211229","211735","211122","37095","212476","29511","210621","5071","205439","Lexical Decision Task","87","67997","91","yes","1024"
"3.274157849","0","8","leet","non-word","95.65217391304348","95.65217391304348","746.7173913043479","746.7173913043479","black","no","legacy","legacy","legacy","0","uniform","1","undefined","undefined","undefined","1","f","0","0","0","0","91","0","0","0","91","0","87","91","87","0","87","3","91","0","91","Fri Mar 12 20:26:19 2021","The main experiment item","yes","Lexical_Decision_Task.osexp","C:/Users/chris/OneDrive/Desktop","no","Andale Mono","no","18","no","white","no","yes","576","legacy","87","87","3","C:/Users/chris/OneDrive/Desktop/subject-5206985.csv","legacy","Lentiform Loewenfeld","3.3.7","yes","yes","600bd7cfb6416f0113b04181","602110864497cf011d9c0822","0","f","NA","space","n","space","f","f","701","NA","3781","11247","7134","9151","701","2","legacy","1024","2","48000","-16","task","5206985","odd","NA","31311","37095","33313","213097","5079","23471","16336","213600","134693","213094","213601","212985","37095","214304","29511","212484","5071","205439","Lexical Decision Task","88","68698","92","yes","1024"
"3.134602053","0","8","jart","non-word","95.6989247311828","95.6989247311828","746.0860215053764","746.0860215053764","black","no","legacy","legacy","legacy","0","uniform","1","undefined","undefined","undefined","1","f","0","0","0","0","92","0","0","0","92","0","88","92","88","0","88","3","92","0","92","Fri Mar 12 20:26:19 2021","The main experiment item","yes","Lexical_Decision_Task.osexp","C:/Users/chris/OneDrive/Desktop","no","Andale Mono","no","18","no","white","no","yes","576","legacy","88","88","3","C:/Users/chris/OneDrive/Desktop/subject-5206985.csv","legacy","Lentiform Loewenfeld","3.3.7","yes","yes","600bd7cfb6416f0113b04181","602110864497cf011d9c0822","0","f","NA","space","n","space","f","f","688","NA","3781","11247","7134","9151","688","2","legacy","1024","2","48000","-16","task","5206985","odd","NA","31311","37095","33313","214924","5079","23471","16336","215426","134693","214921","215427","214813","37095","216117","29511","214313","5071","205439","Lexical Decision Task","89","69386","93","yes","1024"
"2.68604012","0","3","mulb","non-word","95.74468085106383","95.74468085106383","743.6702127659574","743.6702127659574","black","no","legacy","legacy","legacy","0","uniform","1","undefined","undefined","undefined","1","f","0","0","0","0","93","0","0","0","93","0","89","93","89","0","89","3","93","0","93","Fri Mar 12 20:26:19 2021","The main experiment item","yes","Lexical_Decision_Task.osexp","C:/Users/chris/OneDrive/Desktop","no","Andale Mono","no","18","no","white","no","yes","576","legacy","89","89","3","C:/Users/chris/OneDrive/Desktop/subject-5206985.csv","legacy","Lentiform Loewenfeld","3.3.7","yes","yes","600bd7cfb6416f0113b04181","602110864497cf011d9c0822","0","f","NA","space","n","space","f","f","519","NA","3781","11247","7134","9151","519","2","legacy","1024","2","48000","-16","task","5206985","odd","NA","31311","37095","33313","216741","5079","23471","16336","217243","134693","216738","217244","216625","37095","217765","29511","216125","5071","205439","Lexical Decision Task","90","69905","94","yes","1024"
"2.821076612","0","4","lult","non-word","95.78947368421052","95.78947368421052","742.3368421052631","742.3368421052631","black","no","legacy","legacy","legacy","0","uniform","1","undefined","undefined","undefined","1","f","0","0","0","0","94","0","0","0","94","0","90","94","90","0","90","3","94","0","94","Fri Mar 12 20:26:19 2021","The main experiment item","yes","Lexical_Decision_Task.osexp","C:/Users/chris/OneDrive/Desktop","no","Andale Mono","no","18","no","white","no","yes","576","legacy","90","90","3","C:/Users/chris/OneDrive/Desktop/subject-5206985.csv","legacy","Lentiform Loewenfeld","3.3.7","yes","yes","600bd7cfb6416f0113b04181","602110864497cf011d9c0822","0","f","NA","space","n","space","f","f","617","NA","3781","11247","7134","9151","617","2","legacy","1024","2","48000","-16","task","5206985","odd","NA","31311","37095","33313","218383","5079","23471","16336","218886","134693","218380","218887","218273","37095","219507","29511","217773","5071","205439","Lexical Decision Task","91","70522","95","yes","1024"
"2.75025376","10.2","6","jump","word","95.83333333333333","95.83333333333333","741.0833333333334","741.0833333333334","black","no","legacy","legacy","legacy","0","uniform","1","undefined","undefined","undefined","1","j","0","0","0","0","95","0","0","0","95","0","91","95","91","0","91","3","95","0","95","Fri Mar 12 20:26:19 2021","The main experiment item","yes","Lexical_Decision_Task.osexp","C:/Users/chris/OneDrive/Desktop","no","Andale Mono","no","18","no","white","no","yes","576","legacy","91","91","3","C:/Users/chris/OneDrive/Desktop/subject-5206985.csv","legacy","Lentiform Loewenfeld","3.3.7","yes","yes","600bd7cfb6416f0113b04181","602110864497cf011d9c0822","0","j","NA","space","n","space","f","j","622","NA","3781","11247","7134","9151","622","2","legacy","1024","2","48000","-16","task","5206985","odd","NA","31311","37095","33313","220130","5079","23471","16336","220633","134693","220126","220633","220014","37095","221257","29511","219514","5071","205439","Lexical Decision Task","92","71144","96","yes","1024"
"3.145920145","8.51","8","flew","word","95.87628865979381","95.87628865979381","740.0515463917526","740.0515463917526","black","no","legacy","legacy","legacy","0","uniform","1","undefined","undefined","undefined","1","j","0","0","0","0","96","0","0","0","96","0","92","96","92","0","92","3","96","0","96","Fri Mar 12 20:26:19 2021","The main experiment item","yes","Lexical_Decision_Task.osexp","C:/Users/chris/OneDrive/Desktop","no","Andale Mono","no","18","no","white","no","yes","576","legacy","92","92","3","C:/Users/chris/OneDrive/Desktop/subject-5206985.csv","legacy","Lentiform Loewenfeld","3.3.7","yes","yes","600bd7cfb6416f0113b04181","602110864497cf011d9c0822","0","j","NA","space","n","space","f","j","641","NA","3781","11247","7134","9151","641","2","legacy","1024","2","48000","-16","task","5206985","odd","NA","31311","37095","33313","221877","5079","23471","16336","222379","134693","221874","222380","221765","37095","223023","29511","221265","5071","205439","Lexical Decision Task","93","71785","97","yes","1024"
"2.8162413","0","5","nusk","non-word","95.91836734693878","95.91836734693878","738.5612244897959","738.5612244897959","black","no","legacy","legacy","legacy","0","uniform","1","undefined","undefined","undefined","1","f","0","0","0","0","97","0","0","0","97","0","93","97","93","0","93","3","97","0","97","Fri Mar 12 20:26:19 2021","The main experiment item","yes","Lexical_Decision_Task.osexp","C:/Users/chris/OneDrive/Desktop","no","Andale Mono","no","18","no","white","no","yes","576","legacy","93","93","3","C:/Users/chris/OneDrive/Desktop/subject-5206985.csv","legacy","Lentiform Loewenfeld","3.3.7","yes","yes","600bd7cfb6416f0113b04181","602110864497cf011d9c0822","0","f","NA","space","n","space","f","f","594","NA","3781","11247","7134","9151","594","2","legacy","1024","2","48000","-16","task","5206985","odd","NA","31311","37095","33313","223644","5079","23471","16336","224146","134693","223641","224147","223532","37095","224743","29511","223032","5071","205439","Lexical Decision Task","94","72379","98","yes","1024"
"2.809559715","8.44","4","volt","word","95.95959595959596","95.95959595959596","737.6565656565657","737.6565656565657","black","no","legacy","legacy","legacy","0","uniform","1","undefined","undefined","undefined","1","j","0","0","0","0","98","0","0","0","98","0","94","98","94","0","94","3","98","0","98","Fri Mar 12 20:26:19 2021","The main experiment item","yes","Lexical_Decision_Task.osexp","C:/Users/chris/OneDrive/Desktop","no","Andale Mono","no","18","no","white","no","yes","576","legacy","94","94","3","C:/Users/chris/OneDrive/Desktop/subject-5206985.csv","legacy","Lentiform Loewenfeld","3.3.7","yes","yes","600bd7cfb6416f0113b04181","602110864497cf011d9c0822","0","j","NA","space","n","space","f","j","649","NA","3781","11247","7134","9151","649","2","legacy","1024","2","48000","-16","task","5206985","odd","NA","31311","37095","33313","225362","5079","23471","16336","225865","134693","225358","225865","225249","37095","226516","29511","224749","5071","205439","Lexical Decision Task","95","73028","99","yes","1024"
"2.858136002","0","4","phip","non-word","96","96","737.79","737.79","black","no","legacy","legacy","legacy","0","uniform","1","undefined","undefined","undefined","1","f","0","0","0","0","99","0","0","0","99","0","95","99","95","0","95","3","99","0","99","Fri Mar 12 20:26:19 2021","The main experiment item","yes","Lexical_Decision_Task.osexp","C:/Users/chris/OneDrive/Desktop","no","Andale Mono","no","18","no","white","no","yes","576","legacy","95","95","3","C:/Users/chris/OneDrive/Desktop/subject-5206985.csv","legacy","Lentiform Loewenfeld","3.3.7","yes","yes","600bd7cfb6416f0113b04181","602110864497cf011d9c0822","0","f","NA","space","n","space","f","f","751","NA","3781","11247","7134","9151","751","2","legacy","1024","2","48000","-16","task","5206985","odd","NA","31311","37095","33313","227138","5079","23471","16336","227640","134693","227134","227641","227024","37095","228394","29511","226524","5071","205439","Lexical Decision Task","96","73779","100","yes","1024"
