"Log_BG","Log_Freq_HAL","Ortho_N","Stimulus","Type","acc","accuracy","average_response_time","avg_rt","background","bidi","canvas_backend","clock_backend","color_backend","compensation","coordinates","correct","correct_Experimental_intro","correct_Introduction","correct_Practice_intro","correct_experimenter_kb","correct_response","count_End_Of_Experiment","count_End_Of_Practice","count_Experimental_Loop","count_Experimental_intro","count_Fixation","count_Introduction","count_Practice_Loop","count_Practice_intro","count_Stimulus","count_block_break_feedback","count_experimental_sequence","count_experimenter_kb","count_increment_trial_count","count_init_trial_count","count_logger","count_practice_sequence","count_right","count_task","count_wrong","datetime","description","disable_garbage_collection","experiment_file","experiment_path","font_bold","font_family","font_italic","font_size","font_underline","foreground","form_clicks","fullscreen","height","keyboard_backend","live_row","live_row_Experimental_Loop","live_row_Practice_Loop","logfile","mouse_backend","opensesame_codename","opensesame_version","osf_always_upload_data","osf_always_upload_experiment","osf_datanode_id","osf_id","repeat_cycle","response","response_End_Of_Experiment","response_Experimental_intro","response_Introduction","response_Practice_intro","response_block_break_feedback","response_experimenter_kb","response_time","response_time_End_Of_Experiment","response_time_Experimental_intro","response_time_Introduction","response_time_Practice_intro","response_time_block_break_feedback","response_time_experimenter_kb","round_decimals","sampler_backend","sound_buf_size","sound_channels","sound_freq","sound_sample_size","start","subject_nr","subject_parity","time_End_Of_Experiment","time_End_Of_Practice","time_Experimental_Loop","time_Experimental_intro","time_Fixation","time_Introduction","time_Practice_Loop","time_Practice_intro","time_Stimulus","time_block_break_feedback","time_experimental_sequence","time_experimenter_kb","time_increment_trial_count","time_init_trial_count","time_logger","time_practice_sequence","time_right","time_task","time_wrong","title","total_correct","total_response_time","total_responses","uniform_coordinates","width"
"3.090140555","5.81","8","pout","word","100","100","1075.2","1075.2","black","no","legacy","legacy","legacy","0","uniform","1","undefined","undefined","undefined","1","j","0","0","0","0","4","0","0","0","4","NA","0","4","0","0","0","3","4","0","4","Fri Feb 19 12:47:38 2021","The main experiment item","yes","Lexical_Decision_Task.osexp","/Users/maxludeman/Documents/Psychology/Second year/Cognition and Language","no","Andale Mono","no","18","no","white","no","yes","576","legacy","0","0","3","/Users/maxludeman/Documents/Psychology/Second year/Cognition and Language/subject-5109570.csv","legacy","Lentiform Loewenfeld","3.3.7","yes","yes","600bd7cfb6416f0113b04181","602110864497cf011d9c0822","0","j","NA","j","k","j","NA","j","797","NA","3274","19370","36224","NA","797","2","legacy","1024","2","48000","-16","task","5109570","even","NA","72607","77884","74609","77913","8023","63632","27407","78417","NA","77911","78417","NA","77884","79216","70832","72073","7923","NA","Lexical Decision Task","5","5376","5","yes","1024"
"2.868644438","10.52","4","town","word","100","100","1001.5","1001.5","black","no","legacy","legacy","legacy","0","uniform","1","undefined","undefined","undefined","1","j","0","0","0","0","5","0","0","0","5","NA","1","5","1","0","1","3","5","0","5","Fri Feb 19 12:47:38 2021","The main experiment item","yes","Lexical_Decision_Task.osexp","/Users/maxludeman/Documents/Psychology/Second year/Cognition and Language","no","Andale Mono","no","18","no","white","no","yes","576","legacy","1","1","3","/Users/maxludeman/Documents/Psychology/Second year/Cognition and Language/subject-5109570.csv","legacy","Lentiform Loewenfeld","3.3.7","yes","yes","600bd7cfb6416f0113b04181","602110864497cf011d9c0822","0","j","NA","j","k","j","NA","j","633","NA","3274","19370","36224","NA","633","2","legacy","1024","2","48000","-16","task","5109570","even","NA","72607","77884","74609","79793","8023","63632","27407","80295","NA","79790","80295","79723","77884","80929","70832","79223","7923","NA","Lexical Decision Task","6","6009","6","yes","1024"
"2.703007489","8.37","3","pulp","word","100","100","1005.4285714285714","1005.4285714285714","black","no","legacy","legacy","legacy","0","uniform","1","undefined","undefined","undefined","1","j","0","0","0","0","6","0","0","0","6","NA","2","6","2","0","2","3","6","0","6","Fri Feb 19 12:47:38 2021","The main experiment item","yes","Lexical_Decision_Task.osexp","/Users/maxludeman/Documents/Psychology/Second year/Cognition and Language","no","Andale Mono","no","18","no","white","no","yes","576","legacy","2","2","3","/Users/maxludeman/Documents/Psychology/Second year/Cognition and Language/subject-5109570.csv","legacy","Lentiform Loewenfeld","3.3.7","yes","yes","600bd7cfb6416f0113b04181","602110864497cf011d9c0822","0","j","NA","j","k","j","NA","j","1029","NA","3274","19370","36224","NA","1029","2","legacy","1024","2","48000","-16","task","5109570","even","NA","72607","77884","74609","81503","8023","63632","27407","82005","NA","81500","82005","81435","77884","83035","70832","80935","7923","NA","Lexical Decision Task","7","7038","7","yes","1024"
"2.895974732","6.65","5","sift","word","100","100","1020.25","1020.25","black","no","legacy","legacy","legacy","0","uniform","1","undefined","undefined","undefined","1","j","0","0","0","0","7","0","0","0","7","NA","3","7","3","0","3","3","7","0","7","Fri Feb 19 12:47:38 2021","The main experiment item","yes","Lexical_Decision_Task.osexp","/Users/maxludeman/Documents/Psychology/Second year/Cognition and Language","no","Andale Mono","no","18","no","white","no","yes","576","legacy","3","3","3","/Users/maxludeman/Documents/Psychology/Second year/Cognition and Language/subject-5109570.csv","legacy","Lentiform Loewenfeld","3.3.7","yes","yes","600bd7cfb6416f0113b04181","602110864497cf011d9c0822","0","j","NA","j","k","j","NA","j","1124","NA","3274","19370","36224","NA","1124","2","legacy","1024","2","48000","-16","task","5109570","even","NA","72607","77884","74609","83606","8023","63632","27407","84109","NA","83603","84109","83538","77884","85234","70832","83038","7923","NA","Lexical Decision Task","8","8162","8","yes","1024"
"3.474361976","5.24","6","veer","word","100","100","999.4444444444445","999.4444444444445","black","no","legacy","legacy","legacy","0","uniform","1","undefined","undefined","undefined","1","j","0","0","0","0","8","0","0","0","8","NA","4","8","4","0","4","3","8","0","8","Fri Feb 19 12:47:38 2021","The main experiment item","yes","Lexical_Decision_Task.osexp","/Users/maxludeman/Documents/Psychology/Second year/Cognition and Language","no","Andale Mono","no","18","no","white","no","yes","576","legacy","4","4","3","/Users/maxludeman/Documents/Psychology/Second year/Cognition and Language/subject-5109570.csv","legacy","Lentiform Loewenfeld","3.3.7","yes","yes","600bd7cfb6416f0113b04181","602110864497cf011d9c0822","0","j","NA","j","k","j","NA","j","833","NA","3274","19370","36224","NA","833","2","legacy","1024","2","48000","-16","task","5109570","even","NA","72607","77884","74609","85805","8023","63632","27407","86308","NA","85802","86308","85738","77884","87142","70832","85238","7923","NA","Lexical Decision Task","9","8995","9","yes","1024"
"2.803231716","5.26","3","kiln","word","90","90","1054.4","1054.4","black","no","legacy","legacy","legacy","0","uniform","0","undefined","undefined","undefined","0","j","0","0","0","0","9","0","0","0","9","NA","5","9","5","0","5","3","9","0","9","Fri Feb 19 12:47:38 2021","The main experiment item","yes","Lexical_Decision_Task.osexp","/Users/maxludeman/Documents/Psychology/Second year/Cognition and Language","no","Andale Mono","no","18","no","white","no","yes","576","legacy","5","5","3","/Users/maxludeman/Documents/Psychology/Second year/Cognition and Language/subject-5109570.csv","legacy","Lentiform Loewenfeld","3.3.7","yes","yes","600bd7cfb6416f0113b04181","602110864497cf011d9c0822","0","f","NA","j","k","j","NA","f","1549","NA","3274","19370","36224","NA","1549","2","legacy","1024","2","48000","-16","task","5109570","even","NA","72607","77884","74609","87712","8023","63632","27407","88214","NA","87709","88215","87645","77884","89765","70832","87145","7923","NA","Lexical Decision Task","9","10544","10","yes","1024"
"3.443783828","7.65","3","verb","word","90.9090909090909","90.9090909090909","1028.2727272727273","1028.2727272727273","black","no","legacy","legacy","legacy","0","uniform","1","undefined","undefined","undefined","1","j","0","0","0","0","10","0","0","0","10","NA","6","10","6","0","6","3","10","0","10","Fri Feb 19 12:47:38 2021","The main experiment item","yes","Lexical_Decision_Task.osexp","/Users/maxludeman/Documents/Psychology/Second year/Cognition and Language","no","Andale Mono","no","18","no","white","no","yes","576","legacy","6","6","3","/Users/maxludeman/Documents/Psychology/Second year/Cognition and Language/subject-5109570.csv","legacy","Lentiform Loewenfeld","3.3.7","yes","yes","600bd7cfb6416f0113b04181","602110864497cf011d9c0822","0","j","NA","j","k","j","NA","j","767","NA","3274","19370","36224","NA","767","2","legacy","1024","2","48000","-16","task","5109570","even","NA","72607","77884","74609","91336","8023","63632","27407","91838","NA","91332","91839","91270","77884","92607","70832","87145","7923","89769","Lexical Decision Task","10","11311","11","yes","1024"
"2.714888338","0","3","brug","non-word","91.66666666666667","91.66666666666667","1054.4166666666667","1054.4166666666667","black","no","legacy","legacy","legacy","0","uniform","1","undefined","undefined","undefined","1","f","0","0","0","0","11","0","0","0","11","NA","7","11","7","0","7","3","11","0","11","Fri Feb 19 12:47:38 2021","The main experiment item","yes","Lexical_Decision_Task.osexp","/Users/maxludeman/Documents/Psychology/Second year/Cognition and Language","no","Andale Mono","no","18","no","white","no","yes","576","legacy","7","7","3","/Users/maxludeman/Documents/Psychology/Second year/Cognition and Language/subject-5109570.csv","legacy","Lentiform Loewenfeld","3.3.7","yes","yes","600bd7cfb6416f0113b04181","602110864497cf011d9c0822","0","f","NA","j","k","j","NA","f","1342","NA","3274","19370","36224","NA","1342","2","legacy","1024","2","48000","-16","task","5109570","even","NA","72607","77884","74609","93177","8023","63632","27407","93681","NA","93175","93681","93111","77884","95024","70832","92611","7923","89769","Lexical Decision Task","11","12653","12","yes","1024"
"3.165936429","0","7","leps","non-word","92.3076923076923","92.3076923076923","1125.076923076923","1125.076923076923","black","no","legacy","legacy","legacy","0","uniform","1","undefined","undefined","undefined","1","f","0","0","0","0","12","0","0","0","12","NA","8","12","8","0","8","3","12","0","12","Fri Feb 19 12:47:38 2021","The main experiment item","yes","Lexical_Decision_Task.osexp","/Users/maxludeman/Documents/Psychology/Second year/Cognition and Language","no","Andale Mono","no","18","no","white","no","yes","576","legacy","8","8","3","/Users/maxludeman/Documents/Psychology/Second year/Cognition and Language/subject-5109570.csv","legacy","Lentiform Loewenfeld","3.3.7","yes","yes","600bd7cfb6416f0113b04181","602110864497cf011d9c0822","0","f","NA","j","k","j","NA","f","1973","NA","3274","19370","36224","NA","1973","2","legacy","1024","2","48000","-16","task","5109570","even","NA","72607","77884","74609","95595","8023","63632","27407","96098","NA","95591","96098","95528","77884","98072","70832","95028","7923","89769","Lexical Decision Task","12","14626","13","yes","1024"
"2.899092422","7.27","6","snag","word","92.85714285714286","92.85714285714286","1097.2142857142858","1097.2142857142858","black","no","legacy","legacy","legacy","0","uniform","1","undefined","undefined","undefined","1","j","0","0","0","0","13","0","0","0","13","NA","9","13","9","0","9","3","13","0","13","Fri Feb 19 12:47:38 2021","The main experiment item","yes","Lexical_Decision_Task.osexp","/Users/maxludeman/Documents/Psychology/Second year/Cognition and Language","no","Andale Mono","no","18","no","white","no","yes","576","legacy","9","9","3","/Users/maxludeman/Documents/Psychology/Second year/Cognition and Language/subject-5109570.csv","legacy","Lentiform Loewenfeld","3.3.7","yes","yes","600bd7cfb6416f0113b04181","602110864497cf011d9c0822","0","j","NA","j","k","j","NA","j","735","NA","3274","19370","36224","NA","735","2","legacy","1024","2","48000","-16","task","5109570","even","NA","72607","77884","74609","98645","8023","63632","27407","99148","NA","98642","99148","98576","77884","99885","70832","98075","7923","89769","Lexical Decision Task","13","15361","14","yes","1024"
"3.347850856","10.51","2","rich","word","93.33333333333333","93.33333333333333","1074.6666666666667","1074.6666666666667","black","no","legacy","legacy","legacy","0","uniform","1","undefined","undefined","undefined","1","j","0","0","0","0","14","0","0","0","14","NA","10","14","10","0","10","3","14","0","14","Fri Feb 19 12:47:38 2021","The main experiment item","yes","Lexical_Decision_Task.osexp","/Users/maxludeman/Documents/Psychology/Second year/Cognition and Language","no","Andale Mono","no","18","no","white","no","yes","576","legacy","10","10","3","/Users/maxludeman/Documents/Psychology/Second year/Cognition and Language/subject-5109570.csv","legacy","Lentiform Loewenfeld","3.3.7","yes","yes","600bd7cfb6416f0113b04181","602110864497cf011d9c0822","0","j","NA","j","k","j","NA","j","759","NA","3274","19370","36224","NA","759","2","legacy","1024","2","48000","-16","task","5109570","even","NA","72607","77884","74609","100457","8023","63632","27407","100960","NA","100454","100960","100388","77884","101720","70832","99888","7923","89769","Lexical Decision Task","14","16120","15","yes","1024"
"2.812467698","0","7","hafe","non-word","93.75","93.75","1057.5625","1057.5625","black","no","legacy","legacy","legacy","0","uniform","1","undefined","undefined","undefined","1","f","0","0","0","0","15","0","0","0","15","NA","11","15","11","0","11","3","15","0","15","Fri Feb 19 12:47:38 2021","The main experiment item","yes","Lexical_Decision_Task.osexp","/Users/maxludeman/Documents/Psychology/Second year/Cognition and Language","no","Andale Mono","no","18","no","white","no","yes","576","legacy","11","11","3","/Users/maxludeman/Documents/Psychology/Second year/Cognition and Language/subject-5109570.csv","legacy","Lentiform Loewenfeld","3.3.7","yes","yes","600bd7cfb6416f0113b04181","602110864497cf011d9c0822","0","f","NA","j","k","j","NA","f","801","NA","3274","19370","36224","NA","801","2","legacy","1024","2","48000","-16","task","5109570","even","NA","72607","77884","74609","102292","8023","63632","27407","102794","NA","102289","102795","102223","77884","103597","70832","101723","7923","89769","Lexical Decision Task","15","16921","16","yes","1024"
"2.594027722","9.08","8","skip","word","94.11764705882354","94.11764705882354","1034.2941176470588","1034.2941176470588","black","no","legacy","legacy","legacy","0","uniform","1","undefined","undefined","undefined","1","j","0","0","0","0","16","0","0","0","16","NA","12","16","12","0","12","3","16","0","16","Fri Feb 19 12:47:38 2021","The main experiment item","yes","Lexical_Decision_Task.osexp","/Users/maxludeman/Documents/Psychology/Second year/Cognition and Language","no","Andale Mono","no","18","no","white","no","yes","576","legacy","12","12","3","/Users/maxludeman/Documents/Psychology/Second year/Cognition and Language/subject-5109570.csv","legacy","Lentiform Loewenfeld","3.3.7","yes","yes","600bd7cfb6416f0113b04181","602110864497cf011d9c0822","0","j","NA","j","k","j","NA","j","662","NA","3274","19370","36224","NA","662","2","legacy","1024","2","48000","-16","task","5109570","even","NA","72607","77884","74609","104168","8023","63632","27407","104670","NA","104164","104670","104101","77884","105334","70832","103601","7923","89769","Lexical Decision Task","16","17583","17","yes","1024"
"2.996511672","0","7","hoil","non-word","94.44444444444444","94.44444444444444","1046.5555555555557","1046.5555555555557","black","no","legacy","legacy","legacy","0","uniform","1","undefined","undefined","undefined","1","f","0","0","0","0","17","0","0","0","17","NA","13","17","13","0","13","3","17","0","17","Fri Feb 19 12:47:38 2021","The main experiment item","yes","Lexical_Decision_Task.osexp","/Users/maxludeman/Documents/Psychology/Second year/Cognition and Language","no","Andale Mono","no","18","no","white","no","yes","576","legacy","13","13","3","/Users/maxludeman/Documents/Psychology/Second year/Cognition and Language/subject-5109570.csv","legacy","Lentiform Loewenfeld","3.3.7","yes","yes","600bd7cfb6416f0113b04181","602110864497cf011d9c0822","0","f","NA","j","k","j","NA","f","1255","NA","3274","19370","36224","NA","1255","2","legacy","1024","2","48000","-16","task","5109570","even","NA","72607","77884","74609","105909","8023","63632","27407","106412","NA","105906","106412","105840","77884","107669","70832","105340","7923","89769","Lexical Decision Task","17","18838","18","yes","1024"
"3.302475237","0","7","leel","non-word","94.73684210526316","94.73684210526316","1044.6842105263158","1044.6842105263158","black","no","legacy","legacy","legacy","0","uniform","1","undefined","undefined","undefined","1","f","0","0","0","0","18","0","0","0","18","NA","14","18","14","0","14","3","18","0","18","Fri Feb 19 12:47:38 2021","The main experiment item","yes","Lexical_Decision_Task.osexp","/Users/maxludeman/Documents/Psychology/Second year/Cognition and Language","no","Andale Mono","no","18","no","white","no","yes","576","legacy","14","14","3","/Users/maxludeman/Documents/Psychology/Second year/Cognition and Language/subject-5109570.csv","legacy","Lentiform Loewenfeld","3.3.7","yes","yes","600bd7cfb6416f0113b04181","602110864497cf011d9c0822","0","f","NA","j","k","j","NA","f","1011","NA","3274","19370","36224","NA","1011","2","legacy","1024","2","48000","-16","task","5109570","even","NA","72607","77884","74609","108240","8023","63632","27407","108742","NA","108237","108742","108172","77884","109755","70832","107672","7923","89769","Lexical Decision Task","18","19849","19","yes","1024"
"3.120135028","0","3","vals","non-word","95","95","1071","1071","black","no","legacy","legacy","legacy","0","uniform","1","undefined","undefined","undefined","1","f","0","0","0","0","19","0","0","0","19","NA","15","19","15","0","15","3","19","0","19","Fri Feb 19 12:47:38 2021","The main experiment item","yes","Lexical_Decision_Task.osexp","/Users/maxludeman/Documents/Psychology/Second year/Cognition and Language","no","Andale Mono","no","18","no","white","no","yes","576","legacy","15","15","3","/Users/maxludeman/Documents/Psychology/Second year/Cognition and Language/subject-5109570.csv","legacy","Lentiform Loewenfeld","3.3.7","yes","yes","600bd7cfb6416f0113b04181","602110864497cf011d9c0822","0","f","NA","j","k","j","NA","f","1571","NA","3274","19370","36224","NA","1571","2","legacy","1024","2","48000","-16","task","5109570","even","NA","72607","77884","74609","110324","8023","63632","27407","110827","NA","110321","110827","110258","77884","112400","70832","109758","7923","89769","Lexical Decision Task","19","21420","20","yes","1024"
"3.218535505","7.85","7","goat","word","95.23809523809524","95.23809523809524","1053.6190476190477","1053.6190476190477","black","no","legacy","legacy","legacy","0","uniform","1","undefined","undefined","undefined","1","j","0","0","0","0","20","0","0","0","20","NA","16","20","16","0","16","3","20","0","20","Fri Feb 19 12:47:38 2021","The main experiment item","yes","Lexical_Decision_Task.osexp","/Users/maxludeman/Documents/Psychology/Second year/Cognition and Language","no","Andale Mono","no","18","no","white","no","yes","576","legacy","16","16","3","/Users/maxludeman/Documents/Psychology/Second year/Cognition and Language/subject-5109570.csv","legacy","Lentiform Loewenfeld","3.3.7","yes","yes","600bd7cfb6416f0113b04181","602110864497cf011d9c0822","0","j","NA","j","k","j","NA","j","706","NA","3274","19370","36224","NA","706","2","legacy","1024","2","48000","-16","task","5109570","even","NA","72607","77884","74609","112969","8023","63632","27407","113471","NA","112965","113471","112903","77884","114178","70832","112403","7923","89769","Lexical Decision Task","20","22126","21","yes","1024"
"3.028977705","0","7","frow","non-word","95.45454545454545","95.45454545454545","1055.8181818181818","1055.8181818181818","black","no","legacy","legacy","legacy","0","uniform","1","undefined","undefined","undefined","1","f","0","0","0","0","21","0","0","0","21","NA","17","21","17","0","17","3","21","0","21","Fri Feb 19 12:47:38 2021","The main experiment item","yes","Lexical_Decision_Task.osexp","/Users/maxludeman/Documents/Psychology/Second year/Cognition and Language","no","Andale Mono","no","18","no","white","no","yes","576","legacy","17","17","3","/Users/maxludeman/Documents/Psychology/Second year/Cognition and Language/subject-5109570.csv","legacy","Lentiform Loewenfeld","3.3.7","yes","yes","600bd7cfb6416f0113b04181","602110864497cf011d9c0822","0","f","NA","j","k","j","NA","f","1102","NA","3274","19370","36224","NA","1102","2","legacy","1024","2","48000","-16","task","5109570","even","NA","72607","77884","74609","114749","8023","63632","27407","115253","NA","114747","115253","114682","77884","116357","70832","114182","7923","89769","Lexical Decision Task","21","23228","22","yes","1024"
"3.481012421","8.34","5","teen","word","95.65217391304348","95.65217391304348","1035.1304347826087","1035.1304347826087","black","no","legacy","legacy","legacy","0","uniform","1","undefined","undefined","undefined","1","j","0","0","0","0","22","0","0","0","22","NA","18","22","18","0","18","3","22","0","22","Fri Feb 19 12:47:38 2021","The main experiment item","yes","Lexical_Decision_Task.osexp","/Users/maxludeman/Documents/Psychology/Second year/Cognition and Language","no","Andale Mono","no","18","no","white","no","yes","576","legacy","18","18","3","/Users/maxludeman/Documents/Psychology/Second year/Cognition and Language/subject-5109570.csv","legacy","Lentiform Loewenfeld","3.3.7","yes","yes","600bd7cfb6416f0113b04181","602110864497cf011d9c0822","0","j","NA","j","k","j","NA","j","580","NA","3274","19370","36224","NA","580","2","legacy","1024","2","48000","-16","task","5109570","even","NA","72607","77884","74609","116927","8023","63632","27407","117430","NA","116923","117430","116860","77884","118012","70832","116360","7923","89769","Lexical Decision Task","22","23808","23","yes","1024"
"2.6599162","0","2","saff","non-word","95.83333333333333","95.83333333333333","1072.6666666666667","1072.6666666666667","black","no","legacy","legacy","legacy","0","uniform","1","undefined","undefined","undefined","1","f","0","0","0","0","23","0","0","0","23","NA","19","23","19","0","19","3","23","0","23","Fri Feb 19 12:47:38 2021","The main experiment item","yes","Lexical_Decision_Task.osexp","/Users/maxludeman/Documents/Psychology/Second year/Cognition and Language","no","Andale Mono","no","18","no","white","no","yes","576","legacy","19","19","3","/Users/maxludeman/Documents/Psychology/Second year/Cognition and Language/subject-5109570.csv","legacy","Lentiform Loewenfeld","3.3.7","yes","yes","600bd7cfb6416f0113b04181","602110864497cf011d9c0822","0","f","NA","j","k","j","NA","f","1936","NA","3274","19370","36224","NA","1936","2","legacy","1024","2","48000","-16","task","5109570","even","NA","72607","77884","74609","118584","8023","63632","27407","119086","NA","118580","119087","118515","77884","121024","70832","118015","7923","89769","Lexical Decision Task","23","25744","24","yes","1024"
"3.316948329","0","1","besc","non-word","96","96","1140.32","1140.32","black","no","legacy","legacy","legacy","0","uniform","1","undefined","undefined","undefined","1","f","0","0","0","0","24","0","0","0","24","NA","20","24","20","0","20","3","24","0","24","Fri Feb 19 12:47:38 2021","The main experiment item","yes","Lexical_Decision_Task.osexp","/Users/maxludeman/Documents/Psychology/Second year/Cognition and Language","no","Andale Mono","no","18","no","white","no","yes","576","legacy","20","20","3","/Users/maxludeman/Documents/Psychology/Second year/Cognition and Language/subject-5109570.csv","legacy","Lentiform Loewenfeld","3.3.7","yes","yes","600bd7cfb6416f0113b04181","602110864497cf011d9c0822","0","f","NA","j","k","j","NA","f","2764","NA","3274","19370","36224","NA","2764","2","legacy","1024","2","48000","-16","task","5109570","even","NA","72607","77884","74609","121595","8023","63632","27407","122098","NA","121591","122098","121528","77884","124863","70832","121028","7923","89769","Lexical Decision Task","24","28508","25","yes","1024"
"2.576725172","0","8","gowl","non-word","92.3076923076923","92.3076923076923","1148.0384615384614","1148.0384615384614","black","no","legacy","legacy","legacy","0","uniform","0","undefined","undefined","undefined","0","f","0","0","0","0","25","0","0","0","25","NA","21","25","21","0","21","3","25","0","25","Fri Feb 19 12:47:38 2021","The main experiment item","yes","Lexical_Decision_Task.osexp","/Users/maxludeman/Documents/Psychology/Second year/Cognition and Language","no","Andale Mono","no","18","no","white","no","yes","576","legacy","21","21","3","/Users/maxludeman/Documents/Psychology/Second year/Cognition and Language/subject-5109570.csv","legacy","Lentiform Loewenfeld","3.3.7","yes","yes","600bd7cfb6416f0113b04181","602110864497cf011d9c0822","0","j","NA","j","k","j","NA","j","1341","NA","3274","19370","36224","NA","1341","2","legacy","1024","2","48000","-16","task","5109570","even","NA","72607","77884","74609","125433","8023","63632","27407","125936","NA","125430","125936","125367","77884","127278","70832","124867","7923","89769","Lexical Decision Task","24","29849","26","yes","1024"
"3.062080345","0","6","tomp","non-word","92.5925925925926","92.5925925925926","1149.148148148148","1149.148148148148","black","no","legacy","legacy","legacy","0","uniform","1","undefined","undefined","undefined","1","f","0","0","0","0","26","0","0","0","26","NA","22","26","22","0","22","3","26","0","26","Fri Feb 19 12:47:38 2021","The main experiment item","yes","Lexical_Decision_Task.osexp","/Users/maxludeman/Documents/Psychology/Second year/Cognition and Language","no","Andale Mono","no","18","no","white","no","yes","576","legacy","22","22","3","/Users/maxludeman/Documents/Psychology/Second year/Cognition and Language/subject-5109570.csv","legacy","Lentiform Loewenfeld","3.3.7","yes","yes","600bd7cfb6416f0113b04181","602110864497cf011d9c0822","0","f","NA","j","k","j","NA","f","1178","NA","3274","19370","36224","NA","1178","2","legacy","1024","2","48000","-16","task","5109570","even","NA","72607","77884","74609","128849","8023","63632","27407","129351","NA","128846","129352","128782","77884","130531","70832","124867","7923","127282","Lexical Decision Task","25","31027","27","yes","1024"
"3.14849993","10.75","7","hour","word","92.85714285714286","92.85714285714286","1138.7142857142858","1138.7142857142858","black","no","legacy","legacy","legacy","0","uniform","1","undefined","undefined","undefined","1","j","0","0","0","0","27","0","0","0","27","NA","23","27","23","0","23","3","27","0","27","Fri Feb 19 12:47:38 2021","The main experiment item","yes","Lexical_Decision_Task.osexp","/Users/maxludeman/Documents/Psychology/Second year/Cognition and Language","no","Andale Mono","no","18","no","white","no","yes","576","legacy","23","23","3","/Users/maxludeman/Documents/Psychology/Second year/Cognition and Language/subject-5109570.csv","legacy","Lentiform Loewenfeld","3.3.7","yes","yes","600bd7cfb6416f0113b04181","602110864497cf011d9c0822","0","j","NA","j","k","j","NA","j","857","NA","3274","19370","36224","NA","857","2","legacy","1024","2","48000","-16","task","5109570","even","NA","72607","77884","74609","131104","8023","63632","27407","131606","NA","131102","131606","131035","77884","132464","70832","130535","7923","127282","Lexical Decision Task","26","31884","28","yes","1024"
"3.091901331","0","9","nipe","non-word","93.10344827586206","93.10344827586206","1128.7931034482758","1128.7931034482758","black","no","legacy","legacy","legacy","0","uniform","1","undefined","undefined","undefined","1","f","0","0","0","0","28","0","0","0","28","NA","24","28","24","0","24","3","28","0","28","Fri Feb 19 12:47:38 2021","The main experiment item","yes","Lexical_Decision_Task.osexp","/Users/maxludeman/Documents/Psychology/Second year/Cognition and Language","no","Andale Mono","no","18","no","white","no","yes","576","legacy","24","24","3","/Users/maxludeman/Documents/Psychology/Second year/Cognition and Language/subject-5109570.csv","legacy","Lentiform Loewenfeld","3.3.7","yes","yes","600bd7cfb6416f0113b04181","602110864497cf011d9c0822","0","f","NA","j","k","j","NA","f","851","NA","3274","19370","36224","NA","851","2","legacy","1024","2","48000","-16","task","5109570","even","NA","72607","77884","74609","133038","8023","63632","27407","133540","NA","133035","133540","132969","77884","134392","70832","132469","7923","127282","Lexical Decision Task","27","32735","29","yes","1024"
"2.924968096","0","4","phim","non-word","93.33333333333333","93.33333333333333","1117.4666666666667","1117.4666666666667","black","no","legacy","legacy","legacy","0","uniform","1","undefined","undefined","undefined","1","f","0","0","0","0","29","0","0","0","29","NA","25","29","25","0","25","3","29","0","29","Fri Feb 19 12:47:38 2021","The main experiment item","yes","Lexical_Decision_Task.osexp","/Users/maxludeman/Documents/Psychology/Second year/Cognition and Language","no","Andale Mono","no","18","no","white","no","yes","576","legacy","25","25","3","/Users/maxludeman/Documents/Psychology/Second year/Cognition and Language/subject-5109570.csv","legacy","Lentiform Loewenfeld","3.3.7","yes","yes","600bd7cfb6416f0113b04181","602110864497cf011d9c0822","0","f","NA","j","k","j","NA","f","789","NA","3274","19370","36224","NA","789","2","legacy","1024","2","48000","-16","task","5109570","even","NA","72607","77884","74609","134965","8023","63632","27407","135467","NA","134962","135468","134897","77884","136258","70832","134396","7923","127282","Lexical Decision Task","28","33524","30","yes","1024"
"3.153104174","10.89","6","door","word","93.54838709677419","93.54838709677419","1107.032258064516","1107.032258064516","black","no","legacy","legacy","legacy","0","uniform","1","undefined","undefined","undefined","1","j","0","0","0","0","30","0","0","0","30","NA","26","30","26","0","26","3","30","0","30","Fri Feb 19 12:47:38 2021","The main experiment item","yes","Lexical_Decision_Task.osexp","/Users/maxludeman/Documents/Psychology/Second year/Cognition and Language","no","Andale Mono","no","18","no","white","no","yes","576","legacy","26","26","3","/Users/maxludeman/Documents/Psychology/Second year/Cognition and Language/subject-5109570.csv","legacy","Lentiform Loewenfeld","3.3.7","yes","yes","600bd7cfb6416f0113b04181","602110864497cf011d9c0822","0","j","NA","j","k","j","NA","j","794","NA","3274","19370","36224","NA","794","2","legacy","1024","2","48000","-16","task","5109570","even","NA","72607","77884","74609","136829","8023","63632","27407","137332","NA","136827","137332","136762","77884","138127","70832","136262","7923","127282","Lexical Decision Task","29","34318","31","yes","1024"
"3.168890155","0","6","thet","non-word","93.75","93.75","1095.71875","1095.71875","black","no","legacy","legacy","legacy","0","uniform","1","undefined","undefined","undefined","1","f","0","0","0","0","31","0","0","0","31","NA","27","31","27","0","27","3","31","0","31","Fri Feb 19 12:47:38 2021","The main experiment item","yes","Lexical_Decision_Task.osexp","/Users/maxludeman/Documents/Psychology/Second year/Cognition and Language","no","Andale Mono","no","18","no","white","no","yes","576","legacy","27","27","3","/Users/maxludeman/Documents/Psychology/Second year/Cognition and Language/subject-5109570.csv","legacy","Lentiform Loewenfeld","3.3.7","yes","yes","600bd7cfb6416f0113b04181","602110864497cf011d9c0822","0","f","NA","j","k","j","NA","f","745","NA","3274","19370","36224","NA","745","2","legacy","1024","2","48000","-16","task","5109570","even","NA","72607","77884","74609","138697","8023","63632","27407","139199","NA","138695","139199","138631","77884","139945","70832","138131","7923","127282","Lexical Decision Task","30","35063","32","yes","1024"
"3.307211407","6.07","7","honk","word","93.93939393939394","93.93939393939394","1099.6363636363637","1099.6363636363637","black","no","legacy","legacy","legacy","0","uniform","1","undefined","undefined","undefined","1","j","0","0","0","0","32","0","0","0","32","NA","28","32","28","0","28","3","32","0","32","Fri Feb 19 12:47:38 2021","The main experiment item","yes","Lexical_Decision_Task.osexp","/Users/maxludeman/Documents/Psychology/Second year/Cognition and Language","no","Andale Mono","no","18","no","white","no","yes","576","legacy","28","28","3","/Users/maxludeman/Documents/Psychology/Second year/Cognition and Language/subject-5109570.csv","legacy","Lentiform Loewenfeld","3.3.7","yes","yes","600bd7cfb6416f0113b04181","602110864497cf011d9c0822","0","j","NA","j","k","j","NA","j","1225","NA","3274","19370","36224","NA","1225","2","legacy","1024","2","48000","-16","task","5109570","even","NA","72607","77884","74609","140514","8023","63632","27407","141018","NA","140511","141018","140449","77884","142244","70832","139948","7923","127282","Lexical Decision Task","31","36288","33","yes","1024"
"2.983324025","9.56","2","debt","word","94.11764705882354","94.11764705882354","1084.4411764705883","1084.4411764705883","black","no","legacy","legacy","legacy","0","uniform","1","undefined","undefined","undefined","1","j","0","0","0","0","33","0","0","0","33","NA","29","33","29","0","29","3","33","0","33","Fri Feb 19 12:47:38 2021","The main experiment item","yes","Lexical_Decision_Task.osexp","/Users/maxludeman/Documents/Psychology/Second year/Cognition and Language","no","Andale Mono","no","18","no","white","no","yes","576","legacy","29","29","3","/Users/maxludeman/Documents/Psychology/Second year/Cognition and Language/subject-5109570.csv","legacy","Lentiform Loewenfeld","3.3.7","yes","yes","600bd7cfb6416f0113b04181","602110864497cf011d9c0822","0","j","NA","j","k","j","NA","j","583","NA","3274","19370","36224","NA","583","2","legacy","1024","2","48000","-16","task","5109570","even","NA","72607","77884","74609","142814","8023","63632","27407","143317","NA","142811","143317","142749","77884","143901","70832","142249","7923","127282","Lexical Decision Task","32","36871","34","yes","1024"
"2.693726949","5.08","3","swig","word","94.28571428571429","94.28571428571429","1112.1714285714286","1112.1714285714286","black","no","legacy","legacy","legacy","0","uniform","1","undefined","undefined","undefined","1","j","0","0","0","0","34","0","0","0","34","NA","30","34","30","0","30","3","34","0","34","Fri Feb 19 12:47:38 2021","The main experiment item","yes","Lexical_Decision_Task.osexp","/Users/maxludeman/Documents/Psychology/Second year/Cognition and Language","no","Andale Mono","no","18","no","white","no","yes","576","legacy","30","30","3","/Users/maxludeman/Documents/Psychology/Second year/Cognition and Language/subject-5109570.csv","legacy","Lentiform Loewenfeld","3.3.7","yes","yes","600bd7cfb6416f0113b04181","602110864497cf011d9c0822","0","j","NA","j","k","j","NA","j","2055","NA","3274","19370","36224","NA","2055","2","legacy","1024","2","48000","-16","task","5109570","even","NA","72607","77884","74609","144472","8023","63632","27407","144975","NA","144469","144975","144405","77884","147031","70832","143904","7923","127282","Lexical Decision Task","33","38926","35","yes","1024"
"2.68604012","0","4","pumb","non-word","94.44444444444444","94.44444444444444","1160.1666666666667","1160.1666666666667","black","no","legacy","legacy","legacy","0","uniform","1","undefined","undefined","undefined","1","f","0","0","0","0","35","0","0","0","35","NA","31","35","31","0","31","3","35","0","35","Fri Feb 19 12:47:38 2021","The main experiment item","yes","Lexical_Decision_Task.osexp","/Users/maxludeman/Documents/Psychology/Second year/Cognition and Language","no","Andale Mono","no","18","no","white","no","yes","576","legacy","31","31","3","/Users/maxludeman/Documents/Psychology/Second year/Cognition and Language/subject-5109570.csv","legacy","Lentiform Loewenfeld","3.3.7","yes","yes","600bd7cfb6416f0113b04181","602110864497cf011d9c0822","0","f","NA","j","k","j","NA","f","2840","NA","3274","19370","36224","NA","2840","2","legacy","1024","2","48000","-16","task","5109570","even","NA","72607","77884","74609","147603","8023","63632","27407","148107","NA","147601","148107","147535","77884","150948","70832","147035","7923","127282","Lexical Decision Task","34","41766","36","yes","1024"
"3.209246849","0","7","slem","non-word","94.5945945945946","94.5945945945946","1176.5405405405406","1176.5405405405406","black","no","legacy","legacy","legacy","0","uniform","1","undefined","undefined","undefined","1","f","0","0","0","0","36","0","0","0","36","NA","32","36","32","0","32","3","36","0","36","Fri Feb 19 12:47:38 2021","The main experiment item","yes","Lexical_Decision_Task.osexp","/Users/maxludeman/Documents/Psychology/Second year/Cognition and Language","no","Andale Mono","no","18","no","white","no","yes","576","legacy","32","32","3","/Users/maxludeman/Documents/Psychology/Second year/Cognition and Language/subject-5109570.csv","legacy","Lentiform Loewenfeld","3.3.7","yes","yes","600bd7cfb6416f0113b04181","602110864497cf011d9c0822","0","f","NA","j","k","j","NA","f","1766","NA","3274","19370","36224","NA","1766","2","legacy","1024","2","48000","-16","task","5109570","even","NA","72607","77884","74609","151520","8023","63632","27407","152022","NA","151517","152022","151453","77884","153790","70832","150952","7923","127282","Lexical Decision Task","35","43532","37","yes","1024"
"2.784379519","0","2","snaf","non-word","94.73684210526316","94.73684210526316","1169.1052631578948","1169.1052631578948","black","no","legacy","legacy","legacy","0","uniform","1","undefined","undefined","undefined","1","f","0","0","0","0","37","0","0","0","37","NA","33","37","33","0","33","3","37","0","37","Fri Feb 19 12:47:38 2021","The main experiment item","yes","Lexical_Decision_Task.osexp","/Users/maxludeman/Documents/Psychology/Second year/Cognition and Language","no","Andale Mono","no","18","no","white","no","yes","576","legacy","33","33","3","/Users/maxludeman/Documents/Psychology/Second year/Cognition and Language/subject-5109570.csv","legacy","Lentiform Loewenfeld","3.3.7","yes","yes","600bd7cfb6416f0113b04181","602110864497cf011d9c0822","0","f","NA","j","k","j","NA","f","894","NA","3274","19370","36224","NA","894","2","legacy","1024","2","48000","-16","task","5109570","even","NA","72607","77884","74609","154362","8023","63632","27407","154864","NA","154360","154864","154294","77884","155759","70832","153794","7923","127282","Lexical Decision Task","36","44426","38","yes","1024"
"3.460446784","0","5","dess","non-word","94.87179487179488","94.87179487179488","1176.5128205128206","1176.5128205128206","black","no","legacy","legacy","legacy","0","uniform","1","undefined","undefined","undefined","1","f","0","0","0","0","38","0","0","0","38","NA","34","38","34","0","34","3","38","0","38","Fri Feb 19 12:47:38 2021","The main experiment item","yes","Lexical_Decision_Task.osexp","/Users/maxludeman/Documents/Psychology/Second year/Cognition and Language","no","Andale Mono","no","18","no","white","no","yes","576","legacy","34","34","3","/Users/maxludeman/Documents/Psychology/Second year/Cognition and Language/subject-5109570.csv","legacy","Lentiform Loewenfeld","3.3.7","yes","yes","600bd7cfb6416f0113b04181","602110864497cf011d9c0822","0","f","NA","j","k","j","NA","f","1458","NA","3274","19370","36224","NA","1458","2","legacy","1024","2","48000","-16","task","5109570","even","NA","72607","77884","74609","156331","8023","63632","27407","156833","NA","156328","156834","156263","77884","158294","70832","155763","7923","127282","Lexical Decision Task","37","45884","39","yes","1024"
"3.120025233","0","2","nyst","non-word","95","95","1170.4","1170.4","black","no","legacy","legacy","legacy","0","uniform","1","undefined","undefined","undefined","1","f","0","0","0","0","39","0","0","0","39","NA","35","39","35","0","35","3","39","0","39","Fri Feb 19 12:47:38 2021","The main experiment item","yes","Lexical_Decision_Task.osexp","/Users/maxludeman/Documents/Psychology/Second year/Cognition and Language","no","Andale Mono","no","18","no","white","no","yes","576","legacy","35","35","3","/Users/maxludeman/Documents/Psychology/Second year/Cognition and Language/subject-5109570.csv","legacy","Lentiform Loewenfeld","3.3.7","yes","yes","600bd7cfb6416f0113b04181","602110864497cf011d9c0822","0","f","NA","j","k","j","NA","f","932","NA","3274","19370","36224","NA","932","2","legacy","1024","2","48000","-16","task","5109570","even","NA","72607","77884","74609","158865","8023","63632","27407","159368","NA","158862","159368","158797","77884","160301","70832","158297","7923","127282","Lexical Decision Task","38","46816","40","yes","1024"
"3.076883066","0","8","mout","non-word","95.1219512195122","95.1219512195122","1166.5853658536585","1166.5853658536585","black","no","legacy","legacy","legacy","0","uniform","1","undefined","undefined","undefined","1","f","0","0","0","0","40","0","0","0","40","NA","36","40","36","0","36","3","40","0","40","Fri Feb 19 12:47:38 2021","The main experiment item","yes","Lexical_Decision_Task.osexp","/Users/maxludeman/Documents/Psychology/Second year/Cognition and Language","no","Andale Mono","no","18","no","white","no","yes","576","legacy","36","36","3","/Users/maxludeman/Documents/Psychology/Second year/Cognition and Language/subject-5109570.csv","legacy","Lentiform Loewenfeld","3.3.7","yes","yes","600bd7cfb6416f0113b04181","602110864497cf011d9c0822","0","f","NA","j","k","j","NA","f","1014","NA","3274","19370","36224","NA","1014","2","legacy","1024","2","48000","-16","task","5109570","even","NA","72607","77884","74609","160871","8023","63632","27407","161374","NA","160868","161374","160804","77884","162389","70832","160304","7923","127282","Lexical Decision Task","39","47830","41","yes","1024"
"2.953276337","6.32","4","thaw","word","92.85714285714286","92.85714285714286","1168.9761904761904","1168.9761904761904","black","no","legacy","legacy","legacy","0","uniform","0","undefined","undefined","undefined","0","j","0","0","0","0","41","0","0","0","41","NA","37","41","37","0","37","3","41","0","41","Fri Feb 19 12:47:38 2021","The main experiment item","yes","Lexical_Decision_Task.osexp","/Users/maxludeman/Documents/Psychology/Second year/Cognition and Language","no","Andale Mono","no","18","no","white","no","yes","576","legacy","37","37","3","/Users/maxludeman/Documents/Psychology/Second year/Cognition and Language/subject-5109570.csv","legacy","Lentiform Loewenfeld","3.3.7","yes","yes","600bd7cfb6416f0113b04181","602110864497cf011d9c0822","0","f","NA","j","k","j","NA","f","1267","NA","3274","19370","36224","NA","1267","2","legacy","1024","2","48000","-16","task","5109570","even","NA","72607","77884","74609","162962","8023","63632","27407","163464","NA","162959","163465","162894","77884","164734","70832","162394","7923","127282","Lexical Decision Task","39","49097","42","yes","1024"
"2.706148589","0","4","hube","non-word","93.02325581395348","93.02325581395348","1161.139534883721","1161.139534883721","black","no","legacy","legacy","legacy","0","uniform","1","undefined","undefined","undefined","1","f","0","0","0","0","42","0","0","0","42","NA","38","42","38","0","38","3","42","0","42","Fri Feb 19 12:47:38 2021","The main experiment item","yes","Lexical_Decision_Task.osexp","/Users/maxludeman/Documents/Psychology/Second year/Cognition and Language","no","Andale Mono","no","18","no","white","no","yes","576","legacy","38","38","3","/Users/maxludeman/Documents/Psychology/Second year/Cognition and Language/subject-5109570.csv","legacy","Lentiform Loewenfeld","3.3.7","yes","yes","600bd7cfb6416f0113b04181","602110864497cf011d9c0822","0","f","NA","j","k","j","NA","f","832","NA","3274","19370","36224","NA","832","2","legacy","1024","2","48000","-16","task","5109570","even","NA","72607","77884","74609","166306","8023","63632","27407","166808","NA","166303","166809","166237","77884","167642","70832","162394","7923","164737","Lexical Decision Task","40","49929","43","yes","1024"
"2.705007959","6.01","4","wept","word","93.18181818181819","93.18181818181819","1153.2045454545455","1153.2045454545455","black","no","legacy","legacy","legacy","0","uniform","1","undefined","undefined","undefined","1","j","0","0","0","0","43","0","0","0","43","NA","39","43","39","0","39","3","43","0","43","Fri Feb 19 12:47:38 2021","The main experiment item","yes","Lexical_Decision_Task.osexp","/Users/maxludeman/Documents/Psychology/Second year/Cognition and Language","no","Andale Mono","no","18","no","white","no","yes","576","legacy","39","39","3","/Users/maxludeman/Documents/Psychology/Second year/Cognition and Language/subject-5109570.csv","legacy","Lentiform Loewenfeld","3.3.7","yes","yes","600bd7cfb6416f0113b04181","602110864497cf011d9c0822","0","j","NA","j","k","j","NA","j","812","NA","3274","19370","36224","NA","812","2","legacy","1024","2","48000","-16","task","5109570","even","NA","72607","77884","74609","168213","8023","63632","27407","168715","NA","168210","168716","168146","77884","169529","70832","167646","7923","164737","Lexical Decision Task","41","50741","44","yes","1024"
"3.121778632","0","9","sark","non-word","93.33333333333333","93.33333333333333","1148.5333333333333","1148.5333333333333","black","no","legacy","legacy","legacy","0","uniform","1","undefined","undefined","undefined","1","f","0","0","0","0","44","0","0","0","44","NA","40","44","40","0","40","3","44","0","44","Fri Feb 19 12:47:38 2021","The main experiment item","yes","Lexical_Decision_Task.osexp","/Users/maxludeman/Documents/Psychology/Second year/Cognition and Language","no","Andale Mono","no","18","no","white","no","yes","576","legacy","40","40","3","/Users/maxludeman/Documents/Psychology/Second year/Cognition and Language/subject-5109570.csv","legacy","Lentiform Loewenfeld","3.3.7","yes","yes","600bd7cfb6416f0113b04181","602110864497cf011d9c0822","0","f","NA","j","k","j","NA","f","943","NA","3274","19370","36224","NA","943","2","legacy","1024","2","48000","-16","task","5109570","even","NA","72607","77884","74609","170103","8023","63632","27407","170607","NA","170100","170607","170034","77884","171552","70832","169534","7923","164737","Lexical Decision Task","42","51684","45","yes","1024"
"3.495914186","0","4","peng","non-word","91.30434782608695","91.30434782608695","1141.9782608695652","1141.9782608695652","black","no","legacy","legacy","legacy","0","uniform","0","undefined","undefined","undefined","0","f","0","0","0","0","45","0","0","0","45","NA","41","45","41","0","41","3","45","0","45","Fri Feb 19 12:47:38 2021","The main experiment item","yes","Lexical_Decision_Task.osexp","/Users/maxludeman/Documents/Psychology/Second year/Cognition and Language","no","Andale Mono","no","18","no","white","no","yes","576","legacy","41","41","3","/Users/maxludeman/Documents/Psychology/Second year/Cognition and Language/subject-5109570.csv","legacy","Lentiform Loewenfeld","3.3.7","yes","yes","600bd7cfb6416f0113b04181","602110864497cf011d9c0822","0","j","NA","j","k","j","NA","j","847","NA","3274","19370","36224","NA","847","2","legacy","1024","2","48000","-16","task","5109570","even","NA","72607","77884","74609","172126","8023","63632","27407","172628","NA","172123","172629","172056","77884","173477","70832","171556","7923","164737","Lexical Decision Task","42","52531","46","yes","1024"
"2.845304797","0","6","buct","non-word","91.48936170212765","91.48936170212765","1131.276595744681","1131.276595744681","black","no","legacy","legacy","legacy","0","uniform","1","undefined","undefined","undefined","1","f","0","0","0","0","46","0","0","0","46","NA","42","46","42","0","42","3","46","0","46","Fri Feb 19 12:47:38 2021","The main experiment item","yes","Lexical_Decision_Task.osexp","/Users/maxludeman/Documents/Psychology/Second year/Cognition and Language","no","Andale Mono","no","18","no","white","no","yes","576","legacy","42","42","3","/Users/maxludeman/Documents/Psychology/Second year/Cognition and Language/subject-5109570.csv","legacy","Lentiform Loewenfeld","3.3.7","yes","yes","600bd7cfb6416f0113b04181","602110864497cf011d9c0822","0","f","NA","j","k","j","NA","f","639","NA","3274","19370","36224","NA","639","2","legacy","1024","2","48000","-16","task","5109570","even","NA","72607","77884","74609","175049","8023","63632","27407","175551","NA","175046","175551","174981","77884","176191","70832","171556","7923","173480","Lexical Decision Task","43","53170","47","yes","1024"
"2.899638141","0","3","hapt","non-word","91.66666666666667","91.66666666666667","1128.9375","1128.9375","black","no","legacy","legacy","legacy","0","uniform","1","undefined","undefined","undefined","1","f","0","0","0","0","47","0","0","0","47","NA","43","47","43","0","43","3","47","0","47","Fri Feb 19 12:47:38 2021","The main experiment item","yes","Lexical_Decision_Task.osexp","/Users/maxludeman/Documents/Psychology/Second year/Cognition and Language","no","Andale Mono","no","18","no","white","no","yes","576","legacy","43","43","3","/Users/maxludeman/Documents/Psychology/Second year/Cognition and Language/subject-5109570.csv","legacy","Lentiform Loewenfeld","3.3.7","yes","yes","600bd7cfb6416f0113b04181","602110864497cf011d9c0822","0","f","NA","j","k","j","NA","f","1019","NA","3274","19370","36224","NA","1019","2","legacy","1024","2","48000","-16","task","5109570","even","NA","72607","77884","74609","176763","8023","63632","27407","177265","NA","176760","177266","176695","77884","178286","70832","176195","7923","173480","Lexical Decision Task","44","54189","48","yes","1024"
"3.378276681","6.39","8","bran","word","89.79591836734694","89.79591836734694","1128.3265306122448","1128.3265306122448","black","no","legacy","legacy","legacy","0","uniform","0","undefined","undefined","undefined","0","j","0","0","0","0","48","0","0","0","48","NA","44","48","44","0","44","3","48","0","48","Fri Feb 19 12:47:38 2021","The main experiment item","yes","Lexical_Decision_Task.osexp","/Users/maxludeman/Documents/Psychology/Second year/Cognition and Language","no","Andale Mono","no","18","no","white","no","yes","576","legacy","44","44","3","/Users/maxludeman/Documents/Psychology/Second year/Cognition and Language/subject-5109570.csv","legacy","Lentiform Loewenfeld","3.3.7","yes","yes","600bd7cfb6416f0113b04181","602110864497cf011d9c0822","0","f","NA","j","k","j","NA","f","1099","NA","3274","19370","36224","NA","1099","2","legacy","1024","2","48000","-16","task","5109570","even","NA","72607","77884","74609","178858","8023","63632","27407","179361","NA","178855","179361","178790","77884","180461","70832","178290","7923","173480","Lexical Decision Task","44","55288","49","yes","1024"
"3.252447662","9.67","9","boat","word","90","90","1139.28","1139.28","black","no","legacy","legacy","legacy","0","uniform","1","undefined","undefined","undefined","1","j","0","0","0","0","49","0","0","0","49","NA","45","49","45","0","45","3","49","0","49","Fri Feb 19 12:47:38 2021","The main experiment item","yes","Lexical_Decision_Task.osexp","/Users/maxludeman/Documents/Psychology/Second year/Cognition and Language","no","Andale Mono","no","18","no","white","no","yes","576","legacy","45","45","3","/Users/maxludeman/Documents/Psychology/Second year/Cognition and Language/subject-5109570.csv","legacy","Lentiform Loewenfeld","3.3.7","yes","yes","600bd7cfb6416f0113b04181","602110864497cf011d9c0822","0","j","NA","j","k","j","NA","j","1676","NA","3274","19370","36224","NA","1676","2","legacy","1024","2","48000","-16","task","5109570","even","NA","72607","77884","74609","182035","8023","63632","27407","182538","NA","182032","182538","181964","77884","184216","70832","178290","7923","180464","Lexical Decision Task","45","56964","50","yes","1024"
"2.709837904","6.85","8","skim","word","90.19607843137256","90.19607843137256","1133.4117647058824","1133.4117647058824","black","no","legacy","legacy","legacy","0","uniform","1","undefined","undefined","undefined","1","j","0","0","0","0","50","0","0","0","50","NA","46","50","46","0","46","3","50","0","50","Fri Feb 19 12:47:38 2021","The main experiment item","yes","Lexical_Decision_Task.osexp","/Users/maxludeman/Documents/Psychology/Second year/Cognition and Language","no","Andale Mono","no","18","no","white","no","yes","576","legacy","46","46","3","/Users/maxludeman/Documents/Psychology/Second year/Cognition and Language/subject-5109570.csv","legacy","Lentiform Loewenfeld","3.3.7","yes","yes","600bd7cfb6416f0113b04181","602110864497cf011d9c0822","0","j","NA","j","k","j","NA","j","840","NA","3274","19370","36224","NA","840","2","legacy","1024","2","48000","-16","task","5109570","even","NA","72607","77884","74609","184788","8023","63632","27407","185291","NA","184785","185291","184719","77884","186133","70832","184219","7923","180464","Lexical Decision Task","46","57804","51","yes","1024"
"3.259832699","0","9","flar","non-word","88.46153846153847","88.46153846153847","1169.3076923076924","1169.3076923076924","black","no","legacy","legacy","legacy","0","uniform","0","undefined","undefined","undefined","0","f","0","0","0","0","51","0","0","0","51","NA","47","51","47","0","47","3","51","0","51","Fri Feb 19 12:47:38 2021","The main experiment item","yes","Lexical_Decision_Task.osexp","/Users/maxludeman/Documents/Psychology/Second year/Cognition and Language","no","Andale Mono","no","18","no","white","no","yes","576","legacy","47","47","3","/Users/maxludeman/Documents/Psychology/Second year/Cognition and Language/subject-5109570.csv","legacy","Lentiform Loewenfeld","3.3.7","yes","yes","600bd7cfb6416f0113b04181","602110864497cf011d9c0822","0","None","NA","j","k","j","NA","None","3000","NA","3274","19370","36224","NA","3000","2","legacy","1024","2","48000","-16","task","5109570","even","NA","72607","77884","74609","186703","8023","63632","27407","187205","NA","186700","187205","186637","77884","190205","70832","186136","7923","180464","Lexical Decision Task","46","60804","52","yes","1024"
"2.990042563","6.64","9","plow","word","88.67924528301887","88.67924528301887","1162.7735849056603","1162.7735849056603","black","no","legacy","legacy","legacy","0","uniform","1","undefined","undefined","undefined","1","j","0","0","0","0","52","0","0","0","52","NA","48","52","48","0","48","3","52","0","52","Fri Feb 19 12:47:38 2021","The main experiment item","yes","Lexical_Decision_Task.osexp","/Users/maxludeman/Documents/Psychology/Second year/Cognition and Language","no","Andale Mono","no","18","no","white","no","yes","576","legacy","48","48","3","/Users/maxludeman/Documents/Psychology/Second year/Cognition and Language/subject-5109570.csv","legacy","Lentiform Loewenfeld","3.3.7","yes","yes","600bd7cfb6416f0113b04181","602110864497cf011d9c0822","0","j","NA","j","k","j","NA","j","823","NA","3274","19370","36224","NA","823","2","legacy","1024","2","48000","-16","task","5109570","even","NA","72607","77884","74609","191786","8023","63632","27407","192288","NA","191783","192289","191709","77884","193114","70832","186136","7923","190209","Lexical Decision Task","47","61627","53","yes","1024"
"2.873320602","0","4","lurg","non-word","87.03703703703704","87.03703703703704","1164.3703703703704","1164.3703703703704","black","no","legacy","legacy","legacy","0","uniform","0","undefined","undefined","undefined","0","f","0","0","0","0","53","0","0","0","53","NA","49","53","49","0","49","3","53","0","53","Fri Feb 19 12:47:38 2021","The main experiment item","yes","Lexical_Decision_Task.osexp","/Users/maxludeman/Documents/Psychology/Second year/Cognition and Language","no","Andale Mono","no","18","no","white","no","yes","576","legacy","49","49","3","/Users/maxludeman/Documents/Psychology/Second year/Cognition and Language/subject-5109570.csv","legacy","Lentiform Loewenfeld","3.3.7","yes","yes","600bd7cfb6416f0113b04181","602110864497cf011d9c0822","0","j","NA","j","k","j","NA","j","1249","NA","3274","19370","36224","NA","1249","2","legacy","1024","2","48000","-16","task","5109570","even","NA","72607","77884","74609","193688","8023","63632","27407","194192","NA","193685","194192","193619","77884","195442","70832","193118","7923","190209","Lexical Decision Task","47","62876","54","yes","1024"
"2.664011697","8.19","4","hawk","word","87.27272727272727","87.27272727272727","1160.6","1160.6","black","no","legacy","legacy","legacy","0","uniform","1","undefined","undefined","undefined","1","j","0","0","0","0","54","0","0","0","54","0","50","54","50","0","50","3","54","0","54","Fri Feb 19 12:47:38 2021","The main experiment item","yes","Lexical_Decision_Task.osexp","/Users/maxludeman/Documents/Psychology/Second year/Cognition and Language","no","Andale Mono","no","18","no","white","no","yes","576","legacy","50","50","3","/Users/maxludeman/Documents/Psychology/Second year/Cognition and Language/subject-5109570.csv","legacy","Lentiform Loewenfeld","3.3.7","yes","yes","600bd7cfb6416f0113b04181","602110864497cf011d9c0822","0","j","NA","j","k","j","j","j","957","NA","3274","19370","36224","4099","957","2","legacy","1024","2","48000","-16","task","5109570","even","NA","72607","77884","74609","201147","8023","63632","27407","201650","196982","201144","201650","196946","77884","202608","70832","193118","7923","195446","Lexical Decision Task","48","63833","55","yes","1024"
"3.257359335","8","6","brew","word","87.5","87.5","1152.0714285714287","1152.0714285714287","black","no","legacy","legacy","legacy","0","uniform","1","undefined","undefined","undefined","1","j","0","0","0","0","55","0","0","0","55","0","51","55","51","0","51","3","55","0","55","Fri Feb 19 12:47:38 2021","The main experiment item","yes","Lexical_Decision_Task.osexp","/Users/maxludeman/Documents/Psychology/Second year/Cognition and Language","no","Andale Mono","no","18","no","white","no","yes","576","legacy","51","51","3","/Users/maxludeman/Documents/Psychology/Second year/Cognition and Language/subject-5109570.csv","legacy","Lentiform Loewenfeld","3.3.7","yes","yes","600bd7cfb6416f0113b04181","602110864497cf011d9c0822","0","j","NA","j","k","j","j","j","683","NA","3274","19370","36224","4099","683","2","legacy","1024","2","48000","-16","task","5109570","even","NA","72607","77884","74609","203181","8023","63632","27407","203683","196982","203178","203684","203111","77884","204368","70832","202611","7923","195446","Lexical Decision Task","49","64516","56","yes","1024"
"3.102203805","7.21","3","drip","word","87.71929824561404","87.71929824561404","1143.9298245614036","1143.9298245614036","black","no","legacy","legacy","legacy","0","uniform","1","undefined","undefined","undefined","1","j","0","0","0","0","56","0","0","0","56","0","52","56","52","0","52","3","56","0","56","Fri Feb 19 12:47:38 2021","The main experiment item","yes","Lexical_Decision_Task.osexp","/Users/maxludeman/Documents/Psychology/Second year/Cognition and Language","no","Andale Mono","no","18","no","white","no","yes","576","legacy","52","52","3","/Users/maxludeman/Documents/Psychology/Second year/Cognition and Language/subject-5109570.csv","legacy","Lentiform Loewenfeld","3.3.7","yes","yes","600bd7cfb6416f0113b04181","602110864497cf011d9c0822","0","j","NA","j","k","j","j","j","688","NA","3274","19370","36224","4099","688","2","legacy","1024","2","48000","-16","task","5109570","even","NA","72607","77884","74609","204939","8023","63632","27407","205441","196982","204936","205441","204872","77884","206131","70832","204372","7923","195446","Lexical Decision Task","50","65204","57","yes","1024"
"3.131833513","7.66","4","limb","word","87.93103448275862","87.93103448275862","1142.896551724138","1142.896551724138","black","no","legacy","legacy","legacy","0","uniform","1","undefined","undefined","undefined","1","j","0","0","0","0","57","0","0","0","57","0","53","57","53","0","53","3","57","0","57","Fri Feb 19 12:47:38 2021","The main experiment item","yes","Lexical_Decision_Task.osexp","/Users/maxludeman/Documents/Psychology/Second year/Cognition and Language","no","Andale Mono","no","18","no","white","no","yes","576","legacy","53","53","3","/Users/maxludeman/Documents/Psychology/Second year/Cognition and Language/subject-5109570.csv","legacy","Lentiform Loewenfeld","3.3.7","yes","yes","600bd7cfb6416f0113b04181","602110864497cf011d9c0822","0","j","NA","j","k","j","j","j","1084","NA","3274","19370","36224","4099","1084","2","legacy","1024","2","48000","-16","task","5109570","even","NA","72607","77884","74609","206701","8023","63632","27407","207204","196982","206699","207204","206634","77884","208289","70832","206134","7923","195446","Lexical Decision Task","51","66288","58","yes","1024"
"3.043885998","0","9","gome","non-word","88.13559322033899","88.13559322033899","1149.1525423728813","1149.1525423728813","black","no","legacy","legacy","legacy","0","uniform","1","undefined","undefined","undefined","1","f","0","0","0","0","58","0","0","0","58","0","54","58","54","0","54","3","58","0","58","Fri Feb 19 12:47:38 2021","The main experiment item","yes","Lexical_Decision_Task.osexp","/Users/maxludeman/Documents/Psychology/Second year/Cognition and Language","no","Andale Mono","no","18","no","white","no","yes","576","legacy","54","54","3","/Users/maxludeman/Documents/Psychology/Second year/Cognition and Language/subject-5109570.csv","legacy","Lentiform Loewenfeld","3.3.7","yes","yes","600bd7cfb6416f0113b04181","602110864497cf011d9c0822","0","f","NA","j","k","j","j","f","1512","NA","3274","19370","36224","4099","1512","2","legacy","1024","2","48000","-16","task","5109570","even","NA","72607","77884","74609","208858","8023","63632","27407","209361","196982","208856","209361","208793","77884","210875","70832","208293","7923","195446","Lexical Decision Task","52","67800","59","yes","1024"
"2.6599162","0","6","flug","non-word","86.66666666666667","86.66666666666667","1149.6666666666667","1149.6666666666667","black","no","legacy","legacy","legacy","0","uniform","0","undefined","undefined","undefined","0","f","0","0","0","0","59","0","0","0","59","0","55","59","55","0","55","3","59","0","59","Fri Feb 19 12:47:38 2021","The main experiment item","yes","Lexical_Decision_Task.osexp","/Users/maxludeman/Documents/Psychology/Second year/Cognition and Language","no","Andale Mono","no","18","no","white","no","yes","576","legacy","55","55","3","/Users/maxludeman/Documents/Psychology/Second year/Cognition and Language/subject-5109570.csv","legacy","Lentiform Loewenfeld","3.3.7","yes","yes","600bd7cfb6416f0113b04181","602110864497cf011d9c0822","0","j","NA","j","k","j","j","j","1180","NA","3274","19370","36224","4099","1180","2","legacy","1024","2","48000","-16","task","5109570","even","NA","72607","77884","74609","211446","8023","63632","27407","211948","196982","211443","211949","211378","77884","213131","70832","210878","7923","195446","Lexical Decision Task","52","68980","60","yes","1024"
"2.80048796","0","8","pife","non-word","86.88524590163935","86.88524590163935","1147.967213114754","1147.967213114754","black","no","legacy","legacy","legacy","0","uniform","1","undefined","undefined","undefined","1","f","0","0","0","0","60","0","0","0","60","0","56","60","56","0","56","3","60","0","60","Fri Feb 19 12:47:38 2021","The main experiment item","yes","Lexical_Decision_Task.osexp","/Users/maxludeman/Documents/Psychology/Second year/Cognition and Language","no","Andale Mono","no","18","no","white","no","yes","576","legacy","56","56","3","/Users/maxludeman/Documents/Psychology/Second year/Cognition and Language/subject-5109570.csv","legacy","Lentiform Loewenfeld","3.3.7","yes","yes","600bd7cfb6416f0113b04181","602110864497cf011d9c0822","0","f","NA","j","k","j","j","f","1046","NA","3274","19370","36224","4099","1046","2","legacy","1024","2","48000","-16","task","5109570","even","NA","72607","77884","74609","214705","8023","63632","27407","215208","196982","214702","215208","214635","77884","216255","70832","210878","7923","213135","Lexical Decision Task","53","70026","61","yes","1024"
"3.374198258","0","8","vist","non-word","85.48387096774194","85.48387096774194","1145.967741935484","1145.967741935484","black","no","legacy","legacy","legacy","0","uniform","0","undefined","undefined","undefined","0","f","0","0","0","0","61","0","0","0","61","0","57","61","57","0","57","3","61","0","61","Fri Feb 19 12:47:38 2021","The main experiment item","yes","Lexical_Decision_Task.osexp","/Users/maxludeman/Documents/Psychology/Second year/Cognition and Language","no","Andale Mono","no","18","no","white","no","yes","576","legacy","57","57","3","/Users/maxludeman/Documents/Psychology/Second year/Cognition and Language/subject-5109570.csv","legacy","Lentiform Loewenfeld","3.3.7","yes","yes","600bd7cfb6416f0113b04181","602110864497cf011d9c0822","0","j","NA","j","k","j","j","j","1024","NA","3274","19370","36224","4099","1024","2","legacy","1024","2","48000","-16","task","5109570","even","NA","72607","77884","74609","216828","8023","63632","27407","217330","196982","216825","217331","216759","77884","218357","70832","216259","7923","213135","Lexical Decision Task","53","71050","62","yes","1024"
"2.972819734","0","4","scew","non-word","85.71428571428571","85.71428571428571","1144.4126984126983","1144.4126984126983","black","no","legacy","legacy","legacy","0","uniform","1","undefined","undefined","undefined","1","f","0","0","0","0","62","0","0","0","62","0","58","62","58","0","58","3","62","0","62","Fri Feb 19 12:47:38 2021","The main experiment item","yes","Lexical_Decision_Task.osexp","/Users/maxludeman/Documents/Psychology/Second year/Cognition and Language","no","Andale Mono","no","18","no","white","no","yes","576","legacy","58","58","3","/Users/maxludeman/Documents/Psychology/Second year/Cognition and Language/subject-5109570.csv","legacy","Lentiform Loewenfeld","3.3.7","yes","yes","600bd7cfb6416f0113b04181","602110864497cf011d9c0822","0","f","NA","j","k","j","j","f","1048","NA","3274","19370","36224","4099","1048","2","legacy","1024","2","48000","-16","task","5109570","even","NA","72607","77884","74609","219928","8023","63632","27407","220430","196982","219925","220430","219860","77884","221480","70832","216259","7923","218360","Lexical Decision Task","54","72098","63","yes","1024"
"2.698100546","0","9","mulk","non-word","85.9375","85.9375","1157.359375","1157.359375","black","no","legacy","legacy","legacy","0","uniform","1","undefined","undefined","undefined","1","f","0","0","0","0","63","0","0","0","63","0","59","63","59","0","59","3","63","0","63","Fri Feb 19 12:47:38 2021","The main experiment item","yes","Lexical_Decision_Task.osexp","/Users/maxludeman/Documents/Psychology/Second year/Cognition and Language","no","Andale Mono","no","18","no","white","no","yes","576","legacy","59","59","3","/Users/maxludeman/Documents/Psychology/Second year/Cognition and Language/subject-5109570.csv","legacy","Lentiform Loewenfeld","3.3.7","yes","yes","600bd7cfb6416f0113b04181","602110864497cf011d9c0822","0","f","NA","j","k","j","j","f","1973","NA","3274","19370","36224","4099","1973","2","legacy","1024","2","48000","-16","task","5109570","even","NA","72607","77884","74609","222050","8023","63632","27407","222552","196982","222047","222553","221983","77884","224528","70832","221483","7923","218360","Lexical Decision Task","55","74071","64","yes","1024"
"3.149629599","0","2","cleb","non-word","86.15384615384616","86.15384615384616","1173.8307692307692","1173.8307692307692","black","no","legacy","legacy","legacy","0","uniform","1","undefined","undefined","undefined","1","f","0","0","0","0","64","0","0","0","64","0","60","64","60","0","60","3","64","0","64","Fri Feb 19 12:47:38 2021","The main experiment item","yes","Lexical_Decision_Task.osexp","/Users/maxludeman/Documents/Psychology/Second year/Cognition and Language","no","Andale Mono","no","18","no","white","no","yes","576","legacy","60","60","3","/Users/maxludeman/Documents/Psychology/Second year/Cognition and Language/subject-5109570.csv","legacy","Lentiform Loewenfeld","3.3.7","yes","yes","600bd7cfb6416f0113b04181","602110864497cf011d9c0822","0","f","NA","j","k","j","j","f","2228","NA","3274","19370","36224","4099","2228","2","legacy","1024","2","48000","-16","task","5109570","even","NA","72607","77884","74609","225103","8023","63632","27407","225605","196982","225100","225606","225032","77884","227835","70832","224532","7923","218360","Lexical Decision Task","56","76299","65","yes","1024"
"3.134602053","0","8","jart","non-word","86.36363636363636","86.36363636363636","1175","1175","black","no","legacy","legacy","legacy","0","uniform","1","undefined","undefined","undefined","1","f","0","0","0","0","65","0","0","0","65","0","61","65","61","0","61","3","65","0","65","Fri Feb 19 12:47:38 2021","The main experiment item","yes","Lexical_Decision_Task.osexp","/Users/maxludeman/Documents/Psychology/Second year/Cognition and Language","no","Andale Mono","no","18","no","white","no","yes","576","legacy","61","61","3","/Users/maxludeman/Documents/Psychology/Second year/Cognition and Language/subject-5109570.csv","legacy","Lentiform Loewenfeld","3.3.7","yes","yes","600bd7cfb6416f0113b04181","602110864497cf011d9c0822","0","f","NA","j","k","j","j","f","1251","NA","3274","19370","36224","4099","1251","2","legacy","1024","2","48000","-16","task","5109570","even","NA","72607","77884","74609","228406","8023","63632","27407","228908","196982","228403","228909","228339","77884","230161","70832","227839","7923","218360","Lexical Decision Task","57","77550","66","yes","1024"
"3.531734309","0","6","lerd","non-word","86.56716417910448","86.56716417910448","1172.2388059701493","1172.2388059701493","black","no","legacy","legacy","legacy","0","uniform","1","undefined","undefined","undefined","1","f","0","0","0","0","66","0","0","0","66","0","62","66","62","0","62","3","66","0","66","Fri Feb 19 12:47:38 2021","The main experiment item","yes","Lexical_Decision_Task.osexp","/Users/maxludeman/Documents/Psychology/Second year/Cognition and Language","no","Andale Mono","no","18","no","white","no","yes","576","legacy","62","62","3","/Users/maxludeman/Documents/Psychology/Second year/Cognition and Language/subject-5109570.csv","legacy","Lentiform Loewenfeld","3.3.7","yes","yes","600bd7cfb6416f0113b04181","602110864497cf011d9c0822","0","f","NA","j","k","j","j","f","990","NA","3274","19370","36224","4099","990","2","legacy","1024","2","48000","-16","task","5109570","even","NA","72607","77884","74609","230734","8023","63632","27407","231237","196982","230731","231237","230665","77884","232229","70832","230165","7923","218360","Lexical Decision Task","58","78540","67","yes","1024"
"3.039414119","0","9","meep","non-word","86.76470588235294","86.76470588235294","1174.735294117647","1174.735294117647","black","no","legacy","legacy","legacy","0","uniform","1","undefined","undefined","undefined","1","f","0","0","0","0","67","0","0","0","67","0","63","67","63","0","63","3","67","0","67","Fri Feb 19 12:47:38 2021","The main experiment item","yes","Lexical_Decision_Task.osexp","/Users/maxludeman/Documents/Psychology/Second year/Cognition and Language","no","Andale Mono","no","18","no","white","no","yes","576","legacy","63","63","3","/Users/maxludeman/Documents/Psychology/Second year/Cognition and Language/subject-5109570.csv","legacy","Lentiform Loewenfeld","3.3.7","yes","yes","600bd7cfb6416f0113b04181","602110864497cf011d9c0822","0","f","NA","j","k","j","j","f","1342","NA","3274","19370","36224","4099","1342","2","legacy","1024","2","48000","-16","task","5109570","even","NA","72607","77884","74609","232802","8023","63632","27407","233305","196982","232799","233305","232733","77884","234649","70832","232233","7923","218360","Lexical Decision Task","59","79882","68","yes","1024"
"3.174641193","0","3","ramb","non-word","86.95652173913044","86.95652173913044","1183.695652173913","1183.695652173913","black","no","legacy","legacy","legacy","0","uniform","1","undefined","undefined","undefined","1","f","0","0","0","0","68","0","0","0","68","0","64","68","64","0","64","3","68","0","68","Fri Feb 19 12:47:38 2021","The main experiment item","yes","Lexical_Decision_Task.osexp","/Users/maxludeman/Documents/Psychology/Second year/Cognition and Language","no","Andale Mono","no","18","no","white","no","yes","576","legacy","64","64","3","/Users/maxludeman/Documents/Psychology/Second year/Cognition and Language/subject-5109570.csv","legacy","Lentiform Loewenfeld","3.3.7","yes","yes","600bd7cfb6416f0113b04181","602110864497cf011d9c0822","0","f","NA","j","k","j","j","f","1793","NA","3274","19370","36224","4099","1793","2","legacy","1024","2","48000","-16","task","5109570","even","NA","72607","77884","74609","235220","8023","63632","27407","235722","196982","235218","235722","235153","77884","237517","70832","234653","7923","218360","Lexical Decision Task","60","81675","69","yes","1024"
"3.195807436","0","6","stup","non-word","87.14285714285714","87.14285714285714","1185.0714285714287","1185.0714285714287","black","no","legacy","legacy","legacy","0","uniform","1","undefined","undefined","undefined","1","f","0","0","0","0","69","0","0","0","69","0","65","69","65","0","65","3","69","0","69","Fri Feb 19 12:47:38 2021","The main experiment item","yes","Lexical_Decision_Task.osexp","/Users/maxludeman/Documents/Psychology/Second year/Cognition and Language","no","Andale Mono","no","18","no","white","no","yes","576","legacy","65","65","3","/Users/maxludeman/Documents/Psychology/Second year/Cognition and Language/subject-5109570.csv","legacy","Lentiform Loewenfeld","3.3.7","yes","yes","600bd7cfb6416f0113b04181","602110864497cf011d9c0822","0","f","NA","j","k","j","j","f","1280","NA","3274","19370","36224","4099","1280","2","legacy","1024","2","48000","-16","task","5109570","even","NA","72607","77884","74609","238088","8023","63632","27407","238590","196982","238085","238590","238020","77884","239871","70832","237520","7923","218360","Lexical Decision Task","61","82955","70","yes","1024"
"2.937852093","0","7","bamp","non-word","87.32394366197182","87.32394366197182","1181.6478873239437","1181.6478873239437","black","no","legacy","legacy","legacy","0","uniform","1","undefined","undefined","undefined","1","f","0","0","0","0","70","0","0","0","70","0","66","70","66","0","66","3","70","0","70","Fri Feb 19 12:47:38 2021","The main experiment item","yes","Lexical_Decision_Task.osexp","/Users/maxludeman/Documents/Psychology/Second year/Cognition and Language","no","Andale Mono","no","18","no","white","no","yes","576","legacy","66","66","3","/Users/maxludeman/Documents/Psychology/Second year/Cognition and Language/subject-5109570.csv","legacy","Lentiform Loewenfeld","3.3.7","yes","yes","600bd7cfb6416f0113b04181","602110864497cf011d9c0822","0","f","NA","j","k","j","j","f","942","NA","3274","19370","36224","4099","942","2","legacy","1024","2","48000","-16","task","5109570","even","NA","72607","77884","74609","240441","8023","63632","27407","240943","196982","240439","240944","240375","77884","241887","70832","239875","7923","218360","Lexical Decision Task","62","83897","71","yes","1024"
"3.003891166","8.05","2","frog","word","87.5","87.5","1177.875","1177.875","black","no","legacy","legacy","legacy","0","uniform","1","undefined","undefined","undefined","1","j","0","0","0","0","71","0","0","0","71","0","67","71","67","0","67","3","71","0","71","Fri Feb 19 12:47:38 2021","The main experiment item","yes","Lexical_Decision_Task.osexp","/Users/maxludeman/Documents/Psychology/Second year/Cognition and Language","no","Andale Mono","no","18","no","white","no","yes","576","legacy","67","67","3","/Users/maxludeman/Documents/Psychology/Second year/Cognition and Language/subject-5109570.csv","legacy","Lentiform Loewenfeld","3.3.7","yes","yes","600bd7cfb6416f0113b04181","602110864497cf011d9c0822","0","j","NA","j","k","j","j","j","910","NA","3274","19370","36224","4099","910","2","legacy","1024","2","48000","-16","task","5109570","even","NA","72607","77884","74609","242458","8023","63632","27407","242960","196982","242455","242961","242391","77884","243873","70832","241891","7923","218360","Lexical Decision Task","63","84807","72","yes","1024"
"2.7084209","0","8","vump","non-word","87.67123287671232","87.67123287671232","1176.7945205479452","1176.7945205479452","black","no","legacy","legacy","legacy","0","uniform","1","undefined","undefined","undefined","1","f","0","0","0","0","72","0","0","0","72","0","68","72","68","0","68","3","72","0","72","Fri Feb 19 12:47:38 2021","The main experiment item","yes","Lexical_Decision_Task.osexp","/Users/maxludeman/Documents/Psychology/Second year/Cognition and Language","no","Andale Mono","no","18","no","white","no","yes","576","legacy","68","68","3","/Users/maxludeman/Documents/Psychology/Second year/Cognition and Language/subject-5109570.csv","legacy","Lentiform Loewenfeld","3.3.7","yes","yes","600bd7cfb6416f0113b04181","602110864497cf011d9c0822","0","f","NA","j","k","j","j","f","1099","NA","3274","19370","36224","4099","1099","2","legacy","1024","2","48000","-16","task","5109570","even","NA","72607","77884","74609","244443","8023","63632","27407","244946","196982","244440","244946","244377","77884","246047","70832","243877","7923","218360","Lexical Decision Task","64","85906","73","yes","1024"
"3.088136089","8.32","9","worm","word","87.83783783783784","87.83783783783784","1170.5675675675675","1170.5675675675675","black","no","legacy","legacy","legacy","0","uniform","1","undefined","undefined","undefined","1","j","0","0","0","0","73","0","0","0","73","0","69","73","69","0","69","3","73","0","73","Fri Feb 19 12:47:38 2021","The main experiment item","yes","Lexical_Decision_Task.osexp","/Users/maxludeman/Documents/Psychology/Second year/Cognition and Language","no","Andale Mono","no","18","no","white","no","yes","576","legacy","69","69","3","/Users/maxludeman/Documents/Psychology/Second year/Cognition and Language/subject-5109570.csv","legacy","Lentiform Loewenfeld","3.3.7","yes","yes","600bd7cfb6416f0113b04181","602110864497cf011d9c0822","0","j","NA","j","k","j","j","j","716","NA","3274","19370","36224","4099","716","2","legacy","1024","2","48000","-16","task","5109570","even","NA","72607","77884","74609","246617","8023","63632","27407","247119","196982","246614","247119","246550","77884","247837","70832","246050","7923","218360","Lexical Decision Task","65","86622","74","yes","1024"
"3.382617311","0","4","pret","non-word","88","88","1173.8933333333334","1173.8933333333334","black","no","legacy","legacy","legacy","0","uniform","1","undefined","undefined","undefined","1","f","0","0","0","0","74","0","0","0","74","0","70","74","70","0","70","3","74","0","74","Fri Feb 19 12:47:38 2021","The main experiment item","yes","Lexical_Decision_Task.osexp","/Users/maxludeman/Documents/Psychology/Second year/Cognition and Language","no","Andale Mono","no","18","no","white","no","yes","576","legacy","70","70","3","/Users/maxludeman/Documents/Psychology/Second year/Cognition and Language/subject-5109570.csv","legacy","Lentiform Loewenfeld","3.3.7","yes","yes","600bd7cfb6416f0113b04181","602110864497cf011d9c0822","0","f","NA","j","k","j","j","f","1420","NA","3274","19370","36224","4099","1420","2","legacy","1024","2","48000","-16","task","5109570","even","NA","72607","77884","74609","248407","8023","63632","27407","248910","196982","248404","248911","248340","77884","250333","70832","247840","7923","218360","Lexical Decision Task","66","88042","75","yes","1024"
"2.892836167","10.01","5","soft","word","88.15789473684211","88.15789473684211","1168.2763157894738","1168.2763157894738","black","no","legacy","legacy","legacy","0","uniform","1","undefined","undefined","undefined","1","j","0","0","0","0","75","0","0","0","75","0","71","75","71","0","71","3","75","0","75","Fri Feb 19 12:47:38 2021","The main experiment item","yes","Lexical_Decision_Task.osexp","/Users/maxludeman/Documents/Psychology/Second year/Cognition and Language","no","Andale Mono","no","18","no","white","no","yes","576","legacy","71","71","3","/Users/maxludeman/Documents/Psychology/Second year/Cognition and Language/subject-5109570.csv","legacy","Lentiform Loewenfeld","3.3.7","yes","yes","600bd7cfb6416f0113b04181","602110864497cf011d9c0822","0","j","NA","j","k","j","j","j","747","NA","3274","19370","36224","4099","747","2","legacy","1024","2","48000","-16","task","5109570","even","NA","72607","77884","74609","250905","8023","63632","27407","251408","196982","250902","251408","250837","77884","252157","70832","250337","7923","218360","Lexical Decision Task","67","88789","76","yes","1024"
"3.132473155","0","4","glim","non-word","87.01298701298701","87.01298701298701","1168.155844155844","1168.155844155844","black","no","legacy","legacy","legacy","0","uniform","0","undefined","undefined","undefined","0","f","0","0","0","0","76","0","0","0","76","0","72","76","72","0","72","3","76","0","76","Fri Feb 19 12:47:38 2021","The main experiment item","yes","Lexical_Decision_Task.osexp","/Users/maxludeman/Documents/Psychology/Second year/Cognition and Language","no","Andale Mono","no","18","no","white","no","yes","576","legacy","72","72","3","/Users/maxludeman/Documents/Psychology/Second year/Cognition and Language/subject-5109570.csv","legacy","Lentiform Loewenfeld","3.3.7","yes","yes","600bd7cfb6416f0113b04181","602110864497cf011d9c0822","0","j","NA","j","k","j","j","j","1159","NA","3274","19370","36224","4099","1159","2","legacy","1024","2","48000","-16","task","5109570","even","NA","72607","77884","74609","252730","8023","63632","27407","253232","196982","252727","253233","252661","77884","254394","70832","252161","7923","218360","Lexical Decision Task","67","89948","77","yes","1024"
"3.397302518","7.01","2","knit","word","87.17948717948718","87.17948717948718","1167.1666666666667","1167.1666666666667","black","no","legacy","legacy","legacy","0","uniform","1","undefined","undefined","undefined","1","j","0","0","0","0","77","0","0","0","77","0","73","77","73","0","73","3","77","0","77","Fri Feb 19 12:47:38 2021","The main experiment item","yes","Lexical_Decision_Task.osexp","/Users/maxludeman/Documents/Psychology/Second year/Cognition and Language","no","Andale Mono","no","18","no","white","no","yes","576","legacy","73","73","3","/Users/maxludeman/Documents/Psychology/Second year/Cognition and Language/subject-5109570.csv","legacy","Lentiform Loewenfeld","3.3.7","yes","yes","600bd7cfb6416f0113b04181","602110864497cf011d9c0822","0","j","NA","j","k","j","j","j","1091","NA","3274","19370","36224","4099","1091","2","legacy","1024","2","48000","-16","task","5109570","even","NA","72607","77884","74609","255966","8023","63632","27407","256469","196982","255963","256469","255898","77884","257561","70832","252161","7923","254397","Lexical Decision Task","68","91039","78","yes","1024"
"2.771097306","0","9","jold","non-word","87.34177215189874","87.34177215189874","1161.379746835443","1161.379746835443","black","no","legacy","legacy","legacy","0","uniform","1","undefined","undefined","undefined","1","f","0","0","0","0","78","0","0","0","78","0","74","78","74","0","74","3","78","0","78","Fri Feb 19 12:47:38 2021","The main experiment item","yes","Lexical_Decision_Task.osexp","/Users/maxludeman/Documents/Psychology/Second year/Cognition and Language","no","Andale Mono","no","18","no","white","no","yes","576","legacy","74","74","3","/Users/maxludeman/Documents/Psychology/Second year/Cognition and Language/subject-5109570.csv","legacy","Lentiform Loewenfeld","3.3.7","yes","yes","600bd7cfb6416f0113b04181","602110864497cf011d9c0822","0","f","NA","j","k","j","j","f","710","NA","3274","19370","36224","4099","710","2","legacy","1024","2","48000","-16","task","5109570","even","NA","72607","77884","74609","258134","8023","63632","27407","258636","196982","258131","258637","258065","77884","259348","70832","257565","7923","254397","Lexical Decision Task","69","91749","79","yes","1024"
"2.8162413","0","5","nusk","non-word","87.5","87.5","1155.2375","1155.2375","black","no","legacy","legacy","legacy","0","uniform","1","undefined","undefined","undefined","1","f","0","0","0","0","79","0","0","0","79","0","75","79","75","0","75","3","79","0","79","Fri Feb 19 12:47:38 2021","The main experiment item","yes","Lexical_Decision_Task.osexp","/Users/maxludeman/Documents/Psychology/Second year/Cognition and Language","no","Andale Mono","no","18","no","white","no","yes","576","legacy","75","75","3","/Users/maxludeman/Documents/Psychology/Second year/Cognition and Language/subject-5109570.csv","legacy","Lentiform Loewenfeld","3.3.7","yes","yes","600bd7cfb6416f0113b04181","602110864497cf011d9c0822","0","f","NA","j","k","j","j","f","670","NA","3274","19370","36224","4099","670","2","legacy","1024","2","48000","-16","task","5109570","even","NA","72607","77884","74609","259920","8023","63632","27407","260423","196982","259918","260423","259853","77884","261095","70832","259353","7923","254397","Lexical Decision Task","70","92419","80","yes","1024"
"2.793790385","5.67","9","swab","word","87.65432098765432","87.65432098765432","1154.2469135802469","1154.2469135802469","black","no","legacy","legacy","legacy","0","uniform","1","undefined","undefined","undefined","1","j","0","0","0","0","80","0","0","0","80","0","76","80","76","0","76","3","80","0","80","Fri Feb 19 12:47:38 2021","The main experiment item","yes","Lexical_Decision_Task.osexp","/Users/maxludeman/Documents/Psychology/Second year/Cognition and Language","no","Andale Mono","no","18","no","white","no","yes","576","legacy","76","76","3","/Users/maxludeman/Documents/Psychology/Second year/Cognition and Language/subject-5109570.csv","legacy","Lentiform Loewenfeld","3.3.7","yes","yes","600bd7cfb6416f0113b04181","602110864497cf011d9c0822","0","j","NA","j","k","j","j","j","1075","NA","3274","19370","36224","4099","1075","2","legacy","1024","2","48000","-16","task","5109570","even","NA","72607","77884","74609","261667","8023","63632","27407","262169","196982","261664","262169","261598","77884","263245","70832","261098","7923","254397","Lexical Decision Task","71","93494","81","yes","1024"
"3.372543801","9.24","8","coat","word","87.8048780487805","87.8048780487805","1151.841463414634","1151.841463414634","black","no","legacy","legacy","legacy","0","uniform","1","undefined","undefined","undefined","1","j","0","0","0","0","81","0","0","0","81","0","77","81","77","0","77","3","81","0","81","Fri Feb 19 12:47:38 2021","The main experiment item","yes","Lexical_Decision_Task.osexp","/Users/maxludeman/Documents/Psychology/Second year/Cognition and Language","no","Andale Mono","no","18","no","white","no","yes","576","legacy","77","77","3","/Users/maxludeman/Documents/Psychology/Second year/Cognition and Language/subject-5109570.csv","legacy","Lentiform Loewenfeld","3.3.7","yes","yes","600bd7cfb6416f0113b04181","602110864497cf011d9c0822","0","j","NA","j","k","j","j","j","957","NA","3274","19370","36224","4099","957","2","legacy","1024","2","48000","-16","task","5109570","even","NA","72607","77884","74609","263816","8023","63632","27407","264319","196982","263813","264319","263749","77884","265278","70832","263249","7923","254397","Lexical Decision Task","72","94451","82","yes","1024"
"2.979548375","8.71","4","soup","word","87.95180722891567","87.95180722891567","1145.867469879518","1145.867469879518","black","no","legacy","legacy","legacy","0","uniform","1","undefined","undefined","undefined","1","j","0","0","0","0","82","0","0","0","82","0","78","82","78","0","78","3","82","0","82","Fri Feb 19 12:47:38 2021","The main experiment item","yes","Lexical_Decision_Task.osexp","/Users/maxludeman/Documents/Psychology/Second year/Cognition and Language","no","Andale Mono","no","18","no","white","no","yes","576","legacy","78","78","3","/Users/maxludeman/Documents/Psychology/Second year/Cognition and Language/subject-5109570.csv","legacy","Lentiform Loewenfeld","3.3.7","yes","yes","600bd7cfb6416f0113b04181","602110864497cf011d9c0822","0","j","NA","j","k","j","j","j","656","NA","3274","19370","36224","4099","656","2","legacy","1024","2","48000","-16","task","5109570","even","NA","72607","77884","74609","265848","8023","63632","27407","266350","196982","265845","266350","265781","77884","267008","70832","265281","7923","254397","Lexical Decision Task","73","95107","83","yes","1024"
"2.86332286","6.71","2","feud","word","88.0952380952381","88.0952380952381","1145.142857142857","1145.142857142857","black","no","legacy","legacy","legacy","0","uniform","1","undefined","undefined","undefined","1","j","0","0","0","0","83","0","0","0","83","0","79","83","79","0","79","3","83","0","83","Fri Feb 19 12:47:38 2021","The main experiment item","yes","Lexical_Decision_Task.osexp","/Users/maxludeman/Documents/Psychology/Second year/Cognition and Language","no","Andale Mono","no","18","no","white","no","yes","576","legacy","79","79","3","/Users/maxludeman/Documents/Psychology/Second year/Cognition and Language/subject-5109570.csv","legacy","Lentiform Loewenfeld","3.3.7","yes","yes","600bd7cfb6416f0113b04181","602110864497cf011d9c0822","0","j","NA","j","k","j","j","j","1085","NA","3274","19370","36224","4099","1085","2","legacy","1024","2","48000","-16","task","5109570","even","NA","72607","77884","74609","267579","8023","63632","27407","268081","196982","267576","268082","267512","77884","269169","70832","267012","7923","254397","Lexical Decision Task","74","96192","84","yes","1024"
"3.031812271","6.52","3","gulp","word","88.23529411764706","88.23529411764706","1139.129411764706","1139.129411764706","black","no","legacy","legacy","legacy","0","uniform","1","undefined","undefined","undefined","1","j","0","0","0","0","84","0","0","0","84","0","80","84","80","0","80","3","84","0","84","Fri Feb 19 12:47:38 2021","The main experiment item","yes","Lexical_Decision_Task.osexp","/Users/maxludeman/Documents/Psychology/Second year/Cognition and Language","no","Andale Mono","no","18","no","white","no","yes","576","legacy","80","80","3","/Users/maxludeman/Documents/Psychology/Second year/Cognition and Language/subject-5109570.csv","legacy","Lentiform Loewenfeld","3.3.7","yes","yes","600bd7cfb6416f0113b04181","602110864497cf011d9c0822","0","j","NA","j","k","j","j","j","634","NA","3274","19370","36224","4099","634","2","legacy","1024","2","48000","-16","task","5109570","even","NA","72607","77884","74609","269740","8023","63632","27407","270242","196982","269737","270242","269673","77884","270877","70832","269173","7923","254397","Lexical Decision Task","75","96826","85","yes","1024"
"3.156347201","0","8","lasp","non-word","88.37209302325581","88.37209302325581","1137.093023255814","1137.093023255814","black","no","legacy","legacy","legacy","0","uniform","1","undefined","undefined","undefined","1","f","0","0","0","0","85","0","0","0","85","0","81","85","81","0","81","3","85","0","85","Fri Feb 19 12:47:38 2021","The main experiment item","yes","Lexical_Decision_Task.osexp","/Users/maxludeman/Documents/Psychology/Second year/Cognition and Language","no","Andale Mono","no","18","no","white","no","yes","576","legacy","81","81","3","/Users/maxludeman/Documents/Psychology/Second year/Cognition and Language/subject-5109570.csv","legacy","Lentiform Loewenfeld","3.3.7","yes","yes","600bd7cfb6416f0113b04181","602110864497cf011d9c0822","0","f","NA","j","k","j","j","f","964","NA","3274","19370","36224","4099","964","2","legacy","1024","2","48000","-16","task","5109570","even","NA","72607","77884","74609","271449","8023","63632","27407","271953","196982","271446","271953","271381","77884","272918","70832","270881","7923","254397","Lexical Decision Task","76","97790","86","yes","1024"
"3.037294994","8.64","7","roof","word","88.50574712643679","88.50574712643679","1131.0804597701149","1131.0804597701149","black","no","legacy","legacy","legacy","0","uniform","1","undefined","undefined","undefined","1","j","0","0","0","0","86","0","0","0","86","0","82","86","82","0","82","3","86","0","86","Fri Feb 19 12:47:38 2021","The main experiment item","yes","Lexical_Decision_Task.osexp","/Users/maxludeman/Documents/Psychology/Second year/Cognition and Language","no","Andale Mono","no","18","no","white","no","yes","576","legacy","82","82","3","/Users/maxludeman/Documents/Psychology/Second year/Cognition and Language/subject-5109570.csv","legacy","Lentiform Loewenfeld","3.3.7","yes","yes","600bd7cfb6416f0113b04181","602110864497cf011d9c0822","0","j","NA","j","k","j","j","j","614","NA","3274","19370","36224","4099","614","2","legacy","1024","2","48000","-16","task","5109570","even","NA","72607","77884","74609","273489","8023","63632","27407","273993","196982","273486","273993","273423","77884","274608","70832","272922","7923","254397","Lexical Decision Task","77","98404","87","yes","1024"
"2.814027728","8.2","4","foam","word","88.63636363636364","88.63636363636364","1126.2272727272727","1126.2272727272727","black","no","legacy","legacy","legacy","0","uniform","1","undefined","undefined","undefined","1","j","0","0","0","0","87","0","0","0","87","0","83","87","83","0","83","3","87","0","87","Fri Feb 19 12:47:38 2021","The main experiment item","yes","Lexical_Decision_Task.osexp","/Users/maxludeman/Documents/Psychology/Second year/Cognition and Language","no","Andale Mono","no","18","no","white","no","yes","576","legacy","83","83","3","/Users/maxludeman/Documents/Psychology/Second year/Cognition and Language/subject-5109570.csv","legacy","Lentiform Loewenfeld","3.3.7","yes","yes","600bd7cfb6416f0113b04181","602110864497cf011d9c0822","0","j","NA","j","k","j","j","j","704","NA","3274","19370","36224","4099","704","2","legacy","1024","2","48000","-16","task","5109570","even","NA","72607","77884","74609","275178","8023","63632","27407","275680","196982","275175","275680","275112","77884","276385","70832","274612","7923","254397","Lexical Decision Task","78","99108","88","yes","1024"
"2.897810299","0","5","glur","non-word","88.76404494382022","88.76404494382022","1127.0449438202247","1127.0449438202247","black","no","legacy","legacy","legacy","0","uniform","1","undefined","undefined","undefined","1","f","0","0","0","0","88","0","0","0","88","0","84","88","84","0","84","3","88","0","88","Fri Feb 19 12:47:38 2021","The main experiment item","yes","Lexical_Decision_Task.osexp","/Users/maxludeman/Documents/Psychology/Second year/Cognition and Language","no","Andale Mono","no","18","no","white","no","yes","576","legacy","84","84","3","/Users/maxludeman/Documents/Psychology/Second year/Cognition and Language/subject-5109570.csv","legacy","Lentiform Loewenfeld","3.3.7","yes","yes","600bd7cfb6416f0113b04181","602110864497cf011d9c0822","0","f","NA","j","k","j","j","f","1199","NA","3274","19370","36224","4099","1199","2","legacy","1024","2","48000","-16","task","5109570","even","NA","72607","77884","74609","276957","8023","63632","27407","277459","196982","276955","277460","276889","77884","278661","70832","276389","7923","254397","Lexical Decision Task","79","100307","89","yes","1024"
"2.744553742","0","2","nawk","non-word","88.88888888888889","88.88888888888889","1123.4333333333334","1123.4333333333334","black","no","legacy","legacy","legacy","0","uniform","1","undefined","undefined","undefined","1","f","0","0","0","0","89","0","0","0","89","0","85","89","85","0","85","3","89","0","89","Fri Feb 19 12:47:38 2021","The main experiment item","yes","Lexical_Decision_Task.osexp","/Users/maxludeman/Documents/Psychology/Second year/Cognition and Language","no","Andale Mono","no","18","no","white","no","yes","576","legacy","85","85","3","/Users/maxludeman/Documents/Psychology/Second year/Cognition and Language/subject-5109570.csv","legacy","Lentiform Loewenfeld","3.3.7","yes","yes","600bd7cfb6416f0113b04181","602110864497cf011d9c0822","0","f","NA","j","k","j","j","f","802","NA","3274","19370","36224","4099","802","2","legacy","1024","2","48000","-16","task","5109570","even","NA","72607","77884","74609","279234","8023","63632","27407","279738","196982","279229","279738","279164","77884","280542","70832","278664","7923","254397","Lexical Decision Task","80","101109","90","yes","1024"
"2.778633532","0","3","jurp","non-word","89.01098901098901","89.01098901098901","1121.4725274725274","1121.4725274725274","black","no","legacy","legacy","legacy","0","uniform","1","undefined","undefined","undefined","1","f","0","0","0","0","90","0","0","0","90","0","86","90","86","0","86","3","90","0","90","Fri Feb 19 12:47:38 2021","The main experiment item","yes","Lexical_Decision_Task.osexp","/Users/maxludeman/Documents/Psychology/Second year/Cognition and Language","no","Andale Mono","no","18","no","white","no","yes","576","legacy","86","86","3","/Users/maxludeman/Documents/Psychology/Second year/Cognition and Language/subject-5109570.csv","legacy","Lentiform Loewenfeld","3.3.7","yes","yes","600bd7cfb6416f0113b04181","602110864497cf011d9c0822","0","f","NA","j","k","j","j","f","945","NA","3274","19370","36224","4099","945","2","legacy","1024","2","48000","-16","task","5109570","even","NA","72607","77884","74609","281112","8023","63632","27407","281615","196982","281109","281615","281045","77884","282561","70832","280545","7923","254397","Lexical Decision Task","81","102054","91","yes","1024"
"2.708989954","9.28","9","bowl","word","89.1304347826087","89.1304347826087","1117.5869565217392","1117.5869565217392","black","no","legacy","legacy","legacy","0","uniform","1","undefined","undefined","undefined","1","j","0","0","0","0","91","0","0","0","91","0","87","91","87","0","87","3","91","0","91","Fri Feb 19 12:47:38 2021","The main experiment item","yes","Lexical_Decision_Task.osexp","/Users/maxludeman/Documents/Psychology/Second year/Cognition and Language","no","Andale Mono","no","18","no","white","no","yes","576","legacy","87","87","3","/Users/maxludeman/Documents/Psychology/Second year/Cognition and Language/subject-5109570.csv","legacy","Lentiform Loewenfeld","3.3.7","yes","yes","600bd7cfb6416f0113b04181","602110864497cf011d9c0822","0","j","NA","j","k","j","j","j","764","NA","3274","19370","36224","4099","764","2","legacy","1024","2","48000","-16","task","5109570","even","NA","72607","77884","74609","283132","8023","63632","27407","283635","196982","283129","283635","283065","77884","284401","70832","282565","7923","254397","Lexical Decision Task","82","102818","92","yes","1024"
"3.133964479","0","8","graw","non-word","89.24731182795699","89.24731182795699","1117.8064516129032","1117.8064516129032","black","no","legacy","legacy","legacy","0","uniform","1","undefined","undefined","undefined","1","f","0","0","0","0","92","0","0","0","92","0","88","92","88","0","88","3","92","0","92","Fri Feb 19 12:47:38 2021","The main experiment item","yes","Lexical_Decision_Task.osexp","/Users/maxludeman/Documents/Psychology/Second year/Cognition and Language","no","Andale Mono","no","18","no","white","no","yes","576","legacy","88","88","3","/Users/maxludeman/Documents/Psychology/Second year/Cognition and Language/subject-5109570.csv","legacy","Lentiform Loewenfeld","3.3.7","yes","yes","600bd7cfb6416f0113b04181","602110864497cf011d9c0822","0","f","NA","j","k","j","j","f","1138","NA","3274","19370","36224","4099","1138","2","legacy","1024","2","48000","-16","task","5109570","even","NA","72607","77884","74609","284973","8023","63632","27407","285476","196982","284970","285476","284904","77884","286616","70832","284404","7923","254397","Lexical Decision Task","83","103956","93","yes","1024"
