"Log_BG","Log_Freq_HAL","Ortho_N","Stimulus","Type","acc","accuracy","average_response_time","avg_rt","background","bidi","canvas_backend","clock_backend","color_backend","compensation","coordinates","correct","correct_Experimental_intro","correct_Introduction","correct_Practice_intro","correct_experimenter_kb","correct_response","count_End_Of_Experiment","count_End_Of_Practice","count_Experimental_Loop","count_Experimental_intro","count_Fixation","count_Introduction","count_Practice_Loop","count_Practice_intro","count_Stimulus","count_block_break_feedback","count_experimental_sequence","count_experimenter_kb","count_increment_trial_count","count_init_trial_count","count_logger","count_practice_sequence","count_right","count_task","count_wrong","datetime","description","disable_garbage_collection","experiment_file","experiment_path","font_bold","font_family","font_italic","font_size","font_underline","foreground","form_clicks","fullscreen","height","keyboard_backend","live_row","live_row_Experimental_Loop","live_row_Practice_Loop","logfile","mouse_backend","opensesame_codename","opensesame_version","osf_always_upload_data","osf_always_upload_experiment","osf_datanode_id","osf_id","repeat_cycle","response","response_End_Of_Experiment","response_Experimental_intro","response_Introduction","response_Practice_intro","response_block_break_feedback","response_experimenter_kb","response_time","response_time_End_Of_Experiment","response_time_Experimental_intro","response_time_Introduction","response_time_Practice_intro","response_time_block_break_feedback","response_time_experimenter_kb","round_decimals","sampler_backend","sound_buf_size","sound_channels","sound_freq","sound_sample_size","start","subject_nr","subject_parity","time_End_Of_Experiment","time_End_Of_Practice","time_Experimental_Loop","time_Experimental_intro","time_Fixation","time_Introduction","time_Practice_Loop","time_Practice_intro","time_Stimulus","time_block_break_feedback","time_experimental_sequence","time_experimenter_kb","time_increment_trial_count","time_init_trial_count","time_logger","time_practice_sequence","time_right","time_task","time_wrong","title","total_correct","total_response_time","total_responses","uniform_coordinates","width"
"3.311895072","0","9","gung","non-word","100","100","749","749","black","no","legacy","legacy","legacy","0","uniform","1","undefined","undefined","undefined","1","f","0","0","0","0","4","0","0","0","4","NA","0","4","0","0","0","3","4","0","4","Fri Feb 19 12:13:53 2021","The main experiment item","yes","Lexical_Decision_Task.osexp","C:/Users/ErinS/Downloads","no","Andale Mono","no","18","no","white","no","yes","576","legacy","0","0","3","C:/Users/ErinS/Downloads/subject-5226210-lexical-decision-task.csv","legacy","Lentiform Loewenfeld","3.3.7","yes","yes","600bd7cfb6416f0113b04181","602110864497cf011d9c0822","0","f","NA","j","j","j","NA","f","774","NA","1957","18724","4229","NA","774","2","legacy","1024","2","48000","-16","task","5226210","even","NA","36438","40397","38439","40442","5721","28678","24448","40943","NA","40441","40944","NA","40397","41719","34694","35896","5717","NA","Lexical Decision Task","5","3745","5","yes","1024"
"2.664011697","8.19","4","hawk","word","100","100","735.5","735.5","black","no","legacy","legacy","legacy","0","uniform","1","undefined","undefined","undefined","1","j","0","0","0","0","5","0","0","0","5","NA","1","5","1","0","1","3","5","0","5","Fri Feb 19 12:13:53 2021","The main experiment item","yes","Lexical_Decision_Task.osexp","C:/Users/ErinS/Downloads","no","Andale Mono","no","18","no","white","no","yes","576","legacy","1","1","3","C:/Users/ErinS/Downloads/subject-5226210-lexical-decision-task.csv","legacy","Lentiform Loewenfeld","3.3.7","yes","yes","600bd7cfb6416f0113b04181","602110864497cf011d9c0822","0","j","NA","j","j","j","NA","j","668","NA","1957","18724","4229","NA","668","2","legacy","1024","2","48000","-16","task","5226210","even","NA","36438","40397","38439","42517","5721","28678","24448","43020","NA","42516","43020","42329","40397","43688","34694","41829","5717","NA","Lexical Decision Task","6","4413","6","yes","1024"
"2.799799878","0","4","ciff","non-word","100","100","728.7142857142857","728.7142857142857","black","no","legacy","legacy","legacy","0","uniform","1","undefined","undefined","undefined","1","f","0","0","0","0","6","0","0","0","6","NA","2","6","2","0","2","3","6","0","6","Fri Feb 19 12:13:53 2021","The main experiment item","yes","Lexical_Decision_Task.osexp","C:/Users/ErinS/Downloads","no","Andale Mono","no","18","no","white","no","yes","576","legacy","2","2","3","C:/Users/ErinS/Downloads/subject-5226210-lexical-decision-task.csv","legacy","Lentiform Loewenfeld","3.3.7","yes","yes","600bd7cfb6416f0113b04181","602110864497cf011d9c0822","0","f","NA","j","j","j","NA","f","688","NA","1957","18724","4229","NA","688","2","legacy","1024","2","48000","-16","task","5226210","even","NA","36438","40397","38439","44368","5721","28678","24448","44869","NA","44366","44870","44217","40397","45559","34694","43717","5717","NA","Lexical Decision Task","7","5101","7","yes","1024"
"3.067193647","6.73","6","raft","word","100","100","723.25","723.25","black","no","legacy","legacy","legacy","0","uniform","1","undefined","undefined","undefined","1","j","0","0","0","0","7","0","0","0","7","NA","3","7","3","0","3","3","7","0","7","Fri Feb 19 12:13:53 2021","The main experiment item","yes","Lexical_Decision_Task.osexp","C:/Users/ErinS/Downloads","no","Andale Mono","no","18","no","white","no","yes","576","legacy","3","3","3","C:/Users/ErinS/Downloads/subject-5226210-lexical-decision-task.csv","legacy","Lentiform Loewenfeld","3.3.7","yes","yes","600bd7cfb6416f0113b04181","602110864497cf011d9c0822","0","j","NA","j","j","j","NA","j","685","NA","1957","18724","4229","NA","685","2","legacy","1024","2","48000","-16","task","5226210","even","NA","36438","40397","38439","46298","5721","28678","24448","46800","NA","46296","46800","46196","40397","47485","34694","45696","5717","NA","Lexical Decision Task","8","5786","8","yes","1024"
"3.302475237","0","7","leel","non-word","100","100","716.5555555555555","716.5555555555555","black","no","legacy","legacy","legacy","0","uniform","1","undefined","undefined","undefined","1","f","0","0","0","0","8","0","0","0","8","NA","4","8","4","0","4","3","8","0","8","Fri Feb 19 12:13:53 2021","The main experiment item","yes","Lexical_Decision_Task.osexp","C:/Users/ErinS/Downloads","no","Andale Mono","no","18","no","white","no","yes","576","legacy","4","4","3","C:/Users/ErinS/Downloads/subject-5226210-lexical-decision-task.csv","legacy","Lentiform Loewenfeld","3.3.7","yes","yes","600bd7cfb6416f0113b04181","602110864497cf011d9c0822","0","f","NA","j","j","j","NA","f","663","NA","1957","18724","4229","NA","663","2","legacy","1024","2","48000","-16","task","5226210","even","NA","36438","40397","38439","48103","5721","28678","24448","48604","NA","48102","48604","48017","40397","49268","34694","47516","5717","NA","Lexical Decision Task","9","6449","9","yes","1024"
"3.197740804","6.74","3","ache","word","100","100","709.4","709.4","black","no","legacy","legacy","legacy","0","uniform","1","undefined","undefined","undefined","1","j","0","0","0","0","9","0","0","0","9","NA","5","9","5","0","5","3","9","0","9","Fri Feb 19 12:13:53 2021","The main experiment item","yes","Lexical_Decision_Task.osexp","C:/Users/ErinS/Downloads","no","Andale Mono","no","18","no","white","no","yes","576","legacy","5","5","3","C:/Users/ErinS/Downloads/subject-5226210-lexical-decision-task.csv","legacy","Lentiform Loewenfeld","3.3.7","yes","yes","600bd7cfb6416f0113b04181","602110864497cf011d9c0822","0","j","NA","j","j","j","NA","j","645","NA","1957","18724","4229","NA","645","2","legacy","1024","2","48000","-16","task","5226210","even","NA","36438","40397","38439","49888","5721","28678","24448","50390","NA","49886","50390","49806","40397","51035","34694","49306","5717","NA","Lexical Decision Task","10","7094","10","yes","1024"
"2.842815106","7.86","8","lump","word","100","100","692.9090909090909","692.9090909090909","black","no","legacy","legacy","legacy","0","uniform","1","undefined","undefined","undefined","1","j","0","0","0","0","10","0","0","0","10","NA","6","10","6","0","6","3","10","0","10","Fri Feb 19 12:13:53 2021","The main experiment item","yes","Lexical_Decision_Task.osexp","C:/Users/ErinS/Downloads","no","Andale Mono","no","18","no","white","no","yes","576","legacy","6","6","3","C:/Users/ErinS/Downloads/subject-5226210-lexical-decision-task.csv","legacy","Lentiform Loewenfeld","3.3.7","yes","yes","600bd7cfb6416f0113b04181","602110864497cf011d9c0822","0","j","NA","j","j","j","NA","j","528","NA","1957","18724","4229","NA","528","2","legacy","1024","2","48000","-16","task","5226210","even","NA","36438","40397","38439","51676","5721","28678","24448","52179","NA","51674","52179","51594","40397","52708","34694","51094","5717","NA","Lexical Decision Task","11","7622","11","yes","1024"
"3.037294994","8.64","7","roof","word","100","100","687.75","687.75","black","no","legacy","legacy","legacy","0","uniform","1","undefined","undefined","undefined","1","j","0","0","0","0","11","0","0","0","11","NA","7","11","7","0","7","3","11","0","11","Fri Feb 19 12:13:53 2021","The main experiment item","yes","Lexical_Decision_Task.osexp","C:/Users/ErinS/Downloads","no","Andale Mono","no","18","no","white","no","yes","576","legacy","7","7","3","C:/Users/ErinS/Downloads/subject-5226210-lexical-decision-task.csv","legacy","Lentiform Loewenfeld","3.3.7","yes","yes","600bd7cfb6416f0113b04181","602110864497cf011d9c0822","0","j","NA","j","j","j","NA","j","631","NA","1957","18724","4229","NA","631","2","legacy","1024","2","48000","-16","task","5226210","even","NA","36438","40397","38439","53337","5721","28678","24448","53838","NA","53335","53838","53239","40397","54470","34694","52739","5717","NA","Lexical Decision Task","12","8253","12","yes","1024"
"3.474361976","5.24","6","veer","word","100","100","687.7692307692307","687.7692307692307","black","no","legacy","legacy","legacy","0","uniform","1","undefined","undefined","undefined","1","j","0","0","0","0","12","0","0","0","12","NA","8","12","8","0","8","3","12","0","12","Fri Feb 19 12:13:53 2021","The main experiment item","yes","Lexical_Decision_Task.osexp","C:/Users/ErinS/Downloads","no","Andale Mono","no","18","no","white","no","yes","576","legacy","8","8","3","C:/Users/ErinS/Downloads/subject-5226210-lexical-decision-task.csv","legacy","Lentiform Loewenfeld","3.3.7","yes","yes","600bd7cfb6416f0113b04181","602110864497cf011d9c0822","0","j","NA","j","j","j","NA","j","688","NA","1957","18724","4229","NA","688","2","legacy","1024","2","48000","-16","task","5226210","even","NA","36438","40397","38439","55094","5721","28678","24448","55596","NA","55092","55596","55028","40397","56285","34694","54528","5717","NA","Lexical Decision Task","13","8941","13","yes","1024"
"3.216517684","10.87","3","film","word","100","100","680.7857142857143","680.7857142857143","black","no","legacy","legacy","legacy","0","uniform","1","undefined","undefined","undefined","1","j","0","0","0","0","13","0","0","0","13","NA","9","13","9","0","9","3","13","0","13","Fri Feb 19 12:13:53 2021","The main experiment item","yes","Lexical_Decision_Task.osexp","C:/Users/ErinS/Downloads","no","Andale Mono","no","18","no","white","no","yes","576","legacy","9","9","3","C:/Users/ErinS/Downloads/subject-5226210-lexical-decision-task.csv","legacy","Lentiform Loewenfeld","3.3.7","yes","yes","600bd7cfb6416f0113b04181","602110864497cf011d9c0822","0","j","NA","j","j","j","NA","j","590","NA","1957","18724","4229","NA","590","2","legacy","1024","2","48000","-16","task","5226210","even","NA","36438","40397","38439","56897","5721","28678","24448","57399","NA","56896","57400","56817","40397","57991","34694","56317","5717","NA","Lexical Decision Task","14","9531","14","yes","1024"
"3.1430148","7.92","8","bald","word","100","100","676.4","676.4","black","no","legacy","legacy","legacy","0","uniform","1","undefined","undefined","undefined","1","j","0","0","0","0","14","0","0","0","14","NA","10","14","10","0","10","3","14","0","14","Fri Feb 19 12:13:53 2021","The main experiment item","yes","Lexical_Decision_Task.osexp","C:/Users/ErinS/Downloads","no","Andale Mono","no","18","no","white","no","yes","576","legacy","10","10","3","C:/Users/ErinS/Downloads/subject-5226210-lexical-decision-task.csv","legacy","Lentiform Loewenfeld","3.3.7","yes","yes","600bd7cfb6416f0113b04181","602110864497cf011d9c0822","0","j","NA","j","j","j","NA","j","615","NA","1957","18724","4229","NA","615","2","legacy","1024","2","48000","-16","task","5226210","even","NA","36438","40397","38439","58709","5721","28678","24448","59210","NA","58707","59210","58598","40397","59826","34694","58097","5717","NA","Lexical Decision Task","15","10146","15","yes","1024"
"3.20871002","7.15","8","cram","word","100","100","688","688","black","no","legacy","legacy","legacy","0","uniform","1","undefined","undefined","undefined","1","j","0","0","0","0","15","0","0","0","15","NA","11","15","11","0","11","3","15","0","15","Fri Feb 19 12:13:53 2021","The main experiment item","yes","Lexical_Decision_Task.osexp","C:/Users/ErinS/Downloads","no","Andale Mono","no","18","no","white","no","yes","576","legacy","11","11","3","C:/Users/ErinS/Downloads/subject-5226210-lexical-decision-task.csv","legacy","Lentiform Loewenfeld","3.3.7","yes","yes","600bd7cfb6416f0113b04181","602110864497cf011d9c0822","0","j","NA","j","j","j","NA","j","862","NA","1957","18724","4229","NA","862","2","legacy","1024","2","48000","-16","task","5226210","even","NA","36438","40397","38439","60449","5721","28678","24448","60950","NA","60448","60950","60374","40397","61813","34694","59874","5717","NA","Lexical Decision Task","16","11008","16","yes","1024"
"3.121778632","0","9","sark","non-word","100","100","690.6470588235294","690.6470588235294","black","no","legacy","legacy","legacy","0","uniform","1","undefined","undefined","undefined","1","f","0","0","0","0","16","0","0","0","16","NA","12","16","12","0","12","3","16","0","16","Fri Feb 19 12:13:53 2021","The main experiment item","yes","Lexical_Decision_Task.osexp","C:/Users/ErinS/Downloads","no","Andale Mono","no","18","no","white","no","yes","576","legacy","12","12","3","C:/Users/ErinS/Downloads/subject-5226210-lexical-decision-task.csv","legacy","Lentiform Loewenfeld","3.3.7","yes","yes","600bd7cfb6416f0113b04181","602110864497cf011d9c0822","0","f","NA","j","j","j","NA","f","733","NA","1957","18724","4229","NA","733","2","legacy","1024","2","48000","-16","task","5226210","even","NA","36438","40397","38439","62510","5721","28678","24448","63011","NA","62508","63011","62419","40397","63744","34694","61919","5717","NA","Lexical Decision Task","17","11741","17","yes","1024"
"3.263399331","0","8","cour","non-word","100","100","714.3333333333334","714.3333333333334","black","no","legacy","legacy","legacy","0","uniform","1","undefined","undefined","undefined","1","f","0","0","0","0","17","0","0","0","17","NA","13","17","13","0","13","3","17","0","17","Fri Feb 19 12:13:53 2021","The main experiment item","yes","Lexical_Decision_Task.osexp","C:/Users/ErinS/Downloads","no","Andale Mono","no","18","no","white","no","yes","576","legacy","13","13","3","C:/Users/ErinS/Downloads/subject-5226210-lexical-decision-task.csv","legacy","Lentiform Loewenfeld","3.3.7","yes","yes","600bd7cfb6416f0113b04181","602110864497cf011d9c0822","0","f","NA","j","j","j","NA","f","1117","NA","1957","18724","4229","NA","1117","2","legacy","1024","2","48000","-16","task","5226210","even","NA","36438","40397","38439","64402","5721","28678","24448","64906","NA","64400","64906","64339","40397","66024","34694","63839","5717","NA","Lexical Decision Task","18","12858","18","yes","1024"
"3.274543461","7.46","7","scar","word","100","100","710.4736842105264","710.4736842105264","black","no","legacy","legacy","legacy","0","uniform","1","undefined","undefined","undefined","1","j","0","0","0","0","18","0","0","0","18","NA","14","18","14","0","14","3","18","0","18","Fri Feb 19 12:13:53 2021","The main experiment item","yes","Lexical_Decision_Task.osexp","C:/Users/ErinS/Downloads","no","Andale Mono","no","18","no","white","no","yes","576","legacy","14","14","3","C:/Users/ErinS/Downloads/subject-5226210-lexical-decision-task.csv","legacy","Lentiform Loewenfeld","3.3.7","yes","yes","600bd7cfb6416f0113b04181","602110864497cf011d9c0822","0","j","NA","j","j","j","NA","j","641","NA","1957","18724","4229","NA","641","2","legacy","1024","2","48000","-16","task","5226210","even","NA","36438","40397","38439","66736","5721","28678","24448","67237","NA","66734","67238","66632","40397","67880","34694","66132","5717","NA","Lexical Decision Task","19","13499","19","yes","1024"
"2.899092422","7.27","6","snag","word","100","100","715.1","715.1","black","no","legacy","legacy","legacy","0","uniform","1","undefined","undefined","undefined","1","j","0","0","0","0","19","0","0","0","19","NA","15","19","15","0","15","3","19","0","19","Fri Feb 19 12:13:53 2021","The main experiment item","yes","Lexical_Decision_Task.osexp","C:/Users/ErinS/Downloads","no","Andale Mono","no","18","no","white","no","yes","576","legacy","15","15","3","C:/Users/ErinS/Downloads/subject-5226210-lexical-decision-task.csv","legacy","Lentiform Loewenfeld","3.3.7","yes","yes","600bd7cfb6416f0113b04181","602110864497cf011d9c0822","0","j","NA","j","j","j","NA","j","803","NA","1957","18724","4229","NA","803","2","legacy","1024","2","48000","-16","task","5226210","even","NA","36438","40397","38439","68553","5721","28678","24448","69058","NA","68551","69058","68439","40397","69862","34694","67939","5717","NA","Lexical Decision Task","20","14302","20","yes","1024"
"3.261341392","5.08","8","reek","word","100","100","743.0952380952381","743.0952380952381","black","no","legacy","legacy","legacy","0","uniform","1","undefined","undefined","undefined","1","j","0","0","0","0","20","0","0","0","20","NA","16","20","16","0","16","3","20","0","20","Fri Feb 19 12:13:53 2021","The main experiment item","yes","Lexical_Decision_Task.osexp","C:/Users/ErinS/Downloads","no","Andale Mono","no","18","no","white","no","yes","576","legacy","16","16","3","C:/Users/ErinS/Downloads/subject-5226210-lexical-decision-task.csv","legacy","Lentiform Loewenfeld","3.3.7","yes","yes","600bd7cfb6416f0113b04181","602110864497cf011d9c0822","0","j","NA","j","j","j","NA","j","1303","NA","1957","18724","4229","NA","1303","2","legacy","1024","2","48000","-16","task","5226210","even","NA","36438","40397","38439","70484","5721","28678","24448","70986","NA","70481","70986","70396","40397","72289","34694","69896","5717","NA","Lexical Decision Task","21","15605","21","yes","1024"
"2.664328519","0","4","plux","non-word","100","100","741.2727272727273","741.2727272727273","black","no","legacy","legacy","legacy","0","uniform","1","undefined","undefined","undefined","1","f","0","0","0","0","21","0","0","0","21","NA","17","21","17","0","17","3","21","0","21","Fri Feb 19 12:13:53 2021","The main experiment item","yes","Lexical_Decision_Task.osexp","C:/Users/ErinS/Downloads","no","Andale Mono","no","18","no","white","no","yes","576","legacy","17","17","3","C:/Users/ErinS/Downloads/subject-5226210-lexical-decision-task.csv","legacy","Lentiform Loewenfeld","3.3.7","yes","yes","600bd7cfb6416f0113b04181","602110864497cf011d9c0822","0","f","NA","j","j","j","NA","f","703","NA","1957","18724","4229","NA","703","2","legacy","1024","2","48000","-16","task","5226210","even","NA","36438","40397","38439","72912","5721","28678","24448","73414","NA","72910","73415","72829","40397","74119","34694","72329","5717","NA","Lexical Decision Task","22","16308","22","yes","1024"
"2.675164031","8.57","6","glue","word","100","100","732.4347826086956","732.4347826086956","black","no","legacy","legacy","legacy","0","uniform","1","undefined","undefined","undefined","1","j","0","0","0","0","22","0","0","0","22","NA","18","22","18","0","18","3","22","0","22","Fri Feb 19 12:13:53 2021","The main experiment item","yes","Lexical_Decision_Task.osexp","C:/Users/ErinS/Downloads","no","Andale Mono","no","18","no","white","no","yes","576","legacy","18","18","3","C:/Users/ErinS/Downloads/subject-5226210-lexical-decision-task.csv","legacy","Lentiform Loewenfeld","3.3.7","yes","yes","600bd7cfb6416f0113b04181","602110864497cf011d9c0822","0","j","NA","j","j","j","NA","j","538","NA","1957","18724","4229","NA","538","2","legacy","1024","2","48000","-16","task","5226210","even","NA","36438","40397","38439","74827","5721","28678","24448","75328","NA","74825","75328","74736","40397","75867","34694","74236","5717","NA","Lexical Decision Task","23","16846","23","yes","1024"
"3.153001286","8.7","5","palm","word","100","100","726.1666666666666","726.1666666666666","black","no","legacy","legacy","legacy","0","uniform","1","undefined","undefined","undefined","1","j","0","0","0","0","23","0","0","0","23","NA","19","23","19","0","19","3","23","0","23","Fri Feb 19 12:13:53 2021","The main experiment item","yes","Lexical_Decision_Task.osexp","C:/Users/ErinS/Downloads","no","Andale Mono","no","18","no","white","no","yes","576","legacy","19","19","3","C:/Users/ErinS/Downloads/subject-5226210-lexical-decision-task.csv","legacy","Lentiform Loewenfeld","3.3.7","yes","yes","600bd7cfb6416f0113b04181","602110864497cf011d9c0822","0","j","NA","j","j","j","NA","j","582","NA","1957","18724","4229","NA","582","2","legacy","1024","2","48000","-16","task","5226210","even","NA","36438","40397","38439","76458","5721","28678","24448","76960","NA","76456","76961","76395","40397","77544","34694","75895","5717","NA","Lexical Decision Task","24","17428","24","yes","1024"
"3.2757719","0","5","slea","non-word","100","100","726.2","726.2","black","no","legacy","legacy","legacy","0","uniform","1","undefined","undefined","undefined","1","f","0","0","0","0","24","0","0","0","24","NA","20","24","20","0","20","3","24","0","24","Fri Feb 19 12:13:53 2021","The main experiment item","yes","Lexical_Decision_Task.osexp","C:/Users/ErinS/Downloads","no","Andale Mono","no","18","no","white","no","yes","576","legacy","20","20","3","C:/Users/ErinS/Downloads/subject-5226210-lexical-decision-task.csv","legacy","Lentiform Loewenfeld","3.3.7","yes","yes","600bd7cfb6416f0113b04181","602110864497cf011d9c0822","0","f","NA","j","j","j","NA","f","727","NA","1957","18724","4229","NA","727","2","legacy","1024","2","48000","-16","task","5226210","even","NA","36438","40397","38439","78219","5721","28678","24448","78720","NA","78217","78720","78133","40397","79447","34694","77632","5717","NA","Lexical Decision Task","25","18155","25","yes","1024"
"3.363486562","6.93","9","lush","word","100","100","720.3846153846154","720.3846153846154","black","no","legacy","legacy","legacy","0","uniform","1","undefined","undefined","undefined","1","j","0","0","0","0","25","0","0","0","25","NA","21","25","21","0","21","3","25","0","25","Fri Feb 19 12:13:53 2021","The main experiment item","yes","Lexical_Decision_Task.osexp","C:/Users/ErinS/Downloads","no","Andale Mono","no","18","no","white","no","yes","576","legacy","21","21","3","C:/Users/ErinS/Downloads/subject-5226210-lexical-decision-task.csv","legacy","Lentiform Loewenfeld","3.3.7","yes","yes","600bd7cfb6416f0113b04181","602110864497cf011d9c0822","0","j","NA","j","j","j","NA","j","575","NA","1957","18724","4229","NA","575","2","legacy","1024","2","48000","-16","task","5226210","even","NA","36438","40397","38439","80070","5721","28678","24448","80572","NA","80067","80572","79984","40397","81148","34694","79484","5717","NA","Lexical Decision Task","26","18730","26","yes","1024"
"3.077974404","10.41","8","tool","word","100","100","713.7777777777778","713.7777777777778","black","no","legacy","legacy","legacy","0","uniform","1","undefined","undefined","undefined","1","j","0","0","0","0","26","0","0","0","26","NA","22","26","22","0","22","3","26","0","26","Fri Feb 19 12:13:53 2021","The main experiment item","yes","Lexical_Decision_Task.osexp","C:/Users/ErinS/Downloads","no","Andale Mono","no","18","no","white","no","yes","576","legacy","22","22","3","C:/Users/ErinS/Downloads/subject-5226210-lexical-decision-task.csv","legacy","Lentiform Loewenfeld","3.3.7","yes","yes","600bd7cfb6416f0113b04181","602110864497cf011d9c0822","0","j","NA","j","j","j","NA","j","542","NA","1957","18724","4229","NA","542","2","legacy","1024","2","48000","-16","task","5226210","even","NA","36438","40397","38439","81784","5721","28678","24448","82285","NA","81782","82285","81674","40397","82828","34694","81173","5717","NA","Lexical Decision Task","27","19272","27","yes","1024"
"3.195807436","0","6","stup","non-word","100","100","710.8571428571429","710.8571428571429","black","no","legacy","legacy","legacy","0","uniform","1","undefined","undefined","undefined","1","f","0","0","0","0","27","0","0","0","27","NA","23","27","23","0","23","3","27","0","27","Fri Feb 19 12:13:53 2021","The main experiment item","yes","Lexical_Decision_Task.osexp","C:/Users/ErinS/Downloads","no","Andale Mono","no","18","no","white","no","yes","576","legacy","23","23","3","C:/Users/ErinS/Downloads/subject-5226210-lexical-decision-task.csv","legacy","Lentiform Loewenfeld","3.3.7","yes","yes","600bd7cfb6416f0113b04181","602110864497cf011d9c0822","0","f","NA","j","j","j","NA","f","632","NA","1957","18724","4229","NA","632","2","legacy","1024","2","48000","-16","task","5226210","even","NA","36438","40397","38439","83509","5721","28678","24448","84014","NA","83508","84014","83432","40397","84647","34694","82932","5717","NA","Lexical Decision Task","28","19904","28","yes","1024"
"3.225825991","0","7","talm","non-word","100","100","710.7241379310345","710.7241379310345","black","no","legacy","legacy","legacy","0","uniform","1","undefined","undefined","undefined","1","f","0","0","0","0","28","0","0","0","28","NA","24","28","24","0","24","3","28","0","28","Fri Feb 19 12:13:53 2021","The main experiment item","yes","Lexical_Decision_Task.osexp","C:/Users/ErinS/Downloads","no","Andale Mono","no","18","no","white","no","yes","576","legacy","24","24","3","C:/Users/ErinS/Downloads/subject-5226210-lexical-decision-task.csv","legacy","Lentiform Loewenfeld","3.3.7","yes","yes","600bd7cfb6416f0113b04181","602110864497cf011d9c0822","0","f","NA","j","j","j","NA","f","707","NA","1957","18724","4229","NA","707","2","legacy","1024","2","48000","-16","task","5226210","even","NA","36438","40397","38439","85264","5721","28678","24448","85766","NA","85262","85766","85185","40397","86473","34694","84685","5717","NA","Lexical Decision Task","29","20611","29","yes","1024"
"3.29439347","8.6","9","wand","word","100","100","704.8333333333334","704.8333333333334","black","no","legacy","legacy","legacy","0","uniform","1","undefined","undefined","undefined","1","j","0","0","0","0","29","0","0","0","29","NA","25","29","25","0","25","3","29","0","29","Fri Feb 19 12:13:53 2021","The main experiment item","yes","Lexical_Decision_Task.osexp","C:/Users/ErinS/Downloads","no","Andale Mono","no","18","no","white","no","yes","576","legacy","25","25","3","C:/Users/ErinS/Downloads/subject-5226210-lexical-decision-task.csv","legacy","Lentiform Loewenfeld","3.3.7","yes","yes","600bd7cfb6416f0113b04181","602110864497cf011d9c0822","0","j","NA","j","j","j","NA","j","534","NA","1957","18724","4229","NA","534","2","legacy","1024","2","48000","-16","task","5226210","even","NA","36438","40397","38439","87136","5721","28678","24448","87640","NA","87134","87641","87029","40397","88176","34694","86529","5717","NA","Lexical Decision Task","30","21145","30","yes","1024"
"3.397302518","7.01","2","knit","word","100","100","700.0645161290323","700.0645161290323","black","no","legacy","legacy","legacy","0","uniform","1","undefined","undefined","undefined","1","j","0","0","0","0","30","0","0","0","30","NA","26","30","26","0","26","3","30","0","30","Fri Feb 19 12:13:53 2021","The main experiment item","yes","Lexical_Decision_Task.osexp","C:/Users/ErinS/Downloads","no","Andale Mono","no","18","no","white","no","yes","576","legacy","26","26","3","C:/Users/ErinS/Downloads/subject-5226210-lexical-decision-task.csv","legacy","Lentiform Loewenfeld","3.3.7","yes","yes","600bd7cfb6416f0113b04181","602110864497cf011d9c0822","0","j","NA","j","j","j","NA","j","557","NA","1957","18724","4229","NA","557","2","legacy","1024","2","48000","-16","task","5226210","even","NA","36438","40397","38439","89119","5721","28678","24448","89620","NA","89117","89620","89030","40397","90178","34694","88530","5717","NA","Lexical Decision Task","31","21702","31","yes","1024"
"2.972819734","0","4","scew","non-word","100","100","698.9375","698.9375","black","no","legacy","legacy","legacy","0","uniform","1","undefined","undefined","undefined","1","f","0","0","0","0","31","0","0","0","31","NA","27","31","27","0","27","3","31","0","31","Fri Feb 19 12:13:53 2021","The main experiment item","yes","Lexical_Decision_Task.osexp","C:/Users/ErinS/Downloads","no","Andale Mono","no","18","no","white","no","yes","576","legacy","27","27","3","C:/Users/ErinS/Downloads/subject-5226210-lexical-decision-task.csv","legacy","Lentiform Loewenfeld","3.3.7","yes","yes","600bd7cfb6416f0113b04181","602110864497cf011d9c0822","0","f","NA","j","j","j","NA","f","664","NA","1957","18724","4229","NA","664","2","legacy","1024","2","48000","-16","task","5226210","even","NA","36438","40397","38439","90828","5721","28678","24448","91331","NA","90826","91331","90729","40397","91996","34694","90228","5717","NA","Lexical Decision Task","32","22366","32","yes","1024"
"3.488597715","0","9","nain","non-word","100","100","698.7878787878788","698.7878787878788","black","no","legacy","legacy","legacy","0","uniform","1","undefined","undefined","undefined","1","f","0","0","0","0","32","0","0","0","32","NA","28","32","28","0","28","3","32","0","32","Fri Feb 19 12:13:53 2021","The main experiment item","yes","Lexical_Decision_Task.osexp","C:/Users/ErinS/Downloads","no","Andale Mono","no","18","no","white","no","yes","576","legacy","28","28","3","C:/Users/ErinS/Downloads/subject-5226210-lexical-decision-task.csv","legacy","Lentiform Loewenfeld","3.3.7","yes","yes","600bd7cfb6416f0113b04181","602110864497cf011d9c0822","0","f","NA","j","j","j","NA","f","694","NA","1957","18724","4229","NA","694","2","legacy","1024","2","48000","-16","task","5226210","even","NA","36438","40397","38439","92657","5721","28678","24448","93159","NA","92655","93159","92532","40397","93853","34694","92032","5717","NA","Lexical Decision Task","33","23060","33","yes","1024"
"3.028977705","0","7","frow","non-word","100","100","696","696","black","no","legacy","legacy","legacy","0","uniform","1","undefined","undefined","undefined","1","f","0","0","0","0","33","0","0","0","33","NA","29","33","29","0","29","3","33","0","33","Fri Feb 19 12:13:53 2021","The main experiment item","yes","Lexical_Decision_Task.osexp","C:/Users/ErinS/Downloads","no","Andale Mono","no","18","no","white","no","yes","576","legacy","29","29","3","C:/Users/ErinS/Downloads/subject-5226210-lexical-decision-task.csv","legacy","Lentiform Loewenfeld","3.3.7","yes","yes","600bd7cfb6416f0113b04181","602110864497cf011d9c0822","0","f","NA","j","j","j","NA","f","604","NA","1957","18724","4229","NA","604","2","legacy","1024","2","48000","-16","task","5226210","even","NA","36438","40397","38439","94472","5721","28678","24448","94974","NA","94470","94974","94396","40397","95579","34694","93896","5717","NA","Lexical Decision Task","34","23664","34","yes","1024"
"3.153104174","10.89","6","door","word","100","100","698.5142857142857","698.5142857142857","black","no","legacy","legacy","legacy","0","uniform","1","undefined","undefined","undefined","1","j","0","0","0","0","34","0","0","0","34","NA","30","34","30","0","30","3","34","0","34","Fri Feb 19 12:13:53 2021","The main experiment item","yes","Lexical_Decision_Task.osexp","C:/Users/ErinS/Downloads","no","Andale Mono","no","18","no","white","no","yes","576","legacy","30","30","3","C:/Users/ErinS/Downloads/subject-5226210-lexical-decision-task.csv","legacy","Lentiform Loewenfeld","3.3.7","yes","yes","600bd7cfb6416f0113b04181","602110864497cf011d9c0822","0","j","NA","j","j","j","NA","j","784","NA","1957","18724","4229","NA","784","2","legacy","1024","2","48000","-16","task","5226210","even","NA","36438","40397","38439","96204","5721","28678","24448","96706","NA","96202","96706","96130","40397","97491","34694","95630","5717","NA","Lexical Decision Task","35","24448","35","yes","1024"
"3.366547468","0","6","plat","non-word","100","100","702.8611111111111","702.8611111111111","black","no","legacy","legacy","legacy","0","uniform","1","undefined","undefined","undefined","1","f","0","0","0","0","35","0","0","0","35","NA","31","35","31","0","31","3","35","0","35","Fri Feb 19 12:13:53 2021","The main experiment item","yes","Lexical_Decision_Task.osexp","C:/Users/ErinS/Downloads","no","Andale Mono","no","18","no","white","no","yes","576","legacy","31","31","3","C:/Users/ErinS/Downloads/subject-5226210-lexical-decision-task.csv","legacy","Lentiform Loewenfeld","3.3.7","yes","yes","600bd7cfb6416f0113b04181","602110864497cf011d9c0822","0","f","NA","j","j","j","NA","f","855","NA","1957","18724","4229","NA","855","2","legacy","1024","2","48000","-16","task","5226210","even","NA","36438","40397","38439","98122","5721","28678","24448","98623","NA","98120","98625","98040","40397","99481","34694","97540","5717","NA","Lexical Decision Task","36","25303","36","yes","1024"
"3.269668578","0","7","trag","non-word","100","100","701.1891891891892","701.1891891891892","black","no","legacy","legacy","legacy","0","uniform","1","undefined","undefined","undefined","1","f","0","0","0","0","36","0","0","0","36","NA","32","36","32","0","32","3","36","0","36","Fri Feb 19 12:13:53 2021","The main experiment item","yes","Lexical_Decision_Task.osexp","C:/Users/ErinS/Downloads","no","Andale Mono","no","18","no","white","no","yes","576","legacy","32","32","3","C:/Users/ErinS/Downloads/subject-5226210-lexical-decision-task.csv","legacy","Lentiform Loewenfeld","3.3.7","yes","yes","600bd7cfb6416f0113b04181","602110864497cf011d9c0822","0","f","NA","j","j","j","NA","f","641","NA","1957","18724","4229","NA","641","2","legacy","1024","2","48000","-16","task","5226210","even","NA","36438","40397","38439","100107","5721","28678","24448","100608","NA","100105","100608","100018","40397","101250","34694","99518","5717","NA","Lexical Decision Task","37","25944","37","yes","1024"
"3.091901331","0","9","nipe","non-word","100","100","703.078947368421","703.078947368421","black","no","legacy","legacy","legacy","0","uniform","1","undefined","undefined","undefined","1","f","0","0","0","0","37","0","0","0","37","NA","33","37","33","0","33","3","37","0","37","Fri Feb 19 12:13:53 2021","The main experiment item","yes","Lexical_Decision_Task.osexp","C:/Users/ErinS/Downloads","no","Andale Mono","no","18","no","white","no","yes","576","legacy","33","33","3","C:/Users/ErinS/Downloads/subject-5226210-lexical-decision-task.csv","legacy","Lentiform Loewenfeld","3.3.7","yes","yes","600bd7cfb6416f0113b04181","602110864497cf011d9c0822","0","f","NA","j","j","j","NA","f","773","NA","1957","18724","4229","NA","773","2","legacy","1024","2","48000","-16","task","5226210","even","NA","36438","40397","38439","101947","5721","28678","24448","102449","NA","101945","102449","101855","40397","103223","34694","101355","5717","NA","Lexical Decision Task","38","26717","38","yes","1024"
"2.981215883","10.66","5","hair","word","100","100","699","699","black","no","legacy","legacy","legacy","0","uniform","1","undefined","undefined","undefined","1","j","0","0","0","0","38","0","0","0","38","NA","34","38","34","0","34","3","38","0","38","Fri Feb 19 12:13:53 2021","The main experiment item","yes","Lexical_Decision_Task.osexp","C:/Users/ErinS/Downloads","no","Andale Mono","no","18","no","white","no","yes","576","legacy","34","34","3","C:/Users/ErinS/Downloads/subject-5226210-lexical-decision-task.csv","legacy","Lentiform Loewenfeld","3.3.7","yes","yes","600bd7cfb6416f0113b04181","602110864497cf011d9c0822","0","j","NA","j","j","j","NA","j","544","NA","1957","18724","4229","NA","544","2","legacy","1024","2","48000","-16","task","5226210","even","NA","36438","40397","38439","103848","5721","28678","24448","104355","NA","103846","104355","103763","40397","104899","34694","103262","5717","NA","Lexical Decision Task","39","27261","39","yes","1024"
"3.274157849","0","8","leet","non-word","100","100","695.75","695.75","black","no","legacy","legacy","legacy","0","uniform","1","undefined","undefined","undefined","1","f","0","0","0","0","39","0","0","0","39","NA","35","39","35","0","35","3","39","0","39","Fri Feb 19 12:13:53 2021","The main experiment item","yes","Lexical_Decision_Task.osexp","C:/Users/ErinS/Downloads","no","Andale Mono","no","18","no","white","no","yes","576","legacy","35","35","3","C:/Users/ErinS/Downloads/subject-5226210-lexical-decision-task.csv","legacy","Lentiform Loewenfeld","3.3.7","yes","yes","600bd7cfb6416f0113b04181","602110864497cf011d9c0822","0","f","NA","j","j","j","NA","f","569","NA","1957","18724","4229","NA","569","2","legacy","1024","2","48000","-16","task","5226210","even","NA","36438","40397","38439","105620","5721","28678","24448","106124","NA","105619","106124","105532","40397","106694","34694","105032","5717","NA","Lexical Decision Task","40","27830","40","yes","1024"
"3.257359335","8","6","brew","word","100","100","694.2926829268292","694.2926829268292","black","no","legacy","legacy","legacy","0","uniform","1","undefined","undefined","undefined","1","j","0","0","0","0","40","0","0","0","40","NA","36","40","36","0","36","3","40","0","40","Fri Feb 19 12:13:53 2021","The main experiment item","yes","Lexical_Decision_Task.osexp","C:/Users/ErinS/Downloads","no","Andale Mono","no","18","no","white","no","yes","576","legacy","36","36","3","C:/Users/ErinS/Downloads/subject-5226210-lexical-decision-task.csv","legacy","Lentiform Loewenfeld","3.3.7","yes","yes","600bd7cfb6416f0113b04181","602110864497cf011d9c0822","0","j","NA","j","j","j","NA","j","636","NA","1957","18724","4229","NA","636","2","legacy","1024","2","48000","-16","task","5226210","even","NA","36438","40397","38439","107312","5721","28678","24448","107815","NA","107311","107815","107218","40397","108452","34694","106718","5717","NA","Lexical Decision Task","41","28466","41","yes","1024"
"3.384413096","10.15","3","glad","word","100","100","690.7142857142857","690.7142857142857","black","no","legacy","legacy","legacy","0","uniform","1","undefined","undefined","undefined","1","j","0","0","0","0","41","0","0","0","41","NA","37","41","37","0","37","3","41","0","41","Fri Feb 19 12:13:53 2021","The main experiment item","yes","Lexical_Decision_Task.osexp","C:/Users/ErinS/Downloads","no","Andale Mono","no","18","no","white","no","yes","576","legacy","37","37","3","C:/Users/ErinS/Downloads/subject-5226210-lexical-decision-task.csv","legacy","Lentiform Loewenfeld","3.3.7","yes","yes","600bd7cfb6416f0113b04181","602110864497cf011d9c0822","0","j","NA","j","j","j","NA","j","544","NA","1957","18724","4229","NA","544","2","legacy","1024","2","48000","-16","task","5226210","even","NA","36438","40397","38439","109110","5721","28678","24448","109612","NA","109108","109612","109030","40397","110156","34694","108529","5717","NA","Lexical Decision Task","42","29010","42","yes","1024"
"2.807758206","6.25","4","hurl","word","100","100","693.8837209302326","693.8837209302326","black","no","legacy","legacy","legacy","0","uniform","1","undefined","undefined","undefined","1","j","0","0","0","0","42","0","0","0","42","NA","38","42","38","0","38","3","42","0","42","Fri Feb 19 12:13:53 2021","The main experiment item","yes","Lexical_Decision_Task.osexp","C:/Users/ErinS/Downloads","no","Andale Mono","no","18","no","white","no","yes","576","legacy","38","38","3","C:/Users/ErinS/Downloads/subject-5226210-lexical-decision-task.csv","legacy","Lentiform Loewenfeld","3.3.7","yes","yes","600bd7cfb6416f0113b04181","602110864497cf011d9c0822","0","j","NA","j","j","j","NA","j","827","NA","1957","18724","4229","NA","827","2","legacy","1024","2","48000","-16","task","5226210","even","NA","36438","40397","38439","110860","5721","28678","24448","111362","NA","110857","111362","110733","40397","112190","34694","110233","5717","NA","Lexical Decision Task","43","29837","43","yes","1024"
"2.703007489","8.37","3","pulp","word","100","100","694.0681818181819","694.0681818181819","black","no","legacy","legacy","legacy","0","uniform","1","undefined","undefined","undefined","1","j","0","0","0","0","43","0","0","0","43","NA","39","43","39","0","39","3","43","0","43","Fri Feb 19 12:13:53 2021","The main experiment item","yes","Lexical_Decision_Task.osexp","C:/Users/ErinS/Downloads","no","Andale Mono","no","18","no","white","no","yes","576","legacy","39","39","3","C:/Users/ErinS/Downloads/subject-5226210-lexical-decision-task.csv","legacy","Lentiform Loewenfeld","3.3.7","yes","yes","600bd7cfb6416f0113b04181","602110864497cf011d9c0822","0","j","NA","j","j","j","NA","j","702","NA","1957","18724","4229","NA","702","2","legacy","1024","2","48000","-16","task","5226210","even","NA","36438","40397","38439","112792","5721","28678","24448","113295","NA","112790","113295","112718","40397","113997","34694","112218","5717","NA","Lexical Decision Task","44","30539","44","yes","1024"
"3.066077331","0","7","vorn","non-word","100","100","693.8666666666667","693.8666666666667","black","no","legacy","legacy","legacy","0","uniform","1","undefined","undefined","undefined","1","f","0","0","0","0","44","0","0","0","44","NA","40","44","40","0","40","3","44","0","44","Fri Feb 19 12:13:53 2021","The main experiment item","yes","Lexical_Decision_Task.osexp","C:/Users/ErinS/Downloads","no","Andale Mono","no","18","no","white","no","yes","576","legacy","40","40","3","C:/Users/ErinS/Downloads/subject-5226210-lexical-decision-task.csv","legacy","Lentiform Loewenfeld","3.3.7","yes","yes","600bd7cfb6416f0113b04181","602110864497cf011d9c0822","0","f","NA","j","j","j","NA","f","685","NA","1957","18724","4229","NA","685","2","legacy","1024","2","48000","-16","task","5226210","even","NA","36438","40397","38439","114681","5721","28678","24448","115183","NA","114679","115184","114598","40397","115870","34694","114097","5717","NA","Lexical Decision Task","45","31224","45","yes","1024"
"3.531734309","0","6","lerd","non-word","100","100","691.6304347826087","691.6304347826087","black","no","legacy","legacy","legacy","0","uniform","1","undefined","undefined","undefined","1","f","0","0","0","0","45","0","0","0","45","NA","41","45","41","0","41","3","45","0","45","Fri Feb 19 12:13:53 2021","The main experiment item","yes","Lexical_Decision_Task.osexp","C:/Users/ErinS/Downloads","no","Andale Mono","no","18","no","white","no","yes","576","legacy","41","41","3","C:/Users/ErinS/Downloads/subject-5226210-lexical-decision-task.csv","legacy","Lentiform Loewenfeld","3.3.7","yes","yes","600bd7cfb6416f0113b04181","602110864497cf011d9c0822","0","f","NA","j","j","j","NA","f","591","NA","1957","18724","4229","NA","591","2","legacy","1024","2","48000","-16","task","5226210","even","NA","36438","40397","38439","116482","5721","28678","24448","116983","NA","116480","116983","116410","40397","117574","34694","115910","5717","NA","Lexical Decision Task","46","31815","46","yes","1024"
"2.952953801","0","8","clax","non-word","100","100","688.5531914893617","688.5531914893617","black","no","legacy","legacy","legacy","0","uniform","1","undefined","undefined","undefined","1","f","0","0","0","0","46","0","0","0","46","NA","42","46","42","0","42","3","46","0","46","Fri Feb 19 12:13:53 2021","The main experiment item","yes","Lexical_Decision_Task.osexp","C:/Users/ErinS/Downloads","no","Andale Mono","no","18","no","white","no","yes","576","legacy","42","42","3","C:/Users/ErinS/Downloads/subject-5226210-lexical-decision-task.csv","legacy","Lentiform Loewenfeld","3.3.7","yes","yes","600bd7cfb6416f0113b04181","602110864497cf011d9c0822","0","f","NA","j","j","j","NA","f","547","NA","1957","18724","4229","NA","547","2","legacy","1024","2","48000","-16","task","5226210","even","NA","36438","40397","38439","118177","5721","28678","24448","118678","NA","118175","118678","118107","40397","119227","34694","117607","5717","NA","Lexical Decision Task","47","32362","47","yes","1024"
"3.440331212","7.35","6","stew","word","100","100","683.75","683.75","black","no","legacy","legacy","legacy","0","uniform","1","undefined","undefined","undefined","1","j","0","0","0","0","47","0","0","0","47","NA","43","47","43","0","43","3","47","0","47","Fri Feb 19 12:13:53 2021","The main experiment item","yes","Lexical_Decision_Task.osexp","C:/Users/ErinS/Downloads","no","Andale Mono","no","18","no","white","no","yes","576","legacy","43","43","3","C:/Users/ErinS/Downloads/subject-5226210-lexical-decision-task.csv","legacy","Lentiform Loewenfeld","3.3.7","yes","yes","600bd7cfb6416f0113b04181","602110864497cf011d9c0822","0","j","NA","j","j","j","NA","j","458","NA","1957","18724","4229","NA","458","2","legacy","1024","2","48000","-16","task","5226210","even","NA","36438","40397","38439","119820","5721","28678","24448","120321","NA","119819","120322","119751","40397","120781","34694","119251","5717","NA","Lexical Decision Task","48","32820","48","yes","1024"
"2.843025032","0","9","pusk","non-word","100","100","684.4285714285714","684.4285714285714","black","no","legacy","legacy","legacy","0","uniform","1","undefined","undefined","undefined","1","f","0","0","0","0","48","0","0","0","48","NA","44","48","44","0","44","3","48","0","48","Fri Feb 19 12:13:53 2021","The main experiment item","yes","Lexical_Decision_Task.osexp","C:/Users/ErinS/Downloads","no","Andale Mono","no","18","no","white","no","yes","576","legacy","44","44","3","C:/Users/ErinS/Downloads/subject-5226210-lexical-decision-task.csv","legacy","Lentiform Loewenfeld","3.3.7","yes","yes","600bd7cfb6416f0113b04181","602110864497cf011d9c0822","0","f","NA","j","j","j","NA","f","717","NA","1957","18724","4229","NA","717","2","legacy","1024","2","48000","-16","task","5226210","even","NA","36438","40397","38439","121437","5721","28678","24448","121939","NA","121436","121939","121375","40397","122658","34694","120875","5717","NA","Lexical Decision Task","49","33537","49","yes","1024"
"3.094121596","0","8","fode","non-word","100","100","682.06","682.06","black","no","legacy","legacy","legacy","0","uniform","1","undefined","undefined","undefined","1","f","0","0","0","0","49","0","0","0","49","NA","45","49","45","0","45","3","49","0","49","Fri Feb 19 12:13:53 2021","The main experiment item","yes","Lexical_Decision_Task.osexp","C:/Users/ErinS/Downloads","no","Andale Mono","no","18","no","white","no","yes","576","legacy","45","45","3","C:/Users/ErinS/Downloads/subject-5226210-lexical-decision-task.csv","legacy","Lentiform Loewenfeld","3.3.7","yes","yes","600bd7cfb6416f0113b04181","602110864497cf011d9c0822","0","f","NA","j","j","j","NA","f","566","NA","1957","18724","4229","NA","566","2","legacy","1024","2","48000","-16","task","5226210","even","NA","36438","40397","38439","123304","5721","28678","24448","123805","NA","123303","123805","123208","40397","124371","34694","122708","5717","NA","Lexical Decision Task","50","34103","50","yes","1024"
"2.980306438","0","7","slun","non-word","100","100","679.8039215686274","679.8039215686274","black","no","legacy","legacy","legacy","0","uniform","1","undefined","undefined","undefined","1","f","0","0","0","0","50","0","0","0","50","NA","46","50","46","0","46","3","50","0","50","Fri Feb 19 12:13:53 2021","The main experiment item","yes","Lexical_Decision_Task.osexp","C:/Users/ErinS/Downloads","no","Andale Mono","no","18","no","white","no","yes","576","legacy","46","46","3","C:/Users/ErinS/Downloads/subject-5226210-lexical-decision-task.csv","legacy","Lentiform Loewenfeld","3.3.7","yes","yes","600bd7cfb6416f0113b04181","602110864497cf011d9c0822","0","f","NA","j","j","j","NA","f","567","NA","1957","18724","4229","NA","567","2","legacy","1024","2","48000","-16","task","5226210","even","NA","36438","40397","38439","124995","5721","28678","24448","125496","NA","124993","125496","124908","40397","126063","34694","124408","5717","NA","Lexical Decision Task","51","34670","51","yes","1024"
"2.897810299","0","5","glur","non-word","100","100","678.75","678.75","black","no","legacy","legacy","legacy","0","uniform","1","undefined","undefined","undefined","1","f","0","0","0","0","51","0","0","0","51","NA","47","51","47","0","47","3","51","0","51","Fri Feb 19 12:13:53 2021","The main experiment item","yes","Lexical_Decision_Task.osexp","C:/Users/ErinS/Downloads","no","Andale Mono","no","18","no","white","no","yes","576","legacy","47","47","3","C:/Users/ErinS/Downloads/subject-5226210-lexical-decision-task.csv","legacy","Lentiform Loewenfeld","3.3.7","yes","yes","600bd7cfb6416f0113b04181","602110864497cf011d9c0822","0","f","NA","j","j","j","NA","f","625","NA","1957","18724","4229","NA","625","2","legacy","1024","2","48000","-16","task","5226210","even","NA","36438","40397","38439","126864","5721","28678","24448","127366","NA","126863","127366","126790","40397","127992","34694","126290","5717","NA","Lexical Decision Task","52","35295","52","yes","1024"
"2.895974732","6.65","5","sift","word","98.11320754716981","98.11320754716981","679.2830188679245","679.2830188679245","black","no","legacy","legacy","legacy","0","uniform","0","undefined","undefined","undefined","0","j","0","0","0","0","52","0","0","0","52","NA","48","52","48","0","48","3","52","0","52","Fri Feb 19 12:13:53 2021","The main experiment item","yes","Lexical_Decision_Task.osexp","C:/Users/ErinS/Downloads","no","Andale Mono","no","18","no","white","no","yes","576","legacy","48","48","3","C:/Users/ErinS/Downloads/subject-5226210-lexical-decision-task.csv","legacy","Lentiform Loewenfeld","3.3.7","yes","yes","600bd7cfb6416f0113b04181","602110864497cf011d9c0822","0","f","NA","j","j","j","NA","f","707","NA","1957","18724","4229","NA","707","2","legacy","1024","2","48000","-16","task","5226210","even","NA","36438","40397","38439","128829","5721","28678","24448","129330","NA","128827","129331","128674","40397","130039","34694","128173","5717","NA","Lexical Decision Task","52","36002","53","yes","1024"
"3.208978517","10.33","4","fish","word","98.14814814814815","98.14814814814815","676.5555555555555","676.5555555555555","black","no","legacy","legacy","legacy","0","uniform","1","undefined","undefined","undefined","1","j","0","0","0","0","53","0","0","0","53","NA","49","53","49","0","49","3","53","0","53","Fri Feb 19 12:13:53 2021","The main experiment item","yes","Lexical_Decision_Task.osexp","C:/Users/ErinS/Downloads","no","Andale Mono","no","18","no","white","no","yes","576","legacy","49","49","3","C:/Users/ErinS/Downloads/subject-5226210-lexical-decision-task.csv","legacy","Lentiform Loewenfeld","3.3.7","yes","yes","600bd7cfb6416f0113b04181","602110864497cf011d9c0822","0","j","NA","j","j","j","NA","j","532","NA","1957","18724","4229","NA","532","2","legacy","1024","2","48000","-16","task","5226210","even","NA","36438","40397","38439","131774","5721","28678","24448","132278","NA","131772","132279","131644","40397","132812","34694","128173","5717","130144","Lexical Decision Task","53","36534","54","yes","1024"
"3.382617311","0","4","pret","non-word","98.18181818181819","98.18181818181819","676.6727272727272","676.6727272727272","black","no","legacy","legacy","legacy","0","uniform","1","undefined","undefined","undefined","1","f","0","0","0","0","54","0","0","0","54","0","50","54","50","0","50","3","54","0","54","Fri Feb 19 12:13:53 2021","The main experiment item","yes","Lexical_Decision_Task.osexp","C:/Users/ErinS/Downloads","no","Andale Mono","no","18","no","white","no","yes","576","legacy","50","50","3","C:/Users/ErinS/Downloads/subject-5226210-lexical-decision-task.csv","legacy","Lentiform Loewenfeld","3.3.7","yes","yes","600bd7cfb6416f0113b04181","602110864497cf011d9c0822","0","f","NA","j","j","j","j","f","683","NA","1957","18724","4229","3546","683","2","legacy","1024","2","48000","-16","task","5226210","even","NA","36438","40397","38439","137028","5721","28678","24448","137532","133413","137026","137533","133340","40397","138217","34694","132840","5717","130144","Lexical Decision Task","54","37217","55","yes","1024"
"2.6599162","0","6","flug","non-word","98.21428571428571","98.21428571428571","677.0535714285714","677.0535714285714","black","no","legacy","legacy","legacy","0","uniform","1","undefined","undefined","undefined","1","f","0","0","0","0","55","0","0","0","55","0","51","55","51","0","51","3","55","0","55","Fri Feb 19 12:13:53 2021","The main experiment item","yes","Lexical_Decision_Task.osexp","C:/Users/ErinS/Downloads","no","Andale Mono","no","18","no","white","no","yes","576","legacy","51","51","3","C:/Users/ErinS/Downloads/subject-5226210-lexical-decision-task.csv","legacy","Lentiform Loewenfeld","3.3.7","yes","yes","600bd7cfb6416f0113b04181","602110864497cf011d9c0822","0","f","NA","j","j","j","j","f","698","NA","1957","18724","4229","3546","698","2","legacy","1024","2","48000","-16","task","5226210","even","NA","36438","40397","38439","138846","5721","28678","24448","139348","133413","138844","139348","138742","40397","140047","34694","138242","5717","130144","Lexical Decision Task","55","37915","56","yes","1024"
"2.75025376","10.2","6","jump","word","98.24561403508773","98.24561403508773","673.7368421052631","673.7368421052631","black","no","legacy","legacy","legacy","0","uniform","1","undefined","undefined","undefined","1","j","0","0","0","0","56","0","0","0","56","0","52","56","52","0","52","3","56","0","56","Fri Feb 19 12:13:53 2021","The main experiment item","yes","Lexical_Decision_Task.osexp","C:/Users/ErinS/Downloads","no","Andale Mono","no","18","no","white","no","yes","576","legacy","52","52","3","C:/Users/ErinS/Downloads/subject-5226210-lexical-decision-task.csv","legacy","Lentiform Loewenfeld","3.3.7","yes","yes","600bd7cfb6416f0113b04181","602110864497cf011d9c0822","0","j","NA","j","j","j","j","j","488","NA","1957","18724","4229","3546","488","2","legacy","1024","2","48000","-16","task","5226210","even","NA","36438","40397","38439","140663","5721","28678","24448","141165","133413","140661","141165","140597","40397","141655","34694","140097","5717","130144","Lexical Decision Task","56","38403","57","yes","1024"
"2.82129731","6.72","5","plum","word","98.27586206896552","98.27586206896552","672.6034482758621","672.6034482758621","black","no","legacy","legacy","legacy","0","uniform","1","undefined","undefined","undefined","1","j","0","0","0","0","57","0","0","0","57","0","53","57","53","0","53","3","57","0","57","Fri Feb 19 12:13:53 2021","The main experiment item","yes","Lexical_Decision_Task.osexp","C:/Users/ErinS/Downloads","no","Andale Mono","no","18","no","white","no","yes","576","legacy","53","53","3","C:/Users/ErinS/Downloads/subject-5226210-lexical-decision-task.csv","legacy","Lentiform Loewenfeld","3.3.7","yes","yes","600bd7cfb6416f0113b04181","602110864497cf011d9c0822","0","j","NA","j","j","j","j","j","608","NA","1957","18724","4229","3546","608","2","legacy","1024","2","48000","-16","task","5226210","even","NA","36438","40397","38439","142296","5721","28678","24448","142800","133413","142295","142800","142198","40397","143408","34694","141698","5717","130144","Lexical Decision Task","57","39011","58","yes","1024"
"3.299579929","0","2","flis","non-word","98.30508474576271","98.30508474576271","670.9661016949152","670.9661016949152","black","no","legacy","legacy","legacy","0","uniform","1","undefined","undefined","undefined","1","f","0","0","0","0","58","0","0","0","58","0","54","58","54","0","54","3","58","0","58","Fri Feb 19 12:13:53 2021","The main experiment item","yes","Lexical_Decision_Task.osexp","C:/Users/ErinS/Downloads","no","Andale Mono","no","18","no","white","no","yes","576","legacy","54","54","3","C:/Users/ErinS/Downloads/subject-5226210-lexical-decision-task.csv","legacy","Lentiform Loewenfeld","3.3.7","yes","yes","600bd7cfb6416f0113b04181","602110864497cf011d9c0822","0","f","NA","j","j","j","j","f","576","NA","1957","18724","4229","3546","576","2","legacy","1024","2","48000","-16","task","5226210","even","NA","36438","40397","38439","144017","5721","28678","24448","144518","133413","144015","144518","143956","40397","145094","34694","143456","5717","130144","Lexical Decision Task","58","39587","59","yes","1024"
"3.119255889","6.63","2","itch","word","98.33333333333333","98.33333333333333","668.9333333333333","668.9333333333333","black","no","legacy","legacy","legacy","0","uniform","1","undefined","undefined","undefined","1","j","0","0","0","0","59","0","0","0","59","0","55","59","55","0","55","3","59","0","59","Fri Feb 19 12:13:53 2021","The main experiment item","yes","Lexical_Decision_Task.osexp","C:/Users/ErinS/Downloads","no","Andale Mono","no","18","no","white","no","yes","576","legacy","55","55","3","C:/Users/ErinS/Downloads/subject-5226210-lexical-decision-task.csv","legacy","Lentiform Loewenfeld","3.3.7","yes","yes","600bd7cfb6416f0113b04181","602110864497cf011d9c0822","0","j","NA","j","j","j","j","j","549","NA","1957","18724","4229","3546","549","2","legacy","1024","2","48000","-16","task","5226210","even","NA","36438","40397","38439","145741","5721","28678","24448","146243","133413","145739","146243","145635","40397","146794","34694","145135","5717","130144","Lexical Decision Task","59","40136","60","yes","1024"
"2.821076612","0","4","lult","non-word","98.36065573770492","98.36065573770492","668.2786885245902","668.2786885245902","black","no","legacy","legacy","legacy","0","uniform","1","undefined","undefined","undefined","1","f","0","0","0","0","60","0","0","0","60","0","56","60","56","0","56","3","60","0","60","Fri Feb 19 12:13:53 2021","The main experiment item","yes","Lexical_Decision_Task.osexp","C:/Users/ErinS/Downloads","no","Andale Mono","no","18","no","white","no","yes","576","legacy","56","56","3","C:/Users/ErinS/Downloads/subject-5226210-lexical-decision-task.csv","legacy","Lentiform Loewenfeld","3.3.7","yes","yes","600bd7cfb6416f0113b04181","602110864497cf011d9c0822","0","f","NA","j","j","j","j","f","629","NA","1957","18724","4229","3546","629","2","legacy","1024","2","48000","-16","task","5226210","even","NA","36438","40397","38439","147411","5721","28678","24448","147913","133413","147410","147913","147320","40397","148543","34694","146819","5717","130144","Lexical Decision Task","60","40765","61","yes","1024"
"3.082307743","9.68","8","camp","word","98.38709677419355","98.38709677419355","666.6612903225806","666.6612903225806","black","no","legacy","legacy","legacy","0","uniform","1","undefined","undefined","undefined","1","j","0","0","0","0","61","0","0","0","61","0","57","61","57","0","57","3","61","0","61","Fri Feb 19 12:13:53 2021","The main experiment item","yes","Lexical_Decision_Task.osexp","C:/Users/ErinS/Downloads","no","Andale Mono","no","18","no","white","no","yes","576","legacy","57","57","3","C:/Users/ErinS/Downloads/subject-5226210-lexical-decision-task.csv","legacy","Lentiform Loewenfeld","3.3.7","yes","yes","600bd7cfb6416f0113b04181","602110864497cf011d9c0822","0","j","NA","j","j","j","j","j","568","NA","1957","18724","4229","3546","568","2","legacy","1024","2","48000","-16","task","5226210","even","NA","36438","40397","38439","149206","5721","28678","24448","149710","133413","149203","149711","149088","40397","150280","34694","148588","5717","130144","Lexical Decision Task","61","41333","62","yes","1024"
"2.708989954","9.28","9","bowl","word","98.41269841269842","98.41269841269842","665.2063492063492","665.2063492063492","black","no","legacy","legacy","legacy","0","uniform","1","undefined","undefined","undefined","1","j","0","0","0","0","62","0","0","0","62","0","58","62","58","0","58","3","62","0","62","Fri Feb 19 12:13:53 2021","The main experiment item","yes","Lexical_Decision_Task.osexp","C:/Users/ErinS/Downloads","no","Andale Mono","no","18","no","white","no","yes","576","legacy","58","58","3","C:/Users/ErinS/Downloads/subject-5226210-lexical-decision-task.csv","legacy","Lentiform Loewenfeld","3.3.7","yes","yes","600bd7cfb6416f0113b04181","602110864497cf011d9c0822","0","j","NA","j","j","j","j","j","575","NA","1957","18724","4229","3546","575","2","legacy","1024","2","48000","-16","task","5226210","even","NA","36438","40397","38439","150890","5721","28678","24448","151391","133413","150888","151392","150821","40397","151968","34694","150320","5717","130144","Lexical Decision Task","62","41908","63","yes","1024"
"2.695481676","0","7","goke","non-word","98.4375","98.4375","664.078125","664.078125","black","no","legacy","legacy","legacy","0","uniform","1","undefined","undefined","undefined","1","f","0","0","0","0","63","0","0","0","63","0","59","63","59","0","59","3","63","0","63","Fri Feb 19 12:13:53 2021","The main experiment item","yes","Lexical_Decision_Task.osexp","C:/Users/ErinS/Downloads","no","Andale Mono","no","18","no","white","no","yes","576","legacy","59","59","3","C:/Users/ErinS/Downloads/subject-5226210-lexical-decision-task.csv","legacy","Lentiform Loewenfeld","3.3.7","yes","yes","600bd7cfb6416f0113b04181","602110864497cf011d9c0822","0","f","NA","j","j","j","j","f","593","NA","1957","18724","4229","3546","593","2","legacy","1024","2","48000","-16","task","5226210","even","NA","36438","40397","38439","152605","5721","28678","24448","153109","133413","152603","153109","152508","40397","153703","34694","152008","5717","130144","Lexical Decision Task","63","42501","64","yes","1024"
"2.996511672","0","7","hoil","non-word","98.46153846153847","98.46153846153847","665.1846153846154","665.1846153846154","black","no","legacy","legacy","legacy","0","uniform","1","undefined","undefined","undefined","1","f","0","0","0","0","64","0","0","0","64","0","60","64","60","0","60","3","64","0","64","Fri Feb 19 12:13:53 2021","The main experiment item","yes","Lexical_Decision_Task.osexp","C:/Users/ErinS/Downloads","no","Andale Mono","no","18","no","white","no","yes","576","legacy","60","60","3","C:/Users/ErinS/Downloads/subject-5226210-lexical-decision-task.csv","legacy","Lentiform Loewenfeld","3.3.7","yes","yes","600bd7cfb6416f0113b04181","602110864497cf011d9c0822","0","f","NA","j","j","j","j","f","736","NA","1957","18724","4229","3546","736","2","legacy","1024","2","48000","-16","task","5226210","even","NA","36438","40397","38439","154395","5721","28678","24448","154897","133413","154393","154897","154320","40397","155633","34694","153820","5717","130144","Lexical Decision Task","64","43237","65","yes","1024"
"3.120025233","0","2","nyst","non-word","98.48484848484848","98.48484848484848","665.1818181818181","665.1818181818181","black","no","legacy","legacy","legacy","0","uniform","1","undefined","undefined","undefined","1","f","0","0","0","0","65","0","0","0","65","0","61","65","61","0","61","3","65","0","65","Fri Feb 19 12:13:53 2021","The main experiment item","yes","Lexical_Decision_Task.osexp","C:/Users/ErinS/Downloads","no","Andale Mono","no","18","no","white","no","yes","576","legacy","61","61","3","C:/Users/ErinS/Downloads/subject-5226210-lexical-decision-task.csv","legacy","Lentiform Loewenfeld","3.3.7","yes","yes","600bd7cfb6416f0113b04181","602110864497cf011d9c0822","0","f","NA","j","j","j","j","f","665","NA","1957","18724","4229","3546","665","2","legacy","1024","2","48000","-16","task","5226210","even","NA","36438","40397","38439","156265","5721","28678","24448","156767","133413","156262","156767","156176","40397","157433","34694","155676","5717","130144","Lexical Decision Task","65","43902","66","yes","1024"
"2.696356389","0","1","pizz","non-word","98.50746268656717","98.50746268656717","665.7611940298508","665.7611940298508","black","no","legacy","legacy","legacy","0","uniform","1","undefined","undefined","undefined","1","f","0","0","0","0","66","0","0","0","66","0","62","66","62","0","62","3","66","0","66","Fri Feb 19 12:13:53 2021","The main experiment item","yes","Lexical_Decision_Task.osexp","C:/Users/ErinS/Downloads","no","Andale Mono","no","18","no","white","no","yes","576","legacy","62","62","3","C:/Users/ErinS/Downloads/subject-5226210-lexical-decision-task.csv","legacy","Lentiform Loewenfeld","3.3.7","yes","yes","600bd7cfb6416f0113b04181","602110864497cf011d9c0822","0","f","NA","j","j","j","j","f","704","NA","1957","18724","4229","3546","704","2","legacy","1024","2","48000","-16","task","5226210","even","NA","36438","40397","38439","158083","5721","28678","24448","158585","133413","158081","158585","157986","40397","159290","34694","157486","5717","130144","Lexical Decision Task","66","44606","67","yes","1024"
"3.140404328","10.66","9","deep","word","98.52941176470588","98.52941176470588","664.3235294117648","664.3235294117648","black","no","legacy","legacy","legacy","0","uniform","1","undefined","undefined","undefined","1","j","0","0","0","0","67","0","0","0","67","0","63","67","63","0","63","3","67","0","67","Fri Feb 19 12:13:53 2021","The main experiment item","yes","Lexical_Decision_Task.osexp","C:/Users/ErinS/Downloads","no","Andale Mono","no","18","no","white","no","yes","576","legacy","63","63","3","C:/Users/ErinS/Downloads/subject-5226210-lexical-decision-task.csv","legacy","Lentiform Loewenfeld","3.3.7","yes","yes","600bd7cfb6416f0113b04181","602110864497cf011d9c0822","0","j","NA","j","j","j","j","j","568","NA","1957","18724","4229","3546","568","2","legacy","1024","2","48000","-16","task","5226210","even","NA","36438","40397","38439","159927","5721","28678","24448","160428","133413","159925","160428","159842","40397","160997","34694","159342","5717","130144","Lexical Decision Task","67","45174","68","yes","1024"
"2.875447132","0","9","jelt","non-word","98.55072463768116","98.55072463768116","663.3188405797101","663.3188405797101","black","no","legacy","legacy","legacy","0","uniform","1","undefined","undefined","undefined","1","f","0","0","0","0","68","0","0","0","68","0","64","68","64","0","64","3","68","0","68","Fri Feb 19 12:13:53 2021","The main experiment item","yes","Lexical_Decision_Task.osexp","C:/Users/ErinS/Downloads","no","Andale Mono","no","18","no","white","no","yes","576","legacy","64","64","3","C:/Users/ErinS/Downloads/subject-5226210-lexical-decision-task.csv","legacy","Lentiform Loewenfeld","3.3.7","yes","yes","600bd7cfb6416f0113b04181","602110864497cf011d9c0822","0","f","NA","j","j","j","j","f","595","NA","1957","18724","4229","3546","595","2","legacy","1024","2","48000","-16","task","5226210","even","NA","36438","40397","38439","161629","5721","28678","24448","162130","133413","161628","162131","161541","40397","162727","34694","161041","5717","130144","Lexical Decision Task","68","45769","69","yes","1024"
"2.845304797","0","6","buct","non-word","98.57142857142857","98.57142857142857","662.2142857142857","662.2142857142857","black","no","legacy","legacy","legacy","0","uniform","1","undefined","undefined","undefined","1","f","0","0","0","0","69","0","0","0","69","0","65","69","65","0","65","3","69","0","69","Fri Feb 19 12:13:53 2021","The main experiment item","yes","Lexical_Decision_Task.osexp","C:/Users/ErinS/Downloads","no","Andale Mono","no","18","no","white","no","yes","576","legacy","65","65","3","C:/Users/ErinS/Downloads/subject-5226210-lexical-decision-task.csv","legacy","Lentiform Loewenfeld","3.3.7","yes","yes","600bd7cfb6416f0113b04181","602110864497cf011d9c0822","0","f","NA","j","j","j","j","f","586","NA","1957","18724","4229","3546","586","2","legacy","1024","2","48000","-16","task","5226210","even","NA","36438","40397","38439","163379","5721","28678","24448","163880","133413","163377","163881","163264","40397","164468","34694","162764","5717","130144","Lexical Decision Task","69","46355","70","yes","1024"
"3.049218023","7.4","9","robe","word","98.59154929577464","98.59154929577464","660.6760563380282","660.6760563380282","black","no","legacy","legacy","legacy","0","uniform","1","undefined","undefined","undefined","1","j","0","0","0","0","70","0","0","0","70","0","66","70","66","0","66","3","70","0","70","Fri Feb 19 12:13:53 2021","The main experiment item","yes","Lexical_Decision_Task.osexp","C:/Users/ErinS/Downloads","no","Andale Mono","no","18","no","white","no","yes","576","legacy","66","66","3","C:/Users/ErinS/Downloads/subject-5226210-lexical-decision-task.csv","legacy","Lentiform Loewenfeld","3.3.7","yes","yes","600bd7cfb6416f0113b04181","602110864497cf011d9c0822","0","j","NA","j","j","j","j","j","553","NA","1957","18724","4229","3546","553","2","legacy","1024","2","48000","-16","task","5226210","even","NA","36438","40397","38439","165080","5721","28678","24448","165581","133413","165078","165581","164997","40397","166135","34694","164497","5717","130144","Lexical Decision Task","70","46908","71","yes","1024"
"2.858136002","0","4","phip","non-word","98.61111111111111","98.61111111111111","659.5","659.5","black","no","legacy","legacy","legacy","0","uniform","1","undefined","undefined","undefined","1","f","0","0","0","0","71","0","0","0","71","0","67","71","67","0","67","3","71","0","71","Fri Feb 19 12:13:53 2021","The main experiment item","yes","Lexical_Decision_Task.osexp","C:/Users/ErinS/Downloads","no","Andale Mono","no","18","no","white","no","yes","576","legacy","67","67","3","C:/Users/ErinS/Downloads/subject-5226210-lexical-decision-task.csv","legacy","Lentiform Loewenfeld","3.3.7","yes","yes","600bd7cfb6416f0113b04181","602110864497cf011d9c0822","0","f","NA","j","j","j","j","f","576","NA","1957","18724","4229","3546","576","2","legacy","1024","2","48000","-16","task","5226210","even","NA","36438","40397","38439","166777","5721","28678","24448","167278","133413","166775","167278","166697","40397","167856","34694","166197","5717","130144","Lexical Decision Task","71","47484","72","yes","1024"
"3.100255637","0","6","brax","non-word","98.63013698630137","98.63013698630137","657.6027397260274","657.6027397260274","black","no","legacy","legacy","legacy","0","uniform","1","undefined","undefined","undefined","1","f","0","0","0","0","72","0","0","0","72","0","68","72","68","0","68","3","72","0","72","Fri Feb 19 12:13:53 2021","The main experiment item","yes","Lexical_Decision_Task.osexp","C:/Users/ErinS/Downloads","no","Andale Mono","no","18","no","white","no","yes","576","legacy","68","68","3","C:/Users/ErinS/Downloads/subject-5226210-lexical-decision-task.csv","legacy","Lentiform Loewenfeld","3.3.7","yes","yes","600bd7cfb6416f0113b04181","602110864497cf011d9c0822","0","f","NA","j","j","j","j","f","521","NA","1957","18724","4229","3546","521","2","legacy","1024","2","48000","-16","task","5226210","even","NA","36438","40397","38439","168511","5721","28678","24448","169013","133413","168509","169013","168433","40397","169535","34694","167933","5717","130144","Lexical Decision Task","72","48005","73","yes","1024"
"2.884795364","0","6","flob","non-word","98.64864864864865","98.64864864864865","656.3243243243244","656.3243243243244","black","no","legacy","legacy","legacy","0","uniform","1","undefined","undefined","undefined","1","f","0","0","0","0","73","0","0","0","73","0","69","73","69","0","69","3","73","0","73","Fri Feb 19 12:13:53 2021","The main experiment item","yes","Lexical_Decision_Task.osexp","C:/Users/ErinS/Downloads","no","Andale Mono","no","18","no","white","no","yes","576","legacy","69","69","3","C:/Users/ErinS/Downloads/subject-5226210-lexical-decision-task.csv","legacy","Lentiform Loewenfeld","3.3.7","yes","yes","600bd7cfb6416f0113b04181","602110864497cf011d9c0822","0","f","NA","j","j","j","j","f","563","NA","1957","18724","4229","3546","563","2","legacy","1024","2","48000","-16","task","5226210","even","NA","36438","40397","38439","170145","5721","28678","24448","170646","133413","170143","170646","170064","40397","171210","34694","169564","5717","130144","Lexical Decision Task","73","48568","74","yes","1024"
"2.698100546","0","9","mulk","non-word","98.66666666666667","98.66666666666667","655.2133333333334","655.2133333333334","black","no","legacy","legacy","legacy","0","uniform","1","undefined","undefined","undefined","1","f","0","0","0","0","74","0","0","0","74","0","70","74","70","0","70","3","74","0","74","Fri Feb 19 12:13:53 2021","The main experiment item","yes","Lexical_Decision_Task.osexp","C:/Users/ErinS/Downloads","no","Andale Mono","no","18","no","white","no","yes","576","legacy","70","70","3","C:/Users/ErinS/Downloads/subject-5226210-lexical-decision-task.csv","legacy","Lentiform Loewenfeld","3.3.7","yes","yes","600bd7cfb6416f0113b04181","602110864497cf011d9c0822","0","f","NA","j","j","j","j","f","573","NA","1957","18724","4229","3546","573","2","legacy","1024","2","48000","-16","task","5226210","even","NA","36438","40397","38439","171901","5721","28678","24448","172403","133413","171899","172404","171764","40397","172978","34694","171264","5717","130144","Lexical Decision Task","74","49141","75","yes","1024"
"3.495914186","0","4","peng","non-word","97.36842105263158","97.36842105263158","658.4078947368421","658.4078947368421","black","no","legacy","legacy","legacy","0","uniform","0","undefined","undefined","undefined","0","f","0","0","0","0","75","0","0","0","75","0","71","75","71","0","71","3","75","0","75","Fri Feb 19 12:13:53 2021","The main experiment item","yes","Lexical_Decision_Task.osexp","C:/Users/ErinS/Downloads","no","Andale Mono","no","18","no","white","no","yes","576","legacy","71","71","3","C:/Users/ErinS/Downloads/subject-5226210-lexical-decision-task.csv","legacy","Lentiform Loewenfeld","3.3.7","yes","yes","600bd7cfb6416f0113b04181","602110864497cf011d9c0822","0","j","NA","j","j","j","j","j","898","NA","1957","18724","4229","3546","898","2","legacy","1024","2","48000","-16","task","5226210","even","NA","36438","40397","38439","173747","5721","28678","24448","174251","133413","173745","174251","173666","40397","175150","34694","173166","5717","130144","Lexical Decision Task","74","50039","76","yes","1024"
"2.893578687","8.69","3","surf","word","97.40259740259741","97.40259740259741","658.7792207792207","658.7792207792207","black","no","legacy","legacy","legacy","0","uniform","1","undefined","undefined","undefined","1","j","0","0","0","0","76","0","0","0","76","0","72","76","72","0","72","3","76","0","76","Fri Feb 19 12:13:53 2021","The main experiment item","yes","Lexical_Decision_Task.osexp","C:/Users/ErinS/Downloads","no","Andale Mono","no","18","no","white","no","yes","576","legacy","72","72","3","C:/Users/ErinS/Downloads/subject-5226210-lexical-decision-task.csv","legacy","Lentiform Loewenfeld","3.3.7","yes","yes","600bd7cfb6416f0113b04181","602110864497cf011d9c0822","0","j","NA","j","j","j","j","j","687","NA","1957","18724","4229","3546","687","2","legacy","1024","2","48000","-16","task","5226210","even","NA","36438","40397","38439","176776","5721","28678","24448","177278","133413","176774","177278","176688","40397","177966","34694","173166","5717","175187","Lexical Decision Task","75","50726","77","yes","1024"
"3.20996159","0","4","clee","non-word","97.43589743589743","97.43589743589743","656.9871794871794","656.9871794871794","black","no","legacy","legacy","legacy","0","uniform","1","undefined","undefined","undefined","1","f","0","0","0","0","77","0","0","0","77","0","73","77","73","0","73","3","77","0","77","Fri Feb 19 12:13:53 2021","The main experiment item","yes","Lexical_Decision_Task.osexp","C:/Users/ErinS/Downloads","no","Andale Mono","no","18","no","white","no","yes","576","legacy","73","73","3","C:/Users/ErinS/Downloads/subject-5226210-lexical-decision-task.csv","legacy","Lentiform Loewenfeld","3.3.7","yes","yes","600bd7cfb6416f0113b04181","602110864497cf011d9c0822","0","f","NA","j","j","j","j","f","519","NA","1957","18724","4229","3546","519","2","legacy","1024","2","48000","-16","task","5226210","even","NA","36438","40397","38439","178584","5721","28678","24448","179085","133413","178582","179085","178512","40397","179605","34694","178012","5717","175187","Lexical Decision Task","76","51245","78","yes","1024"
"3.492014979","0","9","yine","non-word","97.46835443037975","97.46835443037975","656.4810126582279","656.4810126582279","black","no","legacy","legacy","legacy","0","uniform","1","undefined","undefined","undefined","1","f","0","0","0","0","78","0","0","0","78","0","74","78","74","0","74","3","78","0","78","Fri Feb 19 12:13:53 2021","The main experiment item","yes","Lexical_Decision_Task.osexp","C:/Users/ErinS/Downloads","no","Andale Mono","no","18","no","white","no","yes","576","legacy","74","74","3","C:/Users/ErinS/Downloads/subject-5226210-lexical-decision-task.csv","legacy","Lentiform Loewenfeld","3.3.7","yes","yes","600bd7cfb6416f0113b04181","602110864497cf011d9c0822","0","f","NA","j","j","j","j","f","617","NA","1957","18724","4229","3546","617","2","legacy","1024","2","48000","-16","task","5226210","even","NA","36438","40397","38439","180298","5721","28678","24448","180802","133413","180296","180802","180132","40397","181420","34694","179632","5717","175187","Lexical Decision Task","77","51862","79","yes","1024"
"2.86332286","6.71","2","feud","word","97.5","97.5","656.475","656.475","black","no","legacy","legacy","legacy","0","uniform","1","undefined","undefined","undefined","1","j","0","0","0","0","79","0","0","0","79","0","75","79","75","0","75","3","79","0","79","Fri Feb 19 12:13:53 2021","The main experiment item","yes","Lexical_Decision_Task.osexp","C:/Users/ErinS/Downloads","no","Andale Mono","no","18","no","white","no","yes","576","legacy","75","75","3","C:/Users/ErinS/Downloads/subject-5226210-lexical-decision-task.csv","legacy","Lentiform Loewenfeld","3.3.7","yes","yes","600bd7cfb6416f0113b04181","602110864497cf011d9c0822","0","j","NA","j","j","j","j","j","656","NA","1957","18724","4229","3546","656","2","legacy","1024","2","48000","-16","task","5226210","even","NA","36438","40397","38439","182041","5721","28678","24448","182544","133413","182039","182544","181967","40397","183201","34694","181467","5717","175187","Lexical Decision Task","78","52518","80","yes","1024"
"2.812467698","0","7","hafe","non-word","97.53086419753086","97.53086419753086","655.7777777777778","655.7777777777778","black","no","legacy","legacy","legacy","0","uniform","1","undefined","undefined","undefined","1","f","0","0","0","0","80","0","0","0","80","0","76","80","76","0","76","3","80","0","80","Fri Feb 19 12:13:53 2021","The main experiment item","yes","Lexical_Decision_Task.osexp","C:/Users/ErinS/Downloads","no","Andale Mono","no","18","no","white","no","yes","576","legacy","76","76","3","C:/Users/ErinS/Downloads/subject-5226210-lexical-decision-task.csv","legacy","Lentiform Loewenfeld","3.3.7","yes","yes","600bd7cfb6416f0113b04181","602110864497cf011d9c0822","0","f","NA","j","j","j","j","f","600","NA","1957","18724","4229","3546","600","2","legacy","1024","2","48000","-16","task","5226210","even","NA","36438","40397","38439","183818","5721","28678","24448","184321","133413","183817","184321","183743","40397","184922","34694","183243","5717","175187","Lexical Decision Task","79","53118","81","yes","1024"
"2.937852093","0","7","bamp","non-word","97.5609756097561","97.5609756097561","656.8414634146342","656.8414634146342","black","no","legacy","legacy","legacy","0","uniform","1","undefined","undefined","undefined","1","f","0","0","0","0","81","0","0","0","81","0","77","81","77","0","77","3","81","0","81","Fri Feb 19 12:13:53 2021","The main experiment item","yes","Lexical_Decision_Task.osexp","C:/Users/ErinS/Downloads","no","Andale Mono","no","18","no","white","no","yes","576","legacy","77","77","3","C:/Users/ErinS/Downloads/subject-5226210-lexical-decision-task.csv","legacy","Lentiform Loewenfeld","3.3.7","yes","yes","600bd7cfb6416f0113b04181","602110864497cf011d9c0822","0","f","NA","j","j","j","j","f","743","NA","1957","18724","4229","3546","743","2","legacy","1024","2","48000","-16","task","5226210","even","NA","36438","40397","38439","185590","5721","28678","24448","186091","133413","185588","186091","185453","40397","186836","34694","184953","5717","175187","Lexical Decision Task","80","53861","82","yes","1024"
"3.194328374","9.42","6","harm","word","97.59036144578313","97.59036144578313","655.1204819277109","655.1204819277109","black","no","legacy","legacy","legacy","0","uniform","1","undefined","undefined","undefined","1","j","0","0","0","0","82","0","0","0","82","0","78","82","78","0","78","3","82","0","82","Fri Feb 19 12:13:53 2021","The main experiment item","yes","Lexical_Decision_Task.osexp","C:/Users/ErinS/Downloads","no","Andale Mono","no","18","no","white","no","yes","576","legacy","78","78","3","C:/Users/ErinS/Downloads/subject-5226210-lexical-decision-task.csv","legacy","Lentiform Loewenfeld","3.3.7","yes","yes","600bd7cfb6416f0113b04181","602110864497cf011d9c0822","0","j","NA","j","j","j","j","j","514","NA","1957","18724","4229","3546","514","2","legacy","1024","2","48000","-16","task","5226210","even","NA","36438","40397","38439","187477","5721","28678","24448","187978","133413","187475","187978","187408","40397","188494","34694","186908","5717","175187","Lexical Decision Task","81","54375","83","yes","1024"
"2.899638141","0","3","hapt","non-word","97.61904761904762","97.61904761904762","652.9047619047619","652.9047619047619","black","no","legacy","legacy","legacy","0","uniform","1","undefined","undefined","undefined","1","f","0","0","0","0","83","0","0","0","83","0","79","83","79","0","79","3","83","0","83","Fri Feb 19 12:13:53 2021","The main experiment item","yes","Lexical_Decision_Task.osexp","C:/Users/ErinS/Downloads","no","Andale Mono","no","18","no","white","no","yes","576","legacy","79","79","3","C:/Users/ErinS/Downloads/subject-5226210-lexical-decision-task.csv","legacy","Lentiform Loewenfeld","3.3.7","yes","yes","600bd7cfb6416f0113b04181","602110864497cf011d9c0822","0","f","NA","j","j","j","j","f","469","NA","1957","18724","4229","3546","469","2","legacy","1024","2","48000","-16","task","5226210","even","NA","36438","40397","38439","189142","5721","28678","24448","189643","133413","189140","189643","189076","40397","190113","34694","188576","5717","175187","Lexical Decision Task","82","54844","84","yes","1024"
"2.6599162","0","2","saff","non-word","97.6470588235294","97.6470588235294","651.2235294117647","651.2235294117647","black","no","legacy","legacy","legacy","0","uniform","1","undefined","undefined","undefined","1","f","0","0","0","0","84","0","0","0","84","0","80","84","80","0","80","3","84","0","84","Fri Feb 19 12:13:53 2021","The main experiment item","yes","Lexical_Decision_Task.osexp","C:/Users/ErinS/Downloads","no","Andale Mono","no","18","no","white","no","yes","576","legacy","80","80","3","C:/Users/ErinS/Downloads/subject-5226210-lexical-decision-task.csv","legacy","Lentiform Loewenfeld","3.3.7","yes","yes","600bd7cfb6416f0113b04181","602110864497cf011d9c0822","0","f","NA","j","j","j","j","f","510","NA","1957","18724","4229","3546","510","2","legacy","1024","2","48000","-16","task","5226210","even","NA","36438","40397","38439","190712","5721","28678","24448","191217","133413","190710","191218","190642","40397","191729","34694","190141","5717","175187","Lexical Decision Task","83","55354","85","yes","1024"
"2.69019608","9.01","2","myth","word","97.67441860465117","97.67441860465117","650.3372093023256","650.3372093023256","black","no","legacy","legacy","legacy","0","uniform","1","undefined","undefined","undefined","1","j","0","0","0","0","85","0","0","0","85","0","81","85","81","0","81","3","85","0","85","Fri Feb 19 12:13:53 2021","The main experiment item","yes","Lexical_Decision_Task.osexp","C:/Users/ErinS/Downloads","no","Andale Mono","no","18","no","white","no","yes","576","legacy","81","81","3","C:/Users/ErinS/Downloads/subject-5226210-lexical-decision-task.csv","legacy","Lentiform Loewenfeld","3.3.7","yes","yes","600bd7cfb6416f0113b04181","602110864497cf011d9c0822","0","j","NA","j","j","j","j","j","575","NA","1957","18724","4229","3546","575","2","legacy","1024","2","48000","-16","task","5226210","even","NA","36438","40397","38439","192426","5721","28678","24448","192927","133413","192424","192927","192309","40397","193504","34694","191809","5717","175187","Lexical Decision Task","84","55929","86","yes","1024"
"3.068433376","8.09","2","bulb","word","97.70114942528735","97.70114942528735","649.2988505747127","649.2988505747127","black","no","legacy","legacy","legacy","0","uniform","1","undefined","undefined","undefined","1","j","0","0","0","0","86","0","0","0","86","0","82","86","82","0","82","3","86","0","86","Fri Feb 19 12:13:53 2021","The main experiment item","yes","Lexical_Decision_Task.osexp","C:/Users/ErinS/Downloads","no","Andale Mono","no","18","no","white","no","yes","576","legacy","82","82","3","C:/Users/ErinS/Downloads/subject-5226210-lexical-decision-task.csv","legacy","Lentiform Loewenfeld","3.3.7","yes","yes","600bd7cfb6416f0113b04181","602110864497cf011d9c0822","0","j","NA","j","j","j","j","j","560","NA","1957","18724","4229","3546","560","2","legacy","1024","2","48000","-16","task","5226210","even","NA","36438","40397","38439","194124","5721","28678","24448","194625","133413","194123","194625","194053","40397","195186","34694","193553","5717","175187","Lexical Decision Task","85","56489","87","yes","1024"
"3.134602053","0","8","jart","non-word","97.72727272727273","97.72727272727273","648.6590909090909","648.6590909090909","black","no","legacy","legacy","legacy","0","uniform","1","undefined","undefined","undefined","1","f","0","0","0","0","87","0","0","0","87","0","83","87","83","0","83","3","87","0","87","Fri Feb 19 12:13:53 2021","The main experiment item","yes","Lexical_Decision_Task.osexp","C:/Users/ErinS/Downloads","no","Andale Mono","no","18","no","white","no","yes","576","legacy","83","83","3","C:/Users/ErinS/Downloads/subject-5226210-lexical-decision-task.csv","legacy","Lentiform Loewenfeld","3.3.7","yes","yes","600bd7cfb6416f0113b04181","602110864497cf011d9c0822","0","f","NA","j","j","j","j","f","593","NA","1957","18724","4229","3546","593","2","legacy","1024","2","48000","-16","task","5226210","even","NA","36438","40397","38439","195805","5721","28678","24448","196307","133413","195804","196307","195733","40397","196902","34694","195233","5717","175187","Lexical Decision Task","86","57082","88","yes","1024"
"3.15462682","0","6","noal","non-word","97.75280898876404","97.75280898876404","647.0786516853933","647.0786516853933","black","no","legacy","legacy","legacy","0","uniform","1","undefined","undefined","undefined","1","f","0","0","0","0","88","0","0","0","88","0","84","88","84","0","84","3","88","0","88","Fri Feb 19 12:13:53 2021","The main experiment item","yes","Lexical_Decision_Task.osexp","C:/Users/ErinS/Downloads","no","Andale Mono","no","18","no","white","no","yes","576","legacy","84","84","3","C:/Users/ErinS/Downloads/subject-5226210-lexical-decision-task.csv","legacy","Lentiform Loewenfeld","3.3.7","yes","yes","600bd7cfb6416f0113b04181","602110864497cf011d9c0822","0","f","NA","j","j","j","j","f","508","NA","1957","18724","4229","3546","508","2","legacy","1024","2","48000","-16","task","5226210","even","NA","36438","40397","38439","197576","5721","28678","24448","198078","133413","197574","198078","197467","40397","198587","34694","196967","5717","175187","Lexical Decision Task","87","57590","89","yes","1024"
"3.374137706","10.21","4","tree","word","97.77777777777777","97.77777777777777","645.0444444444445","645.0444444444445","black","no","legacy","legacy","legacy","0","uniform","1","undefined","undefined","undefined","1","j","0","0","0","0","89","0","0","0","89","0","85","89","85","0","85","3","89","0","89","Fri Feb 19 12:13:53 2021","The main experiment item","yes","Lexical_Decision_Task.osexp","C:/Users/ErinS/Downloads","no","Andale Mono","no","18","no","white","no","yes","576","legacy","85","85","3","C:/Users/ErinS/Downloads/subject-5226210-lexical-decision-task.csv","legacy","Lentiform Loewenfeld","3.3.7","yes","yes","600bd7cfb6416f0113b04181","602110864497cf011d9c0822","0","j","NA","j","j","j","j","j","464","NA","1957","18724","4229","3546","464","2","legacy","1024","2","48000","-16","task","5226210","even","NA","36438","40397","38439","199192","5721","28678","24448","199693","133413","199191","199693","199132","40397","200158","34694","198631","5717","175187","Lexical Decision Task","88","58054","90","yes","1024"
"3.159867847","5.98","5","brim","word","97.8021978021978","97.8021978021978","645.0879120879121","645.0879120879121","black","no","legacy","legacy","legacy","0","uniform","1","undefined","undefined","undefined","1","j","0","0","0","0","90","0","0","0","90","0","86","90","86","0","86","3","90","0","90","Fri Feb 19 12:13:53 2021","The main experiment item","yes","Lexical_Decision_Task.osexp","C:/Users/ErinS/Downloads","no","Andale Mono","no","18","no","white","no","yes","576","legacy","86","86","3","C:/Users/ErinS/Downloads/subject-5226210-lexical-decision-task.csv","legacy","Lentiform Loewenfeld","3.3.7","yes","yes","600bd7cfb6416f0113b04181","602110864497cf011d9c0822","0","j","NA","j","j","j","j","j","649","NA","1957","18724","4229","3546","649","2","legacy","1024","2","48000","-16","task","5226210","even","NA","36438","40397","38439","200770","5721","28678","24448","201275","133413","200768","201275","200697","40397","201925","34694","200197","5717","175187","Lexical Decision Task","89","58703","91","yes","1024"
"3.378276681","6.39","8","bran","word","97.82608695652173","97.82608695652173","646.9565217391304","646.9565217391304","black","no","legacy","legacy","legacy","0","uniform","1","undefined","undefined","undefined","1","j","0","0","0","0","91","0","0","0","91","0","87","91","87","0","87","3","91","0","91","Fri Feb 19 12:13:53 2021","The main experiment item","yes","Lexical_Decision_Task.osexp","C:/Users/ErinS/Downloads","no","Andale Mono","no","18","no","white","no","yes","576","legacy","87","87","3","C:/Users/ErinS/Downloads/subject-5226210-lexical-decision-task.csv","legacy","Lentiform Loewenfeld","3.3.7","yes","yes","600bd7cfb6416f0113b04181","602110864497cf011d9c0822","0","j","NA","j","j","j","j","j","817","NA","1957","18724","4229","3546","817","2","legacy","1024","2","48000","-16","task","5226210","even","NA","36438","40397","38439","202580","5721","28678","24448","203081","133413","202578","203081","202453","40397","203900","34694","201953","5717","175187","Lexical Decision Task","90","59520","92","yes","1024"
"3.090140555","5.81","8","pout","word","97.84946236559139","97.84946236559139","646.0752688172043","646.0752688172043","black","no","legacy","legacy","legacy","0","uniform","1","undefined","undefined","undefined","1","j","0","0","0","0","92","0","0","0","92","0","88","92","88","0","88","3","92","0","92","Fri Feb 19 12:13:53 2021","The main experiment item","yes","Lexical_Decision_Task.osexp","C:/Users/ErinS/Downloads","no","Andale Mono","no","18","no","white","no","yes","576","legacy","88","88","3","C:/Users/ErinS/Downloads/subject-5226210-lexical-decision-task.csv","legacy","Lentiform Loewenfeld","3.3.7","yes","yes","600bd7cfb6416f0113b04181","602110864497cf011d9c0822","0","j","NA","j","j","j","j","j","565","NA","1957","18724","4229","3546","565","2","legacy","1024","2","48000","-16","task","5226210","even","NA","36438","40397","38439","204561","5721","28678","24448","205062","133413","204559","205062","204443","40397","205628","34694","203943","5717","175187","Lexical Decision Task","91","60085","93","yes","1024"
"3.431095062","5.74","9","perk","word","97.87234042553192","97.87234042553192","644.3191489361702","644.3191489361702","black","no","legacy","legacy","legacy","0","uniform","1","undefined","undefined","undefined","1","j","0","0","0","0","93","0","0","0","93","0","89","93","89","0","89","3","93","0","93","Fri Feb 19 12:13:53 2021","The main experiment item","yes","Lexical_Decision_Task.osexp","C:/Users/ErinS/Downloads","no","Andale Mono","no","18","no","white","no","yes","576","legacy","89","89","3","C:/Users/ErinS/Downloads/subject-5226210-lexical-decision-task.csv","legacy","Lentiform Loewenfeld","3.3.7","yes","yes","600bd7cfb6416f0113b04181","602110864497cf011d9c0822","0","j","NA","j","j","j","j","j","481","NA","1957","18724","4229","3546","481","2","legacy","1024","2","48000","-16","task","5226210","even","NA","36438","40397","38439","206286","5721","28678","24448","206787","133413","206284","206787","206176","40397","207269","34694","205676","5717","175187","Lexical Decision Task","92","60566","94","yes","1024"
"2.698387659","6.66","7","skid","word","97.89473684210526","97.89473684210526","643.8","643.8","black","no","legacy","legacy","legacy","0","uniform","1","undefined","undefined","undefined","1","j","0","0","0","0","94","0","0","0","94","0","90","94","90","0","90","3","94","0","94","Fri Feb 19 12:13:53 2021","The main experiment item","yes","Lexical_Decision_Task.osexp","C:/Users/ErinS/Downloads","no","Andale Mono","no","18","no","white","no","yes","576","legacy","90","90","3","C:/Users/ErinS/Downloads/subject-5226210-lexical-decision-task.csv","legacy","Lentiform Loewenfeld","3.3.7","yes","yes","600bd7cfb6416f0113b04181","602110864497cf011d9c0822","0","j","NA","j","j","j","j","j","595","NA","1957","18724","4229","3546","595","2","legacy","1024","2","48000","-16","task","5226210","even","NA","36438","40397","38439","207869","5721","28678","24448","208371","133413","207868","208371","207798","40397","208967","34694","207298","5717","175187","Lexical Decision Task","93","61161","95","yes","1024"
"2.8162413","0","5","nusk","non-word","97.91666666666667","97.91666666666667","644.03125","644.03125","black","no","legacy","legacy","legacy","0","uniform","1","undefined","undefined","undefined","1","f","0","0","0","0","95","0","0","0","95","0","91","95","91","0","91","3","95","0","95","Fri Feb 19 12:13:53 2021","The main experiment item","yes","Lexical_Decision_Task.osexp","C:/Users/ErinS/Downloads","no","Andale Mono","no","18","no","white","no","yes","576","legacy","91","91","3","C:/Users/ErinS/Downloads/subject-5226210-lexical-decision-task.csv","legacy","Lentiform Loewenfeld","3.3.7","yes","yes","600bd7cfb6416f0113b04181","602110864497cf011d9c0822","0","f","NA","j","j","j","j","f","666","NA","1957","18724","4229","3546","666","2","legacy","1024","2","48000","-16","task","5226210","even","NA","36438","40397","38439","209624","5721","28678","24448","210125","133413","209622","210125","209542","40397","210793","34694","209042","5717","175187","Lexical Decision Task","94","61827","96","yes","1024"
"3.003891166","8.05","2","frog","word","96.90721649484536","96.90721649484536","642.4742268041238","642.4742268041238","black","no","legacy","legacy","legacy","0","uniform","0","undefined","undefined","undefined","0","j","0","0","0","0","96","0","0","0","96","0","92","96","92","0","92","3","96","0","96","Fri Feb 19 12:13:53 2021","The main experiment item","yes","Lexical_Decision_Task.osexp","C:/Users/ErinS/Downloads","no","Andale Mono","no","18","no","white","no","yes","576","legacy","92","92","3","C:/Users/ErinS/Downloads/subject-5226210-lexical-decision-task.csv","legacy","Lentiform Loewenfeld","3.3.7","yes","yes","600bd7cfb6416f0113b04181","602110864497cf011d9c0822","0","f","NA","j","j","j","j","f","493","NA","1957","18724","4229","3546","493","2","legacy","1024","2","48000","-16","task","5226210","even","NA","36438","40397","38439","211481","5721","28678","24448","211982","133413","211478","211982","211387","40397","212477","34694","210887","5717","175187","Lexical Decision Task","94","62320","97","yes","1024"
"3.374198258","0","8","vist","non-word","96.93877551020408","96.93877551020408","643.9387755102041","643.9387755102041","black","no","legacy","legacy","legacy","0","uniform","1","undefined","undefined","undefined","1","f","0","0","0","0","97","0","0","0","97","0","93","97","93","0","93","3","97","0","97","Fri Feb 19 12:13:53 2021","The main experiment item","yes","Lexical_Decision_Task.osexp","C:/Users/ErinS/Downloads","no","Andale Mono","no","18","no","white","no","yes","576","legacy","93","93","3","C:/Users/ErinS/Downloads/subject-5226210-lexical-decision-task.csv","legacy","Lentiform Loewenfeld","3.3.7","yes","yes","600bd7cfb6416f0113b04181","602110864497cf011d9c0822","0","f","NA","j","j","j","j","f","786","NA","1957","18724","4229","3546","786","2","legacy","1024","2","48000","-16","task","5226210","even","NA","36438","40397","38439","214086","5721","28678","24448","214587","133413","214084","214587","214012","40397","215375","34694","210887","5717","212512","Lexical Decision Task","95","63106","98","yes","1024"
"3.460446784","0","5","dess","non-word","96.96969696969697","96.96969696969697","643.2727272727273","643.2727272727273","black","no","legacy","legacy","legacy","0","uniform","1","undefined","undefined","undefined","1","f","0","0","0","0","98","0","0","0","98","0","94","98","94","0","94","3","98","0","98","Fri Feb 19 12:13:53 2021","The main experiment item","yes","Lexical_Decision_Task.osexp","C:/Users/ErinS/Downloads","no","Andale Mono","no","18","no","white","no","yes","576","legacy","94","94","3","C:/Users/ErinS/Downloads/subject-5226210-lexical-decision-task.csv","legacy","Lentiform Loewenfeld","3.3.7","yes","yes","600bd7cfb6416f0113b04181","602110864497cf011d9c0822","0","f","NA","j","j","j","j","f","578","NA","1957","18724","4229","3546","578","2","legacy","1024","2","48000","-16","task","5226210","even","NA","36438","40397","38439","215998","5721","28678","24448","216503","133413","215996","216503","215923","40397","217083","34694","215423","5717","212512","Lexical Decision Task","96","63684","99","yes","1024"
"2.986323777","10.85","8","ship","word","97","97","641.8","641.8","black","no","legacy","legacy","legacy","0","uniform","1","undefined","undefined","undefined","1","j","0","0","0","0","99","0","0","0","99","0","95","99","95","0","95","3","99","0","99","Fri Feb 19 12:13:53 2021","The main experiment item","yes","Lexical_Decision_Task.osexp","C:/Users/ErinS/Downloads","no","Andale Mono","no","18","no","white","no","yes","576","legacy","95","95","3","C:/Users/ErinS/Downloads/subject-5226210-lexical-decision-task.csv","legacy","Lentiform Loewenfeld","3.3.7","yes","yes","600bd7cfb6416f0113b04181","602110864497cf011d9c0822","0","j","NA","j","j","j","j","j","496","NA","1957","18724","4229","3546","496","2","legacy","1024","2","48000","-16","task","5226210","even","NA","36438","40397","38439","217696","5721","28678","24448","218197","133413","217694","218198","217621","40397","218696","34694","217121","5717","212512","Lexical Decision Task","97","64180","100","yes","1024"
"2.767650507","0","6","yolt","non-word","97.02970297029702","97.02970297029702","640.980198019802","640.980198019802","black","no","legacy","legacy","legacy","0","uniform","1","undefined","undefined","undefined","1","f","0","0","0","0","100","0","0","0","100","0","96","100","96","0","96","3","100","0","100","Fri Feb 19 12:13:53 2021","The main experiment item","yes","Lexical_Decision_Task.osexp","C:/Users/ErinS/Downloads","no","Andale Mono","no","18","no","white","no","yes","576","legacy","96","96","3","C:/Users/ErinS/Downloads/subject-5226210-lexical-decision-task.csv","legacy","Lentiform Loewenfeld","3.3.7","yes","yes","600bd7cfb6416f0113b04181","602110864497cf011d9c0822","0","f","NA","j","j","j","j","f","559","NA","1957","18724","4229","3546","559","2","legacy","1024","2","48000","-16","task","5226210","even","NA","36438","40397","38439","219380","5721","28678","24448","219882","133413","219379","219882","219287","40397","220442","34694","218787","5717","212512","Lexical Decision Task","98","64739","101","yes","1024"
