"Log_BG","Log_Freq_HAL","Ortho_N","Stimulus","Type","acc","accuracy","average_response_time","avg_rt","background","bidi","canvas_backend","clock_backend","color_backend","compensation","coordinates","correct","correct_Experimental_intro","correct_Introduction","correct_Practice_intro","correct_experimenter_kb","correct_response","count_End_Of_Experiment","count_End_Of_Practice","count_Experimental_Loop","count_Experimental_intro","count_Fixation","count_Introduction","count_Practice_Loop","count_Practice_intro","count_Stimulus","count_block_break_feedback","count_experimental_sequence","count_experimenter_kb","count_increment_trial_count","count_init_trial_count","count_logger","count_practice_sequence","count_right","count_task","count_wrong","datetime","description","disable_garbage_collection","experiment_file","experiment_path","font_bold","font_family","font_italic","font_size","font_underline","foreground","form_clicks","fullscreen","height","keyboard_backend","live_row","live_row_Experimental_Loop","live_row_Practice_Loop","logfile","mouse_backend","opensesame_codename","opensesame_version","osf_always_upload_data","osf_always_upload_experiment","osf_datanode_id","osf_id","repeat_cycle","response","response_End_Of_Experiment","response_Experimental_intro","response_Introduction","response_Practice_intro","response_block_break_feedback","response_experimenter_kb","response_time","response_time_End_Of_Experiment","response_time_Experimental_intro","response_time_Introduction","response_time_Practice_intro","response_time_block_break_feedback","response_time_experimenter_kb","round_decimals","sampler_backend","sound_buf_size","sound_channels","sound_freq","sound_sample_size","start","subject_nr","subject_parity","time_End_Of_Experiment","time_End_Of_Practice","time_Experimental_Loop","time_Experimental_intro","time_Fixation","time_Introduction","time_Practice_Loop","time_Practice_intro","time_Stimulus","time_block_break_feedback","time_experimental_sequence","time_experimenter_kb","time_increment_trial_count","time_init_trial_count","time_logger","time_practice_sequence","time_right","time_task","time_wrong","title","total_correct","total_response_time","total_responses","uniform_coordinates","width"
"2.594027722","9.08","8","skip","word","100","100","1320.2","1320.2","black","no","legacy","legacy","legacy","0","uniform","1","undefined","undefined","undefined","1","j","0","0","0","0","4","0","0","0","4","NA","0","4","0","0","0","3","4","0","4","Thu Feb 18 13:12:22 2021","The main experiment item","yes","Lexical_Decision_Task.osexp","C:/Users/csapu","no","Andale Mono","no","18","no","white","no","yes","576","legacy","0","0","3","C:/Users/csapu/Desktop/subject-5071747.csv","legacy","Lentiform Loewenfeld","3.3.7","yes","yes","600bd7cfb6416f0113b04181","602110864497cf011d9c0822","0","j","NA","space","space","space","NA","j","1003","NA","4882","17466","11424","NA","1003","2","legacy","1024","2","48000","-16","task","5071747","odd","NA","41781","48664","43782","48708","2961","31854","20429","49209","NA","48707","49209","NA","48664","50213","39753","41248","2958","NA","Lexical Decision Task","5","6601","5","yes","1024"
"3.159867847","5.98","5","brim","word","83.33333333333333","83.33333333333333","1246.8333333333333","1246.8333333333333","black","no","legacy","legacy","legacy","0","uniform","0","undefined","undefined","undefined","0","j","0","0","0","0","5","0","0","0","5","NA","1","5","1","0","1","3","5","0","5","Thu Feb 18 13:12:22 2021","The main experiment item","yes","Lexical_Decision_Task.osexp","C:/Users/csapu","no","Andale Mono","no","18","no","white","no","yes","576","legacy","1","1","3","C:/Users/csapu/Desktop/subject-5071747.csv","legacy","Lentiform Loewenfeld","3.3.7","yes","yes","600bd7cfb6416f0113b04181","602110864497cf011d9c0822","0","f","NA","space","space","space","NA","f","880","NA","4882","17466","11424","NA","880","2","legacy","1024","2","48000","-16","task","5071747","odd","NA","41781","48664","43782","50799","2961","31854","20429","51300","NA","50798","51300","50719","48664","52181","39753","50219","2958","NA","Lexical Decision Task","5","7481","6","yes","1024"
"2.695770526","7.34","6","pawn","word","85.71428571428571","85.71428571428571","1173.142857142857","1173.142857142857","black","no","legacy","legacy","legacy","0","uniform","1","undefined","undefined","undefined","1","j","0","0","0","0","6","0","0","0","6","NA","2","6","2","0","2","3","6","0","6","Thu Feb 18 13:12:22 2021","The main experiment item","yes","Lexical_Decision_Task.osexp","C:/Users/csapu","no","Andale Mono","no","18","no","white","no","yes","576","legacy","2","2","3","C:/Users/csapu/Desktop/subject-5071747.csv","legacy","Lentiform Loewenfeld","3.3.7","yes","yes","600bd7cfb6416f0113b04181","602110864497cf011d9c0822","0","j","NA","space","space","space","NA","j","731","NA","4882","17466","11424","NA","731","2","legacy","1024","2","48000","-16","task","5071747","odd","NA","41781","48664","43782","53757","2961","31854","20429","54259","NA","53755","54259","53686","48664","54991","39753","50219","2958","52185","Lexical Decision Task","6","8212","7","yes","1024"
"3.197740804","6.74","3","ache","word","87.5","87.5","1117.125","1117.125","black","no","legacy","legacy","legacy","0","uniform","1","undefined","undefined","undefined","1","j","0","0","0","0","7","0","0","0","7","NA","3","7","3","0","3","3","7","0","7","Thu Feb 18 13:12:22 2021","The main experiment item","yes","Lexical_Decision_Task.osexp","C:/Users/csapu","no","Andale Mono","no","18","no","white","no","yes","576","legacy","3","3","3","C:/Users/csapu/Desktop/subject-5071747.csv","legacy","Lentiform Loewenfeld","3.3.7","yes","yes","600bd7cfb6416f0113b04181","602110864497cf011d9c0822","0","j","NA","space","space","space","NA","j","725","NA","4882","17466","11424","NA","725","2","legacy","1024","2","48000","-16","task","5071747","odd","NA","41781","48664","43782","55565","2961","31854","20429","56066","NA","55564","56066","55494","48664","56791","39753","54994","2958","52185","Lexical Decision Task","7","8937","8","yes","1024"
"3.216517684","10.87","3","film","word","88.88888888888889","88.88888888888889","1061.111111111111","1061.111111111111","black","no","legacy","legacy","legacy","0","uniform","1","undefined","undefined","undefined","1","j","0","0","0","0","8","0","0","0","8","NA","4","8","4","0","4","3","8","0","8","Thu Feb 18 13:12:22 2021","The main experiment item","yes","Lexical_Decision_Task.osexp","C:/Users/csapu","no","Andale Mono","no","18","no","white","no","yes","576","legacy","4","4","3","C:/Users/csapu/Desktop/subject-5071747.csv","legacy","Lentiform Loewenfeld","3.3.7","yes","yes","600bd7cfb6416f0113b04181","602110864497cf011d9c0822","0","j","NA","space","space","space","NA","j","613","NA","4882","17466","11424","NA","613","2","legacy","1024","2","48000","-16","task","5071747","odd","NA","41781","48664","43782","57368","2961","31854","20429","57869","NA","57367","57869","57297","48664","58483","39753","56796","2958","52185","Lexical Decision Task","8","9550","9","yes","1024"
"3.347850856","10.51","2","rich","word","90","90","1012.6","1012.6","black","no","legacy","legacy","legacy","0","uniform","1","undefined","undefined","undefined","1","j","0","0","0","0","9","0","0","0","9","NA","5","9","5","0","5","3","9","0","9","Thu Feb 18 13:12:22 2021","The main experiment item","yes","Lexical_Decision_Task.osexp","C:/Users/csapu","no","Andale Mono","no","18","no","white","no","yes","576","legacy","5","5","3","C:/Users/csapu/Desktop/subject-5071747.csv","legacy","Lentiform Loewenfeld","3.3.7","yes","yes","600bd7cfb6416f0113b04181","602110864497cf011d9c0822","0","j","NA","space","space","space","NA","j","576","NA","4882","17466","11424","NA","576","2","legacy","1024","2","48000","-16","task","5071747","odd","NA","41781","48664","43782","59057","2961","31854","20429","59558","NA","59056","59558","58987","48664","60135","39753","58487","2958","52185","Lexical Decision Task","9","10126","10","yes","1024"
"3.039414119","0","9","meep","non-word","90.9090909090909","90.9090909090909","999.2727272727273","999.2727272727273","black","no","legacy","legacy","legacy","0","uniform","1","undefined","undefined","undefined","1","f","0","0","0","0","10","0","0","0","10","NA","6","10","6","0","6","3","10","0","10","Thu Feb 18 13:12:22 2021","The main experiment item","yes","Lexical_Decision_Task.osexp","C:/Users/csapu","no","Andale Mono","no","18","no","white","no","yes","576","legacy","6","6","3","C:/Users/csapu/Desktop/subject-5071747.csv","legacy","Lentiform Loewenfeld","3.3.7","yes","yes","600bd7cfb6416f0113b04181","602110864497cf011d9c0822","0","f","NA","space","space","space","NA","f","866","NA","4882","17466","11424","NA","866","2","legacy","1024","2","48000","-16","task","5071747","odd","NA","41781","48664","43782","60707","2961","31854","20429","61208","NA","60706","61208","60639","48664","62074","39753","60139","2958","52185","Lexical Decision Task","10","10992","11","yes","1024"
"3.010582609","0","2","drod","non-word","83.33333333333333","83.33333333333333","1035.5833333333333","1035.5833333333333","black","no","legacy","legacy","legacy","0","uniform","0","undefined","undefined","undefined","0","f","0","0","0","0","11","0","0","0","11","NA","7","11","7","0","7","3","11","0","11","Thu Feb 18 13:12:22 2021","The main experiment item","yes","Lexical_Decision_Task.osexp","C:/Users/csapu","no","Andale Mono","no","18","no","white","no","yes","576","legacy","7","7","3","C:/Users/csapu/Desktop/subject-5071747.csv","legacy","Lentiform Loewenfeld","3.3.7","yes","yes","600bd7cfb6416f0113b04181","602110864497cf011d9c0822","0","j","NA","space","space","space","NA","j","1435","NA","4882","17466","11424","NA","1435","2","legacy","1024","2","48000","-16","task","5071747","odd","NA","41781","48664","43782","62650","2961","31854","20429","63151","NA","62649","63151","62577","48664","64587","39753","62077","2958","52185","Lexical Decision Task","10","12427","12","yes","1024"
"3.076883066","0","8","mout","non-word","76.92307692307692","76.92307692307692","1089","1089","black","no","legacy","legacy","legacy","0","uniform","0","undefined","undefined","undefined","0","f","0","0","0","0","12","0","0","0","12","NA","8","12","8","0","8","3","12","0","12","Thu Feb 18 13:12:22 2021","The main experiment item","yes","Lexical_Decision_Task.osexp","C:/Users/csapu","no","Andale Mono","no","18","no","white","no","yes","576","legacy","8","8","3","C:/Users/csapu/Desktop/subject-5071747.csv","legacy","Lentiform Loewenfeld","3.3.7","yes","yes","600bd7cfb6416f0113b04181","602110864497cf011d9c0822","0","j","NA","space","space","space","NA","j","1730","NA","4882","17466","11424","NA","1730","2","legacy","1024","2","48000","-16","task","5071747","odd","NA","41781","48664","43782","66160","2961","31854","20429","66661","NA","66159","66661","66091","48664","68391","39753","62077","2958","64591","Lexical Decision Task","10","14157","13","yes","1024"
"3.282244367","0","6","fute","non-word","71.42857142857143","71.42857142857143","1089.7142857142858","1089.7142857142858","black","no","legacy","legacy","legacy","0","uniform","0","undefined","undefined","undefined","0","f","0","0","0","0","13","0","0","0","13","NA","9","13","9","0","9","3","13","0","13","Thu Feb 18 13:12:22 2021","The main experiment item","yes","Lexical_Decision_Task.osexp","C:/Users/csapu","no","Andale Mono","no","18","no","white","no","yes","576","legacy","9","9","3","C:/Users/csapu/Desktop/subject-5071747.csv","legacy","Lentiform Loewenfeld","3.3.7","yes","yes","600bd7cfb6416f0113b04181","602110864497cf011d9c0822","0","j","NA","space","space","space","NA","j","1099","NA","4882","17466","11424","NA","1099","2","legacy","1024","2","48000","-16","task","5071747","odd","NA","41781","48664","43782","69963","2961","31854","20429","70464","NA","69962","70464","69896","48664","71564","39753","62077","2958","68396","Lexical Decision Task","10","15256","14","yes","1024"
"3.031812271","6.52","3","gulp","word","73.33333333333333","73.33333333333333","1168.9333333333334","1168.9333333333334","black","no","legacy","legacy","legacy","0","uniform","1","undefined","undefined","undefined","1","j","0","0","0","0","14","0","0","0","14","NA","10","14","10","0","10","3","14","0","14","Thu Feb 18 13:12:22 2021","The main experiment item","yes","Lexical_Decision_Task.osexp","C:/Users/csapu","no","Andale Mono","no","18","no","white","no","yes","576","legacy","10","10","3","C:/Users/csapu/Desktop/subject-5071747.csv","legacy","Lentiform Loewenfeld","3.3.7","yes","yes","600bd7cfb6416f0113b04181","602110864497cf011d9c0822","0","j","NA","space","space","space","NA","j","2278","NA","4882","17466","11424","NA","2278","2","legacy","1024","2","48000","-16","task","5071747","odd","NA","41781","48664","43782","73137","2961","31854","20429","73638","NA","73136","73638","73069","48664","75917","39753","62077","2958","71569","Lexical Decision Task","11","17534","15","yes","1024"
"2.86332286","6.71","2","feud","word","68.75","68.75","1202.125","1202.125","black","no","legacy","legacy","legacy","0","uniform","0","undefined","undefined","undefined","0","j","0","0","0","0","15","0","0","0","15","NA","11","15","11","0","11","3","15","0","15","Thu Feb 18 13:12:22 2021","The main experiment item","yes","Lexical_Decision_Task.osexp","C:/Users/csapu","no","Andale Mono","no","18","no","white","no","yes","576","legacy","11","11","3","C:/Users/csapu/Desktop/subject-5071747.csv","legacy","Lentiform Loewenfeld","3.3.7","yes","yes","600bd7cfb6416f0113b04181","602110864497cf011d9c0822","0","f","NA","space","space","space","NA","f","1700","NA","4882","17466","11424","NA","1700","2","legacy","1024","2","48000","-16","task","5071747","odd","NA","41781","48664","43782","76489","2961","31854","20429","76990","NA","76487","76990","76421","48664","78691","39753","75921","2958","71569","Lexical Decision Task","11","19234","16","yes","1024"
"3.105055783","0","2","norp","non-word","64.70588235294117","64.70588235294117","1272.764705882353","1272.764705882353","black","no","legacy","legacy","legacy","0","uniform","0","undefined","undefined","undefined","0","f","0","0","0","0","16","0","0","0","16","NA","12","16","12","0","12","3","16","0","16","Thu Feb 18 13:12:22 2021","The main experiment item","yes","Lexical_Decision_Task.osexp","C:/Users/csapu","no","Andale Mono","no","18","no","white","no","yes","576","legacy","12","12","3","C:/Users/csapu/Desktop/subject-5071747.csv","legacy","Lentiform Loewenfeld","3.3.7","yes","yes","600bd7cfb6416f0113b04181","602110864497cf011d9c0822","0","j","NA","space","space","space","NA","j","2403","NA","4882","17466","11424","NA","2403","2","legacy","1024","2","48000","-16","task","5071747","odd","NA","41781","48664","43782","80268","2961","31854","20429","80769","NA","80267","80769","80195","48664","83173","39753","75921","2958","78695","Lexical Decision Task","11","21637","17","yes","1024"
"3.2757719","0","5","slea","non-word","66.66666666666667","66.66666666666667","1344.9444444444443","1344.9444444444443","black","no","legacy","legacy","legacy","0","uniform","1","undefined","undefined","undefined","1","f","0","0","0","0","17","0","0","0","17","NA","13","17","13","0","13","3","17","0","17","Thu Feb 18 13:12:22 2021","The main experiment item","yes","Lexical_Decision_Task.osexp","C:/Users/csapu","no","Andale Mono","no","18","no","white","no","yes","576","legacy","13","13","3","C:/Users/csapu/Desktop/subject-5071747.csv","legacy","Lentiform Loewenfeld","3.3.7","yes","yes","600bd7cfb6416f0113b04181","602110864497cf011d9c0822","0","f","NA","space","space","space","NA","f","2572","NA","4882","17466","11424","NA","2572","2","legacy","1024","2","48000","-16","task","5071747","odd","NA","41781","48664","43782","84752","2961","31854","20429","85253","NA","84750","85253","84678","48664","87825","39753","75921","2958","83178","Lexical Decision Task","12","24209","18","yes","1024"
"3.302475237","0","7","leel","non-word","63.1578947368421","63.1578947368421","1368.7894736842106","1368.7894736842106","black","no","legacy","legacy","legacy","0","uniform","0","undefined","undefined","undefined","0","f","0","0","0","0","18","0","0","0","18","NA","14","18","14","0","14","3","18","0","18","Thu Feb 18 13:12:22 2021","The main experiment item","yes","Lexical_Decision_Task.osexp","C:/Users/csapu","no","Andale Mono","no","18","no","white","no","yes","576","legacy","14","14","3","C:/Users/csapu/Desktop/subject-5071747.csv","legacy","Lentiform Loewenfeld","3.3.7","yes","yes","600bd7cfb6416f0113b04181","602110864497cf011d9c0822","0","j","NA","space","space","space","NA","j","1798","NA","4882","17466","11424","NA","1798","2","legacy","1024","2","48000","-16","task","5071747","odd","NA","41781","48664","43782","88403","2961","31854","20429","88904","NA","88401","88904","88329","48664","90702","39753","87829","2958","83178","Lexical Decision Task","12","26007","19","yes","1024"
"2.746890964","9.67","3","plug","word","65","65","1351.6","1351.6","black","no","legacy","legacy","legacy","0","uniform","1","undefined","undefined","undefined","1","j","0","0","0","0","19","0","0","0","19","NA","15","19","15","0","15","3","19","0","19","Thu Feb 18 13:12:22 2021","The main experiment item","yes","Lexical_Decision_Task.osexp","C:/Users/csapu","no","Andale Mono","no","18","no","white","no","yes","576","legacy","15","15","3","C:/Users/csapu/Desktop/subject-5071747.csv","legacy","Lentiform Loewenfeld","3.3.7","yes","yes","600bd7cfb6416f0113b04181","602110864497cf011d9c0822","0","j","NA","space","space","space","NA","j","1025","NA","4882","17466","11424","NA","1025","2","legacy","1024","2","48000","-16","task","5071747","odd","NA","41781","48664","43782","92275","2961","31854","20429","92776","NA","92273","92776","92206","48664","93802","39753","87829","2958","90706","Lexical Decision Task","13","27032","20","yes","1024"
"2.69019608","9.01","2","myth","word","66.66666666666667","66.66666666666667","1327.904761904762","1327.904761904762","black","no","legacy","legacy","legacy","0","uniform","1","undefined","undefined","undefined","1","j","0","0","0","0","20","0","0","0","20","NA","16","20","16","0","16","3","20","0","20","Thu Feb 18 13:12:22 2021","The main experiment item","yes","Lexical_Decision_Task.osexp","C:/Users/csapu","no","Andale Mono","no","18","no","white","no","yes","576","legacy","16","16","3","C:/Users/csapu/Desktop/subject-5071747.csv","legacy","Lentiform Loewenfeld","3.3.7","yes","yes","600bd7cfb6416f0113b04181","602110864497cf011d9c0822","0","j","NA","space","space","space","NA","j","854","NA","4882","17466","11424","NA","854","2","legacy","1024","2","48000","-16","task","5071747","odd","NA","41781","48664","43782","94381","2961","31854","20429","94883","NA","94380","94883","94306","48664","95738","39753","93806","2958","90706","Lexical Decision Task","14","27886","21","yes","1024"
"3.440331212","7.35","6","stew","word","68.18181818181819","68.18181818181819","1313.090909090909","1313.090909090909","black","no","legacy","legacy","legacy","0","uniform","1","undefined","undefined","undefined","1","j","0","0","0","0","21","0","0","0","21","NA","17","21","17","0","17","3","21","0","21","Thu Feb 18 13:12:22 2021","The main experiment item","yes","Lexical_Decision_Task.osexp","C:/Users/csapu","no","Andale Mono","no","18","no","white","no","yes","576","legacy","17","17","3","C:/Users/csapu/Desktop/subject-5071747.csv","legacy","Lentiform Loewenfeld","3.3.7","yes","yes","600bd7cfb6416f0113b04181","602110864497cf011d9c0822","0","j","NA","space","space","space","NA","j","1002","NA","4882","17466","11424","NA","1002","2","legacy","1024","2","48000","-16","task","5071747","odd","NA","41781","48664","43782","96310","2961","31854","20429","96811","NA","96308","96811","96242","48664","97814","39753","95742","2958","90706","Lexical Decision Task","15","28888","22","yes","1024"
"3.064581521","5.51","6","cask","word","65.21739130434783","65.21739130434783","1314.9565217391305","1314.9565217391305","black","no","legacy","legacy","legacy","0","uniform","0","undefined","undefined","undefined","0","j","0","0","0","0","22","0","0","0","22","NA","18","22","18","0","18","3","22","0","22","Thu Feb 18 13:12:22 2021","The main experiment item","yes","Lexical_Decision_Task.osexp","C:/Users/csapu","no","Andale Mono","no","18","no","white","no","yes","576","legacy","18","18","3","C:/Users/csapu/Desktop/subject-5071747.csv","legacy","Lentiform Loewenfeld","3.3.7","yes","yes","600bd7cfb6416f0113b04181","602110864497cf011d9c0822","0","f","NA","space","space","space","NA","f","1356","NA","4882","17466","11424","NA","1356","2","legacy","1024","2","48000","-16","task","5071747","odd","NA","41781","48664","43782","98389","2961","31854","20429","98890","NA","98387","98890","98317","48664","100246","39753","97817","2958","90706","Lexical Decision Task","15","30244","23","yes","1024"
"3.134602053","0","8","jart","non-word","66.66666666666667","66.66666666666667","1310.5833333333333","1310.5833333333333","black","no","legacy","legacy","legacy","0","uniform","1","undefined","undefined","undefined","1","f","0","0","0","0","23","0","0","0","23","NA","19","23","19","0","19","3","23","0","23","Thu Feb 18 13:12:22 2021","The main experiment item","yes","Lexical_Decision_Task.osexp","C:/Users/csapu","no","Andale Mono","no","18","no","white","no","yes","576","legacy","19","19","3","C:/Users/csapu/Desktop/subject-5071747.csv","legacy","Lentiform Loewenfeld","3.3.7","yes","yes","600bd7cfb6416f0113b04181","602110864497cf011d9c0822","0","f","NA","space","space","space","NA","f","1210","NA","4882","17466","11424","NA","1210","2","legacy","1024","2","48000","-16","task","5071747","odd","NA","41781","48664","43782","101819","2961","31854","20429","102321","NA","101818","102321","101750","48664","103532","39753","97817","2958","100250","Lexical Decision Task","16","31454","24","yes","1024"
"2.784379519","0","2","snaf","non-word","68","68","1308.8","1308.8","black","no","legacy","legacy","legacy","0","uniform","1","undefined","undefined","undefined","1","f","0","0","0","0","24","0","0","0","24","NA","20","24","20","0","20","3","24","0","24","Thu Feb 18 13:12:22 2021","The main experiment item","yes","Lexical_Decision_Task.osexp","C:/Users/csapu","no","Andale Mono","no","18","no","white","no","yes","576","legacy","20","20","3","C:/Users/csapu/Desktop/subject-5071747.csv","legacy","Lentiform Loewenfeld","3.3.7","yes","yes","600bd7cfb6416f0113b04181","602110864497cf011d9c0822","0","f","NA","space","space","space","NA","f","1266","NA","4882","17466","11424","NA","1266","2","legacy","1024","2","48000","-16","task","5071747","odd","NA","41781","48664","43782","104109","2961","31854","20429","104611","NA","104108","104611","104037","48664","105878","39753","103537","2958","100250","Lexical Decision Task","17","32720","25","yes","1024"
"3.274157849","0","8","leet","non-word","65.38461538461539","65.38461538461539","1323","1323","black","no","legacy","legacy","legacy","0","uniform","0","undefined","undefined","undefined","0","f","0","0","0","0","25","0","0","0","25","NA","21","25","21","0","21","3","25","0","25","Thu Feb 18 13:12:22 2021","The main experiment item","yes","Lexical_Decision_Task.osexp","C:/Users/csapu","no","Andale Mono","no","18","no","white","no","yes","576","legacy","21","21","3","C:/Users/csapu/Desktop/subject-5071747.csv","legacy","Lentiform Loewenfeld","3.3.7","yes","yes","600bd7cfb6416f0113b04181","602110864497cf011d9c0822","0","j","NA","space","space","space","NA","j","1678","NA","4882","17466","11424","NA","1678","2","legacy","1024","2","48000","-16","task","5071747","odd","NA","41781","48664","43782","106454","2961","31854","20429","106955","NA","106453","106955","106382","48664","108634","39753","105882","2958","100250","Lexical Decision Task","17","34398","26","yes","1024"
"3.137775856","7.39","5","comb","word","66.66666666666667","66.66666666666667","1313","1313","black","no","legacy","legacy","legacy","0","uniform","1","undefined","undefined","undefined","1","j","0","0","0","0","26","0","0","0","26","NA","22","26","22","0","22","3","26","0","26","Thu Feb 18 13:12:22 2021","The main experiment item","yes","Lexical_Decision_Task.osexp","C:/Users/csapu","no","Andale Mono","no","18","no","white","no","yes","576","legacy","22","22","3","C:/Users/csapu/Desktop/subject-5071747.csv","legacy","Lentiform Loewenfeld","3.3.7","yes","yes","600bd7cfb6416f0113b04181","602110864497cf011d9c0822","0","j","NA","space","space","space","NA","j","1053","NA","4882","17466","11424","NA","1053","2","legacy","1024","2","48000","-16","task","5071747","odd","NA","41781","48664","43782","110207","2961","31854","20429","110708","NA","110206","110708","110138","48664","111762","39753","105882","2958","108638","Lexical Decision Task","18","35451","27","yes","1024"
"2.6599162","0","6","flug","non-word","64.28571428571429","64.28571428571429","1333.9642857142858","1333.9642857142858","black","no","legacy","legacy","legacy","0","uniform","0","undefined","undefined","undefined","0","f","0","0","0","0","27","0","0","0","27","NA","23","27","23","0","23","3","27","0","27","Thu Feb 18 13:12:22 2021","The main experiment item","yes","Lexical_Decision_Task.osexp","C:/Users/csapu","no","Andale Mono","no","18","no","white","no","yes","576","legacy","23","23","3","C:/Users/csapu/Desktop/subject-5071747.csv","legacy","Lentiform Loewenfeld","3.3.7","yes","yes","600bd7cfb6416f0113b04181","602110864497cf011d9c0822","0","j","NA","space","space","space","NA","j","1900","NA","4882","17466","11424","NA","1900","2","legacy","1024","2","48000","-16","task","5071747","odd","NA","41781","48664","43782","112335","2961","31854","20429","112836","NA","112334","112836","112266","48664","114736","39753","111766","2958","108638","Lexical Decision Task","18","37351","28","yes","1024"
"3.488597715","0","9","nain","non-word","65.51724137931035","65.51724137931035","1376.3103448275863","1376.3103448275863","black","no","legacy","legacy","legacy","0","uniform","1","undefined","undefined","undefined","1","f","0","0","0","0","28","0","0","0","28","NA","24","28","24","0","24","3","28","0","28","Thu Feb 18 13:12:22 2021","The main experiment item","yes","Lexical_Decision_Task.osexp","C:/Users/csapu","no","Andale Mono","no","18","no","white","no","yes","576","legacy","24","24","3","C:/Users/csapu/Desktop/subject-5071747.csv","legacy","Lentiform Loewenfeld","3.3.7","yes","yes","600bd7cfb6416f0113b04181","602110864497cf011d9c0822","0","f","NA","space","space","space","NA","f","2562","NA","4882","17466","11424","NA","2562","2","legacy","1024","2","48000","-16","task","5071747","odd","NA","41781","48664","43782","116310","2961","31854","20429","116811","NA","116309","116811","116242","48664","119373","39753","111766","2958","114742","Lexical Decision Task","19","39913","29","yes","1024"
"2.838639236","0","4","furg","non-word","63.333333333333336","63.333333333333336","1430.4333333333334","1430.4333333333334","black","no","legacy","legacy","legacy","0","uniform","0","undefined","undefined","undefined","0","f","0","0","0","0","29","0","0","0","29","NA","25","29","25","0","25","3","29","0","29","Thu Feb 18 13:12:22 2021","The main experiment item","yes","Lexical_Decision_Task.osexp","C:/Users/csapu","no","Andale Mono","no","18","no","white","no","yes","576","legacy","25","25","3","C:/Users/csapu/Desktop/subject-5071747.csv","legacy","Lentiform Loewenfeld","3.3.7","yes","yes","600bd7cfb6416f0113b04181","602110864497cf011d9c0822","0","None","NA","space","space","space","NA","None","3000","NA","4882","17466","11424","NA","3000","2","legacy","1024","2","48000","-16","task","5071747","odd","NA","41781","48664","43782","119947","2961","31854","20429","120448","NA","119946","120448","119877","48664","123448","39753","119377","2958","114742","Lexical Decision Task","19","42913","30","yes","1024"
"3.259832699","0","9","flar","non-word","64.51612903225806","64.51612903225806","1442.0645161290322","1442.0645161290322","black","no","legacy","legacy","legacy","0","uniform","1","undefined","undefined","undefined","1","f","0","0","0","0","30","0","0","0","30","NA","26","30","26","0","26","3","30","0","30","Thu Feb 18 13:12:22 2021","The main experiment item","yes","Lexical_Decision_Task.osexp","C:/Users/csapu","no","Andale Mono","no","18","no","white","no","yes","576","legacy","26","26","3","C:/Users/csapu/Desktop/subject-5071747.csv","legacy","Lentiform Loewenfeld","3.3.7","yes","yes","600bd7cfb6416f0113b04181","602110864497cf011d9c0822","0","f","NA","space","space","space","NA","f","1791","NA","4882","17466","11424","NA","1791","2","legacy","1024","2","48000","-16","task","5071747","odd","NA","41781","48664","43782","125027","2961","31854","20429","125528","NA","125025","125528","124954","48664","127320","39753","119377","2958","123453","Lexical Decision Task","20","44704","31","yes","1024"
"2.755364069","7.72","2","hoax","word","65.625","65.625","1427.03125","1427.03125","black","no","legacy","legacy","legacy","0","uniform","1","undefined","undefined","undefined","1","j","0","0","0","0","31","0","0","0","31","NA","27","31","27","0","27","3","31","0","31","Thu Feb 18 13:12:22 2021","The main experiment item","yes","Lexical_Decision_Task.osexp","C:/Users/csapu","no","Andale Mono","no","18","no","white","no","yes","576","legacy","27","27","3","C:/Users/csapu/Desktop/subject-5071747.csv","legacy","Lentiform Loewenfeld","3.3.7","yes","yes","600bd7cfb6416f0113b04181","602110864497cf011d9c0822","0","j","NA","space","space","space","NA","j","961","NA","4882","17466","11424","NA","961","2","legacy","1024","2","48000","-16","task","5071747","odd","NA","41781","48664","43782","127891","2961","31854","20429","128392","NA","127889","128392","127822","48664","129354","39753","127322","2958","123453","Lexical Decision Task","21","45665","32","yes","1024"
"2.95456409","0","4","taud","non-word","66.66666666666667","66.66666666666667","1417.3030303030303","1417.3030303030303","black","no","legacy","legacy","legacy","0","uniform","1","undefined","undefined","undefined","1","f","0","0","0","0","32","0","0","0","32","NA","28","32","28","0","28","3","32","0","32","Thu Feb 18 13:12:22 2021","The main experiment item","yes","Lexical_Decision_Task.osexp","C:/Users/csapu","no","Andale Mono","no","18","no","white","no","yes","576","legacy","28","28","3","C:/Users/csapu/Desktop/subject-5071747.csv","legacy","Lentiform Loewenfeld","3.3.7","yes","yes","600bd7cfb6416f0113b04181","602110864497cf011d9c0822","0","f","NA","space","space","space","NA","f","1106","NA","4882","17466","11424","NA","1106","2","legacy","1024","2","48000","-16","task","5071747","odd","NA","41781","48664","43782","129927","2961","31854","20429","130428","NA","129925","130428","129859","48664","131535","39753","129358","2958","123453","Lexical Decision Task","22","46771","33","yes","1024"
"3.088136089","8.32","9","worm","word","67.6470588235294","67.6470588235294","1406.1176470588234","1406.1176470588234","black","no","legacy","legacy","legacy","0","uniform","1","undefined","undefined","undefined","1","j","0","0","0","0","33","0","0","0","33","NA","29","33","29","0","29","3","33","0","33","Thu Feb 18 13:12:22 2021","The main experiment item","yes","Lexical_Decision_Task.osexp","C:/Users/csapu","no","Andale Mono","no","18","no","white","no","yes","576","legacy","29","29","3","C:/Users/csapu/Desktop/subject-5071747.csv","legacy","Lentiform Loewenfeld","3.3.7","yes","yes","600bd7cfb6416f0113b04181","602110864497cf011d9c0822","0","j","NA","space","space","space","NA","j","1037","NA","4882","17466","11424","NA","1037","2","legacy","1024","2","48000","-16","task","5071747","odd","NA","41781","48664","43782","132107","2961","31854","20429","132608","NA","132106","132608","132039","48664","133646","39753","131539","2958","123453","Lexical Decision Task","23","47808","34","yes","1024"
"3.20996159","0","4","clee","non-word","68.57142857142857","68.57142857142857","1422.857142857143","1422.857142857143","black","no","legacy","legacy","legacy","0","uniform","1","undefined","undefined","undefined","1","f","0","0","0","0","34","0","0","0","34","NA","30","34","30","0","30","3","34","0","34","Thu Feb 18 13:12:22 2021","The main experiment item","yes","Lexical_Decision_Task.osexp","C:/Users/csapu","no","Andale Mono","no","18","no","white","no","yes","576","legacy","30","30","3","C:/Users/csapu/Desktop/subject-5071747.csv","legacy","Lentiform Loewenfeld","3.3.7","yes","yes","600bd7cfb6416f0113b04181","602110864497cf011d9c0822","0","f","NA","space","space","space","NA","f","1992","NA","4882","17466","11424","NA","1992","2","legacy","1024","2","48000","-16","task","5071747","odd","NA","41781","48664","43782","134219","2961","31854","20429","134720","NA","134218","134720","134151","48664","136713","39753","133650","2958","123453","Lexical Decision Task","24","49800","35","yes","1024"
"3.156347201","0","8","lasp","non-word","69.44444444444444","69.44444444444444","1421","1421","black","no","legacy","legacy","legacy","0","uniform","1","undefined","undefined","undefined","1","f","0","0","0","0","35","0","0","0","35","NA","31","35","31","0","31","3","35","0","35","Thu Feb 18 13:12:22 2021","The main experiment item","yes","Lexical_Decision_Task.osexp","C:/Users/csapu","no","Andale Mono","no","18","no","white","no","yes","576","legacy","31","31","3","C:/Users/csapu/Desktop/subject-5071747.csv","legacy","Lentiform Loewenfeld","3.3.7","yes","yes","600bd7cfb6416f0113b04181","602110864497cf011d9c0822","0","f","NA","space","space","space","NA","f","1356","NA","4882","17466","11424","NA","1356","2","legacy","1024","2","48000","-16","task","5071747","odd","NA","41781","48664","43782","137291","2961","31854","20429","137793","NA","137290","137793","137217","48664","139150","39753","136717","2958","123453","Lexical Decision Task","25","51156","36","yes","1024"
"3.460446784","0","5","dess","non-word","70.27027027027027","70.27027027027027","1423.8918918918919","1423.8918918918919","black","no","legacy","legacy","legacy","0","uniform","1","undefined","undefined","undefined","1","f","0","0","0","0","36","0","0","0","36","NA","32","36","32","0","32","3","36","0","36","Thu Feb 18 13:12:22 2021","The main experiment item","yes","Lexical_Decision_Task.osexp","C:/Users/csapu","no","Andale Mono","no","18","no","white","no","yes","576","legacy","32","32","3","C:/Users/csapu/Desktop/subject-5071747.csv","legacy","Lentiform Loewenfeld","3.3.7","yes","yes","600bd7cfb6416f0113b04181","602110864497cf011d9c0822","0","f","NA","space","space","space","NA","f","1528","NA","4882","17466","11424","NA","1528","2","legacy","1024","2","48000","-16","task","5071747","odd","NA","41781","48664","43782","139724","2961","31854","20429","140225","NA","139722","140225","139654","48664","141754","39753","139154","2958","123453","Lexical Decision Task","26","52684","37","yes","1024"
"2.980306438","0","7","slun","non-word","71.05263157894737","71.05263157894737","1435.9736842105262","1435.9736842105262","black","no","legacy","legacy","legacy","0","uniform","1","undefined","undefined","undefined","1","f","0","0","0","0","37","0","0","0","37","NA","33","37","33","0","33","3","37","0","37","Thu Feb 18 13:12:22 2021","The main experiment item","yes","Lexical_Decision_Task.osexp","C:/Users/csapu","no","Andale Mono","no","18","no","white","no","yes","576","legacy","33","33","3","C:/Users/csapu/Desktop/subject-5071747.csv","legacy","Lentiform Loewenfeld","3.3.7","yes","yes","600bd7cfb6416f0113b04181","602110864497cf011d9c0822","0","f","NA","space","space","space","NA","f","1883","NA","4882","17466","11424","NA","1883","2","legacy","1024","2","48000","-16","task","5071747","odd","NA","41781","48664","43782","142324","2961","31854","20429","142825","NA","142323","142825","142257","48664","144709","39753","141757","2958","123453","Lexical Decision Task","27","54567","38","yes","1024"
"2.983324025","9.56","2","debt","word","71.7948717948718","71.7948717948718","1418.948717948718","1418.948717948718","black","no","legacy","legacy","legacy","0","uniform","1","undefined","undefined","undefined","1","j","0","0","0","0","38","0","0","0","38","NA","34","38","34","0","34","3","38","0","38","Thu Feb 18 13:12:22 2021","The main experiment item","yes","Lexical_Decision_Task.osexp","C:/Users/csapu","no","Andale Mono","no","18","no","white","no","yes","576","legacy","34","34","3","C:/Users/csapu/Desktop/subject-5071747.csv","legacy","Lentiform Loewenfeld","3.3.7","yes","yes","600bd7cfb6416f0113b04181","602110864497cf011d9c0822","0","j","NA","space","space","space","NA","j","772","NA","4882","17466","11424","NA","772","2","legacy","1024","2","48000","-16","task","5071747","odd","NA","41781","48664","43782","145290","2961","31854","20429","145792","NA","145289","145792","145218","48664","146565","39753","144717","2958","123453","Lexical Decision Task","28","55339","39","yes","1024"
"3.397302518","7.01","2","knit","word","72.5","72.5","1403.9","1403.9","black","no","legacy","legacy","legacy","0","uniform","1","undefined","undefined","undefined","1","j","0","0","0","0","39","0","0","0","39","NA","35","39","35","0","35","3","39","0","39","Thu Feb 18 13:12:22 2021","The main experiment item","yes","Lexical_Decision_Task.osexp","C:/Users/csapu","no","Andale Mono","no","18","no","white","no","yes","576","legacy","35","35","3","C:/Users/csapu/Desktop/subject-5071747.csv","legacy","Lentiform Loewenfeld","3.3.7","yes","yes","600bd7cfb6416f0113b04181","602110864497cf011d9c0822","0","j","NA","space","space","space","NA","j","817","NA","4882","17466","11424","NA","817","2","legacy","1024","2","48000","-16","task","5071747","odd","NA","41781","48664","43782","147144","2961","31854","20429","147645","NA","147142","147645","147069","48664","148462","39753","146569","2958","123453","Lexical Decision Task","29","56156","40","yes","1024"
"2.698100546","0","9","mulk","non-word","73.17073170731707","73.17073170731707","1398.1463414634147","1398.1463414634147","black","no","legacy","legacy","legacy","0","uniform","1","undefined","undefined","undefined","1","f","0","0","0","0","40","0","0","0","40","NA","36","40","36","0","36","3","40","0","40","Thu Feb 18 13:12:22 2021","The main experiment item","yes","Lexical_Decision_Task.osexp","C:/Users/csapu","no","Andale Mono","no","18","no","white","no","yes","576","legacy","36","36","3","C:/Users/csapu/Desktop/subject-5071747.csv","legacy","Lentiform Loewenfeld","3.3.7","yes","yes","600bd7cfb6416f0113b04181","602110864497cf011d9c0822","0","f","NA","space","space","space","NA","f","1168","NA","4882","17466","11424","NA","1168","2","legacy","1024","2","48000","-16","task","5071747","odd","NA","41781","48664","43782","149035","2961","31854","20429","149536","NA","149034","149536","148967","48664","150705","39753","148467","2958","123453","Lexical Decision Task","30","57324","41","yes","1024"
"3.225825991","0","7","talm","non-word","73.80952380952381","73.80952380952381","1388.9761904761904","1388.9761904761904","black","no","legacy","legacy","legacy","0","uniform","1","undefined","undefined","undefined","1","f","0","0","0","0","41","0","0","0","41","NA","37","41","37","0","37","3","41","0","41","Thu Feb 18 13:12:22 2021","The main experiment item","yes","Lexical_Decision_Task.osexp","C:/Users/csapu","no","Andale Mono","no","18","no","white","no","yes","576","legacy","37","37","3","C:/Users/csapu/Desktop/subject-5071747.csv","legacy","Lentiform Loewenfeld","3.3.7","yes","yes","600bd7cfb6416f0113b04181","602110864497cf011d9c0822","0","f","NA","space","space","space","NA","f","1013","NA","4882","17466","11424","NA","1013","2","legacy","1024","2","48000","-16","task","5071747","odd","NA","41781","48664","43782","151279","2961","31854","20429","151780","NA","151277","151780","151211","48664","152794","39753","150711","2958","123453","Lexical Decision Task","31","58337","42","yes","1024"
"2.782472624","10.55","2","huge","word","74.4186046511628","74.4186046511628","1376.5581395348838","1376.5581395348838","black","no","legacy","legacy","legacy","0","uniform","1","undefined","undefined","undefined","1","j","0","0","0","0","42","0","0","0","42","NA","38","42","38","0","38","3","42","0","42","Thu Feb 18 13:12:22 2021","The main experiment item","yes","Lexical_Decision_Task.osexp","C:/Users/csapu","no","Andale Mono","no","18","no","white","no","yes","576","legacy","38","38","3","C:/Users/csapu/Desktop/subject-5071747.csv","legacy","Lentiform Loewenfeld","3.3.7","yes","yes","600bd7cfb6416f0113b04181","602110864497cf011d9c0822","0","j","NA","space","space","space","NA","j","855","NA","4882","17466","11424","NA","855","2","legacy","1024","2","48000","-16","task","5071747","odd","NA","41781","48664","43782","153373","2961","31854","20429","153874","NA","153372","153874","153298","48664","154730","39753","152798","2958","123453","Lexical Decision Task","32","59192","43","yes","1024"
"3.311895072","0","9","gung","non-word","75","75","1377.8636363636363","1377.8636363636363","black","no","legacy","legacy","legacy","0","uniform","1","undefined","undefined","undefined","1","f","0","0","0","0","43","0","0","0","43","NA","39","43","39","0","39","3","43","0","43","Thu Feb 18 13:12:22 2021","The main experiment item","yes","Lexical_Decision_Task.osexp","C:/Users/csapu","no","Andale Mono","no","18","no","white","no","yes","576","legacy","39","39","3","C:/Users/csapu/Desktop/subject-5071747.csv","legacy","Lentiform Loewenfeld","3.3.7","yes","yes","600bd7cfb6416f0113b04181","602110864497cf011d9c0822","0","f","NA","space","space","space","NA","f","1434","NA","4882","17466","11424","NA","1434","2","legacy","1024","2","48000","-16","task","5071747","odd","NA","41781","48664","43782","155305","2961","31854","20429","155806","NA","155304","155806","155236","48664","157241","39753","154735","2958","123453","Lexical Decision Task","33","60626","44","yes","1024"
"2.868644438","10.52","4","town","word","75.55555555555556","75.55555555555556","1365.9777777777779","1365.9777777777779","black","no","legacy","legacy","legacy","0","uniform","1","undefined","undefined","undefined","1","j","0","0","0","0","44","0","0","0","44","NA","40","44","40","0","40","3","44","0","44","Thu Feb 18 13:12:22 2021","The main experiment item","yes","Lexical_Decision_Task.osexp","C:/Users/csapu","no","Andale Mono","no","18","no","white","no","yes","576","legacy","40","40","3","C:/Users/csapu/Desktop/subject-5071747.csv","legacy","Lentiform Loewenfeld","3.3.7","yes","yes","600bd7cfb6416f0113b04181","602110864497cf011d9c0822","0","j","NA","space","space","space","NA","j","843","NA","4882","17466","11424","NA","843","2","legacy","1024","2","48000","-16","task","5071747","odd","NA","41781","48664","43782","157819","2961","31854","20429","158320","NA","157817","158320","157744","48664","159164","39753","157244","2958","123453","Lexical Decision Task","34","61469","45","yes","1024"
"3.168890155","0","6","thet","non-word","76.08695652173913","76.08695652173913","1355.0652173913043","1355.0652173913043","black","no","legacy","legacy","legacy","0","uniform","1","undefined","undefined","undefined","1","f","0","0","0","0","45","0","0","0","45","NA","41","45","41","0","41","3","45","0","45","Thu Feb 18 13:12:22 2021","The main experiment item","yes","Lexical_Decision_Task.osexp","C:/Users/csapu","no","Andale Mono","no","18","no","white","no","yes","576","legacy","41","41","3","C:/Users/csapu/Desktop/subject-5071747.csv","legacy","Lentiform Loewenfeld","3.3.7","yes","yes","600bd7cfb6416f0113b04181","602110864497cf011d9c0822","0","f","NA","space","space","space","NA","f","864","NA","4882","17466","11424","NA","864","2","legacy","1024","2","48000","-16","task","5071747","odd","NA","41781","48664","43782","159736","2961","31854","20429","160237","NA","159735","160237","159668","48664","161102","39753","159168","2958","123453","Lexical Decision Task","35","62333","46","yes","1024"
"3.119255889","6.63","2","itch","word","76.59574468085107","76.59574468085107","1377.787234042553","1377.787234042553","black","no","legacy","legacy","legacy","0","uniform","1","undefined","undefined","undefined","1","j","0","0","0","0","46","0","0","0","46","NA","42","46","42","0","42","3","46","0","46","Thu Feb 18 13:12:22 2021","The main experiment item","yes","Lexical_Decision_Task.osexp","C:/Users/csapu","no","Andale Mono","no","18","no","white","no","yes","576","legacy","42","42","3","C:/Users/csapu/Desktop/subject-5071747.csv","legacy","Lentiform Loewenfeld","3.3.7","yes","yes","600bd7cfb6416f0113b04181","602110864497cf011d9c0822","0","j","NA","space","space","space","NA","j","2423","NA","4882","17466","11424","NA","2423","2","legacy","1024","2","48000","-16","task","5071747","odd","NA","41781","48664","43782","161673","2961","31854","20429","162174","NA","161672","162174","161606","48664","164598","39753","161106","2958","123453","Lexical Decision Task","36","64756","47","yes","1024"
"2.979548375","8.71","4","soup","word","77.08333333333333","77.08333333333333","1365.7916666666667","1365.7916666666667","black","no","legacy","legacy","legacy","0","uniform","1","undefined","undefined","undefined","1","j","0","0","0","0","47","0","0","0","47","NA","43","47","43","0","43","3","47","0","47","Thu Feb 18 13:12:22 2021","The main experiment item","yes","Lexical_Decision_Task.osexp","C:/Users/csapu","no","Andale Mono","no","18","no","white","no","yes","576","legacy","43","43","3","C:/Users/csapu/Desktop/subject-5071747.csv","legacy","Lentiform Loewenfeld","3.3.7","yes","yes","600bd7cfb6416f0113b04181","602110864497cf011d9c0822","0","j","NA","space","space","space","NA","j","802","NA","4882","17466","11424","NA","802","2","legacy","1024","2","48000","-16","task","5071747","odd","NA","41781","48664","43782","165170","2961","31854","20429","165671","NA","165168","165671","165102","48664","166473","39753","164602","2958","123453","Lexical Decision Task","37","65558","48","yes","1024"
"2.696356389","0","1","pizz","non-word","77.55102040816327","77.55102040816327","1358.6530612244899","1358.6530612244899","black","no","legacy","legacy","legacy","0","uniform","1","undefined","undefined","undefined","1","f","0","0","0","0","48","0","0","0","48","NA","44","48","44","0","44","3","48","0","48","Thu Feb 18 13:12:22 2021","The main experiment item","yes","Lexical_Decision_Task.osexp","C:/Users/csapu","no","Andale Mono","no","18","no","white","no","yes","576","legacy","44","44","3","C:/Users/csapu/Desktop/subject-5071747.csv","legacy","Lentiform Loewenfeld","3.3.7","yes","yes","600bd7cfb6416f0113b04181","602110864497cf011d9c0822","0","f","NA","space","space","space","NA","f","1016","NA","4882","17466","11424","NA","1016","2","legacy","1024","2","48000","-16","task","5071747","odd","NA","41781","48664","43782","167046","2961","31854","20429","167548","NA","167045","167548","166976","48664","168565","39753","166476","2958","123453","Lexical Decision Task","38","66574","49","yes","1024"
"3.120025233","0","2","nyst","non-word","78","78","1359","1359","black","no","legacy","legacy","legacy","0","uniform","1","undefined","undefined","undefined","1","f","0","0","0","0","49","0","0","0","49","NA","45","49","45","0","45","3","49","0","49","Thu Feb 18 13:12:22 2021","The main experiment item","yes","Lexical_Decision_Task.osexp","C:/Users/csapu","no","Andale Mono","no","18","no","white","no","yes","576","legacy","45","45","3","C:/Users/csapu/Desktop/subject-5071747.csv","legacy","Lentiform Loewenfeld","3.3.7","yes","yes","600bd7cfb6416f0113b04181","602110864497cf011d9c0822","0","f","NA","space","space","space","NA","f","1376","NA","4882","17466","11424","NA","1376","2","legacy","1024","2","48000","-16","task","5071747","odd","NA","41781","48664","43782","169138","2961","31854","20429","169639","NA","169137","169639","169069","48664","171016","39753","168569","2958","123453","Lexical Decision Task","39","67950","50","yes","1024"
"3.077974404","10.41","8","tool","word","78.43137254901961","78.43137254901961","1347.0392156862745","1347.0392156862745","black","no","legacy","legacy","legacy","0","uniform","1","undefined","undefined","undefined","1","j","0","0","0","0","50","0","0","0","50","NA","46","50","46","0","46","3","50","0","50","Thu Feb 18 13:12:22 2021","The main experiment item","yes","Lexical_Decision_Task.osexp","C:/Users/csapu","no","Andale Mono","no","18","no","white","no","yes","576","legacy","46","46","3","C:/Users/csapu/Desktop/subject-5071747.csv","legacy","Lentiform Loewenfeld","3.3.7","yes","yes","600bd7cfb6416f0113b04181","602110864497cf011d9c0822","0","j","NA","space","space","space","NA","j","749","NA","4882","17466","11424","NA","749","2","legacy","1024","2","48000","-16","task","5071747","odd","NA","41781","48664","43782","171587","2961","31854","20429","172089","NA","171586","172089","171520","48664","172839","39753","171020","2958","123453","Lexical Decision Task","40","68699","51","yes","1024"
"2.807758206","6.25","4","hurl","word","76.92307692307692","76.92307692307692","1347.5384615384614","1347.5384615384614","black","no","legacy","legacy","legacy","0","uniform","0","undefined","undefined","undefined","0","j","0","0","0","0","51","0","0","0","51","NA","47","51","47","0","47","3","51","0","51","Thu Feb 18 13:12:22 2021","The main experiment item","yes","Lexical_Decision_Task.osexp","C:/Users/csapu","no","Andale Mono","no","18","no","white","no","yes","576","legacy","47","47","3","C:/Users/csapu/Desktop/subject-5071747.csv","legacy","Lentiform Loewenfeld","3.3.7","yes","yes","600bd7cfb6416f0113b04181","602110864497cf011d9c0822","0","f","NA","space","space","space","NA","f","1373","NA","4882","17466","11424","NA","1373","2","legacy","1024","2","48000","-16","task","5071747","odd","NA","41781","48664","43782","173410","2961","31854","20429","173911","NA","173409","173911","173343","48664","175285","39753","172843","2958","123453","Lexical Decision Task","40","70072","52","yes","1024"
"2.971428938","9.86","7","spot","word","77.35849056603773","77.35849056603773","1336.754716981132","1336.754716981132","black","no","legacy","legacy","legacy","0","uniform","1","undefined","undefined","undefined","1","j","0","0","0","0","52","0","0","0","52","NA","48","52","48","0","48","3","52","0","52","Thu Feb 18 13:12:22 2021","The main experiment item","yes","Lexical_Decision_Task.osexp","C:/Users/csapu","no","Andale Mono","no","18","no","white","no","yes","576","legacy","48","48","3","C:/Users/csapu/Desktop/subject-5071747.csv","legacy","Lentiform Loewenfeld","3.3.7","yes","yes","600bd7cfb6416f0113b04181","602110864497cf011d9c0822","0","j","NA","space","space","space","NA","j","776","NA","4882","17466","11424","NA","776","2","legacy","1024","2","48000","-16","task","5071747","odd","NA","41781","48664","43782","176858","2961","31854","20429","177359","NA","176857","177359","176789","48664","178136","39753","172843","2958","175289","Lexical Decision Task","41","70848","53","yes","1024"
"2.719886232","7.98","2","quiz","word","77.77777777777777","77.77777777777777","1340.3703703703704","1340.3703703703704","black","no","legacy","legacy","legacy","0","uniform","1","undefined","undefined","undefined","1","j","0","0","0","0","53","0","0","0","53","NA","49","53","49","0","49","3","53","0","53","Thu Feb 18 13:12:22 2021","The main experiment item","yes","Lexical_Decision_Task.osexp","C:/Users/csapu","no","Andale Mono","no","18","no","white","no","yes","576","legacy","49","49","3","C:/Users/csapu/Desktop/subject-5071747.csv","legacy","Lentiform Loewenfeld","3.3.7","yes","yes","600bd7cfb6416f0113b04181","602110864497cf011d9c0822","0","j","NA","space","space","space","NA","j","1532","NA","4882","17466","11424","NA","1532","2","legacy","1024","2","48000","-16","task","5071747","odd","NA","41781","48664","43782","178711","2961","31854","20429","179212","NA","178709","179212","178640","48664","180745","39753","178140","2958","175289","Lexical Decision Task","42","72380","54","yes","1024"
"3.145920145","8.51","8","flew","word","78.18181818181819","78.18181818181819","1348.4363636363637","1348.4363636363637","black","no","legacy","legacy","legacy","0","uniform","1","undefined","undefined","undefined","1","j","0","0","0","0","54","0","0","0","54","0","50","54","50","0","50","3","54","0","54","Thu Feb 18 13:12:22 2021","The main experiment item","yes","Lexical_Decision_Task.osexp","C:/Users/csapu","no","Andale Mono","no","18","no","white","no","yes","576","legacy","50","50","3","C:/Users/csapu/Desktop/subject-5071747.csv","legacy","Lentiform Loewenfeld","3.3.7","yes","yes","600bd7cfb6416f0113b04181","602110864497cf011d9c0822","0","j","NA","space","space","space","space","j","1784","NA","4882","17466","11424","44526","1784","2","legacy","1024","2","48000","-16","task","5071747","odd","NA","41781","48664","43782","225879","2961","31854","20429","226381","181282","225878","226381","181250","48664","228166","39753","180750","2958","175289","Lexical Decision Task","43","74164","55","yes","1024"
"2.709837904","6.85","8","skim","word","76.78571428571429","76.78571428571429","1349.142857142857","1349.142857142857","black","no","legacy","legacy","legacy","0","uniform","0","undefined","undefined","undefined","0","j","0","0","0","0","55","0","0","0","55","0","51","55","51","0","51","3","55","0","55","Thu Feb 18 13:12:22 2021","The main experiment item","yes","Lexical_Decision_Task.osexp","C:/Users/csapu","no","Andale Mono","no","18","no","white","no","yes","576","legacy","51","51","3","C:/Users/csapu/Desktop/subject-5071747.csv","legacy","Lentiform Loewenfeld","3.3.7","yes","yes","600bd7cfb6416f0113b04181","602110864497cf011d9c0822","0","f","NA","space","space","space","space","f","1388","NA","4882","17466","11424","44526","1388","2","legacy","1024","2","48000","-16","task","5071747","odd","NA","41781","48664","43782","228745","2961","31854","20429","229246","181282","228743","229246","228670","48664","230635","39753","228170","2958","175289","Lexical Decision Task","43","75552","56","yes","1024"
"2.6599162","0","2","saff","non-word","77.19298245614036","77.19298245614036","1345.6842105263158","1345.6842105263158","black","no","legacy","legacy","legacy","0","uniform","1","undefined","undefined","undefined","1","f","0","0","0","0","56","0","0","0","56","0","52","56","52","0","52","3","56","0","56","Thu Feb 18 13:12:22 2021","The main experiment item","yes","Lexical_Decision_Task.osexp","C:/Users/csapu","no","Andale Mono","no","18","no","white","no","yes","576","legacy","52","52","3","C:/Users/csapu/Desktop/subject-5071747.csv","legacy","Lentiform Loewenfeld","3.3.7","yes","yes","600bd7cfb6416f0113b04181","602110864497cf011d9c0822","0","f","NA","space","space","space","space","f","1152","NA","4882","17466","11424","44526","1152","2","legacy","1024","2","48000","-16","task","5071747","odd","NA","41781","48664","43782","232213","2961","31854","20429","232714","181282","232211","232714","232139","48664","233867","39753","228170","2958","230639","Lexical Decision Task","44","76704","57","yes","1024"
"3.120135028","0","3","vals","non-word","75.86206896551724","75.86206896551724","1337.4655172413793","1337.4655172413793","black","no","legacy","legacy","legacy","0","uniform","0","undefined","undefined","undefined","0","f","0","0","0","0","57","0","0","0","57","0","53","57","53","0","53","3","57","0","57","Thu Feb 18 13:12:22 2021","The main experiment item","yes","Lexical_Decision_Task.osexp","C:/Users/csapu","no","Andale Mono","no","18","no","white","no","yes","576","legacy","53","53","3","C:/Users/csapu/Desktop/subject-5071747.csv","legacy","Lentiform Loewenfeld","3.3.7","yes","yes","600bd7cfb6416f0113b04181","602110864497cf011d9c0822","0","j","NA","space","space","space","space","j","869","NA","4882","17466","11424","44526","869","2","legacy","1024","2","48000","-16","task","5071747","odd","NA","41781","48664","43782","234448","2961","31854","20429","234950","181282","234446","234950","234370","48664","235820","39753","233870","2958","230639","Lexical Decision Task","44","77573","58","yes","1024"
"2.880623071","0","9","curp","non-word","74.57627118644068","74.57627118644068","1340.542372881356","1340.542372881356","black","no","legacy","legacy","legacy","0","uniform","0","undefined","undefined","undefined","0","f","0","0","0","0","58","0","0","0","58","0","54","58","54","0","54","3","58","0","58","Thu Feb 18 13:12:22 2021","The main experiment item","yes","Lexical_Decision_Task.osexp","C:/Users/csapu","no","Andale Mono","no","18","no","white","no","yes","576","legacy","54","54","3","C:/Users/csapu/Desktop/subject-5071747.csv","legacy","Lentiform Loewenfeld","3.3.7","yes","yes","600bd7cfb6416f0113b04181","602110864497cf011d9c0822","0","j","NA","space","space","space","space","j","1519","NA","4882","17466","11424","44526","1519","2","legacy","1024","2","48000","-16","task","5071747","odd","NA","41781","48664","43782","237399","2961","31854","20429","237900","181282","237398","237900","237324","48664","239420","39753","233870","2958","235824","Lexical Decision Task","44","79092","59","yes","1024"
"3.431095062","5.74","9","perk","word","75","75","1342.2333333333333","1342.2333333333333","black","no","legacy","legacy","legacy","0","uniform","1","undefined","undefined","undefined","1","j","0","0","0","0","59","0","0","0","59","0","55","59","55","0","55","3","59","0","59","Thu Feb 18 13:12:22 2021","The main experiment item","yes","Lexical_Decision_Task.osexp","C:/Users/csapu","no","Andale Mono","no","18","no","white","no","yes","576","legacy","55","55","3","C:/Users/csapu/Desktop/subject-5071747.csv","legacy","Lentiform Loewenfeld","3.3.7","yes","yes","600bd7cfb6416f0113b04181","602110864497cf011d9c0822","0","j","NA","space","space","space","space","j","1442","NA","4882","17466","11424","44526","1442","2","legacy","1024","2","48000","-16","task","5071747","odd","NA","41781","48664","43782","240994","2961","31854","20429","241495","181282","240992","241495","240924","48664","242938","39753","233870","2958","239424","Lexical Decision Task","45","80534","60","yes","1024"
"2.972357144","0","5","dasp","non-word","75.40983606557377","75.40983606557377","1339.4590163934427","1339.4590163934427","black","no","legacy","legacy","legacy","0","uniform","1","undefined","undefined","undefined","1","f","0","0","0","0","60","0","0","0","60","0","56","60","56","0","56","3","60","0","60","Thu Feb 18 13:12:22 2021","The main experiment item","yes","Lexical_Decision_Task.osexp","C:/Users/csapu","no","Andale Mono","no","18","no","white","no","yes","576","legacy","56","56","3","C:/Users/csapu/Desktop/subject-5071747.csv","legacy","Lentiform Loewenfeld","3.3.7","yes","yes","600bd7cfb6416f0113b04181","602110864497cf011d9c0822","0","f","NA","space","space","space","space","f","1173","NA","4882","17466","11424","44526","1173","2","legacy","1024","2","48000","-16","task","5071747","odd","NA","41781","48664","43782","243511","2961","31854","20429","244012","181282","243510","244012","243443","48664","245186","39753","242942","2958","239424","Lexical Decision Task","46","81707","61","yes","1024"
"2.8162413","0","5","nusk","non-word","75.80645161290323","75.80645161290323","1336.483870967742","1336.483870967742","black","no","legacy","legacy","legacy","0","uniform","1","undefined","undefined","undefined","1","f","0","0","0","0","61","0","0","0","61","0","57","61","57","0","57","3","61","0","61","Thu Feb 18 13:12:22 2021","The main experiment item","yes","Lexical_Decision_Task.osexp","C:/Users/csapu","no","Andale Mono","no","18","no","white","no","yes","576","legacy","57","57","3","C:/Users/csapu/Desktop/subject-5071747.csv","legacy","Lentiform Loewenfeld","3.3.7","yes","yes","600bd7cfb6416f0113b04181","602110864497cf011d9c0822","0","f","NA","space","space","space","space","f","1155","NA","4882","17466","11424","44526","1155","2","legacy","1024","2","48000","-16","task","5071747","odd","NA","41781","48664","43782","245759","2961","31854","20429","246260","181282","245757","246260","245690","48664","247416","39753","245190","2958","239424","Lexical Decision Task","47","82862","62","yes","1024"
"3.374137706","10.21","4","tree","word","76.19047619047619","76.19047619047619","1327.888888888889","1327.888888888889","black","no","legacy","legacy","legacy","0","uniform","1","undefined","undefined","undefined","1","j","0","0","0","0","62","0","0","0","62","0","58","62","58","0","58","3","62","0","62","Thu Feb 18 13:12:22 2021","The main experiment item","yes","Lexical_Decision_Task.osexp","C:/Users/csapu","no","Andale Mono","no","18","no","white","no","yes","576","legacy","58","58","3","C:/Users/csapu/Desktop/subject-5071747.csv","legacy","Lentiform Loewenfeld","3.3.7","yes","yes","600bd7cfb6416f0113b04181","602110864497cf011d9c0822","0","j","NA","space","space","space","space","j","795","NA","4882","17466","11424","44526","795","2","legacy","1024","2","48000","-16","task","5071747","odd","NA","41781","48664","43782","247992","2961","31854","20429","248494","181282","247991","248494","247920","48664","249290","39753","247420","2958","239424","Lexical Decision Task","48","83657","63","yes","1024"
"2.981215883","10.66","5","hair","word","76.5625","76.5625","1319.65625","1319.65625","black","no","legacy","legacy","legacy","0","uniform","1","undefined","undefined","undefined","1","j","0","0","0","0","63","0","0","0","63","0","59","63","59","0","59","3","63","0","63","Thu Feb 18 13:12:22 2021","The main experiment item","yes","Lexical_Decision_Task.osexp","C:/Users/csapu","no","Andale Mono","no","18","no","white","no","yes","576","legacy","59","59","3","C:/Users/csapu/Desktop/subject-5071747.csv","legacy","Lentiform Loewenfeld","3.3.7","yes","yes","600bd7cfb6416f0113b04181","602110864497cf011d9c0822","0","j","NA","space","space","space","space","j","801","NA","4882","17466","11424","44526","801","2","legacy","1024","2","48000","-16","task","5071747","odd","NA","41781","48664","43782","249862","2961","31854","20429","250363","181282","249860","250363","249793","48664","251165","39753","249293","2958","239424","Lexical Decision Task","49","84458","64","yes","1024"
"2.895974732","6.65","5","sift","word","75.38461538461539","75.38461538461539","1316.8923076923077","1316.8923076923077","black","no","legacy","legacy","legacy","0","uniform","0","undefined","undefined","undefined","0","j","0","0","0","0","64","0","0","0","64","0","60","64","60","0","60","3","64","0","64","Thu Feb 18 13:12:22 2021","The main experiment item","yes","Lexical_Decision_Task.osexp","C:/Users/csapu","no","Andale Mono","no","18","no","white","no","yes","576","legacy","60","60","3","C:/Users/csapu/Desktop/subject-5071747.csv","legacy","Lentiform Loewenfeld","3.3.7","yes","yes","600bd7cfb6416f0113b04181","602110864497cf011d9c0822","0","f","NA","space","space","space","space","f","1140","NA","4882","17466","11424","44526","1140","2","legacy","1024","2","48000","-16","task","5071747","odd","NA","41781","48664","43782","251740","2961","31854","20429","252242","181282","251739","252242","251671","48664","253383","39753","251171","2958","239424","Lexical Decision Task","49","85598","65","yes","1024"
"3.481012421","8.34","5","teen","word","75.75757575757575","75.75757575757575","1316.9848484848485","1316.9848484848485","black","no","legacy","legacy","legacy","0","uniform","1","undefined","undefined","undefined","1","j","0","0","0","0","65","0","0","0","65","0","61","65","61","0","61","3","65","0","65","Thu Feb 18 13:12:22 2021","The main experiment item","yes","Lexical_Decision_Task.osexp","C:/Users/csapu","no","Andale Mono","no","18","no","white","no","yes","576","legacy","61","61","3","C:/Users/csapu/Desktop/subject-5071747.csv","legacy","Lentiform Loewenfeld","3.3.7","yes","yes","600bd7cfb6416f0113b04181","602110864497cf011d9c0822","0","j","NA","space","space","space","space","j","1323","NA","4882","17466","11424","44526","1323","2","legacy","1024","2","48000","-16","task","5071747","odd","NA","41781","48664","43782","254961","2961","31854","20429","255462","181282","254960","255462","254892","48664","256787","39753","251171","2958","253392","Lexical Decision Task","50","86921","66","yes","1024"
"2.858136002","0","4","phip","non-word","76.11940298507463","76.11940298507463","1314.9850746268658","1314.9850746268658","black","no","legacy","legacy","legacy","0","uniform","1","undefined","undefined","undefined","1","f","0","0","0","0","66","0","0","0","66","0","62","66","62","0","62","3","66","0","66","Thu Feb 18 13:12:22 2021","The main experiment item","yes","Lexical_Decision_Task.osexp","C:/Users/csapu","no","Andale Mono","no","18","no","white","no","yes","576","legacy","62","62","3","C:/Users/csapu/Desktop/subject-5071747.csv","legacy","Lentiform Loewenfeld","3.3.7","yes","yes","600bd7cfb6416f0113b04181","602110864497cf011d9c0822","0","f","NA","space","space","space","space","f","1183","NA","4882","17466","11424","44526","1183","2","legacy","1024","2","48000","-16","task","5071747","odd","NA","41781","48664","43782","257366","2961","31854","20429","257867","181282","257365","257867","257292","48664","259051","39753","256792","2958","253392","Lexical Decision Task","51","88104","67","yes","1024"
"2.793790385","5.67","9","swab","word","76.47058823529412","76.47058823529412","1308","1308","black","no","legacy","legacy","legacy","0","uniform","1","undefined","undefined","undefined","1","j","0","0","0","0","67","0","0","0","67","0","63","67","63","0","63","3","67","0","67","Thu Feb 18 13:12:22 2021","The main experiment item","yes","Lexical_Decision_Task.osexp","C:/Users/csapu","no","Andale Mono","no","18","no","white","no","yes","576","legacy","63","63","3","C:/Users/csapu/Desktop/subject-5071747.csv","legacy","Lentiform Loewenfeld","3.3.7","yes","yes","600bd7cfb6416f0113b04181","602110864497cf011d9c0822","0","j","NA","space","space","space","space","j","840","NA","4882","17466","11424","44526","840","2","legacy","1024","2","48000","-16","task","5071747","odd","NA","41781","48664","43782","259628","2961","31854","20429","260129","181282","259627","260129","259556","48664","260970","39753","259056","2958","253392","Lexical Decision Task","52","88944","68","yes","1024"
"3.353210739","0","9","reet","non-word","75.3623188405797","75.3623188405797","1304.5507246376812","1304.5507246376812","black","no","legacy","legacy","legacy","0","uniform","0","undefined","undefined","undefined","0","f","0","0","0","0","68","0","0","0","68","0","64","68","64","0","64","3","68","0","68","Thu Feb 18 13:12:22 2021","The main experiment item","yes","Lexical_Decision_Task.osexp","C:/Users/csapu","no","Andale Mono","no","18","no","white","no","yes","576","legacy","64","64","3","C:/Users/csapu/Desktop/subject-5071747.csv","legacy","Lentiform Loewenfeld","3.3.7","yes","yes","600bd7cfb6416f0113b04181","602110864497cf011d9c0822","0","j","NA","space","space","space","space","j","1070","NA","4882","17466","11424","44526","1070","2","legacy","1024","2","48000","-16","task","5071747","odd","NA","41781","48664","43782","261543","2961","31854","20429","262044","181282","261542","262044","261475","48664","263115","39753","260975","2958","253392","Lexical Decision Task","52","90014","69","yes","1024"
"3.168400243","9.12","6","horn","word","75.71428571428571","75.71428571428571","1297.2571428571428","1297.2571428571428","black","no","legacy","legacy","legacy","0","uniform","1","undefined","undefined","undefined","1","j","0","0","0","0","69","0","0","0","69","0","65","69","65","0","65","3","69","0","69","Thu Feb 18 13:12:22 2021","The main experiment item","yes","Lexical_Decision_Task.osexp","C:/Users/csapu","no","Andale Mono","no","18","no","white","no","yes","576","legacy","65","65","3","C:/Users/csapu/Desktop/subject-5071747.csv","legacy","Lentiform Loewenfeld","3.3.7","yes","yes","600bd7cfb6416f0113b04181","602110864497cf011d9c0822","0","j","NA","space","space","space","space","j","794","NA","4882","17466","11424","44526","794","2","legacy","1024","2","48000","-16","task","5071747","odd","NA","41781","48664","43782","264696","2961","31854","20429","265197","181282","264694","265197","264621","48664","265992","39753","260975","2958","263121","Lexical Decision Task","53","90808","70","yes","1024"
"3.368162872","0","4","ferk","non-word","76.05633802816901","76.05633802816901","1289.5070422535211","1289.5070422535211","black","no","legacy","legacy","legacy","0","uniform","1","undefined","undefined","undefined","1","f","0","0","0","0","70","0","0","0","70","0","66","70","66","0","66","3","70","0","70","Thu Feb 18 13:12:22 2021","The main experiment item","yes","Lexical_Decision_Task.osexp","C:/Users/csapu","no","Andale Mono","no","18","no","white","no","yes","576","legacy","66","66","3","C:/Users/csapu/Desktop/subject-5071747.csv","legacy","Lentiform Loewenfeld","3.3.7","yes","yes","600bd7cfb6416f0113b04181","602110864497cf011d9c0822","0","f","NA","space","space","space","space","f","747","NA","4882","17466","11424","44526","747","2","legacy","1024","2","48000","-16","task","5071747","odd","NA","41781","48664","43782","266565","2961","31854","20429","267066","181282","266564","267066","266496","48664","267814","39753","265996","2958","263121","Lexical Decision Task","54","91555","71","yes","1024"
"2.80048796","0","8","pife","non-word","76.38888888888889","76.38888888888889","1282.1805555555557","1282.1805555555557","black","no","legacy","legacy","legacy","0","uniform","1","undefined","undefined","undefined","1","f","0","0","0","0","71","0","0","0","71","0","67","71","67","0","67","3","71","0","71","Thu Feb 18 13:12:22 2021","The main experiment item","yes","Lexical_Decision_Task.osexp","C:/Users/csapu","no","Andale Mono","no","18","no","white","no","yes","576","legacy","67","67","3","C:/Users/csapu/Desktop/subject-5071747.csv","legacy","Lentiform Loewenfeld","3.3.7","yes","yes","600bd7cfb6416f0113b04181","602110864497cf011d9c0822","0","f","NA","space","space","space","space","f","762","NA","4882","17466","11424","44526","762","2","legacy","1024","2","48000","-16","task","5071747","odd","NA","41781","48664","43782","268386","2961","31854","20429","268887","181282","268385","268887","268318","48664","269650","39753","267818","2958","263121","Lexical Decision Task","55","92317","72","yes","1024"
"3.140404328","10.66","9","deep","word","76.71232876712328","76.71232876712328","1272.6438356164383","1272.6438356164383","black","no","legacy","legacy","legacy","0","uniform","1","undefined","undefined","undefined","1","j","0","0","0","0","72","0","0","0","72","0","68","72","68","0","68","3","72","0","72","Thu Feb 18 13:12:22 2021","The main experiment item","yes","Lexical_Decision_Task.osexp","C:/Users/csapu","no","Andale Mono","no","18","no","white","no","yes","576","legacy","68","68","3","C:/Users/csapu/Desktop/subject-5071747.csv","legacy","Lentiform Loewenfeld","3.3.7","yes","yes","600bd7cfb6416f0113b04181","602110864497cf011d9c0822","0","j","NA","space","space","space","space","j","586","NA","4882","17466","11424","44526","586","2","legacy","1024","2","48000","-16","task","5071747","odd","NA","41781","48664","43782","270224","2961","31854","20429","270727","181282","270222","270727","270154","48664","271314","39753","269654","2958","263121","Lexical Decision Task","56","92903","73","yes","1024"
"3.062080345","0","6","tomp","non-word","77.02702702702703","77.02702702702703","1268.662162162162","1268.662162162162","black","no","legacy","legacy","legacy","0","uniform","1","undefined","undefined","undefined","1","f","0","0","0","0","73","0","0","0","73","0","69","73","69","0","69","3","73","0","73","Thu Feb 18 13:12:22 2021","The main experiment item","yes","Lexical_Decision_Task.osexp","C:/Users/csapu","no","Andale Mono","no","18","no","white","no","yes","576","legacy","69","69","3","C:/Users/csapu/Desktop/subject-5071747.csv","legacy","Lentiform Loewenfeld","3.3.7","yes","yes","600bd7cfb6416f0113b04181","602110864497cf011d9c0822","0","f","NA","space","space","space","space","f","978","NA","4882","17466","11424","44526","978","2","legacy","1024","2","48000","-16","task","5071747","odd","NA","41781","48664","43782","271883","2961","31854","20429","272385","181282","271882","272385","271816","48664","273364","39753","271316","2958","263121","Lexical Decision Task","57","93881","74","yes","1024"
"3.20871002","7.15","8","cram","word","77.33333333333333","77.33333333333333","1270.5333333333333","1270.5333333333333","black","no","legacy","legacy","legacy","0","uniform","1","undefined","undefined","undefined","1","j","0","0","0","0","74","0","0","0","74","0","70","74","70","0","70","3","74","0","74","Thu Feb 18 13:12:22 2021","The main experiment item","yes","Lexical_Decision_Task.osexp","C:/Users/csapu","no","Andale Mono","no","18","no","white","no","yes","576","legacy","70","70","3","C:/Users/csapu/Desktop/subject-5071747.csv","legacy","Lentiform Loewenfeld","3.3.7","yes","yes","600bd7cfb6416f0113b04181","602110864497cf011d9c0822","0","j","NA","space","space","space","space","j","1409","NA","4882","17466","11424","44526","1409","2","legacy","1024","2","48000","-16","task","5071747","odd","NA","41781","48664","43782","273940","2961","31854","20429","274441","181282","273939","274441","273868","48664","275851","39753","273368","2958","263121","Lexical Decision Task","58","95290","75","yes","1024"
"3.149629599","0","2","cleb","non-word","77.63157894736842","77.63157894736842","1267.3026315789473","1267.3026315789473","black","no","legacy","legacy","legacy","0","uniform","1","undefined","undefined","undefined","1","f","0","0","0","0","75","0","0","0","75","0","71","75","71","0","71","3","75","0","75","Thu Feb 18 13:12:22 2021","The main experiment item","yes","Lexical_Decision_Task.osexp","C:/Users/csapu","no","Andale Mono","no","18","no","white","no","yes","576","legacy","71","71","3","C:/Users/csapu/Desktop/subject-5071747.csv","legacy","Lentiform Loewenfeld","3.3.7","yes","yes","600bd7cfb6416f0113b04181","602110864497cf011d9c0822","0","f","NA","space","space","space","space","f","1025","NA","4882","17466","11424","44526","1025","2","legacy","1024","2","48000","-16","task","5071747","odd","NA","41781","48664","43782","276421","2961","31854","20429","276922","181282","276420","276922","276354","48664","277949","39753","275854","2958","263121","Lexical Decision Task","59","96315","76","yes","1024"
"2.839268497","0","8","maft","non-word","77.92207792207792","77.92207792207792","1260.2987012987012","1260.2987012987012","black","no","legacy","legacy","legacy","0","uniform","1","undefined","undefined","undefined","1","f","0","0","0","0","76","0","0","0","76","0","72","76","72","0","72","3","76","0","76","Thu Feb 18 13:12:22 2021","The main experiment item","yes","Lexical_Decision_Task.osexp","C:/Users/csapu","no","Andale Mono","no","18","no","white","no","yes","576","legacy","72","72","3","C:/Users/csapu/Desktop/subject-5071747.csv","legacy","Lentiform Loewenfeld","3.3.7","yes","yes","600bd7cfb6416f0113b04181","602110864497cf011d9c0822","0","f","NA","space","space","space","space","f","728","NA","4882","17466","11424","44526","728","2","legacy","1024","2","48000","-16","task","5071747","odd","NA","41781","48664","43782","278524","2961","31854","20429","279025","181282","278522","279025","278453","48664","279755","39753","277953","2958","263121","Lexical Decision Task","60","97043","77","yes","1024"
"3.495914186","0","4","peng","non-word","76.92307692307692","76.92307692307692","1256.448717948718","1256.448717948718","black","no","legacy","legacy","legacy","0","uniform","0","undefined","undefined","undefined","0","f","0","0","0","0","77","0","0","0","77","0","73","77","73","0","73","3","77","0","77","Thu Feb 18 13:12:22 2021","The main experiment item","yes","Lexical_Decision_Task.osexp","C:/Users/csapu","no","Andale Mono","no","18","no","white","no","yes","576","legacy","73","73","3","C:/Users/csapu/Desktop/subject-5071747.csv","legacy","Lentiform Loewenfeld","3.3.7","yes","yes","600bd7cfb6416f0113b04181","602110864497cf011d9c0822","0","j","NA","space","space","space","space","j","960","NA","4882","17466","11424","44526","960","2","legacy","1024","2","48000","-16","task","5071747","odd","NA","41781","48664","43782","280329","2961","31854","20429","280830","181282","280327","280830","280260","48664","281791","39753","279760","2958","263121","Lexical Decision Task","60","98003","78","yes","1024"
"3.363486562","6.93","9","lush","word","77.21518987341773","77.21518987341773","1249.0759493670887","1249.0759493670887","black","no","legacy","legacy","legacy","0","uniform","1","undefined","undefined","undefined","1","j","0","0","0","0","78","0","0","0","78","0","74","78","74","0","74","3","78","0","78","Thu Feb 18 13:12:22 2021","The main experiment item","yes","Lexical_Decision_Task.osexp","C:/Users/csapu","no","Andale Mono","no","18","no","white","no","yes","576","legacy","74","74","3","C:/Users/csapu/Desktop/subject-5071747.csv","legacy","Lentiform Loewenfeld","3.3.7","yes","yes","600bd7cfb6416f0113b04181","602110864497cf011d9c0822","0","j","NA","space","space","space","space","j","674","NA","4882","17466","11424","44526","674","2","legacy","1024","2","48000","-16","task","5071747","odd","NA","41781","48664","43782","283373","2961","31854","20429","283874","181282","283371","283874","283295","48664","284549","39753","279760","2958","281795","Lexical Decision Task","61","98677","79","yes","1024"
"2.907588697","8.91","9","mood","word","77.5","77.5","1243.3125","1243.3125","black","no","legacy","legacy","legacy","0","uniform","1","undefined","undefined","undefined","1","j","0","0","0","0","79","0","0","0","79","0","75","79","75","0","75","3","79","0","79","Thu Feb 18 13:12:22 2021","The main experiment item","yes","Lexical_Decision_Task.osexp","C:/Users/csapu","no","Andale Mono","no","18","no","white","no","yes","576","legacy","75","75","3","C:/Users/csapu/Desktop/subject-5071747.csv","legacy","Lentiform Loewenfeld","3.3.7","yes","yes","600bd7cfb6416f0113b04181","602110864497cf011d9c0822","0","j","NA","space","space","space","space","j","788","NA","4882","17466","11424","44526","788","2","legacy","1024","2","48000","-16","task","5071747","odd","NA","41781","48664","43782","285123","2961","31854","20429","285624","181282","285122","285624","285054","48664","286413","39753","284554","2958","281795","Lexical Decision Task","62","99465","80","yes","1024"
"3.049218023","7.4","9","robe","word","77.77777777777777","77.77777777777777","1238.4567901234568","1238.4567901234568","black","no","legacy","legacy","legacy","0","uniform","1","undefined","undefined","undefined","1","j","0","0","0","0","80","0","0","0","80","0","76","80","76","0","76","3","80","0","80","Thu Feb 18 13:12:22 2021","The main experiment item","yes","Lexical_Decision_Task.osexp","C:/Users/csapu","no","Andale Mono","no","18","no","white","no","yes","576","legacy","76","76","3","C:/Users/csapu/Desktop/subject-5071747.csv","legacy","Lentiform Loewenfeld","3.3.7","yes","yes","600bd7cfb6416f0113b04181","602110864497cf011d9c0822","0","j","NA","space","space","space","space","j","850","NA","4882","17466","11424","44526","850","2","legacy","1024","2","48000","-16","task","5071747","odd","NA","41781","48664","43782","286988","2961","31854","20429","287489","181282","286987","287489","286918","48664","288340","39753","286418","2958","281795","Lexical Decision Task","63","100315","81","yes","1024"
"3.195807436","0","6","stup","non-word","76.82926829268293","76.82926829268293","1230.7682926829268","1230.7682926829268","black","no","legacy","legacy","legacy","0","uniform","0","undefined","undefined","undefined","0","f","0","0","0","0","81","0","0","0","81","0","77","81","77","0","77","3","81","0","81","Thu Feb 18 13:12:22 2021","The main experiment item","yes","Lexical_Decision_Task.osexp","C:/Users/csapu","no","Andale Mono","no","18","no","white","no","yes","576","legacy","77","77","3","C:/Users/csapu/Desktop/subject-5071747.csv","legacy","Lentiform Loewenfeld","3.3.7","yes","yes","600bd7cfb6416f0113b04181","602110864497cf011d9c0822","0","j","NA","space","space","space","space","j","608","NA","4882","17466","11424","44526","608","2","legacy","1024","2","48000","-16","task","5071747","odd","NA","41781","48664","43782","288912","2961","31854","20429","289413","181282","288910","289413","288844","48664","290022","39753","288344","2958","281795","Lexical Decision Task","63","100923","82","yes","1024"
"2.695481676","0","7","goke","non-word","75.90361445783132","75.90361445783132","1226.9277108433735","1226.9277108433735","black","no","legacy","legacy","legacy","0","uniform","0","undefined","undefined","undefined","0","f","0","0","0","0","82","0","0","0","82","0","78","82","78","0","78","3","82","0","82","Thu Feb 18 13:12:22 2021","The main experiment item","yes","Lexical_Decision_Task.osexp","C:/Users/csapu","no","Andale Mono","no","18","no","white","no","yes","576","legacy","78","78","3","C:/Users/csapu/Desktop/subject-5071747.csv","legacy","Lentiform Loewenfeld","3.3.7","yes","yes","600bd7cfb6416f0113b04181","602110864497cf011d9c0822","0","j","NA","space","space","space","space","j","912","NA","4882","17466","11424","44526","912","2","legacy","1024","2","48000","-16","task","5071747","odd","NA","41781","48664","43782","291600","2961","31854","20429","292101","181282","291598","292101","291526","48664","293015","39753","288344","2958","290026","Lexical Decision Task","63","101835","83","yes","1024"
"2.814027728","8.2","4","foam","word","76.19047619047619","76.19047619047619","1220.9880952380952","1220.9880952380952","black","no","legacy","legacy","legacy","0","uniform","1","undefined","undefined","undefined","1","j","0","0","0","0","83","0","0","0","83","0","79","83","79","0","79","3","83","0","83","Thu Feb 18 13:12:22 2021","The main experiment item","yes","Lexical_Decision_Task.osexp","C:/Users/csapu","no","Andale Mono","no","18","no","white","no","yes","576","legacy","79","79","3","C:/Users/csapu/Desktop/subject-5071747.csv","legacy","Lentiform Loewenfeld","3.3.7","yes","yes","600bd7cfb6416f0113b04181","602110864497cf011d9c0822","0","j","NA","space","space","space","space","j","728","NA","4882","17466","11424","44526","728","2","legacy","1024","2","48000","-16","task","5071747","odd","NA","41781","48664","43782","294590","2961","31854","20429","295091","181282","294589","295091","294519","48664","295821","39753","288344","2958","293019","Lexical Decision Task","64","102563","84","yes","1024"
"3.1430148","7.92","8","bald","word","76.47058823529412","76.47058823529412","1217.4823529411765","1217.4823529411765","black","no","legacy","legacy","legacy","0","uniform","1","undefined","undefined","undefined","1","j","0","0","0","0","84","0","0","0","84","0","80","84","80","0","80","3","84","0","84","Thu Feb 18 13:12:22 2021","The main experiment item","yes","Lexical_Decision_Task.osexp","C:/Users/csapu","no","Andale Mono","no","18","no","white","no","yes","576","legacy","80","80","3","C:/Users/csapu/Desktop/subject-5071747.csv","legacy","Lentiform Loewenfeld","3.3.7","yes","yes","600bd7cfb6416f0113b04181","602110864497cf011d9c0822","0","j","NA","space","space","space","space","j","923","NA","4882","17466","11424","44526","923","2","legacy","1024","2","48000","-16","task","5071747","odd","NA","41781","48664","43782","296399","2961","31854","20429","296901","181282","296397","296901","296325","48664","297825","39753","295825","2958","293019","Lexical Decision Task","65","103486","85","yes","1024"
"3.372543801","9.24","8","coat","word","76.74418604651163","76.74418604651163","1215.8139534883721","1215.8139534883721","black","no","legacy","legacy","legacy","0","uniform","1","undefined","undefined","undefined","1","j","0","0","0","0","85","0","0","0","85","0","81","85","81","0","81","3","85","0","85","Thu Feb 18 13:12:22 2021","The main experiment item","yes","Lexical_Decision_Task.osexp","C:/Users/csapu","no","Andale Mono","no","18","no","white","no","yes","576","legacy","81","81","3","C:/Users/csapu/Desktop/subject-5071747.csv","legacy","Lentiform Loewenfeld","3.3.7","yes","yes","600bd7cfb6416f0113b04181","602110864497cf011d9c0822","0","j","NA","space","space","space","space","j","1074","NA","4882","17466","11424","44526","1074","2","legacy","1024","2","48000","-16","task","5071747","odd","NA","41781","48664","43782","298401","2961","31854","20429","298902","181282","298400","298902","298331","48664","299977","39753","297831","2958","293019","Lexical Decision Task","66","104560","86","yes","1024"
"2.703007489","8.37","3","pulp","word","77.01149425287356","77.01149425287356","1210.7356321839081","1210.7356321839081","black","no","legacy","legacy","legacy","0","uniform","1","undefined","undefined","undefined","1","j","0","0","0","0","86","0","0","0","86","0","82","86","82","0","82","3","86","0","86","Thu Feb 18 13:12:22 2021","The main experiment item","yes","Lexical_Decision_Task.osexp","C:/Users/csapu","no","Andale Mono","no","18","no","white","no","yes","576","legacy","82","82","3","C:/Users/csapu/Desktop/subject-5071747.csv","legacy","Lentiform Loewenfeld","3.3.7","yes","yes","600bd7cfb6416f0113b04181","602110864497cf011d9c0822","0","j","NA","space","space","space","space","j","774","NA","4882","17466","11424","44526","774","2","legacy","1024","2","48000","-16","task","5071747","odd","NA","41781","48664","43782","300552","2961","31854","20429","301053","181282","300550","301053","300481","48664","301828","39753","299981","2958","293019","Lexical Decision Task","67","105334","87","yes","1024"
"3.100255637","0","6","brax","non-word","77.27272727272727","77.27272727272727","1204.9886363636363","1204.9886363636363","black","no","legacy","legacy","legacy","0","uniform","1","undefined","undefined","undefined","1","f","0","0","0","0","87","0","0","0","87","0","83","87","83","0","83","3","87","0","87","Thu Feb 18 13:12:22 2021","The main experiment item","yes","Lexical_Decision_Task.osexp","C:/Users/csapu","no","Andale Mono","no","18","no","white","no","yes","576","legacy","83","83","3","C:/Users/csapu/Desktop/subject-5071747.csv","legacy","Lentiform Loewenfeld","3.3.7","yes","yes","600bd7cfb6416f0113b04181","602110864497cf011d9c0822","0","f","NA","space","space","space","space","f","705","NA","4882","17466","11424","44526","705","2","legacy","1024","2","48000","-16","task","5071747","odd","NA","41781","48664","43782","302416","2961","31854","20429","302917","181282","302415","302917","302332","48664","303623","39753","301832","2958","293019","Lexical Decision Task","68","106039","88","yes","1024"
"2.708989954","9.28","9","bowl","word","77.52808988764045","77.52808988764045","1198.752808988764","1198.752808988764","black","no","legacy","legacy","legacy","0","uniform","1","undefined","undefined","undefined","1","j","0","0","0","0","88","0","0","0","88","0","84","88","84","0","84","3","88","0","88","Thu Feb 18 13:12:22 2021","The main experiment item","yes","Lexical_Decision_Task.osexp","C:/Users/csapu","no","Andale Mono","no","18","no","white","no","yes","576","legacy","84","84","3","C:/Users/csapu/Desktop/subject-5071747.csv","legacy","Lentiform Loewenfeld","3.3.7","yes","yes","600bd7cfb6416f0113b04181","602110864497cf011d9c0822","0","j","NA","space","space","space","space","j","650","NA","4882","17466","11424","44526","650","2","legacy","1024","2","48000","-16","task","5071747","odd","NA","41781","48664","43782","304194","2961","31854","20429","304695","181282","304193","304695","304127","48664","305347","39753","303627","2958","293019","Lexical Decision Task","69","106689","89","yes","1024"
"2.668385917","5.48","4","twig","word","76.66666666666667","76.66666666666667","1193","1193","black","no","legacy","legacy","legacy","0","uniform","0","undefined","undefined","undefined","0","j","0","0","0","0","89","0","0","0","89","0","85","89","85","0","85","3","89","0","89","Thu Feb 18 13:12:22 2021","The main experiment item","yes","Lexical_Decision_Task.osexp","C:/Users/csapu","no","Andale Mono","no","18","no","white","no","yes","576","legacy","85","85","3","C:/Users/csapu/Desktop/subject-5071747.csv","legacy","Lentiform Loewenfeld","3.3.7","yes","yes","600bd7cfb6416f0113b04181","602110864497cf011d9c0822","0","f","NA","space","space","space","space","f","681","NA","4882","17466","11424","44526","681","2","legacy","1024","2","48000","-16","task","5071747","odd","NA","41781","48664","43782","305925","2961","31854","20429","306426","181282","305923","306426","305852","48664","307108","39753","305352","2958","293019","Lexical Decision Task","69","107370","90","yes","1024"
"2.952953801","0","8","clax","non-word","75.82417582417582","75.82417582417582","1189.4835164835165","1189.4835164835165","black","no","legacy","legacy","legacy","0","uniform","0","undefined","undefined","undefined","0","f","0","0","0","0","90","0","0","0","90","0","86","90","86","0","86","3","90","0","90","Thu Feb 18 13:12:22 2021","The main experiment item","yes","Lexical_Decision_Task.osexp","C:/Users/csapu","no","Andale Mono","no","18","no","white","no","yes","576","legacy","86","86","3","C:/Users/csapu/Desktop/subject-5071747.csv","legacy","Lentiform Loewenfeld","3.3.7","yes","yes","600bd7cfb6416f0113b04181","602110864497cf011d9c0822","0","j","NA","space","space","space","space","j","873","NA","4882","17466","11424","44526","873","2","legacy","1024","2","48000","-16","task","5071747","odd","NA","41781","48664","43782","308681","2961","31854","20429","309184","181282","308680","309184","308613","48664","310058","39753","305352","2958","307113","Lexical Decision Task","69","108243","91","yes","1024"
"2.884795364","0","6","flob","non-word","76.08695652173913","76.08695652173913","1186.5978260869565","1186.5978260869565","black","no","legacy","legacy","legacy","0","uniform","1","undefined","undefined","undefined","1","f","0","0","0","0","91","0","0","0","91","0","87","91","87","0","87","3","91","0","91","Thu Feb 18 13:12:22 2021","The main experiment item","yes","Lexical_Decision_Task.osexp","C:/Users/csapu","no","Andale Mono","no","18","no","white","no","yes","576","legacy","87","87","3","C:/Users/csapu/Desktop/subject-5071747.csv","legacy","Lentiform Loewenfeld","3.3.7","yes","yes","600bd7cfb6416f0113b04181","602110864497cf011d9c0822","0","f","NA","space","space","space","space","f","924","NA","4882","17466","11424","44526","924","2","legacy","1024","2","48000","-16","task","5071747","odd","NA","41781","48664","43782","311629","2961","31854","20429","312130","181282","311627","312130","311561","48664","313055","39753","305352","2958","310061","Lexical Decision Task","70","109167","92","yes","1024"
"2.809559715","8.44","4","volt","word","76.34408602150538","76.34408602150538","1184.7096774193549","1184.7096774193549","black","no","legacy","legacy","legacy","0","uniform","1","undefined","undefined","undefined","1","j","0","0","0","0","92","0","0","0","92","0","88","92","88","0","88","3","92","0","92","Thu Feb 18 13:12:22 2021","The main experiment item","yes","Lexical_Decision_Task.osexp","C:/Users/csapu","no","Andale Mono","no","18","no","white","no","yes","576","legacy","88","88","3","C:/Users/csapu/Desktop/subject-5071747.csv","legacy","Lentiform Loewenfeld","3.3.7","yes","yes","600bd7cfb6416f0113b04181","602110864497cf011d9c0822","0","j","NA","space","space","space","space","j","1011","NA","4882","17466","11424","44526","1011","2","legacy","1024","2","48000","-16","task","5071747","odd","NA","41781","48664","43782","313629","2961","31854","20429","314130","181282","313627","314130","313559","48664","315142","39753","313059","2958","310061","Lexical Decision Task","71","110178","93","yes","1024"
"2.706148589","0","4","hube","non-word","75.53191489361703","75.53191489361703","1181.095744680851","1181.095744680851","black","no","legacy","legacy","legacy","0","uniform","0","undefined","undefined","undefined","0","f","0","0","0","0","93","0","0","0","93","0","89","93","89","0","89","3","93","0","93","Thu Feb 18 13:12:22 2021","The main experiment item","yes","Lexical_Decision_Task.osexp","C:/Users/csapu","no","Andale Mono","no","18","no","white","no","yes","576","legacy","89","89","3","C:/Users/csapu/Desktop/subject-5071747.csv","legacy","Lentiform Loewenfeld","3.3.7","yes","yes","600bd7cfb6416f0113b04181","602110864497cf011d9c0822","0","j","NA","space","space","space","space","j","845","NA","4882","17466","11424","44526","845","2","legacy","1024","2","48000","-16","task","5071747","odd","NA","41781","48664","43782","315716","2961","31854","20429","316218","181282","315715","316218","315647","48664","317064","39753","315147","2958","310061","Lexical Decision Task","71","111023","94","yes","1024"
"3.248054965","7.86","5","glow","word","75.78947368421052","75.78947368421052","1180.957894736842","1180.957894736842","black","no","legacy","legacy","legacy","0","uniform","1","undefined","undefined","undefined","1","j","0","0","0","0","94","0","0","0","94","0","90","94","90","0","90","3","94","0","94","Thu Feb 18 13:12:22 2021","The main experiment item","yes","Lexical_Decision_Task.osexp","C:/Users/csapu","no","Andale Mono","no","18","no","white","no","yes","576","legacy","90","90","3","C:/Users/csapu/Desktop/subject-5071747.csv","legacy","Lentiform Loewenfeld","3.3.7","yes","yes","600bd7cfb6416f0113b04181","602110864497cf011d9c0822","0","j","NA","space","space","space","space","j","1168","NA","4882","17466","11424","44526","1168","2","legacy","1024","2","48000","-16","task","5071747","odd","NA","41781","48664","43782","318638","2961","31854","20429","319139","181282","318637","319139","318568","48664","320308","39753","315147","2958","317068","Lexical Decision Task","72","112191","95","yes","1024"
"2.67699827","0","6","hulf","non-word","76.04166666666667","76.04166666666667","1178.3020833333333","1178.3020833333333","black","no","legacy","legacy","legacy","0","uniform","1","undefined","undefined","undefined","1","f","0","0","0","0","95","0","0","0","95","0","91","95","91","0","91","3","95","0","95","Thu Feb 18 13:12:22 2021","The main experiment item","yes","Lexical_Decision_Task.osexp","C:/Users/csapu","no","Andale Mono","no","18","no","white","no","yes","576","legacy","91","91","3","C:/Users/csapu/Desktop/subject-5071747.csv","legacy","Lentiform Loewenfeld","3.3.7","yes","yes","600bd7cfb6416f0113b04181","602110864497cf011d9c0822","0","f","NA","space","space","space","space","f","926","NA","4882","17466","11424","44526","926","2","legacy","1024","2","48000","-16","task","5071747","odd","NA","41781","48664","43782","320880","2961","31854","20429","321381","181282","320878","321381","320812","48664","322309","39753","320312","2958","317068","Lexical Decision Task","73","113117","96","yes","1024"
"2.875447132","0","9","jelt","non-word","76.28865979381443","76.28865979381443","1173.5051546391753","1173.5051546391753","black","no","legacy","legacy","legacy","0","uniform","1","undefined","undefined","undefined","1","f","0","0","0","0","96","0","0","0","96","0","92","96","92","0","92","3","96","0","96","Thu Feb 18 13:12:22 2021","The main experiment item","yes","Lexical_Decision_Task.osexp","C:/Users/csapu","no","Andale Mono","no","18","no","white","no","yes","576","legacy","92","92","3","C:/Users/csapu/Desktop/subject-5071747.csv","legacy","Lentiform Loewenfeld","3.3.7","yes","yes","600bd7cfb6416f0113b04181","602110864497cf011d9c0822","0","f","NA","space","space","space","space","f","713","NA","4882","17466","11424","44526","713","2","legacy","1024","2","48000","-16","task","5071747","odd","NA","41781","48664","43782","322881","2961","31854","20429","323382","181282","322879","323382","322813","48664","324096","39753","322313","2958","317068","Lexical Decision Task","74","113830","97","yes","1024"
"3.194328374","9.42","6","harm","word","76.53061224489795","76.53061224489795","1168.9489795918366","1168.9489795918366","black","no","legacy","legacy","legacy","0","uniform","1","undefined","undefined","undefined","1","j","0","0","0","0","97","0","0","0","97","0","93","97","93","0","93","3","97","0","97","Thu Feb 18 13:12:22 2021","The main experiment item","yes","Lexical_Decision_Task.osexp","C:/Users/csapu","no","Andale Mono","no","18","no","white","no","yes","576","legacy","93","93","3","C:/Users/csapu/Desktop/subject-5071747.csv","legacy","Lentiform Loewenfeld","3.3.7","yes","yes","600bd7cfb6416f0113b04181","602110864497cf011d9c0822","0","j","NA","space","space","space","space","j","727","NA","4882","17466","11424","44526","727","2","legacy","1024","2","48000","-16","task","5071747","odd","NA","41781","48664","43782","324668","2961","31854","20429","325169","181282","324667","325169","324600","48664","325898","39753","324100","2958","317068","Lexical Decision Task","75","114557","98","yes","1024"
"2.920123326","7.43","4","duel","word","76.76767676767676","76.76767676767676","1170.2626262626263","1170.2626262626263","black","no","legacy","legacy","legacy","0","uniform","1","undefined","undefined","undefined","1","j","0","0","0","0","98","0","0","0","98","0","94","98","94","0","94","3","98","0","98","Thu Feb 18 13:12:22 2021","The main experiment item","yes","Lexical_Decision_Task.osexp","C:/Users/csapu","no","Andale Mono","no","18","no","white","no","yes","576","legacy","94","94","3","C:/Users/csapu/Desktop/subject-5071747.csv","legacy","Lentiform Loewenfeld","3.3.7","yes","yes","600bd7cfb6416f0113b04181","602110864497cf011d9c0822","0","j","NA","space","space","space","space","j","1299","NA","4882","17466","11424","44526","1299","2","legacy","1024","2","48000","-16","task","5071747","odd","NA","41781","48664","43782","326472","2961","31854","20429","326974","181282","326470","326975","326404","48664","328275","39753","325904","2958","317068","Lexical Decision Task","76","115856","99","yes","1024"
"3.082307743","9.68","8","camp","word","77","77","1167.75","1167.75","black","no","legacy","legacy","legacy","0","uniform","1","undefined","undefined","undefined","1","j","0","0","0","0","99","0","0","0","99","0","95","99","95","0","95","3","99","0","99","Thu Feb 18 13:12:22 2021","The main experiment item","yes","Lexical_Decision_Task.osexp","C:/Users/csapu","no","Andale Mono","no","18","no","white","no","yes","576","legacy","95","95","3","C:/Users/csapu/Desktop/subject-5071747.csv","legacy","Lentiform Loewenfeld","3.3.7","yes","yes","600bd7cfb6416f0113b04181","602110864497cf011d9c0822","0","j","NA","space","space","space","space","j","919","NA","4882","17466","11424","44526","919","2","legacy","1024","2","48000","-16","task","5071747","odd","NA","41781","48664","43782","328846","2961","31854","20429","329347","181282","328844","329347","328778","48664","330267","39753","328278","2958","317068","Lexical Decision Task","77","116775","100","yes","1024"
"3.16326079","0","5","parg","non-word","77.22772277227723","77.22772277227723","1163.4752475247524","1163.4752475247524","black","no","legacy","legacy","legacy","0","uniform","1","undefined","undefined","undefined","1","f","0","0","0","0","100","0","0","0","100","0","96","100","96","0","96","3","100","0","100","Thu Feb 18 13:12:22 2021","The main experiment item","yes","Lexical_Decision_Task.osexp","C:/Users/csapu","no","Andale Mono","no","18","no","white","no","yes","576","legacy","96","96","3","C:/Users/csapu/Desktop/subject-5071747.csv","legacy","Lentiform Loewenfeld","3.3.7","yes","yes","600bd7cfb6416f0113b04181","602110864497cf011d9c0822","0","f","NA","space","space","space","space","f","736","NA","4882","17466","11424","44526","736","2","legacy","1024","2","48000","-16","task","5071747","odd","NA","41781","48664","43782","330843","2961","31854","20429","331344","181282","330841","331344","330770","48664","332081","39753","330270","2958","317068","Lexical Decision Task","78","117511","101","yes","1024"
