"Log_BG","Log_Freq_HAL","Ortho_N","Stimulus","Type","acc","accuracy","average_response_time","avg_rt","background","bidi","canvas_backend","clock_backend","color_backend","compensation","coordinates","correct","correct_Experimental_intro","correct_Introduction","correct_Practice_intro","correct_experimenter_kb","correct_response","count_End_Of_Experiment","count_End_Of_Practice","count_Experimental_Loop","count_Experimental_intro","count_Fixation","count_Introduction","count_Practice_Loop","count_Practice_intro","count_Stimulus","count_block_break_feedback","count_experimental_sequence","count_experimenter_kb","count_increment_trial_count","count_init_trial_count","count_logger","count_practice_sequence","count_right","count_task","count_wrong","datetime","description","disable_garbage_collection","experiment_file","experiment_path","font_bold","font_family","font_italic","font_size","font_underline","foreground","form_clicks","fullscreen","height","keyboard_backend","live_row","live_row_Experimental_Loop","live_row_Practice_Loop","logfile","mouse_backend","opensesame_codename","opensesame_version","osf_always_upload_data","osf_always_upload_experiment","osf_datanode_id","osf_id","repeat_cycle","response","response_End_Of_Experiment","response_Experimental_intro","response_Introduction","response_Practice_intro","response_block_break_feedback","response_experimenter_kb","response_time","response_time_End_Of_Experiment","response_time_Experimental_intro","response_time_Introduction","response_time_Practice_intro","response_time_block_break_feedback","response_time_experimenter_kb","round_decimals","sampler_backend","sound_buf_size","sound_channels","sound_freq","sound_sample_size","start","subject_nr","subject_parity","time_End_Of_Experiment","time_End_Of_Practice","time_Experimental_Loop","time_Experimental_intro","time_Fixation","time_Introduction","time_Practice_Loop","time_Practice_intro","time_Stimulus","time_block_break_feedback","time_experimental_sequence","time_experimenter_kb","time_increment_trial_count","time_init_trial_count","time_logger","time_practice_sequence","time_right","time_task","time_wrong","title","total_correct","total_response_time","total_responses","uniform_coordinates","width"
"3.119255889","6.63","2","itch","word","100","100","695.4","695.4","black","no","legacy","legacy","legacy","0","uniform","1","undefined","undefined","undefined","1","j","0","0","0","0","4","0","0","0","4","NA","0","4","0","0","0","3","4","0","4","Wed Feb 17 12:17:54 2021","The main experiment item","yes","Lexical_Decision_Task.osexp","C:/Users/milli/OneDrive/Documents/Cognition and Language/Assignment","no","Andale Mono","no","18","no","white","no","yes","576","legacy","0","0","3","C:/Users/milli/OneDrive/Documents/Cognition and Language/Assignment/subject-5226272.csv","legacy","Lentiform Loewenfeld","3.3.7","yes","yes","600bd7cfb6416f0113b04181","602110864497cf011d9c0822","0","j","NA","j","j","j","NA","j","697","NA","2555","22396","8081","NA","697","2","legacy","1024","2","48000","-16","task","5226272","even","NA","40220","44776","42221","44809","2643","33123","25041","45311","NA","44808","45312","NA","44776","46010","38605","39695","2634","NA","Lexical Decision Task","5","3477","5","yes","1024"
"3.248054965","7.86","5","glow","word","100","100","664.1666666666666","664.1666666666666","black","no","legacy","legacy","legacy","0","uniform","1","undefined","undefined","undefined","1","j","0","0","0","0","5","0","0","0","5","NA","1","5","1","0","1","3","5","0","5","Wed Feb 17 12:17:54 2021","The main experiment item","yes","Lexical_Decision_Task.osexp","C:/Users/milli/OneDrive/Documents/Cognition and Language/Assignment","no","Andale Mono","no","18","no","white","no","yes","576","legacy","1","1","3","C:/Users/milli/OneDrive/Documents/Cognition and Language/Assignment/subject-5226272.csv","legacy","Lentiform Loewenfeld","3.3.7","yes","yes","600bd7cfb6416f0113b04181","602110864497cf011d9c0822","0","j","NA","j","j","j","NA","j","508","NA","2555","22396","8081","NA","508","2","legacy","1024","2","48000","-16","task","5226272","even","NA","40220","44776","42221","46580","2643","33123","25041","47082","NA","46579","47082","46517","44776","47591","38605","46017","2634","NA","Lexical Decision Task","6","3985","6","yes","1024"
"2.705007959","6.01","4","wept","word","85.71428571428571","85.71428571428571","652.8571428571429","652.8571428571429","black","no","legacy","legacy","legacy","0","uniform","0","undefined","undefined","undefined","0","j","0","0","0","0","6","0","0","0","6","NA","2","6","2","0","2","3","6","0","6","Wed Feb 17 12:17:54 2021","The main experiment item","yes","Lexical_Decision_Task.osexp","C:/Users/milli/OneDrive/Documents/Cognition and Language/Assignment","no","Andale Mono","no","18","no","white","no","yes","576","legacy","2","2","3","C:/Users/milli/OneDrive/Documents/Cognition and Language/Assignment/subject-5226272.csv","legacy","Lentiform Loewenfeld","3.3.7","yes","yes","600bd7cfb6416f0113b04181","602110864497cf011d9c0822","0","f","NA","j","j","j","NA","f","585","NA","2555","22396","8081","NA","585","2","legacy","1024","2","48000","-16","task","5226272","even","NA","40220","44776","42221","48145","2643","33123","25041","48647","NA","48144","48647","48096","44776","49233","38605","47596","2634","NA","Lexical Decision Task","6","4570","7","yes","1024"
"3.120135028","0","3","vals","non-word","87.5","87.5","675.375","675.375","black","no","legacy","legacy","legacy","0","uniform","1","undefined","undefined","undefined","1","f","0","0","0","0","7","0","0","0","7","NA","3","7","3","0","3","3","7","0","7","Wed Feb 17 12:17:54 2021","The main experiment item","yes","Lexical_Decision_Task.osexp","C:/Users/milli/OneDrive/Documents/Cognition and Language/Assignment","no","Andale Mono","no","18","no","white","no","yes","576","legacy","3","3","3","C:/Users/milli/OneDrive/Documents/Cognition and Language/Assignment/subject-5226272.csv","legacy","Lentiform Loewenfeld","3.3.7","yes","yes","600bd7cfb6416f0113b04181","602110864497cf011d9c0822","0","f","NA","j","j","j","NA","f","833","NA","2555","22396","8081","NA","833","2","legacy","1024","2","48000","-16","task","5226272","even","NA","40220","44776","42221","50796","2643","33123","25041","51297","NA","50795","51297","50738","44776","52131","38605","47596","2634","49238","Lexical Decision Task","7","5403","8","yes","1024"
"2.693726949","5.08","3","swig","word","77.77777777777777","77.77777777777777","933.6666666666666","933.6666666666666","black","no","legacy","legacy","legacy","0","uniform","0","undefined","undefined","undefined","0","j","0","0","0","0","8","0","0","0","8","NA","4","8","4","0","4","3","8","0","8","Wed Feb 17 12:17:54 2021","The main experiment item","yes","Lexical_Decision_Task.osexp","C:/Users/milli/OneDrive/Documents/Cognition and Language/Assignment","no","Andale Mono","no","18","no","white","no","yes","576","legacy","4","4","3","C:/Users/milli/OneDrive/Documents/Cognition and Language/Assignment/subject-5226272.csv","legacy","Lentiform Loewenfeld","3.3.7","yes","yes","600bd7cfb6416f0113b04181","602110864497cf011d9c0822","0","None","NA","j","j","j","NA","None","3000","NA","2555","22396","8081","NA","3000","2","legacy","1024","2","48000","-16","task","5226272","even","NA","40220","44776","42221","52688","2643","33123","25041","53190","NA","52687","53190","52635","44776","56190","38605","52135","2634","49238","Lexical Decision Task","7","8403","9","yes","1024"
"3.168400243","9.12","6","horn","word","80","80","902.6","902.6","black","no","legacy","legacy","legacy","0","uniform","1","undefined","undefined","undefined","1","j","0","0","0","0","9","0","0","0","9","NA","5","9","5","0","5","3","9","0","9","Wed Feb 17 12:17:54 2021","The main experiment item","yes","Lexical_Decision_Task.osexp","C:/Users/milli/OneDrive/Documents/Cognition and Language/Assignment","no","Andale Mono","no","18","no","white","no","yes","576","legacy","5","5","3","C:/Users/milli/OneDrive/Documents/Cognition and Language/Assignment/subject-5226272.csv","legacy","Lentiform Loewenfeld","3.3.7","yes","yes","600bd7cfb6416f0113b04181","602110864497cf011d9c0822","0","j","NA","j","j","j","NA","j","623","NA","2555","22396","8081","NA","623","2","legacy","1024","2","48000","-16","task","5226272","even","NA","40220","44776","42221","57814","2643","33123","25041","58316","NA","57812","58317","57697","44776","58941","38605","52135","2634","56197","Lexical Decision Task","8","9026","10","yes","1024"
"3.374137706","10.21","4","tree","word","81.81818181818181","81.81818181818181","901.7272727272727","901.7272727272727","black","no","legacy","legacy","legacy","0","uniform","1","undefined","undefined","undefined","1","j","0","0","0","0","10","0","0","0","10","NA","6","10","6","0","6","3","10","0","10","Wed Feb 17 12:17:54 2021","The main experiment item","yes","Lexical_Decision_Task.osexp","C:/Users/milli/OneDrive/Documents/Cognition and Language/Assignment","no","Andale Mono","no","18","no","white","no","yes","576","legacy","6","6","3","C:/Users/milli/OneDrive/Documents/Cognition and Language/Assignment/subject-5226272.csv","legacy","Lentiform Loewenfeld","3.3.7","yes","yes","600bd7cfb6416f0113b04181","602110864497cf011d9c0822","0","j","NA","j","j","j","NA","j","893","NA","2555","22396","8081","NA","893","2","legacy","1024","2","48000","-16","task","5226272","even","NA","40220","44776","42221","59550","2643","33123","25041","60053","NA","59548","60053","59446","44776","60947","38605","58946","2634","56197","Lexical Decision Task","9","9919","11","yes","1024"
"2.843025032","0","9","pusk","non-word","83.33333333333333","83.33333333333333","890.8333333333334","890.8333333333334","black","no","legacy","legacy","legacy","0","uniform","1","undefined","undefined","undefined","1","f","0","0","0","0","11","0","0","0","11","NA","7","11","7","0","7","3","11","0","11","Wed Feb 17 12:17:54 2021","The main experiment item","yes","Lexical_Decision_Task.osexp","C:/Users/milli/OneDrive/Documents/Cognition and Language/Assignment","no","Andale Mono","no","18","no","white","no","yes","576","legacy","7","7","3","C:/Users/milli/OneDrive/Documents/Cognition and Language/Assignment/subject-5226272.csv","legacy","Lentiform Loewenfeld","3.3.7","yes","yes","600bd7cfb6416f0113b04181","602110864497cf011d9c0822","0","f","NA","j","j","j","NA","f","771","NA","2555","22396","8081","NA","771","2","legacy","1024","2","48000","-16","task","5226272","even","NA","40220","44776","42221","61563","2643","33123","25041","62065","NA","61561","62065","61461","44776","62837","38605","60961","2634","56197","Lexical Decision Task","10","10690","12","yes","1024"
"2.799799878","0","4","ciff","non-word","84.61538461538461","84.61538461538461","880.6153846153846","880.6153846153846","black","no","legacy","legacy","legacy","0","uniform","1","undefined","undefined","undefined","1","f","0","0","0","0","12","0","0","0","12","NA","8","12","8","0","8","3","12","0","12","Wed Feb 17 12:17:54 2021","The main experiment item","yes","Lexical_Decision_Task.osexp","C:/Users/milli/OneDrive/Documents/Cognition and Language/Assignment","no","Andale Mono","no","18","no","white","no","yes","576","legacy","8","8","3","C:/Users/milli/OneDrive/Documents/Cognition and Language/Assignment/subject-5226272.csv","legacy","Lentiform Loewenfeld","3.3.7","yes","yes","600bd7cfb6416f0113b04181","602110864497cf011d9c0822","0","f","NA","j","j","j","NA","f","758","NA","2555","22396","8081","NA","758","2","legacy","1024","2","48000","-16","task","5226272","even","NA","40220","44776","42221","63445","2643","33123","25041","63947","NA","63442","63947","63341","44776","64706","38605","62841","2634","56197","Lexical Decision Task","11","11448","13","yes","1024"
"2.67699827","0","6","hulf","non-word","85.71428571428571","85.71428571428571","871.2857142857143","871.2857142857143","black","no","legacy","legacy","legacy","0","uniform","1","undefined","undefined","undefined","1","f","0","0","0","0","13","0","0","0","13","NA","9","13","9","0","9","3","13","0","13","Wed Feb 17 12:17:54 2021","The main experiment item","yes","Lexical_Decision_Task.osexp","C:/Users/milli/OneDrive/Documents/Cognition and Language/Assignment","no","Andale Mono","no","18","no","white","no","yes","576","legacy","9","9","3","C:/Users/milli/OneDrive/Documents/Cognition and Language/Assignment/subject-5226272.csv","legacy","Lentiform Loewenfeld","3.3.7","yes","yes","600bd7cfb6416f0113b04181","602110864497cf011d9c0822","0","f","NA","j","j","j","NA","f","750","NA","2555","22396","8081","NA","750","2","legacy","1024","2","48000","-16","task","5226272","even","NA","40220","44776","42221","65331","2643","33123","25041","65833","NA","65328","65833","65228","44776","66583","38605","64728","2634","56197","Lexical Decision Task","12","12198","14","yes","1024"
"2.698387659","6.66","7","skid","word","86.66666666666667","86.66666666666667","863.4","863.4","black","no","legacy","legacy","legacy","0","uniform","1","undefined","undefined","undefined","1","j","0","0","0","0","14","0","0","0","14","NA","10","14","10","0","10","3","14","0","14","Wed Feb 17 12:17:54 2021","The main experiment item","yes","Lexical_Decision_Task.osexp","C:/Users/milli/OneDrive/Documents/Cognition and Language/Assignment","no","Andale Mono","no","18","no","white","no","yes","576","legacy","10","10","3","C:/Users/milli/OneDrive/Documents/Cognition and Language/Assignment/subject-5226272.csv","legacy","Lentiform Loewenfeld","3.3.7","yes","yes","600bd7cfb6416f0113b04181","602110864497cf011d9c0822","0","j","NA","j","j","j","NA","j","753","NA","2555","22396","8081","NA","753","2","legacy","1024","2","48000","-16","task","5226272","even","NA","40220","44776","42221","67211","2643","33123","25041","67713","NA","67208","67713","67107","44776","68467","38605","66607","2634","56197","Lexical Decision Task","13","12951","15","yes","1024"
"3.252447662","9.67","9","boat","word","87.5","87.5","845.375","845.375","black","no","legacy","legacy","legacy","0","uniform","1","undefined","undefined","undefined","1","j","0","0","0","0","15","0","0","0","15","NA","11","15","11","0","11","3","15","0","15","Wed Feb 17 12:17:54 2021","The main experiment item","yes","Lexical_Decision_Task.osexp","C:/Users/milli/OneDrive/Documents/Cognition and Language/Assignment","no","Andale Mono","no","18","no","white","no","yes","576","legacy","11","11","3","C:/Users/milli/OneDrive/Documents/Cognition and Language/Assignment/subject-5226272.csv","legacy","Lentiform Loewenfeld","3.3.7","yes","yes","600bd7cfb6416f0113b04181","602110864497cf011d9c0822","0","j","NA","j","j","j","NA","j","575","NA","2555","22396","8081","NA","575","2","legacy","1024","2","48000","-16","task","5226272","even","NA","40220","44776","42221","69095","2643","33123","25041","69597","NA","69093","69597","68990","44776","70173","38605","68490","2634","56197","Lexical Decision Task","14","13526","16","yes","1024"
"2.858136002","0","4","phip","non-word","88.23529411764706","88.23529411764706","837","837","black","no","legacy","legacy","legacy","0","uniform","1","undefined","undefined","undefined","1","f","0","0","0","0","16","0","0","0","16","NA","12","16","12","0","12","3","16","0","16","Wed Feb 17 12:17:54 2021","The main experiment item","yes","Lexical_Decision_Task.osexp","C:/Users/milli/OneDrive/Documents/Cognition and Language/Assignment","no","Andale Mono","no","18","no","white","no","yes","576","legacy","12","12","3","C:/Users/milli/OneDrive/Documents/Cognition and Language/Assignment/subject-5226272.csv","legacy","Lentiform Loewenfeld","3.3.7","yes","yes","600bd7cfb6416f0113b04181","602110864497cf011d9c0822","0","f","NA","j","j","j","NA","f","703","NA","2555","22396","8081","NA","703","2","legacy","1024","2","48000","-16","task","5226272","even","NA","40220","44776","42221","70799","2643","33123","25041","71301","NA","70796","71301","70697","44776","72004","38605","70197","2634","56197","Lexical Decision Task","15","14229","17","yes","1024"
"3.120025233","0","2","nyst","non-word","88.88888888888889","88.88888888888889","820.2222222222222","820.2222222222222","black","no","legacy","legacy","legacy","0","uniform","1","undefined","undefined","undefined","1","f","0","0","0","0","17","0","0","0","17","NA","13","17","13","0","13","3","17","0","17","Wed Feb 17 12:17:54 2021","The main experiment item","yes","Lexical_Decision_Task.osexp","C:/Users/milli/OneDrive/Documents/Cognition and Language/Assignment","no","Andale Mono","no","18","no","white","no","yes","576","legacy","13","13","3","C:/Users/milli/OneDrive/Documents/Cognition and Language/Assignment/subject-5226272.csv","legacy","Lentiform Loewenfeld","3.3.7","yes","yes","600bd7cfb6416f0113b04181","602110864497cf011d9c0822","0","f","NA","j","j","j","NA","f","535","NA","2555","22396","8081","NA","535","2","legacy","1024","2","48000","-16","task","5226272","even","NA","40220","44776","42221","72622","2643","33123","25041","73125","NA","72620","73125","72528","44776","73661","38605","72028","2634","56197","Lexical Decision Task","16","14764","18","yes","1024"
"2.95456409","0","4","taud","non-word","89.47368421052632","89.47368421052632","811.7368421052631","811.7368421052631","black","no","legacy","legacy","legacy","0","uniform","1","undefined","undefined","undefined","1","f","0","0","0","0","18","0","0","0","18","NA","14","18","14","0","14","3","18","0","18","Wed Feb 17 12:17:54 2021","The main experiment item","yes","Lexical_Decision_Task.osexp","C:/Users/milli/OneDrive/Documents/Cognition and Language/Assignment","no","Andale Mono","no","18","no","white","no","yes","576","legacy","14","14","3","C:/Users/milli/OneDrive/Documents/Cognition and Language/Assignment/subject-5226272.csv","legacy","Lentiform Loewenfeld","3.3.7","yes","yes","600bd7cfb6416f0113b04181","602110864497cf011d9c0822","0","f","NA","j","j","j","NA","f","659","NA","2555","22396","8081","NA","659","2","legacy","1024","2","48000","-16","task","5226272","even","NA","40220","44776","42221","74288","2643","33123","25041","74790","NA","74285","74790","74185","44776","75449","38605","73685","2634","56197","Lexical Decision Task","17","15423","19","yes","1024"
"2.875447132","0","9","jelt","non-word","90","90","799.55","799.55","black","no","legacy","legacy","legacy","0","uniform","1","undefined","undefined","undefined","1","f","0","0","0","0","19","0","0","0","19","NA","15","19","15","0","15","3","19","0","19","Wed Feb 17 12:17:54 2021","The main experiment item","yes","Lexical_Decision_Task.osexp","C:/Users/milli/OneDrive/Documents/Cognition and Language/Assignment","no","Andale Mono","no","18","no","white","no","yes","576","legacy","15","15","3","C:/Users/milli/OneDrive/Documents/Cognition and Language/Assignment/subject-5226272.csv","legacy","Lentiform Loewenfeld","3.3.7","yes","yes","600bd7cfb6416f0113b04181","602110864497cf011d9c0822","0","f","NA","j","j","j","NA","f","568","NA","2555","22396","8081","NA","568","2","legacy","1024","2","48000","-16","task","5226272","even","NA","40220","44776","42221","76049","2643","33123","25041","76551","NA","76047","76551","75955","44776","77120","38605","75455","2634","56197","Lexical Decision Task","18","15991","20","yes","1024"
"3.197740804","6.74","3","ache","word","90.47619047619048","90.47619047619048","788.7619047619048","788.7619047619048","black","no","legacy","legacy","legacy","0","uniform","1","undefined","undefined","undefined","1","j","0","0","0","0","20","0","0","0","20","NA","16","20","16","0","16","3","20","0","20","Wed Feb 17 12:17:54 2021","The main experiment item","yes","Lexical_Decision_Task.osexp","C:/Users/milli/OneDrive/Documents/Cognition and Language/Assignment","no","Andale Mono","no","18","no","white","no","yes","576","legacy","16","16","3","C:/Users/milli/OneDrive/Documents/Cognition and Language/Assignment/subject-5226272.csv","legacy","Lentiform Loewenfeld","3.3.7","yes","yes","600bd7cfb6416f0113b04181","602110864497cf011d9c0822","0","j","NA","j","j","j","NA","j","573","NA","2555","22396","8081","NA","573","2","legacy","1024","2","48000","-16","task","5226272","even","NA","40220","44776","42221","77724","2643","33123","25041","78226","NA","77722","78226","77643","44776","78800","38605","77143","2634","56197","Lexical Decision Task","19","16564","21","yes","1024"
"3.29439347","8.6","9","wand","word","90.9090909090909","90.9090909090909","779.3636363636364","779.3636363636364","black","no","legacy","legacy","legacy","0","uniform","1","undefined","undefined","undefined","1","j","0","0","0","0","21","0","0","0","21","NA","17","21","17","0","17","3","21","0","21","Wed Feb 17 12:17:54 2021","The main experiment item","yes","Lexical_Decision_Task.osexp","C:/Users/milli/OneDrive/Documents/Cognition and Language/Assignment","no","Andale Mono","no","18","no","white","no","yes","576","legacy","17","17","3","C:/Users/milli/OneDrive/Documents/Cognition and Language/Assignment/subject-5226272.csv","legacy","Lentiform Loewenfeld","3.3.7","yes","yes","600bd7cfb6416f0113b04181","602110864497cf011d9c0822","0","j","NA","j","j","j","NA","j","582","NA","2555","22396","8081","NA","582","2","legacy","1024","2","48000","-16","task","5226272","even","NA","40220","44776","42221","79402","2643","33123","25041","79904","NA","79400","79905","79324","44776","80488","38605","78824","2634","56197","Lexical Decision Task","20","17146","22","yes","1024"
"2.616654026","9.37","5","gift","word","91.30434782608695","91.30434782608695","772.5217391304348","772.5217391304348","black","no","legacy","legacy","legacy","0","uniform","1","undefined","undefined","undefined","1","j","0","0","0","0","22","0","0","0","22","NA","18","22","18","0","18","3","22","0","22","Wed Feb 17 12:17:54 2021","The main experiment item","yes","Lexical_Decision_Task.osexp","C:/Users/milli/OneDrive/Documents/Cognition and Language/Assignment","no","Andale Mono","no","18","no","white","no","yes","576","legacy","18","18","3","C:/Users/milli/OneDrive/Documents/Cognition and Language/Assignment/subject-5226272.csv","legacy","Lentiform Loewenfeld","3.3.7","yes","yes","600bd7cfb6416f0113b04181","602110864497cf011d9c0822","0","j","NA","j","j","j","NA","j","622","NA","2555","22396","8081","NA","622","2","legacy","1024","2","48000","-16","task","5226272","even","NA","40220","44776","42221","81114","2643","33123","25041","81615","NA","81111","81615","81010","44776","82238","38605","80510","2634","56197","Lexical Decision Task","21","17768","23","yes","1024"
"3.303771854","0","9","dath","non-word","91.66666666666667","91.66666666666667","766.9166666666666","766.9166666666666","black","no","legacy","legacy","legacy","0","uniform","1","undefined","undefined","undefined","1","f","0","0","0","0","23","0","0","0","23","NA","19","23","19","0","19","3","23","0","23","Wed Feb 17 12:17:54 2021","The main experiment item","yes","Lexical_Decision_Task.osexp","C:/Users/milli/OneDrive/Documents/Cognition and Language/Assignment","no","Andale Mono","no","18","no","white","no","yes","576","legacy","19","19","3","C:/Users/milli/OneDrive/Documents/Cognition and Language/Assignment/subject-5226272.csv","legacy","Lentiform Loewenfeld","3.3.7","yes","yes","600bd7cfb6416f0113b04181","602110864497cf011d9c0822","0","f","NA","j","j","j","NA","f","638","NA","2555","22396","8081","NA","638","2","legacy","1024","2","48000","-16","task","5226272","even","NA","40220","44776","42221","82818","2643","33123","25041","83320","NA","82816","83320","82743","44776","83959","38605","82243","2634","56197","Lexical Decision Task","22","18406","24","yes","1024"
"3.225825991","0","7","talm","non-word","92","92","759.32","759.32","black","no","legacy","legacy","legacy","0","uniform","1","undefined","undefined","undefined","1","f","0","0","0","0","24","0","0","0","24","NA","20","24","20","0","20","3","24","0","24","Wed Feb 17 12:17:54 2021","The main experiment item","yes","Lexical_Decision_Task.osexp","C:/Users/milli/OneDrive/Documents/Cognition and Language/Assignment","no","Andale Mono","no","18","no","white","no","yes","576","legacy","20","20","3","C:/Users/milli/OneDrive/Documents/Cognition and Language/Assignment/subject-5226272.csv","legacy","Lentiform Loewenfeld","3.3.7","yes","yes","600bd7cfb6416f0113b04181","602110864497cf011d9c0822","0","f","NA","j","j","j","NA","f","577","NA","2555","22396","8081","NA","577","2","legacy","1024","2","48000","-16","task","5226272","even","NA","40220","44776","42221","84584","2643","33123","25041","85086","NA","84582","85086","84482","44776","85664","38605","83982","2634","56197","Lexical Decision Task","23","18983","25","yes","1024"
"3.269668578","0","7","trag","non-word","92.3076923076923","92.3076923076923","759.1153846153846","759.1153846153846","black","no","legacy","legacy","legacy","0","uniform","1","undefined","undefined","undefined","1","f","0","0","0","0","25","0","0","0","25","NA","21","25","21","0","21","3","25","0","25","Wed Feb 17 12:17:54 2021","The main experiment item","yes","Lexical_Decision_Task.osexp","C:/Users/milli/OneDrive/Documents/Cognition and Language/Assignment","no","Andale Mono","no","18","no","white","no","yes","576","legacy","21","21","3","C:/Users/milli/OneDrive/Documents/Cognition and Language/Assignment/subject-5226272.csv","legacy","Lentiform Loewenfeld","3.3.7","yes","yes","600bd7cfb6416f0113b04181","602110864497cf011d9c0822","0","f","NA","j","j","j","NA","f","754","NA","2555","22396","8081","NA","754","2","legacy","1024","2","48000","-16","task","5226272","even","NA","40220","44776","42221","86265","2643","33123","25041","86785","NA","86264","86786","86187","44776","87541","38605","85687","2634","56197","Lexical Decision Task","24","19737","26","yes","1024"
"2.719886232","7.98","2","quiz","word","92.5925925925926","92.5925925925926","750.7777777777778","750.7777777777778","black","no","legacy","legacy","legacy","0","uniform","1","undefined","undefined","undefined","1","j","0","0","0","0","26","0","0","0","26","NA","22","26","22","0","22","3","26","0","26","Wed Feb 17 12:17:54 2021","The main experiment item","yes","Lexical_Decision_Task.osexp","C:/Users/milli/OneDrive/Documents/Cognition and Language/Assignment","no","Andale Mono","no","18","no","white","no","yes","576","legacy","22","22","3","C:/Users/milli/OneDrive/Documents/Cognition and Language/Assignment/subject-5226272.csv","legacy","Lentiform Loewenfeld","3.3.7","yes","yes","600bd7cfb6416f0113b04181","602110864497cf011d9c0822","0","j","NA","j","j","j","NA","j","534","NA","2555","22396","8081","NA","534","2","legacy","1024","2","48000","-16","task","5226272","even","NA","40220","44776","42221","88172","2643","33123","25041","88674","NA","88171","88674","88065","44776","89209","38605","87565","2634","56197","Lexical Decision Task","25","20271","27","yes","1024"
"2.68604012","0","3","mulb","non-word","92.85714285714286","92.85714285714286","744.7857142857143","744.7857142857143","black","no","legacy","legacy","legacy","0","uniform","1","undefined","undefined","undefined","1","f","0","0","0","0","27","0","0","0","27","NA","23","27","23","0","23","3","27","0","27","Wed Feb 17 12:17:54 2021","The main experiment item","yes","Lexical_Decision_Task.osexp","C:/Users/milli/OneDrive/Documents/Cognition and Language/Assignment","no","Andale Mono","no","18","no","white","no","yes","576","legacy","23","23","3","C:/Users/milli/OneDrive/Documents/Cognition and Language/Assignment/subject-5226272.csv","legacy","Lentiform Loewenfeld","3.3.7","yes","yes","600bd7cfb6416f0113b04181","602110864497cf011d9c0822","0","f","NA","j","j","j","NA","f","583","NA","2555","22396","8081","NA","583","2","legacy","1024","2","48000","-16","task","5226272","even","NA","40220","44776","42221","89807","2643","33123","25041","90309","NA","89806","90309","89732","44776","90893","38605","89232","2634","56197","Lexical Decision Task","26","20854","28","yes","1024"
"3.263399331","0","8","cour","non-word","93.10344827586206","93.10344827586206","740.1379310344828","740.1379310344828","black","no","legacy","legacy","legacy","0","uniform","1","undefined","undefined","undefined","1","f","0","0","0","0","28","0","0","0","28","NA","24","28","24","0","24","3","28","0","28","Wed Feb 17 12:17:54 2021","The main experiment item","yes","Lexical_Decision_Task.osexp","C:/Users/milli/OneDrive/Documents/Cognition and Language/Assignment","no","Andale Mono","no","18","no","white","no","yes","576","legacy","24","24","3","C:/Users/milli/OneDrive/Documents/Cognition and Language/Assignment/subject-5226272.csv","legacy","Lentiform Loewenfeld","3.3.7","yes","yes","600bd7cfb6416f0113b04181","602110864497cf011d9c0822","0","f","NA","j","j","j","NA","f","610","NA","2555","22396","8081","NA","610","2","legacy","1024","2","48000","-16","task","5226272","even","NA","40220","44776","42221","91500","2643","33123","25041","92002","NA","91498","92002","91418","44776","92613","38605","90918","2634","56197","Lexical Decision Task","27","21464","29","yes","1024"
"2.884795364","0","6","flob","non-word","93.33333333333333","93.33333333333333","733.8333333333334","733.8333333333334","black","no","legacy","legacy","legacy","0","uniform","1","undefined","undefined","undefined","1","f","0","0","0","0","29","0","0","0","29","NA","25","29","25","0","25","3","29","0","29","Wed Feb 17 12:17:54 2021","The main experiment item","yes","Lexical_Decision_Task.osexp","C:/Users/milli/OneDrive/Documents/Cognition and Language/Assignment","no","Andale Mono","no","18","no","white","no","yes","576","legacy","25","25","3","C:/Users/milli/OneDrive/Documents/Cognition and Language/Assignment/subject-5226272.csv","legacy","Lentiform Loewenfeld","3.3.7","yes","yes","600bd7cfb6416f0113b04181","602110864497cf011d9c0822","0","f","NA","j","j","j","NA","f","551","NA","2555","22396","8081","NA","551","2","legacy","1024","2","48000","-16","task","5226272","even","NA","40220","44776","42221","93219","2643","33123","25041","93722","NA","93217","93722","93117","44776","94275","38605","92617","2634","56197","Lexical Decision Task","28","22015","30","yes","1024"
"2.983324025","9.56","2","debt","word","93.54838709677419","93.54838709677419","732.5483870967741","732.5483870967741","black","no","legacy","legacy","legacy","0","uniform","1","undefined","undefined","undefined","1","j","0","0","0","0","30","0","0","0","30","NA","26","30","26","0","26","3","30","0","30","Wed Feb 17 12:17:54 2021","The main experiment item","yes","Lexical_Decision_Task.osexp","C:/Users/milli/OneDrive/Documents/Cognition and Language/Assignment","no","Andale Mono","no","18","no","white","no","yes","576","legacy","26","26","3","C:/Users/milli/OneDrive/Documents/Cognition and Language/Assignment/subject-5226272.csv","legacy","Lentiform Loewenfeld","3.3.7","yes","yes","600bd7cfb6416f0113b04181","602110864497cf011d9c0822","0","j","NA","j","j","j","NA","j","694","NA","2555","22396","8081","NA","694","2","legacy","1024","2","48000","-16","task","5226272","even","NA","40220","44776","42221","94873","2643","33123","25041","95375","NA","94871","95375","94781","44776","96070","38605","94280","2634","56197","Lexical Decision Task","29","22709","31","yes","1024"
"2.576725172","0","8","gowl","non-word","93.75","93.75","730.375","730.375","black","no","legacy","legacy","legacy","0","uniform","1","undefined","undefined","undefined","1","f","0","0","0","0","31","0","0","0","31","NA","27","31","27","0","27","3","31","0","31","Wed Feb 17 12:17:54 2021","The main experiment item","yes","Lexical_Decision_Task.osexp","C:/Users/milli/OneDrive/Documents/Cognition and Language/Assignment","no","Andale Mono","no","18","no","white","no","yes","576","legacy","27","27","3","C:/Users/milli/OneDrive/Documents/Cognition and Language/Assignment/subject-5226272.csv","legacy","Lentiform Loewenfeld","3.3.7","yes","yes","600bd7cfb6416f0113b04181","602110864497cf011d9c0822","0","f","NA","j","j","j","NA","f","663","NA","2555","22396","8081","NA","663","2","legacy","1024","2","48000","-16","task","5226272","even","NA","40220","44776","42221","96672","2643","33123","25041","97174","NA","96670","97174","96592","44776","97838","38605","96092","2634","56197","Lexical Decision Task","30","23372","32","yes","1024"
"2.937852093","0","7","bamp","non-word","93.93939393939394","93.93939393939394","732.4848484848485","732.4848484848485","black","no","legacy","legacy","legacy","0","uniform","1","undefined","undefined","undefined","1","f","0","0","0","0","32","0","0","0","32","NA","28","32","28","0","28","3","32","0","32","Wed Feb 17 12:17:54 2021","The main experiment item","yes","Lexical_Decision_Task.osexp","C:/Users/milli/OneDrive/Documents/Cognition and Language/Assignment","no","Andale Mono","no","18","no","white","no","yes","576","legacy","28","28","3","C:/Users/milli/OneDrive/Documents/Cognition and Language/Assignment/subject-5226272.csv","legacy","Lentiform Loewenfeld","3.3.7","yes","yes","600bd7cfb6416f0113b04181","602110864497cf011d9c0822","0","f","NA","j","j","j","NA","f","800","NA","2555","22396","8081","NA","800","2","legacy","1024","2","48000","-16","task","5226272","even","NA","40220","44776","42221","98465","2643","33123","25041","98967","NA","98461","98967","98361","44776","99768","38605","97861","2634","56197","Lexical Decision Task","31","24172","33","yes","1024"
"2.698100546","0","9","mulk","non-word","94.11764705882354","94.11764705882354","734.0882352941177","734.0882352941177","black","no","legacy","legacy","legacy","0","uniform","1","undefined","undefined","undefined","1","f","0","0","0","0","33","0","0","0","33","NA","29","33","29","0","29","3","33","0","33","Wed Feb 17 12:17:54 2021","The main experiment item","yes","Lexical_Decision_Task.osexp","C:/Users/milli/OneDrive/Documents/Cognition and Language/Assignment","no","Andale Mono","no","18","no","white","no","yes","576","legacy","29","29","3","C:/Users/milli/OneDrive/Documents/Cognition and Language/Assignment/subject-5226272.csv","legacy","Lentiform Loewenfeld","3.3.7","yes","yes","600bd7cfb6416f0113b04181","602110864497cf011d9c0822","0","f","NA","j","j","j","NA","f","787","NA","2555","22396","8081","NA","787","2","legacy","1024","2","48000","-16","task","5226272","even","NA","40220","44776","42221","100377","2643","33123","25041","100886","NA","100374","100886","100292","44776","101674","38605","99792","2634","56197","Lexical Decision Task","32","24959","34","yes","1024"
"3.299579929","0","2","flis","non-word","94.28571428571429","94.28571428571429","734.8571428571429","734.8571428571429","black","no","legacy","legacy","legacy","0","uniform","1","undefined","undefined","undefined","1","f","0","0","0","0","34","0","0","0","34","NA","30","34","30","0","30","3","34","0","34","Wed Feb 17 12:17:54 2021","The main experiment item","yes","Lexical_Decision_Task.osexp","C:/Users/milli/OneDrive/Documents/Cognition and Language/Assignment","no","Andale Mono","no","18","no","white","no","yes","576","legacy","30","30","3","C:/Users/milli/OneDrive/Documents/Cognition and Language/Assignment/subject-5226272.csv","legacy","Lentiform Loewenfeld","3.3.7","yes","yes","600bd7cfb6416f0113b04181","602110864497cf011d9c0822","0","f","NA","j","j","j","NA","f","761","NA","2555","22396","8081","NA","761","2","legacy","1024","2","48000","-16","task","5226272","even","NA","40220","44776","42221","102282","2643","33123","25041","102784","NA","102279","102784","102197","44776","103546","38605","101697","2634","56197","Lexical Decision Task","33","25720","35","yes","1024"
"2.807758206","6.25","4","hurl","word","91.66666666666667","91.66666666666667","730","730","black","no","legacy","legacy","legacy","0","uniform","0","undefined","undefined","undefined","0","j","0","0","0","0","35","0","0","0","35","NA","31","35","31","0","31","3","35","0","35","Wed Feb 17 12:17:54 2021","The main experiment item","yes","Lexical_Decision_Task.osexp","C:/Users/milli/OneDrive/Documents/Cognition and Language/Assignment","no","Andale Mono","no","18","no","white","no","yes","576","legacy","31","31","3","C:/Users/milli/OneDrive/Documents/Cognition and Language/Assignment/subject-5226272.csv","legacy","Lentiform Loewenfeld","3.3.7","yes","yes","600bd7cfb6416f0113b04181","602110864497cf011d9c0822","0","f","NA","j","j","j","NA","f","560","NA","2555","22396","8081","NA","560","2","legacy","1024","2","48000","-16","task","5226272","even","NA","40220","44776","42221","104146","2643","33123","25041","104665","NA","104144","104666","104069","44776","105227","38605","103569","2634","56197","Lexical Decision Task","33","26280","36","yes","1024"
"2.920123326","7.43","4","duel","word","91.89189189189189","91.89189189189189","740.2162162162163","740.2162162162163","black","no","legacy","legacy","legacy","0","uniform","1","undefined","undefined","undefined","1","j","0","0","0","0","36","0","0","0","36","NA","32","36","32","0","32","3","36","0","36","Wed Feb 17 12:17:54 2021","The main experiment item","yes","Lexical_Decision_Task.osexp","C:/Users/milli/OneDrive/Documents/Cognition and Language/Assignment","no","Andale Mono","no","18","no","white","no","yes","576","legacy","32","32","3","C:/Users/milli/OneDrive/Documents/Cognition and Language/Assignment/subject-5226272.csv","legacy","Lentiform Loewenfeld","3.3.7","yes","yes","600bd7cfb6416f0113b04181","602110864497cf011d9c0822","0","j","NA","j","j","j","NA","j","1108","NA","2555","22396","8081","NA","1108","2","legacy","1024","2","48000","-16","task","5226272","even","NA","40220","44776","42221","106853","2643","33123","25041","107355","NA","106850","107355","106732","44776","108463","38605","103569","2634","105231","Lexical Decision Task","34","27388","37","yes","1024"
"2.695770526","7.34","6","pawn","word","92.10526315789474","92.10526315789474","736.921052631579","736.921052631579","black","no","legacy","legacy","legacy","0","uniform","1","undefined","undefined","undefined","1","j","0","0","0","0","37","0","0","0","37","NA","33","37","33","0","33","3","37","0","37","Wed Feb 17 12:17:54 2021","The main experiment item","yes","Lexical_Decision_Task.osexp","C:/Users/milli/OneDrive/Documents/Cognition and Language/Assignment","no","Andale Mono","no","18","no","white","no","yes","576","legacy","33","33","3","C:/Users/milli/OneDrive/Documents/Cognition and Language/Assignment/subject-5226272.csv","legacy","Lentiform Loewenfeld","3.3.7","yes","yes","600bd7cfb6416f0113b04181","602110864497cf011d9c0822","0","j","NA","j","j","j","NA","j","615","NA","2555","22396","8081","NA","615","2","legacy","1024","2","48000","-16","task","5226272","even","NA","40220","44776","42221","109092","2643","33123","25041","109594","NA","109090","109594","108989","44776","110210","38605","108489","2634","105231","Lexical Decision Task","35","28003","38","yes","1024"
"2.784379519","0","2","snaf","non-word","92.3076923076923","92.3076923076923","733.3076923076923","733.3076923076923","black","no","legacy","legacy","legacy","0","uniform","1","undefined","undefined","undefined","1","f","0","0","0","0","38","0","0","0","38","NA","34","38","34","0","34","3","38","0","38","Wed Feb 17 12:17:54 2021","The main experiment item","yes","Lexical_Decision_Task.osexp","C:/Users/milli/OneDrive/Documents/Cognition and Language/Assignment","no","Andale Mono","no","18","no","white","no","yes","576","legacy","34","34","3","C:/Users/milli/OneDrive/Documents/Cognition and Language/Assignment/subject-5226272.csv","legacy","Lentiform Loewenfeld","3.3.7","yes","yes","600bd7cfb6416f0113b04181","602110864497cf011d9c0822","0","f","NA","j","j","j","NA","f","596","NA","2555","22396","8081","NA","596","2","legacy","1024","2","48000","-16","task","5226272","even","NA","40220","44776","42221","110836","2643","33123","25041","111338","NA","110833","111338","110732","44776","111935","38605","110232","2634","105231","Lexical Decision Task","36","28599","39","yes","1024"
"2.695481676","0","7","goke","non-word","92.5","92.5","729.425","729.425","black","no","legacy","legacy","legacy","0","uniform","1","undefined","undefined","undefined","1","f","0","0","0","0","39","0","0","0","39","NA","35","39","35","0","35","3","39","0","39","Wed Feb 17 12:17:54 2021","The main experiment item","yes","Lexical_Decision_Task.osexp","C:/Users/milli/OneDrive/Documents/Cognition and Language/Assignment","no","Andale Mono","no","18","no","white","no","yes","576","legacy","35","35","3","C:/Users/milli/OneDrive/Documents/Cognition and Language/Assignment/subject-5226272.csv","legacy","Lentiform Loewenfeld","3.3.7","yes","yes","600bd7cfb6416f0113b04181","602110864497cf011d9c0822","0","f","NA","j","j","j","NA","f","578","NA","2555","22396","8081","NA","578","2","legacy","1024","2","48000","-16","task","5226272","even","NA","40220","44776","42221","112564","2643","33123","25041","113066","NA","112560","113066","112458","44776","113645","38605","111958","2634","105231","Lexical Decision Task","37","29177","40","yes","1024"
"2.64476673","0","5","moft","non-word","92.6829268292683","92.6829268292683","729.9512195121952","729.9512195121952","black","no","legacy","legacy","legacy","0","uniform","1","undefined","undefined","undefined","1","f","0","0","0","0","40","0","0","0","40","NA","36","40","36","0","36","3","40","0","40","Wed Feb 17 12:17:54 2021","The main experiment item","yes","Lexical_Decision_Task.osexp","C:/Users/milli/OneDrive/Documents/Cognition and Language/Assignment","no","Andale Mono","no","18","no","white","no","yes","576","legacy","36","36","3","C:/Users/milli/OneDrive/Documents/Cognition and Language/Assignment/subject-5226272.csv","legacy","Lentiform Loewenfeld","3.3.7","yes","yes","600bd7cfb6416f0113b04181","602110864497cf011d9c0822","0","f","NA","j","j","j","NA","f","751","NA","2555","22396","8081","NA","751","2","legacy","1024","2","48000","-16","task","5226272","even","NA","40220","44776","42221","114251","2643","33123","25041","114753","NA","114248","114753","114149","44776","115506","38605","113649","2634","105231","Lexical Decision Task","38","29928","41","yes","1024"
"2.7084209","0","8","vump","non-word","92.85714285714286","92.85714285714286","730.3809523809524","730.3809523809524","black","no","legacy","legacy","legacy","0","uniform","1","undefined","undefined","undefined","1","f","0","0","0","0","41","0","0","0","41","NA","37","41","37","0","37","3","41","0","41","Wed Feb 17 12:17:54 2021","The main experiment item","yes","Lexical_Decision_Task.osexp","C:/Users/milli/OneDrive/Documents/Cognition and Language/Assignment","no","Andale Mono","no","18","no","white","no","yes","576","legacy","37","37","3","C:/Users/milli/OneDrive/Documents/Cognition and Language/Assignment/subject-5226272.csv","legacy","Lentiform Loewenfeld","3.3.7","yes","yes","600bd7cfb6416f0113b04181","602110864497cf011d9c0822","0","f","NA","j","j","j","NA","f","748","NA","2555","22396","8081","NA","748","2","legacy","1024","2","48000","-16","task","5226272","even","NA","40220","44776","42221","116133","2643","33123","25041","116672","NA","116130","116672","116028","44776","117421","38605","115528","2634","105231","Lexical Decision Task","39","30676","42","yes","1024"
"2.706148589","0","4","hube","non-word","93.02325581395348","93.02325581395348","726.2558139534884","726.2558139534884","black","no","legacy","legacy","legacy","0","uniform","1","undefined","undefined","undefined","1","f","0","0","0","0","42","0","0","0","42","NA","38","42","38","0","38","3","42","0","42","Wed Feb 17 12:17:54 2021","The main experiment item","yes","Lexical_Decision_Task.osexp","C:/Users/milli/OneDrive/Documents/Cognition and Language/Assignment","no","Andale Mono","no","18","no","white","no","yes","576","legacy","38","38","3","C:/Users/milli/OneDrive/Documents/Cognition and Language/Assignment/subject-5226272.csv","legacy","Lentiform Loewenfeld","3.3.7","yes","yes","600bd7cfb6416f0113b04181","602110864497cf011d9c0822","0","f","NA","j","j","j","NA","f","553","NA","2555","22396","8081","NA","553","2","legacy","1024","2","48000","-16","task","5226272","even","NA","40220","44776","42221","118015","2643","33123","25041","118518","NA","118014","118518","117943","44776","119072","38605","117443","2634","105231","Lexical Decision Task","40","31229","43","yes","1024"
"3.153001286","8.7","5","palm","word","93.18181818181819","93.18181818181819","723.9772727272727","723.9772727272727","black","no","legacy","legacy","legacy","0","uniform","1","undefined","undefined","undefined","1","j","0","0","0","0","43","0","0","0","43","NA","39","43","39","0","39","3","43","0","43","Wed Feb 17 12:17:54 2021","The main experiment item","yes","Lexical_Decision_Task.osexp","C:/Users/milli/OneDrive/Documents/Cognition and Language/Assignment","no","Andale Mono","no","18","no","white","no","yes","576","legacy","39","39","3","C:/Users/milli/OneDrive/Documents/Cognition and Language/Assignment/subject-5226272.csv","legacy","Lentiform Loewenfeld","3.3.7","yes","yes","600bd7cfb6416f0113b04181","602110864497cf011d9c0822","0","j","NA","j","j","j","NA","j","626","NA","2555","22396","8081","NA","626","2","legacy","1024","2","48000","-16","task","5226272","even","NA","40220","44776","42221","119676","2643","33123","25041","120178","NA","119674","120178","119578","44776","120805","38605","119078","2634","105231","Lexical Decision Task","41","31855","44","yes","1024"
"2.838639236","0","4","furg","non-word","93.33333333333333","93.33333333333333","719.4888888888889","719.4888888888889","black","no","legacy","legacy","legacy","0","uniform","1","undefined","undefined","undefined","1","f","0","0","0","0","44","0","0","0","44","NA","40","44","40","0","40","3","44","0","44","Wed Feb 17 12:17:54 2021","The main experiment item","yes","Lexical_Decision_Task.osexp","C:/Users/milli/OneDrive/Documents/Cognition and Language/Assignment","no","Andale Mono","no","18","no","white","no","yes","576","legacy","40","40","3","C:/Users/milli/OneDrive/Documents/Cognition and Language/Assignment/subject-5226272.csv","legacy","Lentiform Loewenfeld","3.3.7","yes","yes","600bd7cfb6416f0113b04181","602110864497cf011d9c0822","0","f","NA","j","j","j","NA","f","522","NA","2555","22396","8081","NA","522","2","legacy","1024","2","48000","-16","task","5226272","even","NA","40220","44776","42221","121434","2643","33123","25041","121936","NA","121432","121936","121330","44776","122459","38605","120830","2634","105231","Lexical Decision Task","42","32377","45","yes","1024"
"3.440331212","7.35","6","stew","word","93.47826086956522","93.47826086956522","717.6521739130435","717.6521739130435","black","no","legacy","legacy","legacy","0","uniform","1","undefined","undefined","undefined","1","j","0","0","0","0","45","0","0","0","45","NA","41","45","41","0","41","3","45","0","45","Wed Feb 17 12:17:54 2021","The main experiment item","yes","Lexical_Decision_Task.osexp","C:/Users/milli/OneDrive/Documents/Cognition and Language/Assignment","no","Andale Mono","no","18","no","white","no","yes","576","legacy","41","41","3","C:/Users/milli/OneDrive/Documents/Cognition and Language/Assignment/subject-5226272.csv","legacy","Lentiform Loewenfeld","3.3.7","yes","yes","600bd7cfb6416f0113b04181","602110864497cf011d9c0822","0","j","NA","j","j","j","NA","j","635","NA","2555","22396","8081","NA","635","2","legacy","1024","2","48000","-16","task","5226272","even","NA","40220","44776","42221","123085","2643","33123","25041","123587","NA","123082","123587","122983","44776","124223","38605","122483","2634","105231","Lexical Decision Task","43","33012","46","yes","1024"
"3.495914186","0","4","peng","non-word","93.61702127659575","93.61702127659575","724.0851063829788","724.0851063829788","black","no","legacy","legacy","legacy","0","uniform","1","undefined","undefined","undefined","1","f","0","0","0","0","46","0","0","0","46","NA","42","46","42","0","42","3","46","0","46","Wed Feb 17 12:17:54 2021","The main experiment item","yes","Lexical_Decision_Task.osexp","C:/Users/milli/OneDrive/Documents/Cognition and Language/Assignment","no","Andale Mono","no","18","no","white","no","yes","576","legacy","42","42","3","C:/Users/milli/OneDrive/Documents/Cognition and Language/Assignment/subject-5226272.csv","legacy","Lentiform Loewenfeld","3.3.7","yes","yes","600bd7cfb6416f0113b04181","602110864497cf011d9c0822","0","f","NA","j","j","j","NA","f","1020","NA","2555","22396","8081","NA","1020","2","legacy","1024","2","48000","-16","task","5226272","even","NA","40220","44776","42221","124837","2643","33123","25041","125339","NA","124836","125339","124747","44776","126360","38605","124247","2634","105231","Lexical Decision Task","44","34032","47","yes","1024"
"3.195807436","0","6","stup","non-word","93.75","93.75","722.375","722.375","black","no","legacy","legacy","legacy","0","uniform","1","undefined","undefined","undefined","1","f","0","0","0","0","47","0","0","0","47","NA","43","47","43","0","43","3","47","0","47","Wed Feb 17 12:17:54 2021","The main experiment item","yes","Lexical_Decision_Task.osexp","C:/Users/milli/OneDrive/Documents/Cognition and Language/Assignment","no","Andale Mono","no","18","no","white","no","yes","576","legacy","43","43","3","C:/Users/milli/OneDrive/Documents/Cognition and Language/Assignment/subject-5226272.csv","legacy","Lentiform Loewenfeld","3.3.7","yes","yes","600bd7cfb6416f0113b04181","602110864497cf011d9c0822","0","f","NA","j","j","j","NA","f","642","NA","2555","22396","8081","NA","642","2","legacy","1024","2","48000","-16","task","5226272","even","NA","40220","44776","42221","126974","2643","33123","25041","127476","NA","126971","127476","126883","44776","128119","38605","126383","2634","105231","Lexical Decision Task","45","34674","48","yes","1024"
"2.899092422","7.27","6","snag","word","91.83673469387755","91.83673469387755","722.0408163265306","722.0408163265306","black","no","legacy","legacy","legacy","0","uniform","0","undefined","undefined","undefined","0","j","0","0","0","0","48","0","0","0","48","NA","44","48","44","0","44","3","48","0","48","Wed Feb 17 12:17:54 2021","The main experiment item","yes","Lexical_Decision_Task.osexp","C:/Users/milli/OneDrive/Documents/Cognition and Language/Assignment","no","Andale Mono","no","18","no","white","no","yes","576","legacy","44","44","3","C:/Users/milli/OneDrive/Documents/Cognition and Language/Assignment/subject-5226272.csv","legacy","Lentiform Loewenfeld","3.3.7","yes","yes","600bd7cfb6416f0113b04181","602110864497cf011d9c0822","0","f","NA","j","j","j","NA","f","706","NA","2555","22396","8081","NA","706","2","legacy","1024","2","48000","-16","task","5226272","even","NA","40220","44776","42221","128754","2643","33123","25041","129256","NA","128751","129256","128644","44776","129963","38605","128144","2634","105231","Lexical Decision Task","45","35380","49","yes","1024"
"3.261341392","5.08","8","reek","word","90","90","722.84","722.84","black","no","legacy","legacy","legacy","0","uniform","0","undefined","undefined","undefined","0","j","0","0","0","0","49","0","0","0","49","NA","45","49","45","0","45","3","49","0","49","Wed Feb 17 12:17:54 2021","The main experiment item","yes","Lexical_Decision_Task.osexp","C:/Users/milli/OneDrive/Documents/Cognition and Language/Assignment","no","Andale Mono","no","18","no","white","no","yes","576","legacy","45","45","3","C:/Users/milli/OneDrive/Documents/Cognition and Language/Assignment/subject-5226272.csv","legacy","Lentiform Loewenfeld","3.3.7","yes","yes","600bd7cfb6416f0113b04181","602110864497cf011d9c0822","0","f","NA","j","j","j","NA","f","762","NA","2555","22396","8081","NA","762","2","legacy","1024","2","48000","-16","task","5226272","even","NA","40220","44776","42221","131572","2643","33123","25041","132073","NA","131569","132073","131469","44776","132836","38605","128144","2634","129968","Lexical Decision Task","45","36142","50","yes","1024"
"2.809559715","8.44","4","volt","word","90.19607843137256","90.19607843137256","724.4705882352941","724.4705882352941","black","no","legacy","legacy","legacy","0","uniform","1","undefined","undefined","undefined","1","j","0","0","0","0","50","0","0","0","50","NA","46","50","46","0","46","3","50","0","50","Wed Feb 17 12:17:54 2021","The main experiment item","yes","Lexical_Decision_Task.osexp","C:/Users/milli/OneDrive/Documents/Cognition and Language/Assignment","no","Andale Mono","no","18","no","white","no","yes","576","legacy","46","46","3","C:/Users/milli/OneDrive/Documents/Cognition and Language/Assignment/subject-5226272.csv","legacy","Lentiform Loewenfeld","3.3.7","yes","yes","600bd7cfb6416f0113b04181","602110864497cf011d9c0822","0","j","NA","j","j","j","NA","j","806","NA","2555","22396","8081","NA","806","2","legacy","1024","2","48000","-16","task","5226272","even","NA","40220","44776","42221","134451","2643","33123","25041","134953","NA","134449","134953","134360","44776","135760","38605","128144","2634","132860","Lexical Decision Task","46","36948","51","yes","1024"
"2.69019608","9.01","2","myth","word","90.38461538461539","90.38461538461539","723.2307692307693","723.2307692307693","black","no","legacy","legacy","legacy","0","uniform","1","undefined","undefined","undefined","1","j","0","0","0","0","51","0","0","0","51","NA","47","51","47","0","47","3","51","0","51","Wed Feb 17 12:17:54 2021","The main experiment item","yes","Lexical_Decision_Task.osexp","C:/Users/milli/OneDrive/Documents/Cognition and Language/Assignment","no","Andale Mono","no","18","no","white","no","yes","576","legacy","47","47","3","C:/Users/milli/OneDrive/Documents/Cognition and Language/Assignment/subject-5226272.csv","legacy","Lentiform Loewenfeld","3.3.7","yes","yes","600bd7cfb6416f0113b04181","602110864497cf011d9c0822","0","j","NA","j","j","j","NA","j","660","NA","2555","22396","8081","NA","660","2","legacy","1024","2","48000","-16","task","5226272","even","NA","40220","44776","42221","136388","2643","33123","25041","136890","NA","136386","136890","136284","44776","137551","38605","135784","2634","132860","Lexical Decision Task","47","37608","52","yes","1024"
"3.081107167","0","6","chot","non-word","90.56603773584905","90.56603773584905","722.1132075471698","722.1132075471698","black","no","legacy","legacy","legacy","0","uniform","1","undefined","undefined","undefined","1","f","0","0","0","0","52","0","0","0","52","NA","48","52","48","0","48","3","52","0","52","Wed Feb 17 12:17:54 2021","The main experiment item","yes","Lexical_Decision_Task.osexp","C:/Users/milli/OneDrive/Documents/Cognition and Language/Assignment","no","Andale Mono","no","18","no","white","no","yes","576","legacy","48","48","3","C:/Users/milli/OneDrive/Documents/Cognition and Language/Assignment/subject-5226272.csv","legacy","Lentiform Loewenfeld","3.3.7","yes","yes","600bd7cfb6416f0113b04181","602110864497cf011d9c0822","0","f","NA","j","j","j","NA","f","664","NA","2555","22396","8081","NA","664","2","legacy","1024","2","48000","-16","task","5226272","even","NA","40220","44776","42221","138177","2643","33123","25041","138679","NA","138174","138679","138075","44776","139345","38605","137575","2634","132860","Lexical Decision Task","48","38272","53","yes","1024"
"2.771097306","0","9","jold","non-word","90.74074074074075","90.74074074074075","721.1666666666666","721.1666666666666","black","no","legacy","legacy","legacy","0","uniform","1","undefined","undefined","undefined","1","f","0","0","0","0","53","0","0","0","53","NA","49","53","49","0","49","3","53","0","53","Wed Feb 17 12:17:54 2021","The main experiment item","yes","Lexical_Decision_Task.osexp","C:/Users/milli/OneDrive/Documents/Cognition and Language/Assignment","no","Andale Mono","no","18","no","white","no","yes","576","legacy","49","49","3","C:/Users/milli/OneDrive/Documents/Cognition and Language/Assignment/subject-5226272.csv","legacy","Lentiform Loewenfeld","3.3.7","yes","yes","600bd7cfb6416f0113b04181","602110864497cf011d9c0822","0","f","NA","j","j","j","NA","f","671","NA","2555","22396","8081","NA","671","2","legacy","1024","2","48000","-16","task","5226272","even","NA","40220","44776","42221","139972","2643","33123","25041","140474","NA","139969","140474","139868","44776","141146","38605","139368","2634","132860","Lexical Decision Task","49","38943","54","yes","1024"
"3.090140555","5.81","8","pout","word","89.0909090909091","89.0909090909091","729","729","black","no","legacy","legacy","legacy","0","uniform","0","undefined","undefined","undefined","0","j","0","0","0","0","54","0","0","0","54","0","50","54","50","0","50","3","54","0","54","Wed Feb 17 12:17:54 2021","The main experiment item","yes","Lexical_Decision_Task.osexp","C:/Users/milli/OneDrive/Documents/Cognition and Language/Assignment","no","Andale Mono","no","18","no","white","no","yes","576","legacy","50","50","3","C:/Users/milli/OneDrive/Documents/Cognition and Language/Assignment/subject-5226272.csv","legacy","Lentiform Loewenfeld","3.3.7","yes","yes","600bd7cfb6416f0113b04181","602110864497cf011d9c0822","0","f","NA","j","j","j","j","f","1152","NA","2555","22396","8081","6234","1152","2","legacy","1024","2","48000","-16","task","5226272","even","NA","40220","44776","42221","148051","2643","33123","25041","148555","141745","148050","148556","141669","44776","149709","38605","141169","2634","132860","Lexical Decision Task","49","40095","55","yes","1024"
"2.980911938","7.15","7","hoop","word","89.28571428571429","89.28571428571429","728.8571428571429","728.8571428571429","black","no","legacy","legacy","legacy","0","uniform","1","undefined","undefined","undefined","1","j","0","0","0","0","55","0","0","0","55","0","51","55","51","0","51","3","55","0","55","Wed Feb 17 12:17:54 2021","The main experiment item","yes","Lexical_Decision_Task.osexp","C:/Users/milli/OneDrive/Documents/Cognition and Language/Assignment","no","Andale Mono","no","18","no","white","no","yes","576","legacy","51","51","3","C:/Users/milli/OneDrive/Documents/Cognition and Language/Assignment/subject-5226272.csv","legacy","Lentiform Loewenfeld","3.3.7","yes","yes","600bd7cfb6416f0113b04181","602110864497cf011d9c0822","0","j","NA","j","j","j","j","j","721","NA","2555","22396","8081","6234","721","2","legacy","1024","2","48000","-16","task","5226272","even","NA","40220","44776","42221","151352","2643","33123","25041","151854","141745","151349","151855","151233","44776","152578","38605","141169","2634","149732","Lexical Decision Task","50","40816","56","yes","1024"
"2.594027722","9.08","8","skip","word","89.47368421052632","89.47368421052632","725.0175438596491","725.0175438596491","black","no","legacy","legacy","legacy","0","uniform","1","undefined","undefined","undefined","1","j","0","0","0","0","56","0","0","0","56","0","52","56","52","0","52","3","56","0","56","Wed Feb 17 12:17:54 2021","The main experiment item","yes","Lexical_Decision_Task.osexp","C:/Users/milli/OneDrive/Documents/Cognition and Language/Assignment","no","Andale Mono","no","18","no","white","no","yes","576","legacy","52","52","3","C:/Users/milli/OneDrive/Documents/Cognition and Language/Assignment/subject-5226272.csv","legacy","Lentiform Loewenfeld","3.3.7","yes","yes","600bd7cfb6416f0113b04181","602110864497cf011d9c0822","0","j","NA","j","j","j","j","j","510","NA","2555","22396","8081","6234","510","2","legacy","1024","2","48000","-16","task","5226272","even","NA","40220","44776","42221","153206","2643","33123","25041","153708","141745","153204","153708","153099","44776","154219","38605","152599","2634","149732","Lexical Decision Task","51","41326","57","yes","1024"
"3.031812271","6.52","3","gulp","word","87.93103448275862","87.93103448275862","723.0344827586207","723.0344827586207","black","no","legacy","legacy","legacy","0","uniform","0","undefined","undefined","undefined","0","j","0","0","0","0","57","0","0","0","57","0","53","57","53","0","53","3","57","0","57","Wed Feb 17 12:17:54 2021","The main experiment item","yes","Lexical_Decision_Task.osexp","C:/Users/milli/OneDrive/Documents/Cognition and Language/Assignment","no","Andale Mono","no","18","no","white","no","yes","576","legacy","53","53","3","C:/Users/milli/OneDrive/Documents/Cognition and Language/Assignment/subject-5226272.csv","legacy","Lentiform Loewenfeld","3.3.7","yes","yes","600bd7cfb6416f0113b04181","602110864497cf011d9c0822","0","f","NA","j","j","j","j","f","610","NA","2555","22396","8081","6234","610","2","legacy","1024","2","48000","-16","task","5226272","even","NA","40220","44776","42221","154821","2643","33123","25041","155323","141745","154818","155323","154743","44776","155935","38605","154243","2634","149732","Lexical Decision Task","51","41936","58","yes","1024"
"2.812467698","0","7","hafe","non-word","88.13559322033899","88.13559322033899","720.9661016949152","720.9661016949152","black","no","legacy","legacy","legacy","0","uniform","1","undefined","undefined","undefined","1","f","0","0","0","0","58","0","0","0","58","0","54","58","54","0","54","3","58","0","58","Wed Feb 17 12:17:54 2021","The main experiment item","yes","Lexical_Decision_Task.osexp","C:/Users/milli/OneDrive/Documents/Cognition and Language/Assignment","no","Andale Mono","no","18","no","white","no","yes","576","legacy","54","54","3","C:/Users/milli/OneDrive/Documents/Cognition and Language/Assignment/subject-5226272.csv","legacy","Lentiform Loewenfeld","3.3.7","yes","yes","600bd7cfb6416f0113b04181","602110864497cf011d9c0822","0","f","NA","j","j","j","j","f","601","NA","2555","22396","8081","6234","601","2","legacy","1024","2","48000","-16","task","5226272","even","NA","40220","44776","42221","157577","2643","33123","25041","158079","141745","157574","158079","157458","44776","158681","38605","154243","2634","155958","Lexical Decision Task","52","42537","59","yes","1024"
"3.481012421","8.34","5","teen","word","88.33333333333333","88.33333333333333","720.6","720.6","black","no","legacy","legacy","legacy","0","uniform","1","undefined","undefined","undefined","1","j","0","0","0","0","59","0","0","0","59","0","55","59","55","0","55","3","59","0","59","Wed Feb 17 12:17:54 2021","The main experiment item","yes","Lexical_Decision_Task.osexp","C:/Users/milli/OneDrive/Documents/Cognition and Language/Assignment","no","Andale Mono","no","18","no","white","no","yes","576","legacy","55","55","3","C:/Users/milli/OneDrive/Documents/Cognition and Language/Assignment/subject-5226272.csv","legacy","Lentiform Loewenfeld","3.3.7","yes","yes","600bd7cfb6416f0113b04181","602110864497cf011d9c0822","0","j","NA","j","j","j","j","j","699","NA","2555","22396","8081","6234","699","2","legacy","1024","2","48000","-16","task","5226272","even","NA","40220","44776","42221","159287","2643","33123","25041","159789","141745","159285","159789","159212","44776","160489","38605","158712","2634","155958","Lexical Decision Task","53","43236","60","yes","1024"
"2.996511672","0","7","hoil","non-word","86.88524590163935","86.88524590163935","729.4098360655738","729.4098360655738","black","no","legacy","legacy","legacy","0","uniform","0","undefined","undefined","undefined","0","f","0","0","0","0","60","0","0","0","60","0","56","60","56","0","56","3","60","0","60","Wed Feb 17 12:17:54 2021","The main experiment item","yes","Lexical_Decision_Task.osexp","C:/Users/milli/OneDrive/Documents/Cognition and Language/Assignment","no","Andale Mono","no","18","no","white","no","yes","576","legacy","56","56","3","C:/Users/milli/OneDrive/Documents/Cognition and Language/Assignment/subject-5226272.csv","legacy","Lentiform Loewenfeld","3.3.7","yes","yes","600bd7cfb6416f0113b04181","602110864497cf011d9c0822","0","j","NA","j","j","j","j","j","1258","NA","2555","22396","8081","6234","1258","2","legacy","1024","2","48000","-16","task","5226272","even","NA","40220","44776","42221","161114","2643","33123","25041","161616","141745","161112","161616","161012","44776","162875","38605","160512","2634","155958","Lexical Decision Task","53","44494","61","yes","1024"
"3.531734309","0","6","lerd","non-word","87.09677419354838","87.09677419354838","730.0322580645161","730.0322580645161","black","no","legacy","legacy","legacy","0","uniform","1","undefined","undefined","undefined","1","f","0","0","0","0","61","0","0","0","61","0","57","61","57","0","57","3","61","0","61","Wed Feb 17 12:17:54 2021","The main experiment item","yes","Lexical_Decision_Task.osexp","C:/Users/milli/OneDrive/Documents/Cognition and Language/Assignment","no","Andale Mono","no","18","no","white","no","yes","576","legacy","57","57","3","C:/Users/milli/OneDrive/Documents/Cognition and Language/Assignment/subject-5226272.csv","legacy","Lentiform Loewenfeld","3.3.7","yes","yes","600bd7cfb6416f0113b04181","602110864497cf011d9c0822","0","f","NA","j","j","j","j","f","768","NA","2555","22396","8081","6234","768","2","legacy","1024","2","48000","-16","task","5226272","even","NA","40220","44776","42221","164496","2643","33123","25041","164998","141745","164495","164998","164399","44776","165767","38605","160512","2634","162899","Lexical Decision Task","54","45262","62","yes","1024"
"3.302475237","0","7","leel","non-word","87.3015873015873","87.3015873015873","729.7301587301587","729.7301587301587","black","no","legacy","legacy","legacy","0","uniform","1","undefined","undefined","undefined","1","f","0","0","0","0","62","0","0","0","62","0","58","62","58","0","58","3","62","0","62","Wed Feb 17 12:17:54 2021","The main experiment item","yes","Lexical_Decision_Task.osexp","C:/Users/milli/OneDrive/Documents/Cognition and Language/Assignment","no","Andale Mono","no","18","no","white","no","yes","576","legacy","58","58","3","C:/Users/milli/OneDrive/Documents/Cognition and Language/Assignment/subject-5226272.csv","legacy","Lentiform Loewenfeld","3.3.7","yes","yes","600bd7cfb6416f0113b04181","602110864497cf011d9c0822","0","f","NA","j","j","j","j","f","711","NA","2555","22396","8081","6234","711","2","legacy","1024","2","48000","-16","task","5226272","even","NA","40220","44776","42221","166394","2643","33123","25041","166916","141745","166391","166916","166291","44776","167629","38605","165791","2634","162899","Lexical Decision Task","55","45973","63","yes","1024"
"2.897810299","0","5","glur","non-word","87.5","87.5","728.890625","728.890625","black","no","legacy","legacy","legacy","0","uniform","1","undefined","undefined","undefined","1","f","0","0","0","0","63","0","0","0","63","0","59","63","59","0","59","3","63","0","63","Wed Feb 17 12:17:54 2021","The main experiment item","yes","Lexical_Decision_Task.osexp","C:/Users/milli/OneDrive/Documents/Cognition and Language/Assignment","no","Andale Mono","no","18","no","white","no","yes","576","legacy","59","59","3","C:/Users/milli/OneDrive/Documents/Cognition and Language/Assignment/subject-5226272.csv","legacy","Lentiform Loewenfeld","3.3.7","yes","yes","600bd7cfb6416f0113b04181","602110864497cf011d9c0822","0","f","NA","j","j","j","j","f","676","NA","2555","22396","8081","6234","676","2","legacy","1024","2","48000","-16","task","5226272","even","NA","40220","44776","42221","168257","2643","33123","25041","168759","141745","168254","168759","168153","44776","169437","38605","167653","2634","162899","Lexical Decision Task","56","46649","64","yes","1024"
"3.2757719","0","5","slea","non-word","87.6923076923077","87.6923076923077","731.4","731.4","black","no","legacy","legacy","legacy","0","uniform","1","undefined","undefined","undefined","1","f","0","0","0","0","64","0","0","0","64","0","60","64","60","0","60","3","64","0","64","Wed Feb 17 12:17:54 2021","The main experiment item","yes","Lexical_Decision_Task.osexp","C:/Users/milli/OneDrive/Documents/Cognition and Language/Assignment","no","Andale Mono","no","18","no","white","no","yes","576","legacy","60","60","3","C:/Users/milli/OneDrive/Documents/Cognition and Language/Assignment/subject-5226272.csv","legacy","Lentiform Loewenfeld","3.3.7","yes","yes","600bd7cfb6416f0113b04181","602110864497cf011d9c0822","0","f","NA","j","j","j","j","f","892","NA","2555","22396","8081","6234","892","2","legacy","1024","2","48000","-16","task","5226272","even","NA","40220","44776","42221","170043","2643","33123","25041","170545","141745","170040","170545","169941","44776","171439","38605","169441","2634","162899","Lexical Decision Task","57","47541","65","yes","1024"
"3.028977705","0","7","frow","non-word","87.87878787878788","87.87878787878788","737.1666666666666","737.1666666666666","black","no","legacy","legacy","legacy","0","uniform","1","undefined","undefined","undefined","1","f","0","0","0","0","65","0","0","0","65","0","61","65","61","0","61","3","65","0","65","Wed Feb 17 12:17:54 2021","The main experiment item","yes","Lexical_Decision_Task.osexp","C:/Users/milli/OneDrive/Documents/Cognition and Language/Assignment","no","Andale Mono","no","18","no","white","no","yes","576","legacy","61","61","3","C:/Users/milli/OneDrive/Documents/Cognition and Language/Assignment/subject-5226272.csv","legacy","Lentiform Loewenfeld","3.3.7","yes","yes","600bd7cfb6416f0113b04181","602110864497cf011d9c0822","0","f","NA","j","j","j","j","f","1112","NA","2555","22396","8081","6234","1112","2","legacy","1024","2","48000","-16","task","5226272","even","NA","40220","44776","42221","172065","2643","33123","25041","172567","141745","172062","172567","171963","44776","173681","38605","171463","2634","162899","Lexical Decision Task","58","48653","66","yes","1024"
"3.094121596","0","8","fode","non-word","88.05970149253731","88.05970149253731","737.6268656716418","737.6268656716418","black","no","legacy","legacy","legacy","0","uniform","1","undefined","undefined","undefined","1","f","0","0","0","0","66","0","0","0","66","0","62","66","62","0","62","3","66","0","66","Wed Feb 17 12:17:54 2021","The main experiment item","yes","Lexical_Decision_Task.osexp","C:/Users/milli/OneDrive/Documents/Cognition and Language/Assignment","no","Andale Mono","no","18","no","white","no","yes","576","legacy","62","62","3","C:/Users/milli/OneDrive/Documents/Cognition and Language/Assignment/subject-5226272.csv","legacy","Lentiform Loewenfeld","3.3.7","yes","yes","600bd7cfb6416f0113b04181","602110864497cf011d9c0822","0","f","NA","j","j","j","j","f","768","NA","2555","22396","8081","6234","768","2","legacy","1024","2","48000","-16","task","5226272","even","NA","40220","44776","42221","174307","2643","33123","25041","174809","141745","174305","174809","174205","44776","175578","38605","173705","2634","162899","Lexical Decision Task","59","49421","67","yes","1024"
"3.15462682","0","6","noal","non-word","88.23529411764706","88.23529411764706","734.8088235294117","734.8088235294117","black","no","legacy","legacy","legacy","0","uniform","1","undefined","undefined","undefined","1","f","0","0","0","0","67","0","0","0","67","0","63","67","63","0","63","3","67","0","67","Wed Feb 17 12:17:54 2021","The main experiment item","yes","Lexical_Decision_Task.osexp","C:/Users/milli/OneDrive/Documents/Cognition and Language/Assignment","no","Andale Mono","no","18","no","white","no","yes","576","legacy","63","63","3","C:/Users/milli/OneDrive/Documents/Cognition and Language/Assignment/subject-5226272.csv","legacy","Lentiform Loewenfeld","3.3.7","yes","yes","600bd7cfb6416f0113b04181","602110864497cf011d9c0822","0","f","NA","j","j","j","j","f","546","NA","2555","22396","8081","6234","546","2","legacy","1024","2","48000","-16","task","5226272","even","NA","40220","44776","42221","176202","2643","33123","25041","176704","141745","176199","176704","176101","44776","177252","38605","175601","2634","162899","Lexical Decision Task","60","49967","68","yes","1024"
"3.091901331","0","9","nipe","non-word","88.40579710144928","88.40579710144928","735","735","black","no","legacy","legacy","legacy","0","uniform","1","undefined","undefined","undefined","1","f","0","0","0","0","68","0","0","0","68","0","64","68","64","0","64","3","68","0","68","Wed Feb 17 12:17:54 2021","The main experiment item","yes","Lexical_Decision_Task.osexp","C:/Users/milli/OneDrive/Documents/Cognition and Language/Assignment","no","Andale Mono","no","18","no","white","no","yes","576","legacy","64","64","3","C:/Users/milli/OneDrive/Documents/Cognition and Language/Assignment/subject-5226272.csv","legacy","Lentiform Loewenfeld","3.3.7","yes","yes","600bd7cfb6416f0113b04181","602110864497cf011d9c0822","0","f","NA","j","j","j","j","f","748","NA","2555","22396","8081","6234","748","2","legacy","1024","2","48000","-16","task","5226272","even","NA","40220","44776","42221","177862","2643","33123","25041","178364","141745","177860","178364","177774","44776","179115","38605","177273","2634","162899","Lexical Decision Task","61","50715","69","yes","1024"
"3.137775856","7.39","5","comb","word","88.57142857142857","88.57142857142857","734.8571428571429","734.8571428571429","black","no","legacy","legacy","legacy","0","uniform","1","undefined","undefined","undefined","1","j","0","0","0","0","69","0","0","0","69","0","65","69","65","0","65","3","69","0","69","Wed Feb 17 12:17:54 2021","The main experiment item","yes","Lexical_Decision_Task.osexp","C:/Users/milli/OneDrive/Documents/Cognition and Language/Assignment","no","Andale Mono","no","18","no","white","no","yes","576","legacy","65","65","3","C:/Users/milli/OneDrive/Documents/Cognition and Language/Assignment/subject-5226272.csv","legacy","Lentiform Loewenfeld","3.3.7","yes","yes","600bd7cfb6416f0113b04181","602110864497cf011d9c0822","0","j","NA","j","j","j","j","j","725","NA","2555","22396","8081","6234","725","2","legacy","1024","2","48000","-16","task","5226272","even","NA","40220","44776","42221","179706","2643","33123","25041","180208","141745","179703","180208","179624","44776","180935","38605","179124","2634","162899","Lexical Decision Task","62","51440","70","yes","1024"
"2.794720352","0","9","koot","non-word","88.73239436619718","88.73239436619718","733.2535211267606","733.2535211267606","black","no","legacy","legacy","legacy","0","uniform","1","undefined","undefined","undefined","1","f","0","0","0","0","70","0","0","0","70","0","66","70","66","0","66","3","70","0","70","Wed Feb 17 12:17:54 2021","The main experiment item","yes","Lexical_Decision_Task.osexp","C:/Users/milli/OneDrive/Documents/Cognition and Language/Assignment","no","Andale Mono","no","18","no","white","no","yes","576","legacy","66","66","3","C:/Users/milli/OneDrive/Documents/Cognition and Language/Assignment/subject-5226272.csv","legacy","Lentiform Loewenfeld","3.3.7","yes","yes","600bd7cfb6416f0113b04181","602110864497cf011d9c0822","0","f","NA","j","j","j","j","f","621","NA","2555","22396","8081","6234","621","2","legacy","1024","2","48000","-16","task","5226272","even","NA","40220","44776","42221","181561","2643","33123","25041","182065","141745","181559","182065","181458","44776","182687","38605","180958","2634","162899","Lexical Decision Task","63","52061","71","yes","1024"
"2.924968096","0","4","phim","non-word","88.88888888888889","88.88888888888889","731.4027777777778","731.4027777777778","black","no","legacy","legacy","legacy","0","uniform","1","undefined","undefined","undefined","1","f","0","0","0","0","71","0","0","0","71","0","67","71","67","0","67","3","71","0","71","Wed Feb 17 12:17:54 2021","The main experiment item","yes","Lexical_Decision_Task.osexp","C:/Users/milli/OneDrive/Documents/Cognition and Language/Assignment","no","Andale Mono","no","18","no","white","no","yes","576","legacy","67","67","3","C:/Users/milli/OneDrive/Documents/Cognition and Language/Assignment/subject-5226272.csv","legacy","Lentiform Loewenfeld","3.3.7","yes","yes","600bd7cfb6416f0113b04181","602110864497cf011d9c0822","0","f","NA","j","j","j","j","f","600","NA","2555","22396","8081","6234","600","2","legacy","1024","2","48000","-16","task","5226272","even","NA","40220","44776","42221","183314","2643","33123","25041","183817","141745","183312","183817","183211","44776","184419","38605","182711","2634","162899","Lexical Decision Task","64","52661","72","yes","1024"
"3.368162872","0","4","ferk","non-word","89.04109589041096","89.04109589041096","730.2465753424658","730.2465753424658","black","no","legacy","legacy","legacy","0","uniform","1","undefined","undefined","undefined","1","f","0","0","0","0","72","0","0","0","72","0","68","72","68","0","68","3","72","0","72","Wed Feb 17 12:17:54 2021","The main experiment item","yes","Lexical_Decision_Task.osexp","C:/Users/milli/OneDrive/Documents/Cognition and Language/Assignment","no","Andale Mono","no","18","no","white","no","yes","576","legacy","68","68","3","C:/Users/milli/OneDrive/Documents/Cognition and Language/Assignment/subject-5226272.csv","legacy","Lentiform Loewenfeld","3.3.7","yes","yes","600bd7cfb6416f0113b04181","602110864497cf011d9c0822","0","f","NA","j","j","j","j","f","647","NA","2555","22396","8081","6234","647","2","legacy","1024","2","48000","-16","task","5226272","even","NA","40220","44776","42221","184999","2643","33123","25041","185501","141745","184997","185501","184923","44776","186149","38605","184423","2634","162899","Lexical Decision Task","65","53308","73","yes","1024"
"3.102203805","7.21","3","drip","word","89.1891891891892","89.1891891891892","728.3108108108108","728.3108108108108","black","no","legacy","legacy","legacy","0","uniform","1","undefined","undefined","undefined","1","j","0","0","0","0","73","0","0","0","73","0","69","73","69","0","69","3","73","0","73","Wed Feb 17 12:17:54 2021","The main experiment item","yes","Lexical_Decision_Task.osexp","C:/Users/milli/OneDrive/Documents/Cognition and Language/Assignment","no","Andale Mono","no","18","no","white","no","yes","576","legacy","69","69","3","C:/Users/milli/OneDrive/Documents/Cognition and Language/Assignment/subject-5226272.csv","legacy","Lentiform Loewenfeld","3.3.7","yes","yes","600bd7cfb6416f0113b04181","602110864497cf011d9c0822","0","j","NA","j","j","j","j","j","587","NA","2555","22396","8081","6234","587","2","legacy","1024","2","48000","-16","task","5226272","even","NA","40220","44776","42221","186772","2643","33123","25041","187274","141745","186769","187274","186671","44776","187863","38605","186171","2634","162899","Lexical Decision Task","66","53895","74","yes","1024"
"2.6599162","0","6","flug","non-word","89.33333333333333","89.33333333333333","726.4666666666667","726.4666666666667","black","no","legacy","legacy","legacy","0","uniform","1","undefined","undefined","undefined","1","f","0","0","0","0","74","0","0","0","74","0","70","74","70","0","70","3","74","0","74","Wed Feb 17 12:17:54 2021","The main experiment item","yes","Lexical_Decision_Task.osexp","C:/Users/milli/OneDrive/Documents/Cognition and Language/Assignment","no","Andale Mono","no","18","no","white","no","yes","576","legacy","70","70","3","C:/Users/milli/OneDrive/Documents/Cognition and Language/Assignment/subject-5226272.csv","legacy","Lentiform Loewenfeld","3.3.7","yes","yes","600bd7cfb6416f0113b04181","602110864497cf011d9c0822","0","f","NA","j","j","j","j","f","590","NA","2555","22396","8081","6234","590","2","legacy","1024","2","48000","-16","task","5226272","even","NA","40220","44776","42221","188477","2643","33123","25041","188996","141745","188474","188997","188387","44776","189589","38605","187887","2634","162899","Lexical Decision Task","67","54485","75","yes","1024"
"2.899638141","0","3","hapt","non-word","89.47368421052632","89.47368421052632","726.6315789473684","726.6315789473684","black","no","legacy","legacy","legacy","0","uniform","1","undefined","undefined","undefined","1","f","0","0","0","0","75","0","0","0","75","0","71","75","71","0","71","3","75","0","75","Wed Feb 17 12:17:54 2021","The main experiment item","yes","Lexical_Decision_Task.osexp","C:/Users/milli/OneDrive/Documents/Cognition and Language/Assignment","no","Andale Mono","no","18","no","white","no","yes","576","legacy","71","71","3","C:/Users/milli/OneDrive/Documents/Cognition and Language/Assignment/subject-5226272.csv","legacy","Lentiform Loewenfeld","3.3.7","yes","yes","600bd7cfb6416f0113b04181","602110864497cf011d9c0822","0","f","NA","j","j","j","j","f","739","NA","2555","22396","8081","6234","739","2","legacy","1024","2","48000","-16","task","5226272","even","NA","40220","44776","42221","190198","2643","33123","25041","190706","141745","190195","190707","190093","44776","191447","38605","189593","2634","162899","Lexical Decision Task","68","55224","76","yes","1024"
"2.803231716","5.26","3","kiln","word","88.31168831168831","88.31168831168831","724.1038961038961","724.1038961038961","black","no","legacy","legacy","legacy","0","uniform","0","undefined","undefined","undefined","0","j","0","0","0","0","76","0","0","0","76","0","72","76","72","0","72","3","76","0","76","Wed Feb 17 12:17:54 2021","The main experiment item","yes","Lexical_Decision_Task.osexp","C:/Users/milli/OneDrive/Documents/Cognition and Language/Assignment","no","Andale Mono","no","18","no","white","no","yes","576","legacy","72","72","3","C:/Users/milli/OneDrive/Documents/Cognition and Language/Assignment/subject-5226272.csv","legacy","Lentiform Loewenfeld","3.3.7","yes","yes","600bd7cfb6416f0113b04181","602110864497cf011d9c0822","0","f","NA","j","j","j","j","f","532","NA","2555","22396","8081","6234","532","2","legacy","1024","2","48000","-16","task","5226272","even","NA","40220","44776","42221","192073","2643","33123","25041","192575","141745","192071","192575","191971","44776","193109","38605","191471","2634","162899","Lexical Decision Task","68","55756","77","yes","1024"
"3.174641193","0","3","ramb","non-word","88.46153846153847","88.46153846153847","728.025641025641","728.025641025641","black","no","legacy","legacy","legacy","0","uniform","1","undefined","undefined","undefined","1","f","0","0","0","0","77","0","0","0","77","0","73","77","73","0","73","3","77","0","77","Wed Feb 17 12:17:54 2021","The main experiment item","yes","Lexical_Decision_Task.osexp","C:/Users/milli/OneDrive/Documents/Cognition and Language/Assignment","no","Andale Mono","no","18","no","white","no","yes","576","legacy","73","73","3","C:/Users/milli/OneDrive/Documents/Cognition and Language/Assignment/subject-5226272.csv","legacy","Lentiform Loewenfeld","3.3.7","yes","yes","600bd7cfb6416f0113b04181","602110864497cf011d9c0822","0","f","NA","j","j","j","j","f","1030","NA","2555","22396","8081","6234","1030","2","legacy","1024","2","48000","-16","task","5226272","even","NA","40220","44776","42221","194752","2643","33123","25041","195254","141745","194749","195254","194633","44776","196286","38605","191471","2634","193133","Lexical Decision Task","69","56786","78","yes","1024"
"2.839898939","8.99","6","soap","word","88.60759493670886","88.60759493670886","725.8860759493671","725.8860759493671","black","no","legacy","legacy","legacy","0","uniform","1","undefined","undefined","undefined","1","j","0","0","0","0","78","0","0","0","78","0","74","78","74","0","74","3","78","0","78","Wed Feb 17 12:17:54 2021","The main experiment item","yes","Lexical_Decision_Task.osexp","C:/Users/milli/OneDrive/Documents/Cognition and Language/Assignment","no","Andale Mono","no","18","no","white","no","yes","576","legacy","74","74","3","C:/Users/milli/OneDrive/Documents/Cognition and Language/Assignment/subject-5226272.csv","legacy","Lentiform Loewenfeld","3.3.7","yes","yes","600bd7cfb6416f0113b04181","602110864497cf011d9c0822","0","j","NA","j","j","j","j","j","559","NA","2555","22396","8081","6234","559","2","legacy","1024","2","48000","-16","task","5226272","even","NA","40220","44776","42221","196920","2643","33123","25041","197422","141745","196917","197422","196812","44776","197984","38605","196312","2634","193133","Lexical Decision Task","70","57345","79","yes","1024"
"3.488597715","0","9","nain","non-word","88.75","88.75","726.475","726.475","black","no","legacy","legacy","legacy","0","uniform","1","undefined","undefined","undefined","1","f","0","0","0","0","79","0","0","0","79","0","75","79","75","0","75","3","79","0","79","Wed Feb 17 12:17:54 2021","The main experiment item","yes","Lexical_Decision_Task.osexp","C:/Users/milli/OneDrive/Documents/Cognition and Language/Assignment","no","Andale Mono","no","18","no","white","no","yes","576","legacy","75","75","3","C:/Users/milli/OneDrive/Documents/Cognition and Language/Assignment/subject-5226272.csv","legacy","Lentiform Loewenfeld","3.3.7","yes","yes","600bd7cfb6416f0113b04181","602110864497cf011d9c0822","0","f","NA","j","j","j","j","f","773","NA","2555","22396","8081","6234","773","2","legacy","1024","2","48000","-16","task","5226272","even","NA","40220","44776","42221","198603","2643","33123","25041","199105","141745","198601","199105","198507","44776","199879","38605","198007","2634","193133","Lexical Decision Task","71","58118","80","yes","1024"
"2.75025376","10.2","6","jump","word","88.88888888888889","88.88888888888889","724.1975308641976","724.1975308641976","black","no","legacy","legacy","legacy","0","uniform","1","undefined","undefined","undefined","1","j","0","0","0","0","80","0","0","0","80","0","76","80","76","0","76","3","80","0","80","Wed Feb 17 12:17:54 2021","The main experiment item","yes","Lexical_Decision_Task.osexp","C:/Users/milli/OneDrive/Documents/Cognition and Language/Assignment","no","Andale Mono","no","18","no","white","no","yes","576","legacy","76","76","3","C:/Users/milli/OneDrive/Documents/Cognition and Language/Assignment/subject-5226272.csv","legacy","Lentiform Loewenfeld","3.3.7","yes","yes","600bd7cfb6416f0113b04181","602110864497cf011d9c0822","0","j","NA","j","j","j","j","j","542","NA","2555","22396","8081","6234","542","2","legacy","1024","2","48000","-16","task","5226272","even","NA","40220","44776","42221","200504","2643","33123","25041","201007","141745","200502","201007","200402","44776","201550","38605","199902","2634","193133","Lexical Decision Task","72","58660","81","yes","1024"
"3.121778632","0","9","sark","non-word","89.02439024390245","89.02439024390245","722.9146341463414","722.9146341463414","black","no","legacy","legacy","legacy","0","uniform","1","undefined","undefined","undefined","1","f","0","0","0","0","81","0","0","0","81","0","77","81","77","0","77","3","81","0","81","Wed Feb 17 12:17:54 2021","The main experiment item","yes","Lexical_Decision_Task.osexp","C:/Users/milli/OneDrive/Documents/Cognition and Language/Assignment","no","Andale Mono","no","18","no","white","no","yes","576","legacy","77","77","3","C:/Users/milli/OneDrive/Documents/Cognition and Language/Assignment/subject-5226272.csv","legacy","Lentiform Loewenfeld","3.3.7","yes","yes","600bd7cfb6416f0113b04181","602110864497cf011d9c0822","0","f","NA","j","j","j","j","f","619","NA","2555","22396","8081","6234","619","2","legacy","1024","2","48000","-16","task","5226272","even","NA","40220","44776","42221","202175","2643","33123","25041","202677","141745","202172","202677","202074","44776","203297","38605","201574","2634","193133","Lexical Decision Task","73","59279","82","yes","1024"
"3.064581521","5.51","6","cask","word","89.1566265060241","89.1566265060241","727.710843373494","727.710843373494","black","no","legacy","legacy","legacy","0","uniform","1","undefined","undefined","undefined","1","j","0","0","0","0","82","0","0","0","82","0","78","82","78","0","78","3","82","0","82","Wed Feb 17 12:17:54 2021","The main experiment item","yes","Lexical_Decision_Task.osexp","C:/Users/milli/OneDrive/Documents/Cognition and Language/Assignment","no","Andale Mono","no","18","no","white","no","yes","576","legacy","78","78","3","C:/Users/milli/OneDrive/Documents/Cognition and Language/Assignment/subject-5226272.csv","legacy","Lentiform Loewenfeld","3.3.7","yes","yes","600bd7cfb6416f0113b04181","602110864497cf011d9c0822","0","j","NA","j","j","j","j","j","1121","NA","2555","22396","8081","6234","1121","2","legacy","1024","2","48000","-16","task","5226272","even","NA","40220","44776","42221","203921","2643","33123","25041","204423","141745","203919","204423","203820","44776","205546","38605","203320","2634","193133","Lexical Decision Task","74","60400","83","yes","1024"
"3.194328374","9.42","6","harm","word","89.28571428571429","89.28571428571429","726.9880952380952","726.9880952380952","black","no","legacy","legacy","legacy","0","uniform","1","undefined","undefined","undefined","1","j","0","0","0","0","83","0","0","0","83","0","79","83","79","0","79","3","83","0","83","Wed Feb 17 12:17:54 2021","The main experiment item","yes","Lexical_Decision_Task.osexp","C:/Users/milli/OneDrive/Documents/Cognition and Language/Assignment","no","Andale Mono","no","18","no","white","no","yes","576","legacy","79","79","3","C:/Users/milli/OneDrive/Documents/Cognition and Language/Assignment/subject-5226272.csv","legacy","Lentiform Loewenfeld","3.3.7","yes","yes","600bd7cfb6416f0113b04181","602110864497cf011d9c0822","0","j","NA","j","j","j","j","j","667","NA","2555","22396","8081","6234","667","2","legacy","1024","2","48000","-16","task","5226272","even","NA","40220","44776","42221","206146","2643","33123","25041","206648","141745","206144","206648","206069","44776","207316","38605","205569","2634","193133","Lexical Decision Task","75","61067","84","yes","1024"
"2.952953801","0","8","clax","non-word","89.41176470588235","89.41176470588235","727.2235294117647","727.2235294117647","black","no","legacy","legacy","legacy","0","uniform","1","undefined","undefined","undefined","1","f","0","0","0","0","84","0","0","0","84","0","80","84","80","0","80","3","84","0","84","Wed Feb 17 12:17:54 2021","The main experiment item","yes","Lexical_Decision_Task.osexp","C:/Users/milli/OneDrive/Documents/Cognition and Language/Assignment","no","Andale Mono","no","18","no","white","no","yes","576","legacy","80","80","3","C:/Users/milli/OneDrive/Documents/Cognition and Language/Assignment/subject-5226272.csv","legacy","Lentiform Loewenfeld","3.3.7","yes","yes","600bd7cfb6416f0113b04181","602110864497cf011d9c0822","0","f","NA","j","j","j","j","f","747","NA","2555","22396","8081","6234","747","2","legacy","1024","2","48000","-16","task","5226272","even","NA","40220","44776","42221","207937","2643","33123","25041","208439","141745","207935","208439","207841","44776","209188","38605","207341","2634","193133","Lexical Decision Task","76","61814","85","yes","1024"
"3.149629599","0","2","cleb","non-word","89.53488372093024","89.53488372093024","725.8604651162791","725.8604651162791","black","no","legacy","legacy","legacy","0","uniform","1","undefined","undefined","undefined","1","f","0","0","0","0","85","0","0","0","85","0","81","85","81","0","81","3","85","0","85","Wed Feb 17 12:17:54 2021","The main experiment item","yes","Lexical_Decision_Task.osexp","C:/Users/milli/OneDrive/Documents/Cognition and Language/Assignment","no","Andale Mono","no","18","no","white","no","yes","576","legacy","81","81","3","C:/Users/milli/OneDrive/Documents/Cognition and Language/Assignment/subject-5226272.csv","legacy","Lentiform Loewenfeld","3.3.7","yes","yes","600bd7cfb6416f0113b04181","602110864497cf011d9c0822","0","f","NA","j","j","j","j","f","610","NA","2555","22396","8081","6234","610","2","legacy","1024","2","48000","-16","task","5226272","even","NA","40220","44776","42221","209793","2643","33123","25041","210295","141745","209791","210295","209711","44776","210907","38605","209211","2634","193133","Lexical Decision Task","77","62424","86","yes","1024"
"2.778633532","0","3","jurp","non-word","89.65517241379311","89.65517241379311","724.919540229885","724.919540229885","black","no","legacy","legacy","legacy","0","uniform","1","undefined","undefined","undefined","1","f","0","0","0","0","86","0","0","0","86","0","82","86","82","0","82","3","86","0","86","Wed Feb 17 12:17:54 2021","The main experiment item","yes","Lexical_Decision_Task.osexp","C:/Users/milli/OneDrive/Documents/Cognition and Language/Assignment","no","Andale Mono","no","18","no","white","no","yes","576","legacy","82","82","3","C:/Users/milli/OneDrive/Documents/Cognition and Language/Assignment/subject-5226272.csv","legacy","Lentiform Loewenfeld","3.3.7","yes","yes","600bd7cfb6416f0113b04181","602110864497cf011d9c0822","0","f","NA","j","j","j","j","f","644","NA","2555","22396","8081","6234","644","2","legacy","1024","2","48000","-16","task","5226272","even","NA","40220","44776","42221","211520","2643","33123","25041","212036","141745","211518","212036","211430","44776","212682","38605","210930","2634","193133","Lexical Decision Task","78","63068","87","yes","1024"
"3.159867847","5.98","5","brim","word","88.63636363636364","88.63636363636364","726.3863636363636","726.3863636363636","black","no","legacy","legacy","legacy","0","uniform","0","undefined","undefined","undefined","0","j","0","0","0","0","87","0","0","0","87","0","83","87","83","0","83","3","87","0","87","Wed Feb 17 12:17:54 2021","The main experiment item","yes","Lexical_Decision_Task.osexp","C:/Users/milli/OneDrive/Documents/Cognition and Language/Assignment","no","Andale Mono","no","18","no","white","no","yes","576","legacy","83","83","3","C:/Users/milli/OneDrive/Documents/Cognition and Language/Assignment/subject-5226272.csv","legacy","Lentiform Loewenfeld","3.3.7","yes","yes","600bd7cfb6416f0113b04181","602110864497cf011d9c0822","0","f","NA","j","j","j","j","f","854","NA","2555","22396","8081","6234","854","2","legacy","1024","2","48000","-16","task","5226272","even","NA","40220","44776","42221","213309","2643","33123","25041","213811","141745","213306","213811","213206","44776","214667","38605","212706","2634","193133","Lexical Decision Task","78","63922","88","yes","1024"
"2.80048796","0","8","pife","non-word","88.76404494382022","88.76404494382022","730.370786516854","730.370786516854","black","no","legacy","legacy","legacy","0","uniform","1","undefined","undefined","undefined","1","f","0","0","0","0","88","0","0","0","88","0","84","88","84","0","84","3","88","0","88","Wed Feb 17 12:17:54 2021","The main experiment item","yes","Lexical_Decision_Task.osexp","C:/Users/milli/OneDrive/Documents/Cognition and Language/Assignment","no","Andale Mono","no","18","no","white","no","yes","576","legacy","84","84","3","C:/Users/milli/OneDrive/Documents/Cognition and Language/Assignment/subject-5226272.csv","legacy","Lentiform Loewenfeld","3.3.7","yes","yes","600bd7cfb6416f0113b04181","602110864497cf011d9c0822","0","f","NA","j","j","j","j","f","1081","NA","2555","22396","8081","6234","1081","2","legacy","1024","2","48000","-16","task","5226272","even","NA","40220","44776","42221","216310","2643","33123","25041","216812","141745","216307","216812","216190","44776","217895","38605","212706","2634","214690","Lexical Decision Task","79","65003","89","yes","1024"
"3.20871002","7.15","8","cram","word","87.77777777777777","87.77777777777777","729.0444444444445","729.0444444444445","black","no","legacy","legacy","legacy","0","uniform","0","undefined","undefined","undefined","0","j","0","0","0","0","89","0","0","0","89","0","85","89","85","0","85","3","89","0","89","Wed Feb 17 12:17:54 2021","The main experiment item","yes","Lexical_Decision_Task.osexp","C:/Users/milli/OneDrive/Documents/Cognition and Language/Assignment","no","Andale Mono","no","18","no","white","no","yes","576","legacy","85","85","3","C:/Users/milli/OneDrive/Documents/Cognition and Language/Assignment/subject-5226272.csv","legacy","Lentiform Loewenfeld","3.3.7","yes","yes","600bd7cfb6416f0113b04181","602110864497cf011d9c0822","0","f","NA","j","j","j","j","f","611","NA","2555","22396","8081","6234","611","2","legacy","1024","2","48000","-16","task","5226272","even","NA","40220","44776","42221","218506","2643","33123","25041","219008","141745","218504","219009","218418","44776","219622","38605","217918","2634","214690","Lexical Decision Task","79","65614","90","yes","1024"
"3.22685757","9.99","7","roll","word","87.91208791208791","87.91208791208791","727.5824175824176","727.5824175824176","black","no","legacy","legacy","legacy","0","uniform","1","undefined","undefined","undefined","1","j","0","0","0","0","90","0","0","0","90","0","86","90","86","0","86","3","90","0","90","Wed Feb 17 12:17:54 2021","The main experiment item","yes","Lexical_Decision_Task.osexp","C:/Users/milli/OneDrive/Documents/Cognition and Language/Assignment","no","Andale Mono","no","18","no","white","no","yes","576","legacy","86","86","3","C:/Users/milli/OneDrive/Documents/Cognition and Language/Assignment/subject-5226272.csv","legacy","Lentiform Loewenfeld","3.3.7","yes","yes","600bd7cfb6416f0113b04181","602110864497cf011d9c0822","0","j","NA","j","j","j","j","j","596","NA","2555","22396","8081","6234","596","2","legacy","1024","2","48000","-16","task","5226272","even","NA","40220","44776","42221","221246","2643","33123","25041","221748","141745","221243","221748","221128","44776","222345","38605","217918","2634","219628","Lexical Decision Task","80","66210","91","yes","1024"
"3.043885998","0","9","gome","non-word","88.04347826086956","88.04347826086956","726.1304347826087","726.1304347826087","black","no","legacy","legacy","legacy","0","uniform","1","undefined","undefined","undefined","1","f","0","0","0","0","91","0","0","0","91","0","87","91","87","0","87","3","91","0","91","Wed Feb 17 12:17:54 2021","The main experiment item","yes","Lexical_Decision_Task.osexp","C:/Users/milli/OneDrive/Documents/Cognition and Language/Assignment","no","Andale Mono","no","18","no","white","no","yes","576","legacy","87","87","3","C:/Users/milli/OneDrive/Documents/Cognition and Language/Assignment/subject-5226272.csv","legacy","Lentiform Loewenfeld","3.3.7","yes","yes","600bd7cfb6416f0113b04181","602110864497cf011d9c0822","0","f","NA","j","j","j","j","f","594","NA","2555","22396","8081","6234","594","2","legacy","1024","2","48000","-16","task","5226272","even","NA","40220","44776","42221","222954","2643","33123","25041","223456","141745","222952","223456","222868","44776","224051","38605","222368","2634","219628","Lexical Decision Task","81","66804","92","yes","1024"
"2.755364069","7.72","2","hoax","word","88.17204301075269","88.17204301075269","727.6774193548387","727.6774193548387","black","no","legacy","legacy","legacy","0","uniform","1","undefined","undefined","undefined","1","j","0","0","0","0","92","0","0","0","92","0","88","92","88","0","88","3","92","0","92","Wed Feb 17 12:17:54 2021","The main experiment item","yes","Lexical_Decision_Task.osexp","C:/Users/milli/OneDrive/Documents/Cognition and Language/Assignment","no","Andale Mono","no","18","no","white","no","yes","576","legacy","88","88","3","C:/Users/milli/OneDrive/Documents/Cognition and Language/Assignment/subject-5226272.csv","legacy","Lentiform Loewenfeld","3.3.7","yes","yes","600bd7cfb6416f0113b04181","602110864497cf011d9c0822","0","j","NA","j","j","j","j","j","870","NA","2555","22396","8081","6234","870","2","legacy","1024","2","48000","-16","task","5226272","even","NA","40220","44776","42221","224677","2643","33123","25041","225179","141745","224674","225179","224557","44776","226050","38605","224057","2634","219628","Lexical Decision Task","82","67674","93","yes","1024"
"3.443783828","7.65","3","verb","word","87.23404255319149","87.23404255319149","751.8510638297872","751.8510638297872","black","no","legacy","legacy","legacy","0","uniform","0","undefined","undefined","undefined","0","j","0","0","0","0","93","0","0","0","93","0","89","93","89","0","89","3","93","0","93","Wed Feb 17 12:17:54 2021","The main experiment item","yes","Lexical_Decision_Task.osexp","C:/Users/milli/OneDrive/Documents/Cognition and Language/Assignment","no","Andale Mono","no","18","no","white","no","yes","576","legacy","89","89","3","C:/Users/milli/OneDrive/Documents/Cognition and Language/Assignment/subject-5226272.csv","legacy","Lentiform Loewenfeld","3.3.7","yes","yes","600bd7cfb6416f0113b04181","602110864497cf011d9c0822","0","None","NA","j","j","j","j","None","3000","NA","2555","22396","8081","6234","3000","2","legacy","1024","2","48000","-16","task","5226272","even","NA","40220","44776","42221","226676","2643","33123","25041","227178","141745","226673","227438","226574","44776","230439","38605","226074","2634","219628","Lexical Decision Task","82","70674","94","yes","1024"
