"Log_BG","Log_Freq_HAL","Ortho_N","Stimulus","Type","acc","accuracy","average_response_time","avg_rt","background","bidi","canvas_backend","clock_backend","color_backend","compensation","coordinates","correct","correct_Experimental_intro","correct_Introduction","correct_Practice_intro","correct_experimenter_kb","correct_response","count_End_Of_Experiment","count_End_Of_Practice","count_Experimental_Loop","count_Experimental_intro","count_Fixation","count_Introduction","count_Practice_Loop","count_Practice_intro","count_Stimulus","count_block_break_feedback","count_experimental_sequence","count_experimenter_kb","count_increment_trial_count","count_init_trial_count","count_logger","count_practice_sequence","count_right","count_task","count_wrong","datetime","description","disable_garbage_collection","experiment_file","experiment_path","font_bold","font_family","font_italic","font_size","font_underline","foreground","form_clicks","fullscreen","height","keyboard_backend","live_row","live_row_Experimental_Loop","live_row_Practice_Loop","logfile","mouse_backend","opensesame_codename","opensesame_version","osf_always_upload_data","osf_always_upload_experiment","osf_datanode_id","osf_id","repeat_cycle","response","response_End_Of_Experiment","response_Experimental_intro","response_Introduction","response_Practice_intro","response_block_break_feedback","response_experimenter_kb","response_time","response_time_End_Of_Experiment","response_time_Experimental_intro","response_time_Introduction","response_time_Practice_intro","response_time_block_break_feedback","response_time_experimenter_kb","round_decimals","sampler_backend","sound_buf_size","sound_channels","sound_freq","sound_sample_size","start","subject_nr","subject_parity","time_End_Of_Experiment","time_End_Of_Practice","time_Experimental_Loop","time_Experimental_intro","time_Fixation","time_Introduction","time_Practice_Loop","time_Practice_intro","time_Stimulus","time_block_break_feedback","time_experimental_sequence","time_experimenter_kb","time_increment_trial_count","time_init_trial_count","time_logger","time_practice_sequence","time_right","time_task","time_wrong","title","total_correct","total_response_time","total_responses","uniform_coordinates","width"
"3.366547468","0","6","plat","non-word","100","100","795.8","795.8","black","no","legacy","legacy","legacy","0","uniform","1","undefined","undefined","undefined","1","f","0","0","0","0","4","0","0","0","4","NA","0","4","0","0","0","3","4","0","4","Wed Feb 17 11:19:23 2021","The main experiment item","yes","Lexical_Decision_Task.osexp","C:/Users/Clive Perry/Desktop/Uni/Year 2/Cognition and language","no","Andale Mono","no","18","no","white","no","yes","576","legacy","0","0","3","C:/Users/Clive Perry/Desktop/Uni/Year 2/Cognition and language/subject-5203822.csv","legacy","Lentiform Loewenfeld","3.3.7","yes","yes","600bd7cfb6416f0113b04181","602110864497cf011d9c0822","0","f","NA","space","space","space","NA","f","930","NA","1170","8190","4861","NA","930","2","legacy","1024","2","48000","-16","task","5203822","even","NA","24361","27534","26364","27576","3748","16801","11940","28079","NA","27575","28080","NA","27534","29010","22473","23810","3731","NA","Lexical Decision Task","5","3979","5","yes","1024"
"2.695770526","7.34","6","pawn","word","100","100","791.8333333333334","791.8333333333334","black","no","legacy","legacy","legacy","0","uniform","1","undefined","undefined","undefined","1","j","0","0","0","0","5","0","0","0","5","NA","1","5","1","0","1","3","5","0","5","Wed Feb 17 11:19:23 2021","The main experiment item","yes","Lexical_Decision_Task.osexp","C:/Users/Clive Perry/Desktop/Uni/Year 2/Cognition and language","no","Andale Mono","no","18","no","white","no","yes","576","legacy","1","1","3","C:/Users/Clive Perry/Desktop/Uni/Year 2/Cognition and language/subject-5203822.csv","legacy","Lentiform Loewenfeld","3.3.7","yes","yes","600bd7cfb6416f0113b04181","602110864497cf011d9c0822","0","j","NA","space","space","space","NA","j","772","NA","1170","8190","4861","NA","772","2","legacy","1024","2","48000","-16","task","5203822","even","NA","24361","27534","26364","29648","3748","16801","11940","30151","NA","29645","30152","29519","27534","30925","22473","29019","3731","NA","Lexical Decision Task","6","4751","6","yes","1024"
"2.843025032","0","9","pusk","non-word","100","100","781.4285714285714","781.4285714285714","black","no","legacy","legacy","legacy","0","uniform","1","undefined","undefined","undefined","1","f","0","0","0","0","6","0","0","0","6","NA","2","6","2","0","2","3","6","0","6","Wed Feb 17 11:19:23 2021","The main experiment item","yes","Lexical_Decision_Task.osexp","C:/Users/Clive Perry/Desktop/Uni/Year 2/Cognition and language","no","Andale Mono","no","18","no","white","no","yes","576","legacy","2","2","3","C:/Users/Clive Perry/Desktop/Uni/Year 2/Cognition and language/subject-5203822.csv","legacy","Lentiform Loewenfeld","3.3.7","yes","yes","600bd7cfb6416f0113b04181","602110864497cf011d9c0822","0","f","NA","space","space","space","NA","f","719","NA","1170","8190","4861","NA","719","2","legacy","1024","2","48000","-16","task","5203822","even","NA","24361","27534","26364","31529","3748","16801","11940","32033","NA","31527","32033","31431","27534","32752","22473","30931","3731","NA","Lexical Decision Task","7","5470","7","yes","1024"
"2.719886232","7.98","2","quiz","word","100","100","781.5","781.5","black","no","legacy","legacy","legacy","0","uniform","1","undefined","undefined","undefined","1","j","0","0","0","0","7","0","0","0","7","NA","3","7","3","0","3","3","7","0","7","Wed Feb 17 11:19:23 2021","The main experiment item","yes","Lexical_Decision_Task.osexp","C:/Users/Clive Perry/Desktop/Uni/Year 2/Cognition and language","no","Andale Mono","no","18","no","white","no","yes","576","legacy","3","3","3","C:/Users/Clive Perry/Desktop/Uni/Year 2/Cognition and language/subject-5203822.csv","legacy","Lentiform Loewenfeld","3.3.7","yes","yes","600bd7cfb6416f0113b04181","602110864497cf011d9c0822","0","j","NA","space","space","space","NA","j","782","NA","1170","8190","4861","NA","782","2","legacy","1024","2","48000","-16","task","5203822","even","NA","24361","27534","26364","33376","3748","16801","11940","33879","NA","33371","33879","33257","27534","34661","22473","32757","3731","NA","Lexical Decision Task","8","6252","8","yes","1024"
"3.705778213","0","6","stin","non-word","100","100","761.2222222222222","761.2222222222222","black","no","legacy","legacy","legacy","0","uniform","1","undefined","undefined","undefined","1","f","0","0","0","0","8","0","0","0","8","NA","4","8","4","0","4","3","8","0","8","Wed Feb 17 11:19:23 2021","The main experiment item","yes","Lexical_Decision_Task.osexp","C:/Users/Clive Perry/Desktop/Uni/Year 2/Cognition and language","no","Andale Mono","no","18","no","white","no","yes","576","legacy","4","4","3","C:/Users/Clive Perry/Desktop/Uni/Year 2/Cognition and language/subject-5203822.csv","legacy","Lentiform Loewenfeld","3.3.7","yes","yes","600bd7cfb6416f0113b04181","602110864497cf011d9c0822","0","f","NA","space","space","space","NA","f","599","NA","1170","8190","4861","NA","599","2","legacy","1024","2","48000","-16","task","5203822","even","NA","24361","27534","26364","35271","3748","16801","11940","35775","NA","35270","35775","35166","27534","36374","22473","34666","3731","NA","Lexical Decision Task","9","6851","9","yes","1024"
"2.845304797","0","6","buct","non-word","100","100","751.5","751.5","black","no","legacy","legacy","legacy","0","uniform","1","undefined","undefined","undefined","1","f","0","0","0","0","9","0","0","0","9","NA","5","9","5","0","5","3","9","0","9","Wed Feb 17 11:19:23 2021","The main experiment item","yes","Lexical_Decision_Task.osexp","C:/Users/Clive Perry/Desktop/Uni/Year 2/Cognition and language","no","Andale Mono","no","18","no","white","no","yes","576","legacy","5","5","3","C:/Users/Clive Perry/Desktop/Uni/Year 2/Cognition and language/subject-5203822.csv","legacy","Lentiform Loewenfeld","3.3.7","yes","yes","600bd7cfb6416f0113b04181","602110864497cf011d9c0822","0","f","NA","space","space","space","NA","f","664","NA","1170","8190","4861","NA","664","2","legacy","1024","2","48000","-16","task","5203822","even","NA","24361","27534","26364","36985","3748","16801","11940","37489","NA","36984","37489","36879","27534","38154","22473","36379","3731","NA","Lexical Decision Task","10","7515","10","yes","1024"
"3.20996159","0","4","clee","non-word","100","100","743.0909090909091","743.0909090909091","black","no","legacy","legacy","legacy","0","uniform","1","undefined","undefined","undefined","1","f","0","0","0","0","10","0","0","0","10","NA","6","10","6","0","6","3","10","0","10","Wed Feb 17 11:19:23 2021","The main experiment item","yes","Lexical_Decision_Task.osexp","C:/Users/Clive Perry/Desktop/Uni/Year 2/Cognition and language","no","Andale Mono","no","18","no","white","no","yes","576","legacy","6","6","3","C:/Users/Clive Perry/Desktop/Uni/Year 2/Cognition and language/subject-5203822.csv","legacy","Lentiform Loewenfeld","3.3.7","yes","yes","600bd7cfb6416f0113b04181","602110864497cf011d9c0822","0","f","NA","space","space","space","NA","f","659","NA","1170","8190","4861","NA","659","2","legacy","1024","2","48000","-16","task","5203822","even","NA","24361","27534","26364","38757","3748","16801","11940","39262","NA","38756","39262","38662","27534","39921","22473","38162","3731","NA","Lexical Decision Task","11","8174","11","yes","1024"
"3.028977705","0","7","frow","non-word","100","100","729.8333333333334","729.8333333333334","black","no","legacy","legacy","legacy","0","uniform","1","undefined","undefined","undefined","1","f","0","0","0","0","11","0","0","0","11","NA","7","11","7","0","7","3","11","0","11","Wed Feb 17 11:19:23 2021","The main experiment item","yes","Lexical_Decision_Task.osexp","C:/Users/Clive Perry/Desktop/Uni/Year 2/Cognition and language","no","Andale Mono","no","18","no","white","no","yes","576","legacy","7","7","3","C:/Users/Clive Perry/Desktop/Uni/Year 2/Cognition and language/subject-5203822.csv","legacy","Lentiform Loewenfeld","3.3.7","yes","yes","600bd7cfb6416f0113b04181","602110864497cf011d9c0822","0","f","NA","space","space","space","NA","f","584","NA","1170","8190","4861","NA","584","2","legacy","1024","2","48000","-16","task","5203822","even","NA","24361","27534","26364","40543","3748","16801","11940","41047","NA","40538","41047","40428","27534","41631","22473","39928","3731","NA","Lexical Decision Task","12","8758","12","yes","1024"
"2.821076612","0","4","lult","non-word","100","100","719.5384615384615","719.5384615384615","black","no","legacy","legacy","legacy","0","uniform","1","undefined","undefined","undefined","1","f","0","0","0","0","12","0","0","0","12","NA","8","12","8","0","8","3","12","0","12","Wed Feb 17 11:19:23 2021","The main experiment item","yes","Lexical_Decision_Task.osexp","C:/Users/Clive Perry/Desktop/Uni/Year 2/Cognition and language","no","Andale Mono","no","18","no","white","no","yes","576","legacy","8","8","3","C:/Users/Clive Perry/Desktop/Uni/Year 2/Cognition and language/subject-5203822.csv","legacy","Lentiform Loewenfeld","3.3.7","yes","yes","600bd7cfb6416f0113b04181","602110864497cf011d9c0822","0","f","NA","space","space","space","NA","f","596","NA","1170","8190","4861","NA","596","2","legacy","1024","2","48000","-16","task","5203822","even","NA","24361","27534","26364","42237","3748","16801","11940","42741","NA","42235","42741","42141","27534","43337","22473","41640","3731","NA","Lexical Decision Task","13","9354","13","yes","1024"
"3.474361976","5.24","6","veer","word","92.85714285714286","92.85714285714286","725.2857142857143","725.2857142857143","black","no","legacy","legacy","legacy","0","uniform","0","undefined","undefined","undefined","0","j","0","0","0","0","13","0","0","0","13","NA","9","13","9","0","9","3","13","0","13","Wed Feb 17 11:19:23 2021","The main experiment item","yes","Lexical_Decision_Task.osexp","C:/Users/Clive Perry/Desktop/Uni/Year 2/Cognition and language","no","Andale Mono","no","18","no","white","no","yes","576","legacy","9","9","3","C:/Users/Clive Perry/Desktop/Uni/Year 2/Cognition and language/subject-5203822.csv","legacy","Lentiform Loewenfeld","3.3.7","yes","yes","600bd7cfb6416f0113b04181","602110864497cf011d9c0822","0","f","NA","space","space","space","NA","f","800","NA","1170","8190","4861","NA","800","2","legacy","1024","2","48000","-16","task","5203822","even","NA","24361","27534","26364","43951","3748","16801","11940","44455","NA","43950","44455","43843","27534","45256","22473","43343","3731","NA","Lexical Decision Task","13","10154","14","yes","1024"
"2.899638141","0","3","hapt","non-word","93.33333333333333","93.33333333333333","729","729","black","no","legacy","legacy","legacy","0","uniform","1","undefined","undefined","undefined","1","f","0","0","0","0","14","0","0","0","14","NA","10","14","10","0","10","3","14","0","14","Wed Feb 17 11:19:23 2021","The main experiment item","yes","Lexical_Decision_Task.osexp","C:/Users/Clive Perry/Desktop/Uni/Year 2/Cognition and language","no","Andale Mono","no","18","no","white","no","yes","576","legacy","10","10","3","C:/Users/Clive Perry/Desktop/Uni/Year 2/Cognition and language/subject-5203822.csv","legacy","Lentiform Loewenfeld","3.3.7","yes","yes","600bd7cfb6416f0113b04181","602110864497cf011d9c0822","0","f","NA","space","space","space","NA","f","781","NA","1170","8190","4861","NA","781","2","legacy","1024","2","48000","-16","task","5203822","even","NA","24361","27534","26364","46855","3748","16801","11940","47359","NA","46853","47360","46763","27534","48142","22473","43343","3731","45263","Lexical Decision Task","14","10935","15","yes","1024"
"3.363486562","6.93","9","lush","word","93.75","93.75","724.8125","724.8125","black","no","legacy","legacy","legacy","0","uniform","1","undefined","undefined","undefined","1","j","0","0","0","0","15","0","0","0","15","NA","11","15","11","0","11","3","15","0","15","Wed Feb 17 11:19:23 2021","The main experiment item","yes","Lexical_Decision_Task.osexp","C:/Users/Clive Perry/Desktop/Uni/Year 2/Cognition and language","no","Andale Mono","no","18","no","white","no","yes","576","legacy","11","11","3","C:/Users/Clive Perry/Desktop/Uni/Year 2/Cognition and language/subject-5203822.csv","legacy","Lentiform Loewenfeld","3.3.7","yes","yes","600bd7cfb6416f0113b04181","602110864497cf011d9c0822","0","j","NA","space","space","space","NA","j","662","NA","1170","8190","4861","NA","662","2","legacy","1024","2","48000","-16","task","5203822","even","NA","24361","27534","26364","48745","3748","16801","11940","49248","NA","48744","49248","48649","27534","49911","22473","48149","3731","45263","Lexical Decision Task","15","11597","16","yes","1024"
"2.880623071","0","9","curp","non-word","94.11764705882354","94.11764705882354","731.9411764705883","731.9411764705883","black","no","legacy","legacy","legacy","0","uniform","1","undefined","undefined","undefined","1","f","0","0","0","0","16","0","0","0","16","NA","12","16","12","0","12","3","16","0","16","Wed Feb 17 11:19:23 2021","The main experiment item","yes","Lexical_Decision_Task.osexp","C:/Users/Clive Perry/Desktop/Uni/Year 2/Cognition and language","no","Andale Mono","no","18","no","white","no","yes","576","legacy","12","12","3","C:/Users/Clive Perry/Desktop/Uni/Year 2/Cognition and language/subject-5203822.csv","legacy","Lentiform Loewenfeld","3.3.7","yes","yes","600bd7cfb6416f0113b04181","602110864497cf011d9c0822","0","f","NA","space","space","space","NA","f","846","NA","1170","8190","4861","NA","846","2","legacy","1024","2","48000","-16","task","5203822","even","NA","24361","27534","26364","50514","3748","16801","11940","51018","NA","50512","51019","50420","27534","51866","22473","49920","3731","45263","Lexical Decision Task","16","12443","17","yes","1024"
"2.842815106","7.86","8","lump","word","94.44444444444444","94.44444444444444","731.2222222222222","731.2222222222222","black","no","legacy","legacy","legacy","0","uniform","1","undefined","undefined","undefined","1","j","0","0","0","0","17","0","0","0","17","NA","13","17","13","0","13","3","17","0","17","Wed Feb 17 11:19:23 2021","The main experiment item","yes","Lexical_Decision_Task.osexp","C:/Users/Clive Perry/Desktop/Uni/Year 2/Cognition and language","no","Andale Mono","no","18","no","white","no","yes","576","legacy","13","13","3","C:/Users/Clive Perry/Desktop/Uni/Year 2/Cognition and language/subject-5203822.csv","legacy","Lentiform Loewenfeld","3.3.7","yes","yes","600bd7cfb6416f0113b04181","602110864497cf011d9c0822","0","j","NA","space","space","space","NA","j","719","NA","1170","8190","4861","NA","719","2","legacy","1024","2","48000","-16","task","5203822","even","NA","24361","27534","26364","52465","3748","16801","11940","52968","NA","52463","52969","52373","27534","53689","22473","51873","3731","45263","Lexical Decision Task","17","13162","18","yes","1024"
"3.094121596","0","8","fode","non-word","94.73684210526316","94.73684210526316","741.8421052631579","741.8421052631579","black","no","legacy","legacy","legacy","0","uniform","1","undefined","undefined","undefined","1","f","0","0","0","0","18","0","0","0","18","NA","14","18","14","0","14","3","18","0","18","Wed Feb 17 11:19:23 2021","The main experiment item","yes","Lexical_Decision_Task.osexp","C:/Users/Clive Perry/Desktop/Uni/Year 2/Cognition and language","no","Andale Mono","no","18","no","white","no","yes","576","legacy","14","14","3","C:/Users/Clive Perry/Desktop/Uni/Year 2/Cognition and language/subject-5203822.csv","legacy","Lentiform Loewenfeld","3.3.7","yes","yes","600bd7cfb6416f0113b04181","602110864497cf011d9c0822","0","f","NA","space","space","space","NA","f","933","NA","1170","8190","4861","NA","933","2","legacy","1024","2","48000","-16","task","5203822","even","NA","24361","27534","26364","54296","3748","16801","11940","54799","NA","54295","54799","54199","27534","55733","22473","53699","3731","45263","Lexical Decision Task","18","14095","19","yes","1024"
"3.145920145","8.51","8","flew","word","95","95","737.15","737.15","black","no","legacy","legacy","legacy","0","uniform","1","undefined","undefined","undefined","1","j","0","0","0","0","19","0","0","0","19","NA","15","19","15","0","15","3","19","0","19","Wed Feb 17 11:19:23 2021","The main experiment item","yes","Lexical_Decision_Task.osexp","C:/Users/Clive Perry/Desktop/Uni/Year 2/Cognition and language","no","Andale Mono","no","18","no","white","no","yes","576","legacy","15","15","3","C:/Users/Clive Perry/Desktop/Uni/Year 2/Cognition and language/subject-5203822.csv","legacy","Lentiform Loewenfeld","3.3.7","yes","yes","600bd7cfb6416f0113b04181","602110864497cf011d9c0822","0","j","NA","space","space","space","NA","j","648","NA","1170","8190","4861","NA","648","2","legacy","1024","2","48000","-16","task","5203822","even","NA","24361","27534","26364","56338","3748","16801","11940","56841","NA","56337","56842","56242","27534","57490","22473","55742","3731","45263","Lexical Decision Task","19","14743","20","yes","1024"
"2.714888338","0","3","brug","non-word","95.23809523809524","95.23809523809524","735.3809523809524","735.3809523809524","black","no","legacy","legacy","legacy","0","uniform","1","undefined","undefined","undefined","1","f","0","0","0","0","20","0","0","0","20","NA","16","20","16","0","16","3","20","0","20","Wed Feb 17 11:19:23 2021","The main experiment item","yes","Lexical_Decision_Task.osexp","C:/Users/Clive Perry/Desktop/Uni/Year 2/Cognition and language","no","Andale Mono","no","18","no","white","no","yes","576","legacy","16","16","3","C:/Users/Clive Perry/Desktop/Uni/Year 2/Cognition and language/subject-5203822.csv","legacy","Lentiform Loewenfeld","3.3.7","yes","yes","600bd7cfb6416f0113b04181","602110864497cf011d9c0822","0","f","NA","space","space","space","NA","f","700","NA","1170","8190","4861","NA","700","2","legacy","1024","2","48000","-16","task","5203822","even","NA","24361","27534","26364","58105","3748","16801","11940","58609","NA","58104","58610","57998","27534","59310","22473","57497","3731","45263","Lexical Decision Task","20","15443","21","yes","1024"
"2.809559715","8.44","4","volt","word","95.45454545454545","95.45454545454545","739.0909090909091","739.0909090909091","black","no","legacy","legacy","legacy","0","uniform","1","undefined","undefined","undefined","1","j","0","0","0","0","21","0","0","0","21","NA","17","21","17","0","17","3","21","0","21","Wed Feb 17 11:19:23 2021","The main experiment item","yes","Lexical_Decision_Task.osexp","C:/Users/Clive Perry/Desktop/Uni/Year 2/Cognition and language","no","Andale Mono","no","18","no","white","no","yes","576","legacy","17","17","3","C:/Users/Clive Perry/Desktop/Uni/Year 2/Cognition and language/subject-5203822.csv","legacy","Lentiform Loewenfeld","3.3.7","yes","yes","600bd7cfb6416f0113b04181","602110864497cf011d9c0822","0","j","NA","space","space","space","NA","j","817","NA","1170","8190","4861","NA","817","2","legacy","1024","2","48000","-16","task","5203822","even","NA","24361","27534","26364","59905","3748","16801","11940","60408","NA","59903","60408","59816","27534","61225","22473","59316","3731","45263","Lexical Decision Task","21","16260","22","yes","1024"
"3.134602053","0","8","jart","non-word","95.65217391304348","95.65217391304348","749.2608695652174","749.2608695652174","black","no","legacy","legacy","legacy","0","uniform","1","undefined","undefined","undefined","1","f","0","0","0","0","22","0","0","0","22","NA","18","22","18","0","18","3","22","0","22","Wed Feb 17 11:19:23 2021","The main experiment item","yes","Lexical_Decision_Task.osexp","C:/Users/Clive Perry/Desktop/Uni/Year 2/Cognition and language","no","Andale Mono","no","18","no","white","no","yes","576","legacy","18","18","3","C:/Users/Clive Perry/Desktop/Uni/Year 2/Cognition and language/subject-5203822.csv","legacy","Lentiform Loewenfeld","3.3.7","yes","yes","600bd7cfb6416f0113b04181","602110864497cf011d9c0822","0","f","NA","space","space","space","NA","f","973","NA","1170","8190","4861","NA","973","2","legacy","1024","2","48000","-16","task","5203822","even","NA","24361","27534","26364","61828","3748","16801","11940","62331","NA","61827","62332","61733","27534","63305","22473","61233","3731","45263","Lexical Decision Task","22","17233","23","yes","1024"
"2.696644658","5.78","2","yolk","word","95.83333333333333","95.83333333333333","746.25","746.25","black","no","legacy","legacy","legacy","0","uniform","1","undefined","undefined","undefined","1","j","0","0","0","0","23","0","0","0","23","NA","19","23","19","0","19","3","23","0","23","Wed Feb 17 11:19:23 2021","The main experiment item","yes","Lexical_Decision_Task.osexp","C:/Users/Clive Perry/Desktop/Uni/Year 2/Cognition and language","no","Andale Mono","no","18","no","white","no","yes","576","legacy","19","19","3","C:/Users/Clive Perry/Desktop/Uni/Year 2/Cognition and language/subject-5203822.csv","legacy","Lentiform Loewenfeld","3.3.7","yes","yes","600bd7cfb6416f0113b04181","602110864497cf011d9c0822","0","j","NA","space","space","space","NA","j","677","NA","1170","8190","4861","NA","677","2","legacy","1024","2","48000","-16","task","5203822","even","NA","24361","27534","26364","63897","3748","16801","11940","64399","NA","63896","64400","63810","27534","65079","22473","63310","3731","45263","Lexical Decision Task","23","17910","24","yes","1024"
"2.782472624","10.55","2","huge","word","96","96","736.84","736.84","black","no","legacy","legacy","legacy","0","uniform","1","undefined","undefined","undefined","1","j","0","0","0","0","24","0","0","0","24","NA","20","24","20","0","20","3","24","0","24","Wed Feb 17 11:19:23 2021","The main experiment item","yes","Lexical_Decision_Task.osexp","C:/Users/Clive Perry/Desktop/Uni/Year 2/Cognition and language","no","Andale Mono","no","18","no","white","no","yes","576","legacy","20","20","3","C:/Users/Clive Perry/Desktop/Uni/Year 2/Cognition and language/subject-5203822.csv","legacy","Lentiform Loewenfeld","3.3.7","yes","yes","600bd7cfb6416f0113b04181","602110864497cf011d9c0822","0","j","NA","space","space","space","NA","j","511","NA","1170","8190","4861","NA","511","2","legacy","1024","2","48000","-16","task","5203822","even","NA","24361","27534","26364","65692","3748","16801","11940","66195","NA","65690","66195","65588","27534","66707","22473","65088","3731","45263","Lexical Decision Task","24","18421","25","yes","1024"
"3.156347201","0","8","lasp","non-word","92.3076923076923","92.3076923076923","732.6153846153846","732.6153846153846","black","no","legacy","legacy","legacy","0","uniform","0","undefined","undefined","undefined","0","f","0","0","0","0","25","0","0","0","25","NA","21","25","21","0","21","3","25","0","25","Wed Feb 17 11:19:23 2021","The main experiment item","yes","Lexical_Decision_Task.osexp","C:/Users/Clive Perry/Desktop/Uni/Year 2/Cognition and language","no","Andale Mono","no","18","no","white","no","yes","576","legacy","21","21","3","C:/Users/Clive Perry/Desktop/Uni/Year 2/Cognition and language/subject-5203822.csv","legacy","Lentiform Loewenfeld","3.3.7","yes","yes","600bd7cfb6416f0113b04181","602110864497cf011d9c0822","0","j","NA","space","space","space","NA","j","627","NA","1170","8190","4861","NA","627","2","legacy","1024","2","48000","-16","task","5203822","even","NA","24361","27534","26364","67315","3748","16801","11940","67818","NA","67313","67818","67212","27534","68446","22473","66712","3731","45263","Lexical Decision Task","24","19048","26","yes","1024"
"2.75025376","10.2","6","jump","word","92.5925925925926","92.5925925925926","732.5555555555555","732.5555555555555","black","no","legacy","legacy","legacy","0","uniform","1","undefined","undefined","undefined","1","j","0","0","0","0","26","0","0","0","26","NA","22","26","22","0","22","3","26","0","26","Wed Feb 17 11:19:23 2021","The main experiment item","yes","Lexical_Decision_Task.osexp","C:/Users/Clive Perry/Desktop/Uni/Year 2/Cognition and language","no","Andale Mono","no","18","no","white","no","yes","576","legacy","22","22","3","C:/Users/Clive Perry/Desktop/Uni/Year 2/Cognition and language/subject-5203822.csv","legacy","Lentiform Loewenfeld","3.3.7","yes","yes","600bd7cfb6416f0113b04181","602110864497cf011d9c0822","0","j","NA","space","space","space","NA","j","731","NA","1170","8190","4861","NA","731","2","legacy","1024","2","48000","-16","task","5203822","even","NA","24361","27534","26364","70047","3748","16801","11940","70550","NA","70045","70550","69954","27534","71283","22473","66712","3731","68454","Lexical Decision Task","25","19779","27","yes","1024"
"2.907588697","8.91","9","mood","word","92.85714285714286","92.85714285714286","727.6785714285714","727.6785714285714","black","no","legacy","legacy","legacy","0","uniform","1","undefined","undefined","undefined","1","j","0","0","0","0","27","0","0","0","27","NA","23","27","23","0","23","3","27","0","27","Wed Feb 17 11:19:23 2021","The main experiment item","yes","Lexical_Decision_Task.osexp","C:/Users/Clive Perry/Desktop/Uni/Year 2/Cognition and language","no","Andale Mono","no","18","no","white","no","yes","576","legacy","23","23","3","C:/Users/Clive Perry/Desktop/Uni/Year 2/Cognition and language/subject-5203822.csv","legacy","Lentiform Loewenfeld","3.3.7","yes","yes","600bd7cfb6416f0113b04181","602110864497cf011d9c0822","0","j","NA","space","space","space","NA","j","596","NA","1170","8190","4861","NA","596","2","legacy","1024","2","48000","-16","task","5203822","even","NA","24361","27534","26364","71879","3748","16801","11940","72382","NA","71877","72383","71793","27534","72979","22473","71293","3731","68454","Lexical Decision Task","26","20375","28","yes","1024"
"3.105055783","0","2","norp","non-word","93.10344827586206","93.10344827586206","727.6206896551724","727.6206896551724","black","no","legacy","legacy","legacy","0","uniform","1","undefined","undefined","undefined","1","f","0","0","0","0","28","0","0","0","28","NA","24","28","24","0","24","3","28","0","28","Wed Feb 17 11:19:23 2021","The main experiment item","yes","Lexical_Decision_Task.osexp","C:/Users/Clive Perry/Desktop/Uni/Year 2/Cognition and language","no","Andale Mono","no","18","no","white","no","yes","576","legacy","24","24","3","C:/Users/Clive Perry/Desktop/Uni/Year 2/Cognition and language/subject-5203822.csv","legacy","Lentiform Loewenfeld","3.3.7","yes","yes","600bd7cfb6416f0113b04181","602110864497cf011d9c0822","0","f","NA","space","space","space","NA","f","726","NA","1170","8190","4861","NA","726","2","legacy","1024","2","48000","-16","task","5203822","even","NA","24361","27534","26364","73584","3748","16801","11940","74087","NA","73582","74087","73486","27534","74814","22473","72986","3731","68454","Lexical Decision Task","27","21101","29","yes","1024"
"2.972357144","0","5","dasp","non-word","90","90","727.4","727.4","black","no","legacy","legacy","legacy","0","uniform","0","undefined","undefined","undefined","0","f","0","0","0","0","29","0","0","0","29","NA","25","29","25","0","25","3","29","0","29","Wed Feb 17 11:19:23 2021","The main experiment item","yes","Lexical_Decision_Task.osexp","C:/Users/Clive Perry/Desktop/Uni/Year 2/Cognition and language","no","Andale Mono","no","18","no","white","no","yes","576","legacy","25","25","3","C:/Users/Clive Perry/Desktop/Uni/Year 2/Cognition and language/subject-5203822.csv","legacy","Lentiform Loewenfeld","3.3.7","yes","yes","600bd7cfb6416f0113b04181","602110864497cf011d9c0822","0","j","NA","space","space","space","NA","j","721","NA","1170","8190","4861","NA","721","2","legacy","1024","2","48000","-16","task","5203822","even","NA","24361","27534","26364","75414","3748","16801","11940","75916","NA","75411","75917","75319","27534","76638","22473","74819","3731","68454","Lexical Decision Task","27","21822","30","yes","1024"
"3.481012421","8.34","5","teen","word","90.3225806451613","90.3225806451613","727.1612903225806","727.1612903225806","black","no","legacy","legacy","legacy","0","uniform","1","undefined","undefined","undefined","1","j","0","0","0","0","30","0","0","0","30","NA","26","30","26","0","26","3","30","0","30","Wed Feb 17 11:19:23 2021","The main experiment item","yes","Lexical_Decision_Task.osexp","C:/Users/Clive Perry/Desktop/Uni/Year 2/Cognition and language","no","Andale Mono","no","18","no","white","no","yes","576","legacy","26","26","3","C:/Users/Clive Perry/Desktop/Uni/Year 2/Cognition and language/subject-5203822.csv","legacy","Lentiform Loewenfeld","3.3.7","yes","yes","600bd7cfb6416f0113b04181","602110864497cf011d9c0822","0","j","NA","space","space","space","NA","j","720","NA","1170","8190","4861","NA","720","2","legacy","1024","2","48000","-16","task","5203822","even","NA","24361","27534","26364","78237","3748","16801","11940","78741","NA","78236","78741","78145","27534","79461","22473","74819","3731","76645","Lexical Decision Task","28","22542","31","yes","1024"
"2.6599162","0","2","saff","non-word","87.5","87.5","722.75","722.75","black","no","legacy","legacy","legacy","0","uniform","0","undefined","undefined","undefined","0","f","0","0","0","0","31","0","0","0","31","NA","27","31","27","0","27","3","31","0","31","Wed Feb 17 11:19:23 2021","The main experiment item","yes","Lexical_Decision_Task.osexp","C:/Users/Clive Perry/Desktop/Uni/Year 2/Cognition and language","no","Andale Mono","no","18","no","white","no","yes","576","legacy","27","27","3","C:/Users/Clive Perry/Desktop/Uni/Year 2/Cognition and language/subject-5203822.csv","legacy","Lentiform Loewenfeld","3.3.7","yes","yes","600bd7cfb6416f0113b04181","602110864497cf011d9c0822","0","j","NA","space","space","space","NA","j","586","NA","1170","8190","4861","NA","586","2","legacy","1024","2","48000","-16","task","5203822","even","NA","24361","27534","26364","80065","3748","16801","11940","80569","NA","80063","80569","79968","27534","81155","22473","79468","3731","76645","Lexical Decision Task","28","23128","32","yes","1024"
"3.168400243","9.12","6","horn","word","87.87878787878788","87.87878787878788","719.4242424242424","719.4242424242424","black","no","legacy","legacy","legacy","0","uniform","1","undefined","undefined","undefined","1","j","0","0","0","0","32","0","0","0","32","NA","28","32","28","0","28","3","32","0","32","Wed Feb 17 11:19:23 2021","The main experiment item","yes","Lexical_Decision_Task.osexp","C:/Users/Clive Perry/Desktop/Uni/Year 2/Cognition and language","no","Andale Mono","no","18","no","white","no","yes","576","legacy","28","28","3","C:/Users/Clive Perry/Desktop/Uni/Year 2/Cognition and language/subject-5203822.csv","legacy","Lentiform Loewenfeld","3.3.7","yes","yes","600bd7cfb6416f0113b04181","602110864497cf011d9c0822","0","j","NA","space","space","space","NA","j","613","NA","1170","8190","4861","NA","613","2","legacy","1024","2","48000","-16","task","5203822","even","NA","24361","27534","26364","82764","3748","16801","11940","83267","NA","82763","83268","82661","27534","83883","22473","79468","3731","81161","Lexical Decision Task","29","23741","33","yes","1024"
"2.799799878","0","4","ciff","non-word","88.23529411764706","88.23529411764706","716.9411764705883","716.9411764705883","black","no","legacy","legacy","legacy","0","uniform","1","undefined","undefined","undefined","1","f","0","0","0","0","33","0","0","0","33","NA","29","33","29","0","29","3","33","0","33","Wed Feb 17 11:19:23 2021","The main experiment item","yes","Lexical_Decision_Task.osexp","C:/Users/Clive Perry/Desktop/Uni/Year 2/Cognition and language","no","Andale Mono","no","18","no","white","no","yes","576","legacy","29","29","3","C:/Users/Clive Perry/Desktop/Uni/Year 2/Cognition and language/subject-5203822.csv","legacy","Lentiform Loewenfeld","3.3.7","yes","yes","600bd7cfb6416f0113b04181","602110864497cf011d9c0822","0","f","NA","space","space","space","NA","f","635","NA","1170","8190","4861","NA","635","2","legacy","1024","2","48000","-16","task","5203822","even","NA","24361","27534","26364","84479","3748","16801","11940","84982","NA","84477","84982","84393","27534","85619","22473","83893","3731","81161","Lexical Decision Task","30","24376","34","yes","1024"
"2.858136002","0","4","phip","non-word","88.57142857142857","88.57142857142857","718.2","718.2","black","no","legacy","legacy","legacy","0","uniform","1","undefined","undefined","undefined","1","f","0","0","0","0","34","0","0","0","34","NA","30","34","30","0","30","3","34","0","34","Wed Feb 17 11:19:23 2021","The main experiment item","yes","Lexical_Decision_Task.osexp","C:/Users/Clive Perry/Desktop/Uni/Year 2/Cognition and language","no","Andale Mono","no","18","no","white","no","yes","576","legacy","30","30","3","C:/Users/Clive Perry/Desktop/Uni/Year 2/Cognition and language/subject-5203822.csv","legacy","Lentiform Loewenfeld","3.3.7","yes","yes","600bd7cfb6416f0113b04181","602110864497cf011d9c0822","0","f","NA","space","space","space","NA","f","761","NA","1170","8190","4861","NA","761","2","legacy","1024","2","48000","-16","task","5203822","even","NA","24361","27534","26364","86218","3748","16801","11940","86721","NA","86216","86721","86126","27534","87483","22473","85626","3731","81161","Lexical Decision Task","31","25137","35","yes","1024"
"3.303771854","0","9","dath","non-word","88.88888888888889","88.88888888888889","717","717","black","no","legacy","legacy","legacy","0","uniform","1","undefined","undefined","undefined","1","f","0","0","0","0","35","0","0","0","35","NA","31","35","31","0","31","3","35","0","35","Wed Feb 17 11:19:23 2021","The main experiment item","yes","Lexical_Decision_Task.osexp","C:/Users/Clive Perry/Desktop/Uni/Year 2/Cognition and language","no","Andale Mono","no","18","no","white","no","yes","576","legacy","31","31","3","C:/Users/Clive Perry/Desktop/Uni/Year 2/Cognition and language/subject-5203822.csv","legacy","Lentiform Loewenfeld","3.3.7","yes","yes","600bd7cfb6416f0113b04181","602110864497cf011d9c0822","0","f","NA","space","space","space","NA","f","675","NA","1170","8190","4861","NA","675","2","legacy","1024","2","48000","-16","task","5203822","even","NA","24361","27534","26364","88103","3748","16801","11940","88606","NA","88101","88607","87997","27534","89285","22473","87497","3731","81161","Lexical Decision Task","32","25812","36","yes","1024"
"2.698100546","0","9","mulk","non-word","89.1891891891892","89.1891891891892","715.4594594594595","715.4594594594595","black","no","legacy","legacy","legacy","0","uniform","1","undefined","undefined","undefined","1","f","0","0","0","0","36","0","0","0","36","NA","32","36","32","0","32","3","36","0","36","Wed Feb 17 11:19:23 2021","The main experiment item","yes","Lexical_Decision_Task.osexp","C:/Users/Clive Perry/Desktop/Uni/Year 2/Cognition and language","no","Andale Mono","no","18","no","white","no","yes","576","legacy","32","32","3","C:/Users/Clive Perry/Desktop/Uni/Year 2/Cognition and language/subject-5203822.csv","legacy","Lentiform Loewenfeld","3.3.7","yes","yes","600bd7cfb6416f0113b04181","602110864497cf011d9c0822","0","f","NA","space","space","space","NA","f","660","NA","1170","8190","4861","NA","660","2","legacy","1024","2","48000","-16","task","5203822","even","NA","24361","27534","26364","89901","3748","16801","11940","90404","NA","89899","90405","89797","27534","91066","22473","89297","3731","81161","Lexical Decision Task","33","26472","37","yes","1024"
"2.895974732","6.65","5","sift","word","86.84210526315789","86.84210526315789","713.1052631578947","713.1052631578947","black","no","legacy","legacy","legacy","0","uniform","0","undefined","undefined","undefined","0","j","0","0","0","0","37","0","0","0","37","NA","33","37","33","0","33","3","37","0","37","Wed Feb 17 11:19:23 2021","The main experiment item","yes","Lexical_Decision_Task.osexp","C:/Users/Clive Perry/Desktop/Uni/Year 2/Cognition and language","no","Andale Mono","no","18","no","white","no","yes","576","legacy","33","33","3","C:/Users/Clive Perry/Desktop/Uni/Year 2/Cognition and language/subject-5203822.csv","legacy","Lentiform Loewenfeld","3.3.7","yes","yes","600bd7cfb6416f0113b04181","602110864497cf011d9c0822","0","f","NA","space","space","space","NA","f","626","NA","1170","8190","4861","NA","626","2","legacy","1024","2","48000","-16","task","5203822","even","NA","24361","27534","26364","91672","3748","16801","11940","92176","NA","91671","92176","91573","27534","92802","22473","91073","3731","81161","Lexical Decision Task","33","27098","38","yes","1024"
"3.374198258","0","8","vist","non-word","84.61538461538461","84.61538461538461","710.6923076923077","710.6923076923077","black","no","legacy","legacy","legacy","0","uniform","0","undefined","undefined","undefined","0","f","0","0","0","0","38","0","0","0","38","NA","34","38","34","0","34","3","38","0","38","Wed Feb 17 11:19:23 2021","The main experiment item","yes","Lexical_Decision_Task.osexp","C:/Users/Clive Perry/Desktop/Uni/Year 2/Cognition and language","no","Andale Mono","no","18","no","white","no","yes","576","legacy","34","34","3","C:/Users/Clive Perry/Desktop/Uni/Year 2/Cognition and language/subject-5203822.csv","legacy","Lentiform Loewenfeld","3.3.7","yes","yes","600bd7cfb6416f0113b04181","602110864497cf011d9c0822","0","j","NA","space","space","space","NA","j","619","NA","1170","8190","4861","NA","619","2","legacy","1024","2","48000","-16","task","5203822","even","NA","24361","27534","26364","94405","3748","16801","11940","94908","NA","94404","94908","94307","27534","95528","22473","91073","3731","92807","Lexical Decision Task","33","27717","39","yes","1024"
"3.397302518","7.01","2","knit","word","85","85","715.15","715.15","black","no","legacy","legacy","legacy","0","uniform","1","undefined","undefined","undefined","1","j","0","0","0","0","39","0","0","0","39","NA","35","39","35","0","35","3","39","0","39","Wed Feb 17 11:19:23 2021","The main experiment item","yes","Lexical_Decision_Task.osexp","C:/Users/Clive Perry/Desktop/Uni/Year 2/Cognition and language","no","Andale Mono","no","18","no","white","no","yes","576","legacy","35","35","3","C:/Users/Clive Perry/Desktop/Uni/Year 2/Cognition and language/subject-5203822.csv","legacy","Lentiform Loewenfeld","3.3.7","yes","yes","600bd7cfb6416f0113b04181","602110864497cf011d9c0822","0","j","NA","space","space","space","NA","j","889","NA","1170","8190","4861","NA","889","2","legacy","1024","2","48000","-16","task","5203822","even","NA","24361","27534","26364","97133","3748","16801","11940","97636","NA","97132","97637","97033","27534","98527","22473","91073","3731","95533","Lexical Decision Task","34","28606","40","yes","1024"
"3.066077331","0","7","vorn","non-word","85.36585365853658","85.36585365853658","715.6829268292682","715.6829268292682","black","no","legacy","legacy","legacy","0","uniform","1","undefined","undefined","undefined","1","f","0","0","0","0","40","0","0","0","40","NA","36","40","36","0","36","3","40","0","40","Wed Feb 17 11:19:23 2021","The main experiment item","yes","Lexical_Decision_Task.osexp","C:/Users/Clive Perry/Desktop/Uni/Year 2/Cognition and language","no","Andale Mono","no","18","no","white","no","yes","576","legacy","36","36","3","C:/Users/Clive Perry/Desktop/Uni/Year 2/Cognition and language/subject-5203822.csv","legacy","Lentiform Loewenfeld","3.3.7","yes","yes","600bd7cfb6416f0113b04181","602110864497cf011d9c0822","0","f","NA","space","space","space","NA","f","737","NA","1170","8190","4861","NA","737","2","legacy","1024","2","48000","-16","task","5203822","even","NA","24361","27534","26364","99139","3748","16801","11940","99642","NA","99137","99642","99038","27534","100380","22473","98538","3731","95533","Lexical Decision Task","35","29343","41","yes","1024"
"3.003891166","8.05","2","frog","word","85.71428571428571","85.71428571428571","716.0952380952381","716.0952380952381","black","no","legacy","legacy","legacy","0","uniform","1","undefined","undefined","undefined","1","j","0","0","0","0","41","0","0","0","41","NA","37","41","37","0","37","3","41","0","41","Wed Feb 17 11:19:23 2021","The main experiment item","yes","Lexical_Decision_Task.osexp","C:/Users/Clive Perry/Desktop/Uni/Year 2/Cognition and language","no","Andale Mono","no","18","no","white","no","yes","576","legacy","37","37","3","C:/Users/Clive Perry/Desktop/Uni/Year 2/Cognition and language/subject-5203822.csv","legacy","Lentiform Loewenfeld","3.3.7","yes","yes","600bd7cfb6416f0113b04181","602110864497cf011d9c0822","0","j","NA","space","space","space","NA","j","733","NA","1170","8190","4861","NA","733","2","legacy","1024","2","48000","-16","task","5203822","even","NA","24361","27534","26364","100976","3748","16801","11940","101479","NA","100975","101480","100886","27534","102214","22473","100386","3731","95533","Lexical Decision Task","36","30076","42","yes","1024"
"2.803231716","5.26","3","kiln","word","86.04651162790698","86.04651162790698","721.2558139534884","721.2558139534884","black","no","legacy","legacy","legacy","0","uniform","1","undefined","undefined","undefined","1","j","0","0","0","0","42","0","0","0","42","NA","38","42","38","0","38","3","42","0","42","Wed Feb 17 11:19:23 2021","The main experiment item","yes","Lexical_Decision_Task.osexp","C:/Users/Clive Perry/Desktop/Uni/Year 2/Cognition and language","no","Andale Mono","no","18","no","white","no","yes","576","legacy","38","38","3","C:/Users/Clive Perry/Desktop/Uni/Year 2/Cognition and language/subject-5203822.csv","legacy","Lentiform Loewenfeld","3.3.7","yes","yes","600bd7cfb6416f0113b04181","602110864497cf011d9c0822","0","j","NA","space","space","space","NA","j","938","NA","1170","8190","4861","NA","938","2","legacy","1024","2","48000","-16","task","5203822","even","NA","24361","27534","26364","102809","3748","16801","11940","103312","NA","102807","103312","102721","27534","104251","22473","102221","3731","95533","Lexical Decision Task","37","31014","43","yes","1024"
"2.86332286","6.71","2","feud","word","86.36363636363636","86.36363636363636","726.5","726.5","black","no","legacy","legacy","legacy","0","uniform","1","undefined","undefined","undefined","1","j","0","0","0","0","43","0","0","0","43","NA","39","43","39","0","39","3","43","0","43","Wed Feb 17 11:19:23 2021","The main experiment item","yes","Lexical_Decision_Task.osexp","C:/Users/Clive Perry/Desktop/Uni/Year 2/Cognition and language","no","Andale Mono","no","18","no","white","no","yes","576","legacy","39","39","3","C:/Users/Clive Perry/Desktop/Uni/Year 2/Cognition and language/subject-5203822.csv","legacy","Lentiform Loewenfeld","3.3.7","yes","yes","600bd7cfb6416f0113b04181","602110864497cf011d9c0822","0","j","NA","space","space","space","NA","j","952","NA","1170","8190","4861","NA","952","2","legacy","1024","2","48000","-16","task","5203822","even","NA","24361","27534","26364","104849","3748","16801","11940","105352","NA","104848","105352","104759","27534","106306","22473","104259","3731","95533","Lexical Decision Task","38","31966","44","yes","1024"
"2.778633532","0","3","jurp","non-word","86.66666666666667","86.66666666666667","726.7333333333333","726.7333333333333","black","no","legacy","legacy","legacy","0","uniform","1","undefined","undefined","undefined","1","f","0","0","0","0","44","0","0","0","44","NA","40","44","40","0","40","3","44","0","44","Wed Feb 17 11:19:23 2021","The main experiment item","yes","Lexical_Decision_Task.osexp","C:/Users/Clive Perry/Desktop/Uni/Year 2/Cognition and language","no","Andale Mono","no","18","no","white","no","yes","576","legacy","40","40","3","C:/Users/Clive Perry/Desktop/Uni/Year 2/Cognition and language/subject-5203822.csv","legacy","Lentiform Loewenfeld","3.3.7","yes","yes","600bd7cfb6416f0113b04181","602110864497cf011d9c0822","0","f","NA","space","space","space","NA","f","737","NA","1170","8190","4861","NA","737","2","legacy","1024","2","48000","-16","task","5203822","even","NA","24361","27534","26364","106911","3748","16801","11940","107414","NA","106909","107414","106813","27534","108153","22473","106313","3731","95533","Lexical Decision Task","39","32703","45","yes","1024"
"3.274543461","7.46","7","scar","word","86.95652173913044","86.95652173913044","726.6521739130435","726.6521739130435","black","no","legacy","legacy","legacy","0","uniform","1","undefined","undefined","undefined","1","j","0","0","0","0","45","0","0","0","45","NA","41","45","41","0","41","3","45","0","45","Wed Feb 17 11:19:23 2021","The main experiment item","yes","Lexical_Decision_Task.osexp","C:/Users/Clive Perry/Desktop/Uni/Year 2/Cognition and language","no","Andale Mono","no","18","no","white","no","yes","576","legacy","41","41","3","C:/Users/Clive Perry/Desktop/Uni/Year 2/Cognition and language/subject-5203822.csv","legacy","Lentiform Loewenfeld","3.3.7","yes","yes","600bd7cfb6416f0113b04181","602110864497cf011d9c0822","0","j","NA","space","space","space","NA","j","723","NA","1170","8190","4861","NA","723","2","legacy","1024","2","48000","-16","task","5203822","even","NA","24361","27534","26364","108749","3748","16801","11940","109252","NA","108748","109252","108664","27534","109975","22473","108164","3731","95533","Lexical Decision Task","40","33426","46","yes","1024"
"3.274157849","0","8","leet","non-word","87.23404255319149","87.23404255319149","725.9787234042553","725.9787234042553","black","no","legacy","legacy","legacy","0","uniform","1","undefined","undefined","undefined","1","f","0","0","0","0","46","0","0","0","46","NA","42","46","42","0","42","3","46","0","46","Wed Feb 17 11:19:23 2021","The main experiment item","yes","Lexical_Decision_Task.osexp","C:/Users/Clive Perry/Desktop/Uni/Year 2/Cognition and language","no","Andale Mono","no","18","no","white","no","yes","576","legacy","42","42","3","C:/Users/Clive Perry/Desktop/Uni/Year 2/Cognition and language/subject-5203822.csv","legacy","Lentiform Loewenfeld","3.3.7","yes","yes","600bd7cfb6416f0113b04181","602110864497cf011d9c0822","0","f","NA","space","space","space","NA","f","695","NA","1170","8190","4861","NA","695","2","legacy","1024","2","48000","-16","task","5203822","even","NA","24361","27534","26364","110575","3748","16801","11940","111079","NA","110574","111079","110481","27534","111775","22473","109981","3731","95533","Lexical Decision Task","41","34121","47","yes","1024"
"2.594027722","9.08","8","skip","word","87.5","87.5","723.4791666666666","723.4791666666666","black","no","legacy","legacy","legacy","0","uniform","1","undefined","undefined","undefined","1","j","0","0","0","0","47","0","0","0","47","NA","43","47","43","0","43","3","47","0","47","Wed Feb 17 11:19:23 2021","The main experiment item","yes","Lexical_Decision_Task.osexp","C:/Users/Clive Perry/Desktop/Uni/Year 2/Cognition and language","no","Andale Mono","no","18","no","white","no","yes","576","legacy","43","43","3","C:/Users/Clive Perry/Desktop/Uni/Year 2/Cognition and language/subject-5203822.csv","legacy","Lentiform Loewenfeld","3.3.7","yes","yes","600bd7cfb6416f0113b04181","602110864497cf011d9c0822","0","j","NA","space","space","space","NA","j","606","NA","1170","8190","4861","NA","606","2","legacy","1024","2","48000","-16","task","5203822","even","NA","24361","27534","26364","112377","3748","16801","11940","112881","NA","112375","112881","112281","27534","113489","22473","111781","3731","95533","Lexical Decision Task","42","34727","48","yes","1024"
"3.165936429","0","7","leps","non-word","87.75510204081633","87.75510204081633","721.6122448979592","721.6122448979592","black","no","legacy","legacy","legacy","0","uniform","1","undefined","undefined","undefined","1","f","0","0","0","0","48","0","0","0","48","NA","44","48","44","0","44","3","48","0","48","Wed Feb 17 11:19:23 2021","The main experiment item","yes","Lexical_Decision_Task.osexp","C:/Users/Clive Perry/Desktop/Uni/Year 2/Cognition and language","no","Andale Mono","no","18","no","white","no","yes","576","legacy","44","44","3","C:/Users/Clive Perry/Desktop/Uni/Year 2/Cognition and language/subject-5203822.csv","legacy","Lentiform Loewenfeld","3.3.7","yes","yes","600bd7cfb6416f0113b04181","602110864497cf011d9c0822","0","f","NA","space","space","space","NA","f","632","NA","1170","8190","4861","NA","632","2","legacy","1024","2","48000","-16","task","5203822","even","NA","24361","27534","26364","114088","3748","16801","11940","114591","NA","114087","114591","114001","27534","115224","22473","113499","3731","95533","Lexical Decision Task","43","35359","49","yes","1024"
"3.368162872","0","4","ferk","non-word","88","88","723.2","723.2","black","no","legacy","legacy","legacy","0","uniform","1","undefined","undefined","undefined","1","f","0","0","0","0","49","0","0","0","49","NA","45","49","45","0","45","3","49","0","49","Wed Feb 17 11:19:23 2021","The main experiment item","yes","Lexical_Decision_Task.osexp","C:/Users/Clive Perry/Desktop/Uni/Year 2/Cognition and language","no","Andale Mono","no","18","no","white","no","yes","576","legacy","45","45","3","C:/Users/Clive Perry/Desktop/Uni/Year 2/Cognition and language/subject-5203822.csv","legacy","Lentiform Loewenfeld","3.3.7","yes","yes","600bd7cfb6416f0113b04181","602110864497cf011d9c0822","0","f","NA","space","space","space","NA","f","801","NA","1170","8190","4861","NA","801","2","legacy","1024","2","48000","-16","task","5203822","even","NA","24361","27534","26364","115826","3748","16801","11940","116329","NA","115824","116329","115730","27534","117131","22473","115230","3731","95533","Lexical Decision Task","44","36160","50","yes","1024"
"2.839268497","0","8","maft","non-word","88.23529411764706","88.23529411764706","722.8823529411765","722.8823529411765","black","no","legacy","legacy","legacy","0","uniform","1","undefined","undefined","undefined","1","f","0","0","0","0","50","0","0","0","50","NA","46","50","46","0","46","3","50","0","50","Wed Feb 17 11:19:23 2021","The main experiment item","yes","Lexical_Decision_Task.osexp","C:/Users/Clive Perry/Desktop/Uni/Year 2/Cognition and language","no","Andale Mono","no","18","no","white","no","yes","576","legacy","46","46","3","C:/Users/Clive Perry/Desktop/Uni/Year 2/Cognition and language/subject-5203822.csv","legacy","Lentiform Loewenfeld","3.3.7","yes","yes","600bd7cfb6416f0113b04181","602110864497cf011d9c0822","0","f","NA","space","space","space","NA","f","707","NA","1170","8190","4861","NA","707","2","legacy","1024","2","48000","-16","task","5203822","even","NA","24361","27534","26364","117741","3748","16801","11940","118244","NA","117740","118245","117638","27534","118954","22473","117138","3731","95533","Lexical Decision Task","45","36867","51","yes","1024"
"2.793790385","5.67","9","swab","word","88.46153846153847","88.46153846153847","722.0769230769231","722.0769230769231","black","no","legacy","legacy","legacy","0","uniform","1","undefined","undefined","undefined","1","j","0","0","0","0","51","0","0","0","51","NA","47","51","47","0","47","3","51","0","51","Wed Feb 17 11:19:23 2021","The main experiment item","yes","Lexical_Decision_Task.osexp","C:/Users/Clive Perry/Desktop/Uni/Year 2/Cognition and language","no","Andale Mono","no","18","no","white","no","yes","576","legacy","47","47","3","C:/Users/Clive Perry/Desktop/Uni/Year 2/Cognition and language/subject-5203822.csv","legacy","Lentiform Loewenfeld","3.3.7","yes","yes","600bd7cfb6416f0113b04181","602110864497cf011d9c0822","0","j","NA","space","space","space","NA","j","681","NA","1170","8190","4861","NA","681","2","legacy","1024","2","48000","-16","task","5203822","even","NA","24361","27534","26364","119545","3748","16801","11940","120048","NA","119542","120049","119464","27534","120732","22473","118964","3731","95533","Lexical Decision Task","46","37548","52","yes","1024"
"3.259832699","0","9","flar","non-word","88.67924528301887","88.67924528301887","721.5471698113207","721.5471698113207","black","no","legacy","legacy","legacy","0","uniform","1","undefined","undefined","undefined","1","f","0","0","0","0","52","0","0","0","52","NA","48","52","48","0","48","3","52","0","52","Wed Feb 17 11:19:23 2021","The main experiment item","yes","Lexical_Decision_Task.osexp","C:/Users/Clive Perry/Desktop/Uni/Year 2/Cognition and language","no","Andale Mono","no","18","no","white","no","yes","576","legacy","48","48","3","C:/Users/Clive Perry/Desktop/Uni/Year 2/Cognition and language/subject-5203822.csv","legacy","Lentiform Loewenfeld","3.3.7","yes","yes","600bd7cfb6416f0113b04181","602110864497cf011d9c0822","0","f","NA","space","space","space","NA","f","694","NA","1170","8190","4861","NA","694","2","legacy","1024","2","48000","-16","task","5203822","even","NA","24361","27534","26364","121343","3748","16801","11940","121846","NA","121342","121846","121239","27534","122541","22473","120739","3731","95533","Lexical Decision Task","47","38242","53","yes","1024"
"2.744553742","0","2","nawk","non-word","88.88888888888889","88.88888888888889","720.7037037037037","720.7037037037037","black","no","legacy","legacy","legacy","0","uniform","1","undefined","undefined","undefined","1","f","0","0","0","0","53","0","0","0","53","NA","49","53","49","0","49","3","53","0","53","Wed Feb 17 11:19:23 2021","The main experiment item","yes","Lexical_Decision_Task.osexp","C:/Users/Clive Perry/Desktop/Uni/Year 2/Cognition and language","no","Andale Mono","no","18","no","white","no","yes","576","legacy","49","49","3","C:/Users/Clive Perry/Desktop/Uni/Year 2/Cognition and language/subject-5203822.csv","legacy","Lentiform Loewenfeld","3.3.7","yes","yes","600bd7cfb6416f0113b04181","602110864497cf011d9c0822","0","f","NA","space","space","space","NA","f","676","NA","1170","8190","4861","NA","676","2","legacy","1024","2","48000","-16","task","5203822","even","NA","24361","27534","26364","123144","3748","16801","11940","123647","NA","123143","123647","123048","27534","124325","22473","122548","3731","95533","Lexical Decision Task","48","38918","54","yes","1024"
"2.868644438","10.52","4","town","word","89.0909090909091","89.0909090909091","748.1636363636363","748.1636363636363","black","no","legacy","legacy","legacy","0","uniform","1","undefined","undefined","undefined","1","j","0","0","0","0","54","0","0","0","54","0","50","54","50","0","50","3","54","0","54","Wed Feb 17 11:19:23 2021","The main experiment item","yes","Lexical_Decision_Task.osexp","C:/Users/Clive Perry/Desktop/Uni/Year 2/Cognition and language","no","Andale Mono","no","18","no","white","no","yes","576","legacy","50","50","3","C:/Users/Clive Perry/Desktop/Uni/Year 2/Cognition and language/subject-5203822.csv","legacy","Lentiform Loewenfeld","3.3.7","yes","yes","600bd7cfb6416f0113b04181","602110864497cf011d9c0822","0","j","NA","space","space","space","space","j","2231","NA","1170","8190","4861","797931","2231","2","legacy","1024","2","48000","-16","task","5203822","even","NA","24361","27534","26364","922958","3748","16801","11940","923461","124951","922956","923462","124836","27534","925694","22473","124336","3731","95533","Lexical Decision Task","49","41149","55","yes","1024"
"2.8162413","0","5","nusk","non-word","89.28571428571429","89.28571428571429","746.8214285714286","746.8214285714286","black","no","legacy","legacy","legacy","0","uniform","1","undefined","undefined","undefined","1","f","0","0","0","0","55","0","0","0","55","0","51","55","51","0","51","3","55","0","55","Wed Feb 17 11:19:23 2021","The main experiment item","yes","Lexical_Decision_Task.osexp","C:/Users/Clive Perry/Desktop/Uni/Year 2/Cognition and language","no","Andale Mono","no","18","no","white","no","yes","576","legacy","51","51","3","C:/Users/Clive Perry/Desktop/Uni/Year 2/Cognition and language/subject-5203822.csv","legacy","Lentiform Loewenfeld","3.3.7","yes","yes","600bd7cfb6416f0113b04181","602110864497cf011d9c0822","0","f","NA","space","space","space","space","f","673","NA","1170","8190","4861","797931","673","2","legacy","1024","2","48000","-16","task","5203822","even","NA","24361","27534","26364","926312","3748","16801","11940","926816","124951","926310","926816","926202","27534","927491","22473","925701","3731","95533","Lexical Decision Task","50","41822","56","yes","1024"
"3.064581521","5.51","6","cask","word","89.47368421052632","89.47368421052632","752.7894736842105","752.7894736842105","black","no","legacy","legacy","legacy","0","uniform","1","undefined","undefined","undefined","1","j","0","0","0","0","56","0","0","0","56","0","52","56","52","0","52","3","56","0","56","Wed Feb 17 11:19:23 2021","The main experiment item","yes","Lexical_Decision_Task.osexp","C:/Users/Clive Perry/Desktop/Uni/Year 2/Cognition and language","no","Andale Mono","no","18","no","white","no","yes","576","legacy","52","52","3","C:/Users/Clive Perry/Desktop/Uni/Year 2/Cognition and language/subject-5203822.csv","legacy","Lentiform Loewenfeld","3.3.7","yes","yes","600bd7cfb6416f0113b04181","602110864497cf011d9c0822","0","j","NA","space","space","space","space","j","1087","NA","1170","8190","4861","797931","1087","2","legacy","1024","2","48000","-16","task","5203822","even","NA","24361","27534","26364","928115","3748","16801","11940","928618","124951","928114","928618","928002","27534","929705","22473","927502","3731","95533","Lexical Decision Task","51","42909","57","yes","1024"
"2.979548375","8.71","4","soup","word","89.65517241379311","89.65517241379311","750.1551724137931","750.1551724137931","black","no","legacy","legacy","legacy","0","uniform","1","undefined","undefined","undefined","1","j","0","0","0","0","57","0","0","0","57","0","53","57","53","0","53","3","57","0","57","Wed Feb 17 11:19:23 2021","The main experiment item","yes","Lexical_Decision_Task.osexp","C:/Users/Clive Perry/Desktop/Uni/Year 2/Cognition and language","no","Andale Mono","no","18","no","white","no","yes","576","legacy","53","53","3","C:/Users/Clive Perry/Desktop/Uni/Year 2/Cognition and language/subject-5203822.csv","legacy","Lentiform Loewenfeld","3.3.7","yes","yes","600bd7cfb6416f0113b04181","602110864497cf011d9c0822","0","j","NA","space","space","space","space","j","600","NA","1170","8190","4861","797931","600","2","legacy","1024","2","48000","-16","task","5203822","even","NA","24361","27534","26364","930350","3748","16801","11940","930853","124951","930346","930853","930211","27534","931454","22473","929711","3731","95533","Lexical Decision Task","52","43509","58","yes","1024"
"2.819763221","0","2","durp","non-word","89.83050847457628","89.83050847457628","748.2203389830509","748.2203389830509","black","no","legacy","legacy","legacy","0","uniform","1","undefined","undefined","undefined","1","f","0","0","0","0","58","0","0","0","58","0","54","58","54","0","54","3","58","0","58","Wed Feb 17 11:19:23 2021","The main experiment item","yes","Lexical_Decision_Task.osexp","C:/Users/Clive Perry/Desktop/Uni/Year 2/Cognition and language","no","Andale Mono","no","18","no","white","no","yes","576","legacy","54","54","3","C:/Users/Clive Perry/Desktop/Uni/Year 2/Cognition and language/subject-5203822.csv","legacy","Lentiform Loewenfeld","3.3.7","yes","yes","600bd7cfb6416f0113b04181","602110864497cf011d9c0822","0","f","NA","space","space","space","space","f","636","NA","1170","8190","4861","797931","636","2","legacy","1024","2","48000","-16","task","5203822","even","NA","24361","27534","26364","932064","3748","16801","11940","932567","124951","932062","932567","931960","27534","933204","22473","931460","3731","95533","Lexical Decision Task","53","44145","59","yes","1024"
"3.174641193","0","3","ramb","non-word","90","90","755.0333333333333","755.0333333333333","black","no","legacy","legacy","legacy","0","uniform","1","undefined","undefined","undefined","1","f","0","0","0","0","59","0","0","0","59","0","55","59","55","0","55","3","59","0","59","Wed Feb 17 11:19:23 2021","The main experiment item","yes","Lexical_Decision_Task.osexp","C:/Users/Clive Perry/Desktop/Uni/Year 2/Cognition and language","no","Andale Mono","no","18","no","white","no","yes","576","legacy","55","55","3","C:/Users/Clive Perry/Desktop/Uni/Year 2/Cognition and language/subject-5203822.csv","legacy","Lentiform Loewenfeld","3.3.7","yes","yes","600bd7cfb6416f0113b04181","602110864497cf011d9c0822","0","f","NA","space","space","space","space","f","1157","NA","1170","8190","4861","797931","1157","2","legacy","1024","2","48000","-16","task","5203822","even","NA","24361","27534","26364","933807","3748","16801","11940","934311","124951","933805","934311","933710","27534","935469","22473","933209","3731","95533","Lexical Decision Task","54","45302","60","yes","1024"
"2.966923697","5.4","2","fume","word","90.1639344262295","90.1639344262295","753.9344262295082","753.9344262295082","black","no","legacy","legacy","legacy","0","uniform","1","undefined","undefined","undefined","1","j","0","0","0","0","60","0","0","0","60","0","56","60","56","0","56","3","60","0","60","Wed Feb 17 11:19:23 2021","The main experiment item","yes","Lexical_Decision_Task.osexp","C:/Users/Clive Perry/Desktop/Uni/Year 2/Cognition and language","no","Andale Mono","no","18","no","white","no","yes","576","legacy","56","56","3","C:/Users/Clive Perry/Desktop/Uni/Year 2/Cognition and language/subject-5203822.csv","legacy","Lentiform Loewenfeld","3.3.7","yes","yes","600bd7cfb6416f0113b04181","602110864497cf011d9c0822","0","j","NA","space","space","space","space","j","688","NA","1170","8190","4861","797931","688","2","legacy","1024","2","48000","-16","task","5203822","even","NA","24361","27534","26364","936064","3748","16801","11940","936567","124951","936062","936568","935975","27534","937256","22473","935475","3731","95533","Lexical Decision Task","55","45990","61","yes","1024"
"2.68604012","0","4","pumb","non-word","90.3225806451613","90.3225806451613","756.3548387096774","756.3548387096774","black","no","legacy","legacy","legacy","0","uniform","1","undefined","undefined","undefined","1","f","0","0","0","0","61","0","0","0","61","0","57","61","57","0","57","3","61","0","61","Wed Feb 17 11:19:23 2021","The main experiment item","yes","Lexical_Decision_Task.osexp","C:/Users/Clive Perry/Desktop/Uni/Year 2/Cognition and language","no","Andale Mono","no","18","no","white","no","yes","576","legacy","57","57","3","C:/Users/Clive Perry/Desktop/Uni/Year 2/Cognition and language/subject-5203822.csv","legacy","Lentiform Loewenfeld","3.3.7","yes","yes","600bd7cfb6416f0113b04181","602110864497cf011d9c0822","0","f","NA","space","space","space","space","f","904","NA","1170","8190","4861","797931","904","2","legacy","1024","2","48000","-16","task","5203822","even","NA","24361","27534","26364","937854","3748","16801","11940","938358","124951","937852","938358","937762","27534","939263","22473","937262","3731","95533","Lexical Decision Task","56","46894","62","yes","1024"
"2.996511672","0","7","hoil","non-word","90.47619047619048","90.47619047619048","755.6825396825396","755.6825396825396","black","no","legacy","legacy","legacy","0","uniform","1","undefined","undefined","undefined","1","f","0","0","0","0","62","0","0","0","62","0","58","62","58","0","58","3","62","0","62","Wed Feb 17 11:19:23 2021","The main experiment item","yes","Lexical_Decision_Task.osexp","C:/Users/Clive Perry/Desktop/Uni/Year 2/Cognition and language","no","Andale Mono","no","18","no","white","no","yes","576","legacy","58","58","3","C:/Users/Clive Perry/Desktop/Uni/Year 2/Cognition and language/subject-5203822.csv","legacy","Lentiform Loewenfeld","3.3.7","yes","yes","600bd7cfb6416f0113b04181","602110864497cf011d9c0822","0","f","NA","space","space","space","space","f","714","NA","1170","8190","4861","797931","714","2","legacy","1024","2","48000","-16","task","5203822","even","NA","24361","27534","26364","939897","3748","16801","11940","940400","124951","939895","940400","939769","27534","941116","22473","939267","3731","95533","Lexical Decision Task","57","47608","63","yes","1024"
"3.529815197","0","3","lerm","non-word","90.625","90.625","753.90625","753.90625","black","no","legacy","legacy","legacy","0","uniform","1","undefined","undefined","undefined","1","f","0","0","0","0","63","0","0","0","63","0","59","63","59","0","59","3","63","0","63","Wed Feb 17 11:19:23 2021","The main experiment item","yes","Lexical_Decision_Task.osexp","C:/Users/Clive Perry/Desktop/Uni/Year 2/Cognition and language","no","Andale Mono","no","18","no","white","no","yes","576","legacy","59","59","3","C:/Users/Clive Perry/Desktop/Uni/Year 2/Cognition and language/subject-5203822.csv","legacy","Lentiform Loewenfeld","3.3.7","yes","yes","600bd7cfb6416f0113b04181","602110864497cf011d9c0822","0","f","NA","space","space","space","space","f","642","NA","1170","8190","4861","797931","642","2","legacy","1024","2","48000","-16","task","5203822","even","NA","24361","27534","26364","941738","3748","16801","11940","942241","124951","941737","942242","941627","27534","942886","22473","941127","3731","95533","Lexical Decision Task","58","48250","64","yes","1024"
"3.031408464","0","7","drow","non-word","90.76923076923077","90.76923076923077","753.8153846153846","753.8153846153846","black","no","legacy","legacy","legacy","0","uniform","1","undefined","undefined","undefined","1","f","0","0","0","0","64","0","0","0","64","0","60","64","60","0","60","3","64","0","64","Wed Feb 17 11:19:23 2021","The main experiment item","yes","Lexical_Decision_Task.osexp","C:/Users/Clive Perry/Desktop/Uni/Year 2/Cognition and language","no","Andale Mono","no","18","no","white","no","yes","576","legacy","60","60","3","C:/Users/Clive Perry/Desktop/Uni/Year 2/Cognition and language/subject-5203822.csv","legacy","Lentiform Loewenfeld","3.3.7","yes","yes","600bd7cfb6416f0113b04181","602110864497cf011d9c0822","0","f","NA","space","space","space","space","f","748","NA","1170","8190","4861","797931","748","2","legacy","1024","2","48000","-16","task","5203822","even","NA","24361","27534","26364","943496","3748","16801","11940","943999","124951","943494","943999","943395","27534","944749","22473","942895","3731","95533","Lexical Decision Task","59","48998","65","yes","1024"
"3.261341392","5.08","8","reek","word","90.9090909090909","90.9090909090909","754.3181818181819","754.3181818181819","black","no","legacy","legacy","legacy","0","uniform","1","undefined","undefined","undefined","1","j","0","0","0","0","65","0","0","0","65","0","61","65","61","0","61","3","65","0","65","Wed Feb 17 11:19:23 2021","The main experiment item","yes","Lexical_Decision_Task.osexp","C:/Users/Clive Perry/Desktop/Uni/Year 2/Cognition and language","no","Andale Mono","no","18","no","white","no","yes","576","legacy","61","61","3","C:/Users/Clive Perry/Desktop/Uni/Year 2/Cognition and language/subject-5203822.csv","legacy","Lentiform Loewenfeld","3.3.7","yes","yes","600bd7cfb6416f0113b04181","602110864497cf011d9c0822","0","j","NA","space","space","space","space","j","787","NA","1170","8190","4861","797931","787","2","legacy","1024","2","48000","-16","task","5203822","even","NA","24361","27534","26364","945353","3748","16801","11940","945857","124951","945352","945857","945260","27534","946645","22473","944760","3731","95533","Lexical Decision Task","60","49785","66","yes","1024"
"2.884795364","0","6","flob","non-word","91.04477611940298","91.04477611940298","751.776119402985","751.776119402985","black","no","legacy","legacy","legacy","0","uniform","1","undefined","undefined","undefined","1","f","0","0","0","0","66","0","0","0","66","0","62","66","62","0","62","3","66","0","66","Wed Feb 17 11:19:23 2021","The main experiment item","yes","Lexical_Decision_Task.osexp","C:/Users/Clive Perry/Desktop/Uni/Year 2/Cognition and language","no","Andale Mono","no","18","no","white","no","yes","576","legacy","62","62","3","C:/Users/Clive Perry/Desktop/Uni/Year 2/Cognition and language/subject-5203822.csv","legacy","Lentiform Loewenfeld","3.3.7","yes","yes","600bd7cfb6416f0113b04181","602110864497cf011d9c0822","0","f","NA","space","space","space","space","f","584","NA","1170","8190","4861","797931","584","2","legacy","1024","2","48000","-16","task","5203822","even","NA","24361","27534","26364","947246","3748","16801","11940","947749","124951","947244","947749","947150","27534","948335","22473","946650","3731","95533","Lexical Decision Task","61","50369","67","yes","1024"
"3.010582609","0","2","drod","non-word","91.17647058823529","91.17647058823529","750.6323529411765","750.6323529411765","black","no","legacy","legacy","legacy","0","uniform","1","undefined","undefined","undefined","1","f","0","0","0","0","67","0","0","0","67","0","63","67","63","0","63","3","67","0","67","Wed Feb 17 11:19:23 2021","The main experiment item","yes","Lexical_Decision_Task.osexp","C:/Users/Clive Perry/Desktop/Uni/Year 2/Cognition and language","no","Andale Mono","no","18","no","white","no","yes","576","legacy","63","63","3","C:/Users/Clive Perry/Desktop/Uni/Year 2/Cognition and language/subject-5203822.csv","legacy","Lentiform Loewenfeld","3.3.7","yes","yes","600bd7cfb6416f0113b04181","602110864497cf011d9c0822","0","f","NA","space","space","space","space","f","674","NA","1170","8190","4861","797931","674","2","legacy","1024","2","48000","-16","task","5203822","even","NA","24361","27534","26364","948950","3748","16801","11940","949453","124951","948949","949453","948847","27534","950128","22473","948347","3731","95533","Lexical Decision Task","62","51043","68","yes","1024"
"3.311895072","0","9","gung","non-word","91.30434782608695","91.30434782608695","749.3333333333334","749.3333333333334","black","no","legacy","legacy","legacy","0","uniform","1","undefined","undefined","undefined","1","f","0","0","0","0","68","0","0","0","68","0","64","68","64","0","64","3","68","0","68","Wed Feb 17 11:19:23 2021","The main experiment item","yes","Lexical_Decision_Task.osexp","C:/Users/Clive Perry/Desktop/Uni/Year 2/Cognition and language","no","Andale Mono","no","18","no","white","no","yes","576","legacy","64","64","3","C:/Users/Clive Perry/Desktop/Uni/Year 2/Cognition and language/subject-5203822.csv","legacy","Lentiform Loewenfeld","3.3.7","yes","yes","600bd7cfb6416f0113b04181","602110864497cf011d9c0822","0","f","NA","space","space","space","space","f","661","NA","1170","8190","4861","797931","661","2","legacy","1024","2","48000","-16","task","5203822","even","NA","24361","27534","26364","950728","3748","16801","11940","951231","124951","950726","951232","950634","27534","951896","22473","950134","3731","95533","Lexical Decision Task","63","51704","69","yes","1024"
"3.153001286","8.7","5","palm","word","91.42857142857143","91.42857142857143","746.6571428571428","746.6571428571428","black","no","legacy","legacy","legacy","0","uniform","1","undefined","undefined","undefined","1","j","0","0","0","0","69","0","0","0","69","0","65","69","65","0","65","3","69","0","69","Wed Feb 17 11:19:23 2021","The main experiment item","yes","Lexical_Decision_Task.osexp","C:/Users/Clive Perry/Desktop/Uni/Year 2/Cognition and language","no","Andale Mono","no","18","no","white","no","yes","576","legacy","65","65","3","C:/Users/Clive Perry/Desktop/Uni/Year 2/Cognition and language/subject-5203822.csv","legacy","Lentiform Loewenfeld","3.3.7","yes","yes","600bd7cfb6416f0113b04181","602110864497cf011d9c0822","0","j","NA","space","space","space","space","j","562","NA","1170","8190","4861","797931","562","2","legacy","1024","2","48000","-16","task","5203822","even","NA","24361","27534","26364","952496","3748","16801","11940","952999","124951","952494","953000","952406","27534","953563","22473","951906","3731","95533","Lexical Decision Task","64","52266","70","yes","1024"
"3.495914186","0","4","peng","non-word","90.14084507042253","90.14084507042253","745.7746478873239","745.7746478873239","black","no","legacy","legacy","legacy","0","uniform","0","undefined","undefined","undefined","0","f","0","0","0","0","70","0","0","0","70","0","66","70","66","0","66","3","70","0","70","Wed Feb 17 11:19:23 2021","The main experiment item","yes","Lexical_Decision_Task.osexp","C:/Users/Clive Perry/Desktop/Uni/Year 2/Cognition and language","no","Andale Mono","no","18","no","white","no","yes","576","legacy","66","66","3","C:/Users/Clive Perry/Desktop/Uni/Year 2/Cognition and language/subject-5203822.csv","legacy","Lentiform Loewenfeld","3.3.7","yes","yes","600bd7cfb6416f0113b04181","602110864497cf011d9c0822","0","j","NA","space","space","space","space","j","684","NA","1170","8190","4861","797931","684","2","legacy","1024","2","48000","-16","task","5203822","even","NA","24361","27534","26364","954172","3748","16801","11940","954675","124951","954170","954676","954069","27534","955361","22473","953569","3731","95533","Lexical Decision Task","64","52950","71","yes","1024"
"2.69019608","9.01","2","myth","word","90.27777777777777","90.27777777777777","745.75","745.75","black","no","legacy","legacy","legacy","0","uniform","1","undefined","undefined","undefined","1","j","0","0","0","0","71","0","0","0","71","0","67","71","67","0","67","3","71","0","71","Wed Feb 17 11:19:23 2021","The main experiment item","yes","Lexical_Decision_Task.osexp","C:/Users/Clive Perry/Desktop/Uni/Year 2/Cognition and language","no","Andale Mono","no","18","no","white","no","yes","576","legacy","67","67","3","C:/Users/Clive Perry/Desktop/Uni/Year 2/Cognition and language/subject-5203822.csv","legacy","Lentiform Loewenfeld","3.3.7","yes","yes","600bd7cfb6416f0113b04181","602110864497cf011d9c0822","0","j","NA","space","space","space","space","j","744","NA","1170","8190","4861","797931","744","2","legacy","1024","2","48000","-16","task","5203822","even","NA","24361","27534","26364","956976","3748","16801","11940","957479","124951","956974","957480","956873","27534","958224","22473","953569","3731","955372","Lexical Decision Task","65","53694","72","yes","1024"
"2.668385917","5.48","4","twig","word","89.04109589041096","89.04109589041096","743.972602739726","743.972602739726","black","no","legacy","legacy","legacy","0","uniform","0","undefined","undefined","undefined","0","j","0","0","0","0","72","0","0","0","72","0","68","72","68","0","68","3","72","0","72","Wed Feb 17 11:19:23 2021","The main experiment item","yes","Lexical_Decision_Task.osexp","C:/Users/Clive Perry/Desktop/Uni/Year 2/Cognition and language","no","Andale Mono","no","18","no","white","no","yes","576","legacy","68","68","3","C:/Users/Clive Perry/Desktop/Uni/Year 2/Cognition and language/subject-5203822.csv","legacy","Lentiform Loewenfeld","3.3.7","yes","yes","600bd7cfb6416f0113b04181","602110864497cf011d9c0822","0","f","NA","space","space","space","space","f","616","NA","1170","8190","4861","797931","616","2","legacy","1024","2","48000","-16","task","5203822","even","NA","24361","27534","26364","958826","3748","16801","11940","959329","124951","958824","959330","958730","27534","959947","22473","958230","3731","955372","Lexical Decision Task","65","54310","73","yes","1024"
"2.980306438","0","7","slun","non-word","89.1891891891892","89.1891891891892","744.1216216216217","744.1216216216217","black","no","legacy","legacy","legacy","0","uniform","1","undefined","undefined","undefined","1","f","0","0","0","0","73","0","0","0","73","0","69","73","69","0","69","3","73","0","73","Wed Feb 17 11:19:23 2021","The main experiment item","yes","Lexical_Decision_Task.osexp","C:/Users/Clive Perry/Desktop/Uni/Year 2/Cognition and language","no","Andale Mono","no","18","no","white","no","yes","576","legacy","69","69","3","C:/Users/Clive Perry/Desktop/Uni/Year 2/Cognition and language/subject-5203822.csv","legacy","Lentiform Loewenfeld","3.3.7","yes","yes","600bd7cfb6416f0113b04181","602110864497cf011d9c0822","0","f","NA","space","space","space","space","f","755","NA","1170","8190","4861","797931","755","2","legacy","1024","2","48000","-16","task","5203822","even","NA","24361","27534","26364","961554","3748","16801","11940","962057","124951","961553","962057","961454","27534","962813","22473","958230","3731","959954","Lexical Decision Task","66","55065","74","yes","1024"
"3.488597715","0","9","nain","non-word","89.33333333333333","89.33333333333333","743.9733333333334","743.9733333333334","black","no","legacy","legacy","legacy","0","uniform","1","undefined","undefined","undefined","1","f","0","0","0","0","74","0","0","0","74","0","70","74","70","0","70","3","74","0","74","Wed Feb 17 11:19:23 2021","The main experiment item","yes","Lexical_Decision_Task.osexp","C:/Users/Clive Perry/Desktop/Uni/Year 2/Cognition and language","no","Andale Mono","no","18","no","white","no","yes","576","legacy","70","70","3","C:/Users/Clive Perry/Desktop/Uni/Year 2/Cognition and language/subject-5203822.csv","legacy","Lentiform Loewenfeld","3.3.7","yes","yes","600bd7cfb6416f0113b04181","602110864497cf011d9c0822","0","f","NA","space","space","space","space","f","733","NA","1170","8190","4861","797931","733","2","legacy","1024","2","48000","-16","task","5203822","even","NA","24361","27534","26364","963416","3748","16801","11940","963919","124951","963415","963919","963320","27534","964653","22473","962820","3731","959954","Lexical Decision Task","67","55798","75","yes","1024"
"2.986323777","10.85","8","ship","word","89.47368421052632","89.47368421052632","742.7236842105264","742.7236842105264","black","no","legacy","legacy","legacy","0","uniform","1","undefined","undefined","undefined","1","j","0","0","0","0","75","0","0","0","75","0","71","75","71","0","71","3","75","0","75","Wed Feb 17 11:19:23 2021","The main experiment item","yes","Lexical_Decision_Task.osexp","C:/Users/Clive Perry/Desktop/Uni/Year 2/Cognition and language","no","Andale Mono","no","18","no","white","no","yes","576","legacy","71","71","3","C:/Users/Clive Perry/Desktop/Uni/Year 2/Cognition and language/subject-5203822.csv","legacy","Lentiform Loewenfeld","3.3.7","yes","yes","600bd7cfb6416f0113b04181","602110864497cf011d9c0822","0","j","NA","space","space","space","space","j","649","NA","1170","8190","4861","797931","649","2","legacy","1024","2","48000","-16","task","5203822","even","NA","24361","27534","26364","965249","3748","16801","11940","965752","124951","965247","965753","965160","27534","966403","22473","964660","3731","959954","Lexical Decision Task","68","56447","76","yes","1024"
"2.807758206","6.25","4","hurl","word","88.31168831168831","88.31168831168831","742.6623376623377","742.6623376623377","black","no","legacy","legacy","legacy","0","uniform","0","undefined","undefined","undefined","0","j","0","0","0","0","76","0","0","0","76","0","72","76","72","0","72","3","76","0","76","Wed Feb 17 11:19:23 2021","The main experiment item","yes","Lexical_Decision_Task.osexp","C:/Users/Clive Perry/Desktop/Uni/Year 2/Cognition and language","no","Andale Mono","no","18","no","white","no","yes","576","legacy","72","72","3","C:/Users/Clive Perry/Desktop/Uni/Year 2/Cognition and language/subject-5203822.csv","legacy","Lentiform Loewenfeld","3.3.7","yes","yes","600bd7cfb6416f0113b04181","602110864497cf011d9c0822","0","f","NA","space","space","space","space","f","738","NA","1170","8190","4861","797931","738","2","legacy","1024","2","48000","-16","task","5203822","even","NA","24361","27534","26364","967012","3748","16801","11940","967515","124951","967011","967515","966909","27534","968254","22473","966409","3731","959954","Lexical Decision Task","68","57185","77","yes","1024"
"3.088136089","8.32","9","worm","word","88.46153846153847","88.46153846153847","740.8076923076923","740.8076923076923","black","no","legacy","legacy","legacy","0","uniform","1","undefined","undefined","undefined","1","j","0","0","0","0","77","0","0","0","77","0","73","77","73","0","73","3","77","0","77","Wed Feb 17 11:19:23 2021","The main experiment item","yes","Lexical_Decision_Task.osexp","C:/Users/Clive Perry/Desktop/Uni/Year 2/Cognition and language","no","Andale Mono","no","18","no","white","no","yes","576","legacy","73","73","3","C:/Users/Clive Perry/Desktop/Uni/Year 2/Cognition and language/subject-5203822.csv","legacy","Lentiform Loewenfeld","3.3.7","yes","yes","600bd7cfb6416f0113b04181","602110864497cf011d9c0822","0","j","NA","space","space","space","space","j","598","NA","1170","8190","4861","797931","598","2","legacy","1024","2","48000","-16","task","5203822","even","NA","24361","27534","26364","969864","3748","16801","11940","970367","124951","969861","970367","969760","27534","970965","22473","966409","3731","968260","Lexical Decision Task","69","57783","78","yes","1024"
"2.924968096","0","4","phim","non-word","88.60759493670886","88.60759493670886","739.5696202531645","739.5696202531645","black","no","legacy","legacy","legacy","0","uniform","1","undefined","undefined","undefined","1","f","0","0","0","0","78","0","0","0","78","0","74","78","74","0","74","3","78","0","78","Wed Feb 17 11:19:23 2021","The main experiment item","yes","Lexical_Decision_Task.osexp","C:/Users/Clive Perry/Desktop/Uni/Year 2/Cognition and language","no","Andale Mono","no","18","no","white","no","yes","576","legacy","74","74","3","C:/Users/Clive Perry/Desktop/Uni/Year 2/Cognition and language/subject-5203822.csv","legacy","Lentiform Loewenfeld","3.3.7","yes","yes","600bd7cfb6416f0113b04181","602110864497cf011d9c0822","0","f","NA","space","space","space","space","f","643","NA","1170","8190","4861","797931","643","2","legacy","1024","2","48000","-16","task","5203822","even","NA","24361","27534","26364","971573","3748","16801","11940","972077","124951","971571","972077","971470","27534","972721","22473","970970","3731","968260","Lexical Decision Task","70","58426","79","yes","1024"
"3.037294994","8.64","7","roof","word","88.75","88.75","738.1875","738.1875","black","no","legacy","legacy","legacy","0","uniform","1","undefined","undefined","undefined","1","j","0","0","0","0","79","0","0","0","79","0","75","79","75","0","75","3","79","0","79","Wed Feb 17 11:19:23 2021","The main experiment item","yes","Lexical_Decision_Task.osexp","C:/Users/Clive Perry/Desktop/Uni/Year 2/Cognition and language","no","Andale Mono","no","18","no","white","no","yes","576","legacy","75","75","3","C:/Users/Clive Perry/Desktop/Uni/Year 2/Cognition and language/subject-5203822.csv","legacy","Lentiform Loewenfeld","3.3.7","yes","yes","600bd7cfb6416f0113b04181","602110864497cf011d9c0822","0","j","NA","space","space","space","space","j","629","NA","1170","8190","4861","797931","629","2","legacy","1024","2","48000","-16","task","5203822","even","NA","24361","27534","26364","973317","3748","16801","11940","973820","124951","973316","973820","973226","27534","974452","22473","972726","3731","968260","Lexical Decision Task","71","59055","80","yes","1024"
"2.708989954","9.28","9","bowl","word","88.88888888888889","88.88888888888889","736.4197530864197","736.4197530864197","black","no","legacy","legacy","legacy","0","uniform","1","undefined","undefined","undefined","1","j","0","0","0","0","80","0","0","0","80","0","76","80","76","0","76","3","80","0","80","Wed Feb 17 11:19:23 2021","The main experiment item","yes","Lexical_Decision_Task.osexp","C:/Users/Clive Perry/Desktop/Uni/Year 2/Cognition and language","no","Andale Mono","no","18","no","white","no","yes","576","legacy","76","76","3","C:/Users/Clive Perry/Desktop/Uni/Year 2/Cognition and language/subject-5203822.csv","legacy","Lentiform Loewenfeld","3.3.7","yes","yes","600bd7cfb6416f0113b04181","602110864497cf011d9c0822","0","j","NA","space","space","space","space","j","595","NA","1170","8190","4861","797931","595","2","legacy","1024","2","48000","-16","task","5203822","even","NA","24361","27534","26364","975054","3748","16801","11940","975557","124951","975053","975557","974962","27534","976154","22473","974462","3731","968260","Lexical Decision Task","72","59650","81","yes","1024"
"2.983324025","9.56","2","debt","word","89.02439024390245","89.02439024390245","734.8414634146342","734.8414634146342","black","no","legacy","legacy","legacy","0","uniform","1","undefined","undefined","undefined","1","j","0","0","0","0","81","0","0","0","81","0","77","81","77","0","77","3","81","0","81","Wed Feb 17 11:19:23 2021","The main experiment item","yes","Lexical_Decision_Task.osexp","C:/Users/Clive Perry/Desktop/Uni/Year 2/Cognition and language","no","Andale Mono","no","18","no","white","no","yes","576","legacy","77","77","3","C:/Users/Clive Perry/Desktop/Uni/Year 2/Cognition and language/subject-5203822.csv","legacy","Lentiform Loewenfeld","3.3.7","yes","yes","600bd7cfb6416f0113b04181","602110864497cf011d9c0822","0","j","NA","space","space","space","space","j","607","NA","1170","8190","4861","797931","607","2","legacy","1024","2","48000","-16","task","5203822","even","NA","24361","27534","26364","976762","3748","16801","11940","977265","124951","976761","977265","976661","27534","977873","22473","976161","3731","968260","Lexical Decision Task","73","60257","82","yes","1024"
"3.384413096","10.15","3","glad","word","89.1566265060241","89.1566265060241","732.9518072289156","732.9518072289156","black","no","legacy","legacy","legacy","0","uniform","1","undefined","undefined","undefined","1","j","0","0","0","0","82","0","0","0","82","0","78","82","78","0","78","3","82","0","82","Wed Feb 17 11:19:23 2021","The main experiment item","yes","Lexical_Decision_Task.osexp","C:/Users/Clive Perry/Desktop/Uni/Year 2/Cognition and language","no","Andale Mono","no","18","no","white","no","yes","576","legacy","78","78","3","C:/Users/Clive Perry/Desktop/Uni/Year 2/Cognition and language/subject-5203822.csv","legacy","Lentiform Loewenfeld","3.3.7","yes","yes","600bd7cfb6416f0113b04181","602110864497cf011d9c0822","0","j","NA","space","space","space","space","j","578","NA","1170","8190","4861","797931","578","2","legacy","1024","2","48000","-16","task","5203822","even","NA","24361","27534","26364","978473","3748","16801","11940","978977","124951","978472","978977","978380","27534","979556","22473","977880","3731","968260","Lexical Decision Task","74","60835","83","yes","1024"
"3.067070856","9.39","3","loud","word","89.28571428571429","89.28571428571429","730.952380952381","730.952380952381","black","no","legacy","legacy","legacy","0","uniform","1","undefined","undefined","undefined","1","j","0","0","0","0","83","0","0","0","83","0","79","83","79","0","79","3","83","0","83","Wed Feb 17 11:19:23 2021","The main experiment item","yes","Lexical_Decision_Task.osexp","C:/Users/Clive Perry/Desktop/Uni/Year 2/Cognition and language","no","Andale Mono","no","18","no","white","no","yes","576","legacy","79","79","3","C:/Users/Clive Perry/Desktop/Uni/Year 2/Cognition and language/subject-5203822.csv","legacy","Lentiform Loewenfeld","3.3.7","yes","yes","600bd7cfb6416f0113b04181","602110864497cf011d9c0822","0","j","NA","space","space","space","space","j","565","NA","1170","8190","4861","797931","565","2","legacy","1024","2","48000","-16","task","5203822","even","NA","24361","27534","26364","980156","3748","16801","11940","980661","124951","980155","980661","980064","27534","981227","22473","979563","3731","968260","Lexical Decision Task","75","61400","84","yes","1024"
"3.031812271","6.52","3","gulp","word","89.41176470588235","89.41176470588235","729.3058823529411","729.3058823529411","black","no","legacy","legacy","legacy","0","uniform","1","undefined","undefined","undefined","1","j","0","0","0","0","84","0","0","0","84","0","80","84","80","0","80","3","84","0","84","Wed Feb 17 11:19:23 2021","The main experiment item","yes","Lexical_Decision_Task.osexp","C:/Users/Clive Perry/Desktop/Uni/Year 2/Cognition and language","no","Andale Mono","no","18","no","white","no","yes","576","legacy","80","80","3","C:/Users/Clive Perry/Desktop/Uni/Year 2/Cognition and language/subject-5203822.csv","legacy","Lentiform Loewenfeld","3.3.7","yes","yes","600bd7cfb6416f0113b04181","602110864497cf011d9c0822","0","j","NA","space","space","space","space","j","591","NA","1170","8190","4861","797931","591","2","legacy","1024","2","48000","-16","task","5203822","even","NA","24361","27534","26364","981834","3748","16801","11940","982337","124951","981832","982337","981733","27534","982929","22473","981233","3731","968260","Lexical Decision Task","76","61991","85","yes","1024"
"2.898725182","0","7","turl","non-word","88.37209302325581","88.37209302325581","727.8953488372093","727.8953488372093","black","no","legacy","legacy","legacy","0","uniform","0","undefined","undefined","undefined","0","f","0","0","0","0","85","0","0","0","85","0","81","85","81","0","81","3","85","0","85","Wed Feb 17 11:19:23 2021","The main experiment item","yes","Lexical_Decision_Task.osexp","C:/Users/Clive Perry/Desktop/Uni/Year 2/Cognition and language","no","Andale Mono","no","18","no","white","no","yes","576","legacy","81","81","3","C:/Users/Clive Perry/Desktop/Uni/Year 2/Cognition and language/subject-5203822.csv","legacy","Lentiform Loewenfeld","3.3.7","yes","yes","600bd7cfb6416f0113b04181","602110864497cf011d9c0822","0","j","NA","space","space","space","space","j","608","NA","1170","8190","4861","797931","608","2","legacy","1024","2","48000","-16","task","5203822","even","NA","24361","27534","26364","983519","3748","16801","11940","984022","124951","983517","984023","983432","27534","984631","22473","982932","3731","968260","Lexical Decision Task","76","62599","86","yes","1024"
"2.693726949","5.08","3","swig","word","88.50574712643679","88.50574712643679","733.2758620689655","733.2758620689655","black","no","legacy","legacy","legacy","0","uniform","1","undefined","undefined","undefined","1","j","0","0","0","0","86","0","0","0","86","0","82","86","82","0","82","3","86","0","86","Wed Feb 17 11:19:23 2021","The main experiment item","yes","Lexical_Decision_Task.osexp","C:/Users/Clive Perry/Desktop/Uni/Year 2/Cognition and language","no","Andale Mono","no","18","no","white","no","yes","576","legacy","82","82","3","C:/Users/Clive Perry/Desktop/Uni/Year 2/Cognition and language/subject-5203822.csv","legacy","Lentiform Loewenfeld","3.3.7","yes","yes","600bd7cfb6416f0113b04181","602110864497cf011d9c0822","0","j","NA","space","space","space","space","j","1196","NA","1170","8190","4861","797931","1196","2","legacy","1024","2","48000","-16","task","5203822","even","NA","24361","27534","26364","986242","3748","16801","11940","986745","124951","986242","986745","986138","27534","987944","22473","982932","3731","984638","Lexical Decision Task","77","63795","87","yes","1024"
"3.378276681","6.39","8","bran","word","87.5","87.5","731.6477272727273","731.6477272727273","black","no","legacy","legacy","legacy","0","uniform","0","undefined","undefined","undefined","0","j","0","0","0","0","87","0","0","0","87","0","83","87","83","0","83","3","87","0","87","Wed Feb 17 11:19:23 2021","The main experiment item","yes","Lexical_Decision_Task.osexp","C:/Users/Clive Perry/Desktop/Uni/Year 2/Cognition and language","no","Andale Mono","no","18","no","white","no","yes","576","legacy","83","83","3","C:/Users/Clive Perry/Desktop/Uni/Year 2/Cognition and language/subject-5203822.csv","legacy","Lentiform Loewenfeld","3.3.7","yes","yes","600bd7cfb6416f0113b04181","602110864497cf011d9c0822","0","f","NA","space","space","space","space","f","590","NA","1170","8190","4861","797931","590","2","legacy","1024","2","48000","-16","task","5203822","even","NA","24361","27534","26364","988551","3748","16801","11940","989054","124951","988549","989055","988452","27534","989646","22473","987951","3731","984638","Lexical Decision Task","77","64385","88","yes","1024"
"3.039414119","0","9","meep","non-word","87.64044943820225","87.64044943820225","730.9550561797753","730.9550561797753","black","no","legacy","legacy","legacy","0","uniform","1","undefined","undefined","undefined","1","f","0","0","0","0","88","0","0","0","88","0","84","88","84","0","84","3","88","0","88","Wed Feb 17 11:19:23 2021","The main experiment item","yes","Lexical_Decision_Task.osexp","C:/Users/Clive Perry/Desktop/Uni/Year 2/Cognition and language","no","Andale Mono","no","18","no","white","no","yes","576","legacy","84","84","3","C:/Users/Clive Perry/Desktop/Uni/Year 2/Cognition and language/subject-5203822.csv","legacy","Lentiform Loewenfeld","3.3.7","yes","yes","600bd7cfb6416f0113b04181","602110864497cf011d9c0822","0","f","NA","space","space","space","space","f","670","NA","1170","8190","4861","797931","670","2","legacy","1024","2","48000","-16","task","5203822","even","NA","24361","27534","26364","991253","3748","16801","11940","991756","124951","991252","991756","991152","27534","992427","22473","987951","3731","989652","Lexical Decision Task","78","65055","89","yes","1024"
"3.137775856","7.39","5","comb","word","87.77777777777777","87.77777777777777","731.2555555555556","731.2555555555556","black","no","legacy","legacy","legacy","0","uniform","1","undefined","undefined","undefined","1","j","0","0","0","0","89","0","0","0","89","0","85","89","85","0","85","3","89","0","89","Wed Feb 17 11:19:23 2021","The main experiment item","yes","Lexical_Decision_Task.osexp","C:/Users/Clive Perry/Desktop/Uni/Year 2/Cognition and language","no","Andale Mono","no","18","no","white","no","yes","576","legacy","85","85","3","C:/Users/Clive Perry/Desktop/Uni/Year 2/Cognition and language/subject-5203822.csv","legacy","Lentiform Loewenfeld","3.3.7","yes","yes","600bd7cfb6416f0113b04181","602110864497cf011d9c0822","0","j","NA","space","space","space","space","j","758","NA","1170","8190","4861","797931","758","2","legacy","1024","2","48000","-16","task","5203822","even","NA","24361","27534","26364","993025","3748","16801","11940","993528","124951","993023","993529","992933","27534","994287","22473","992433","3731","989652","Lexical Decision Task","79","65813","90","yes","1024"
"3.153104174","10.89","6","door","word","87.91208791208791","87.91208791208791","729.2087912087912","729.2087912087912","black","no","legacy","legacy","legacy","0","uniform","1","undefined","undefined","undefined","1","j","0","0","0","0","90","0","0","0","90","0","86","90","86","0","86","3","90","0","90","Wed Feb 17 11:19:23 2021","The main experiment item","yes","Lexical_Decision_Task.osexp","C:/Users/Clive Perry/Desktop/Uni/Year 2/Cognition and language","no","Andale Mono","no","18","no","white","no","yes","576","legacy","86","86","3","C:/Users/Clive Perry/Desktop/Uni/Year 2/Cognition and language/subject-5203822.csv","legacy","Lentiform Loewenfeld","3.3.7","yes","yes","600bd7cfb6416f0113b04181","602110864497cf011d9c0822","0","j","NA","space","space","space","space","j","545","NA","1170","8190","4861","797931","545","2","legacy","1024","2","48000","-16","task","5203822","even","NA","24361","27534","26364","994887","3748","16801","11940","995390","124951","994886","995390","994793","27534","995936","22473","994293","3731","989652","Lexical Decision Task","80","66358","91","yes","1024"
"3.121778632","0","9","sark","non-word","88.04347826086956","88.04347826086956","727.3695652173913","727.3695652173913","black","no","legacy","legacy","legacy","0","uniform","1","undefined","undefined","undefined","1","f","0","0","0","0","91","0","0","0","91","0","87","91","87","0","87","3","91","0","91","Wed Feb 17 11:19:23 2021","The main experiment item","yes","Lexical_Decision_Task.osexp","C:/Users/Clive Perry/Desktop/Uni/Year 2/Cognition and language","no","Andale Mono","no","18","no","white","no","yes","576","legacy","87","87","3","C:/Users/Clive Perry/Desktop/Uni/Year 2/Cognition and language/subject-5203822.csv","legacy","Lentiform Loewenfeld","3.3.7","yes","yes","600bd7cfb6416f0113b04181","602110864497cf011d9c0822","0","f","NA","space","space","space","space","f","560","NA","1170","8190","4861","797931","560","2","legacy","1024","2","48000","-16","task","5203822","even","NA","24361","27534","26364","996536","3748","16801","11940","997039","124951","996534","997040","996442","27534","997600","22473","995942","3731","989652","Lexical Decision Task","81","66918","92","yes","1024"
"2.709837904","6.85","8","skim","word","88.17204301075269","88.17204301075269","725.6451612903226","725.6451612903226","black","no","legacy","legacy","legacy","0","uniform","1","undefined","undefined","undefined","1","j","0","0","0","0","92","0","0","0","92","0","88","92","88","0","88","3","92","0","92","Wed Feb 17 11:19:23 2021","The main experiment item","yes","Lexical_Decision_Task.osexp","C:/Users/Clive Perry/Desktop/Uni/Year 2/Cognition and language","no","Andale Mono","no","18","no","white","no","yes","576","legacy","88","88","3","C:/Users/Clive Perry/Desktop/Uni/Year 2/Cognition and language/subject-5203822.csv","legacy","Lentiform Loewenfeld","3.3.7","yes","yes","600bd7cfb6416f0113b04181","602110864497cf011d9c0822","0","j","NA","space","space","space","space","j","567","NA","1170","8190","4861","797931","567","2","legacy","1024","2","48000","-16","task","5203822","even","NA","24361","27534","26364","998193","3748","16801","11940","998697","124951","998192","998697","998106","27534","999265","22473","997606","3731","989652","Lexical Decision Task","82","67485","93","yes","1024"
"2.972819734","0","4","scew","non-word","88.29787234042553","88.29787234042553","727.563829787234","727.563829787234","black","no","legacy","legacy","legacy","0","uniform","1","undefined","undefined","undefined","1","f","0","0","0","0","93","0","0","0","93","0","89","93","89","0","89","3","93","0","93","Wed Feb 17 11:19:23 2021","The main experiment item","yes","Lexical_Decision_Task.osexp","C:/Users/Clive Perry/Desktop/Uni/Year 2/Cognition and language","no","Andale Mono","no","18","no","white","no","yes","576","legacy","89","89","3","C:/Users/Clive Perry/Desktop/Uni/Year 2/Cognition and language/subject-5203822.csv","legacy","Lentiform Loewenfeld","3.3.7","yes","yes","600bd7cfb6416f0113b04181","602110864497cf011d9c0822","0","f","NA","space","space","space","space","f","906","NA","1170","8190","4861","797931","906","2","legacy","1024","2","48000","-16","task","5203822","even","NA","24361","27534","26364","999865","3748","16801","11940","1000369","124951","999864","1000369","999771","27534","1001276","22473","999271","3731","989652","Lexical Decision Task","83","68391","94","yes","1024"
