"Log_BG","Log_Freq_HAL","Ortho_N","Stimulus","Type","acc","accuracy","average_response_time","avg_rt","background","bidi","canvas_backend","clock_backend","color_backend","compensation","coordinates","correct","correct_Experimental_intro","correct_Introduction","correct_Practice_intro","correct_experimenter_kb","correct_response","count_End_Of_Experiment","count_End_Of_Practice","count_Experimental_Loop","count_Experimental_intro","count_Fixation","count_Introduction","count_Practice_Loop","count_Practice_intro","count_Stimulus","count_block_break_feedback","count_experimental_sequence","count_experimenter_kb","count_increment_trial_count","count_init_trial_count","count_logger","count_practice_sequence","count_right","count_task","count_wrong","datetime","description","disable_garbage_collection","experiment_file","experiment_path","font_bold","font_family","font_italic","font_size","font_underline","foreground","form_clicks","fullscreen","height","keyboard_backend","live_row","live_row_Experimental_Loop","live_row_Practice_Loop","logfile","mouse_backend","opensesame_codename","opensesame_version","osf_always_upload_data","osf_always_upload_experiment","osf_datanode_id","osf_id","repeat_cycle","response","response_End_Of_Experiment","response_Experimental_intro","response_Introduction","response_Practice_intro","response_block_break_feedback","response_experimenter_kb","response_time","response_time_End_Of_Experiment","response_time_Experimental_intro","response_time_Introduction","response_time_Practice_intro","response_time_block_break_feedback","response_time_experimenter_kb","round_decimals","sampler_backend","sound_buf_size","sound_channels","sound_freq","sound_sample_size","start","subject_nr","subject_parity","time_End_Of_Experiment","time_End_Of_Practice","time_Experimental_Loop","time_Experimental_intro","time_Fixation","time_Introduction","time_Practice_Loop","time_Practice_intro","time_Stimulus","time_block_break_feedback","time_experimental_sequence","time_experimenter_kb","time_increment_trial_count","time_init_trial_count","time_logger","time_practice_sequence","time_right","time_task","time_wrong","title","total_correct","total_response_time","total_responses","uniform_coordinates","width"
"3.043885998","0","9","gome","non-word","100","100","877","877","black","no","legacy","legacy","legacy","0","uniform","1","undefined","undefined","undefined","1","f","0","0","0","0","4","0","0","0","4","NA","0","4","0","0","0","3","4","0","4","Thu Feb 18 13:15:05 2021","The main experiment item","yes","Lexical_Decision_Task.osexp","C:/Users/Sarah/OneDrive/Documents/Uni/Uni 2/CaL","no","Andale Mono","no","18","no","white","no","yes","576","legacy","0","0","3","C:/Users/Sarah/OneDrive/Documents/Uni/Uni 2/CaL/subject-5212118..csv","legacy","Lentiform Loewenfeld","3.3.7","yes","yes","600bd7cfb6416f0113b04181","602110864497cf011d9c0822","0","f","NA","space","space","space","NA","f","1070","NA","1242","7980","2347","NA","1070","2","legacy","1024","2","48000","-16","task","5212118","even","NA","24244","27490","26247","27578","5840","16173","13825","28084","NA","27575","28085","NA","27490","29156","22673","23683","5832","NA","Lexical Decision Task","5","4385","5","yes","1024"
"2.952953801","0","8","clax","non-word","100","100","866.3333333333334","866.3333333333334","black","no","legacy","legacy","legacy","0","uniform","1","undefined","undefined","undefined","1","f","0","0","0","0","5","0","0","0","5","NA","1","5","1","0","1","3","5","0","5","Thu Feb 18 13:15:05 2021","The main experiment item","yes","Lexical_Decision_Task.osexp","C:/Users/Sarah/OneDrive/Documents/Uni/Uni 2/CaL","no","Andale Mono","no","18","no","white","no","yes","576","legacy","1","1","3","C:/Users/Sarah/OneDrive/Documents/Uni/Uni 2/CaL/subject-5212118..csv","legacy","Lentiform Loewenfeld","3.3.7","yes","yes","600bd7cfb6416f0113b04181","602110864497cf011d9c0822","0","f","NA","space","space","space","NA","f","813","NA","1242","7980","2347","NA","813","2","legacy","1024","2","48000","-16","task","5212118","even","NA","24244","27490","26247","29835","5840","16173","13825","30338","NA","29831","30338","29672","27490","31152","22673","29171","5832","NA","Lexical Decision Task","6","5198","6","yes","1024"
"2.67699827","0","6","hulf","non-word","100","100","834.7142857142857","834.7142857142857","black","no","legacy","legacy","legacy","0","uniform","1","undefined","undefined","undefined","1","f","0","0","0","0","6","0","0","0","6","NA","2","6","2","0","2","3","6","0","6","Thu Feb 18 13:15:05 2021","The main experiment item","yes","Lexical_Decision_Task.osexp","C:/Users/Sarah/OneDrive/Documents/Uni/Uni 2/CaL","no","Andale Mono","no","18","no","white","no","yes","576","legacy","2","2","3","C:/Users/Sarah/OneDrive/Documents/Uni/Uni 2/CaL/subject-5212118..csv","legacy","Lentiform Loewenfeld","3.3.7","yes","yes","600bd7cfb6416f0113b04181","602110864497cf011d9c0822","0","f","NA","space","space","space","NA","f","645","NA","1242","7980","2347","NA","645","2","legacy","1024","2","48000","-16","task","5212118","even","NA","24244","27490","26247","31799","5840","16173","13825","32302","NA","31795","32302","31660","27490","32948","22673","31159","5832","NA","Lexical Decision Task","7","5843","7","yes","1024"
"3.120135028","0","3","vals","non-word","100","100","798.25","798.25","black","no","legacy","legacy","legacy","0","uniform","1","undefined","undefined","undefined","1","f","0","0","0","0","7","0","0","0","7","NA","3","7","3","0","3","3","7","0","7","Thu Feb 18 13:15:05 2021","The main experiment item","yes","Lexical_Decision_Task.osexp","C:/Users/Sarah/OneDrive/Documents/Uni/Uni 2/CaL","no","Andale Mono","no","18","no","white","no","yes","576","legacy","3","3","3","C:/Users/Sarah/OneDrive/Documents/Uni/Uni 2/CaL/subject-5212118..csv","legacy","Lentiform Loewenfeld","3.3.7","yes","yes","600bd7cfb6416f0113b04181","602110864497cf011d9c0822","0","f","NA","space","space","space","NA","f","543","NA","1242","7980","2347","NA","543","2","legacy","1024","2","48000","-16","task","5212118","even","NA","24244","27490","26247","33589","5840","16173","13825","34092","NA","33585","34092","33456","27490","34636","22673","32956","5832","NA","Lexical Decision Task","8","6386","8","yes","1024"
"2.868644438","10.52","4","town","word","100","100","764.3333333333334","764.3333333333334","black","no","legacy","legacy","legacy","0","uniform","1","undefined","undefined","undefined","1","j","0","0","0","0","8","0","0","0","8","NA","4","8","4","0","4","3","8","0","8","Thu Feb 18 13:15:05 2021","The main experiment item","yes","Lexical_Decision_Task.osexp","C:/Users/Sarah/OneDrive/Documents/Uni/Uni 2/CaL","no","Andale Mono","no","18","no","white","no","yes","576","legacy","4","4","3","C:/Users/Sarah/OneDrive/Documents/Uni/Uni 2/CaL/subject-5212118..csv","legacy","Lentiform Loewenfeld","3.3.7","yes","yes","600bd7cfb6416f0113b04181","602110864497cf011d9c0822","0","j","NA","space","space","space","NA","j","493","NA","1242","7980","2347","NA","493","2","legacy","1024","2","48000","-16","task","5212118","even","NA","24244","27490","26247","35287","5840","16173","13825","35790","NA","35282","35790","35143","27490","36284","22673","34643","5832","NA","Lexical Decision Task","9","6879","9","yes","1024"
"2.971428938","9.86","7","spot","word","100","100","748.5","748.5","black","no","legacy","legacy","legacy","0","uniform","1","undefined","undefined","undefined","1","j","0","0","0","0","9","0","0","0","9","NA","5","9","5","0","5","3","9","0","9","Thu Feb 18 13:15:05 2021","The main experiment item","yes","Lexical_Decision_Task.osexp","C:/Users/Sarah/OneDrive/Documents/Uni/Uni 2/CaL","no","Andale Mono","no","18","no","white","no","yes","576","legacy","5","5","3","C:/Users/Sarah/OneDrive/Documents/Uni/Uni 2/CaL/subject-5212118..csv","legacy","Lentiform Loewenfeld","3.3.7","yes","yes","600bd7cfb6416f0113b04181","602110864497cf011d9c0822","0","j","NA","space","space","space","NA","j","606","NA","1242","7980","2347","NA","606","2","legacy","1024","2","48000","-16","task","5212118","even","NA","24244","27490","26247","36922","5840","16173","13825","37425","NA","36919","37425","36791","27490","38032","22673","36291","5832","NA","Lexical Decision Task","10","7485","10","yes","1024"
"3.282244367","0","6","fute","non-word","100","100","741.5454545454545","741.5454545454545","black","no","legacy","legacy","legacy","0","uniform","1","undefined","undefined","undefined","1","f","0","0","0","0","10","0","0","0","10","NA","6","10","6","0","6","3","10","0","10","Thu Feb 18 13:15:05 2021","The main experiment item","yes","Lexical_Decision_Task.osexp","C:/Users/Sarah/OneDrive/Documents/Uni/Uni 2/CaL","no","Andale Mono","no","18","no","white","no","yes","576","legacy","6","6","3","C:/Users/Sarah/OneDrive/Documents/Uni/Uni 2/CaL/subject-5212118..csv","legacy","Lentiform Loewenfeld","3.3.7","yes","yes","600bd7cfb6416f0113b04181","602110864497cf011d9c0822","0","f","NA","space","space","space","NA","f","672","NA","1242","7980","2347","NA","672","2","legacy","1024","2","48000","-16","task","5212118","even","NA","24244","27490","26247","38685","5840","16173","13825","39188","NA","38681","39188","38540","27490","39861","22673","38040","5832","NA","Lexical Decision Task","11","8157","11","yes","1024"
"2.664011697","8.19","4","hawk","word","100","100","728","728","black","no","legacy","legacy","legacy","0","uniform","1","undefined","undefined","undefined","1","j","0","0","0","0","11","0","0","0","11","NA","7","11","7","0","7","3","11","0","11","Thu Feb 18 13:15:05 2021","The main experiment item","yes","Lexical_Decision_Task.osexp","C:/Users/Sarah/OneDrive/Documents/Uni/Uni 2/CaL","no","Andale Mono","no","18","no","white","no","yes","576","legacy","7","7","3","C:/Users/Sarah/OneDrive/Documents/Uni/Uni 2/CaL/subject-5212118..csv","legacy","Lentiform Loewenfeld","3.3.7","yes","yes","600bd7cfb6416f0113b04181","602110864497cf011d9c0822","0","j","NA","space","space","space","NA","j","579","NA","1242","7980","2347","NA","579","2","legacy","1024","2","48000","-16","task","5212118","even","NA","24244","27490","26247","40504","5840","16173","13825","41007","NA","40501","41007","40369","27490","41587","22673","39869","5832","NA","Lexical Decision Task","12","8736","12","yes","1024"
"3.028977705","0","7","frow","non-word","100","100","767.5384615384615","767.5384615384615","black","no","legacy","legacy","legacy","0","uniform","1","undefined","undefined","undefined","1","f","0","0","0","0","12","0","0","0","12","NA","8","12","8","0","8","3","12","0","12","Thu Feb 18 13:15:05 2021","The main experiment item","yes","Lexical_Decision_Task.osexp","C:/Users/Sarah/OneDrive/Documents/Uni/Uni 2/CaL","no","Andale Mono","no","18","no","white","no","yes","576","legacy","8","8","3","C:/Users/Sarah/OneDrive/Documents/Uni/Uni 2/CaL/subject-5212118..csv","legacy","Lentiform Loewenfeld","3.3.7","yes","yes","600bd7cfb6416f0113b04181","602110864497cf011d9c0822","0","f","NA","space","space","space","NA","f","1242","NA","1242","7980","2347","NA","1242","2","legacy","1024","2","48000","-16","task","5212118","even","NA","24244","27490","26247","42229","5840","16173","13825","42732","NA","42225","42732","42094","27490","43975","22673","41594","5832","NA","Lexical Decision Task","13","9978","13","yes","1024"
"3.156347201","0","8","lasp","non-word","100","100","761.2142857142857","761.2142857142857","black","no","legacy","legacy","legacy","0","uniform","1","undefined","undefined","undefined","1","f","0","0","0","0","13","0","0","0","13","NA","9","13","9","0","9","3","13","0","13","Thu Feb 18 13:15:05 2021","The main experiment item","yes","Lexical_Decision_Task.osexp","C:/Users/Sarah/OneDrive/Documents/Uni/Uni 2/CaL","no","Andale Mono","no","18","no","white","no","yes","576","legacy","9","9","3","C:/Users/Sarah/OneDrive/Documents/Uni/Uni 2/CaL/subject-5212118..csv","legacy","Lentiform Loewenfeld","3.3.7","yes","yes","600bd7cfb6416f0113b04181","602110864497cf011d9c0822","0","f","NA","space","space","space","NA","f","679","NA","1242","7980","2347","NA","679","2","legacy","1024","2","48000","-16","task","5212118","even","NA","24244","27490","26247","44631","5840","16173","13825","45134","NA","44627","45134","44482","27490","45814","22673","43982","5832","NA","Lexical Decision Task","14","10657","14","yes","1024"
"3.067070856","9.39","3","loud","word","100","100","745.7333333333333","745.7333333333333","black","no","legacy","legacy","legacy","0","uniform","1","undefined","undefined","undefined","1","j","0","0","0","0","14","0","0","0","14","NA","10","14","10","0","10","3","14","0","14","Thu Feb 18 13:15:05 2021","The main experiment item","yes","Lexical_Decision_Task.osexp","C:/Users/Sarah/OneDrive/Documents/Uni/Uni 2/CaL","no","Andale Mono","no","18","no","white","no","yes","576","legacy","10","10","3","C:/Users/Sarah/OneDrive/Documents/Uni/Uni 2/CaL/subject-5212118..csv","legacy","Lentiform Loewenfeld","3.3.7","yes","yes","600bd7cfb6416f0113b04181","602110864497cf011d9c0822","0","j","NA","space","space","space","NA","j","529","NA","1242","7980","2347","NA","529","2","legacy","1024","2","48000","-16","task","5212118","even","NA","24244","27490","26247","46460","5840","16173","13825","46963","NA","46457","46963","46322","27490","47493","22673","45821","5832","NA","Lexical Decision Task","15","11186","15","yes","1024"
"2.875447132","0","9","jelt","non-word","100","100","741.25","741.25","black","no","legacy","legacy","legacy","0","uniform","1","undefined","undefined","undefined","1","f","0","0","0","0","15","0","0","0","15","NA","11","15","11","0","11","3","15","0","15","Thu Feb 18 13:15:05 2021","The main experiment item","yes","Lexical_Decision_Task.osexp","C:/Users/Sarah/OneDrive/Documents/Uni/Uni 2/CaL","no","Andale Mono","no","18","no","white","no","yes","576","legacy","11","11","3","C:/Users/Sarah/OneDrive/Documents/Uni/Uni 2/CaL/subject-5212118..csv","legacy","Lentiform Loewenfeld","3.3.7","yes","yes","600bd7cfb6416f0113b04181","602110864497cf011d9c0822","0","f","NA","space","space","space","NA","f","674","NA","1242","7980","2347","NA","674","2","legacy","1024","2","48000","-16","task","5212118","even","NA","24244","27490","26247","48144","5840","16173","13825","48647","NA","48141","48647","48000","27490","49322","22673","47500","5832","NA","Lexical Decision Task","16","11860","16","yes","1024"
"2.9737419","7.69","7","claw","word","100","100","735.1176470588235","735.1176470588235","black","no","legacy","legacy","legacy","0","uniform","1","undefined","undefined","undefined","1","j","0","0","0","0","16","0","0","0","16","NA","12","16","12","0","12","3","16","0","16","Thu Feb 18 13:15:05 2021","The main experiment item","yes","Lexical_Decision_Task.osexp","C:/Users/Sarah/OneDrive/Documents/Uni/Uni 2/CaL","no","Andale Mono","no","18","no","white","no","yes","576","legacy","12","12","3","C:/Users/Sarah/OneDrive/Documents/Uni/Uni 2/CaL/subject-5212118..csv","legacy","Lentiform Loewenfeld","3.3.7","yes","yes","600bd7cfb6416f0113b04181","602110864497cf011d9c0822","0","j","NA","space","space","space","NA","j","637","NA","1242","7980","2347","NA","637","2","legacy","1024","2","48000","-16","task","5212118","even","NA","24244","27490","26247","49969","5840","16173","13825","50472","NA","49965","50472","49829","27490","51110","22673","49329","5832","NA","Lexical Decision Task","17","12497","17","yes","1024"
"2.696644658","5.78","2","yolk","word","100","100","739.5","739.5","black","no","legacy","legacy","legacy","0","uniform","1","undefined","undefined","undefined","1","j","0","0","0","0","17","0","0","0","17","NA","13","17","13","0","13","3","17","0","17","Thu Feb 18 13:15:05 2021","The main experiment item","yes","Lexical_Decision_Task.osexp","C:/Users/Sarah/OneDrive/Documents/Uni/Uni 2/CaL","no","Andale Mono","no","18","no","white","no","yes","576","legacy","13","13","3","C:/Users/Sarah/OneDrive/Documents/Uni/Uni 2/CaL/subject-5212118..csv","legacy","Lentiform Loewenfeld","3.3.7","yes","yes","600bd7cfb6416f0113b04181","602110864497cf011d9c0822","0","j","NA","space","space","space","NA","j","814","NA","1242","7980","2347","NA","814","2","legacy","1024","2","48000","-16","task","5212118","even","NA","24244","27490","26247","51755","5840","16173","13825","52258","NA","51751","52258","51617","27490","53073","22673","51116","5832","NA","Lexical Decision Task","18","13311","18","yes","1024"
"3.003891166","8.05","2","frog","word","100","100","734.1052631578947","734.1052631578947","black","no","legacy","legacy","legacy","0","uniform","1","undefined","undefined","undefined","1","j","0","0","0","0","18","0","0","0","18","NA","14","18","14","0","14","3","18","0","18","Thu Feb 18 13:15:05 2021","The main experiment item","yes","Lexical_Decision_Task.osexp","C:/Users/Sarah/OneDrive/Documents/Uni/Uni 2/CaL","no","Andale Mono","no","18","no","white","no","yes","576","legacy","14","14","3","C:/Users/Sarah/OneDrive/Documents/Uni/Uni 2/CaL/subject-5212118..csv","legacy","Lentiform Loewenfeld","3.3.7","yes","yes","600bd7cfb6416f0113b04181","602110864497cf011d9c0822","0","j","NA","space","space","space","NA","j","637","NA","1242","7980","2347","NA","637","2","legacy","1024","2","48000","-16","task","5212118","even","NA","24244","27490","26247","53718","5840","16173","13825","54221","NA","53715","54221","53580","27490","54859","22673","53080","5832","NA","Lexical Decision Task","19","13948","19","yes","1024"
"2.892836167","10.01","5","soft","word","100","100","735.8","735.8","black","no","legacy","legacy","legacy","0","uniform","1","undefined","undefined","undefined","1","j","0","0","0","0","19","0","0","0","19","NA","15","19","15","0","15","3","19","0","19","Thu Feb 18 13:15:05 2021","The main experiment item","yes","Lexical_Decision_Task.osexp","C:/Users/Sarah/OneDrive/Documents/Uni/Uni 2/CaL","no","Andale Mono","no","18","no","white","no","yes","576","legacy","15","15","3","C:/Users/Sarah/OneDrive/Documents/Uni/Uni 2/CaL/subject-5212118..csv","legacy","Lentiform Loewenfeld","3.3.7","yes","yes","600bd7cfb6416f0113b04181","602110864497cf011d9c0822","0","j","NA","space","space","space","NA","j","768","NA","1242","7980","2347","NA","768","2","legacy","1024","2","48000","-16","task","5212118","even","NA","24244","27490","26247","55502","5840","16173","13825","56005","NA","55498","56005","55369","27490","56774","22673","54869","5832","NA","Lexical Decision Task","20","14716","20","yes","1024"
"2.75025376","10.2","6","jump","word","100","100","726.7142857142857","726.7142857142857","black","no","legacy","legacy","legacy","0","uniform","1","undefined","undefined","undefined","1","j","0","0","0","0","20","0","0","0","20","NA","16","20","16","0","16","3","20","0","20","Thu Feb 18 13:15:05 2021","The main experiment item","yes","Lexical_Decision_Task.osexp","C:/Users/Sarah/OneDrive/Documents/Uni/Uni 2/CaL","no","Andale Mono","no","18","no","white","no","yes","576","legacy","16","16","3","C:/Users/Sarah/OneDrive/Documents/Uni/Uni 2/CaL/subject-5212118..csv","legacy","Lentiform Loewenfeld","3.3.7","yes","yes","600bd7cfb6416f0113b04181","602110864497cf011d9c0822","0","j","NA","space","space","space","NA","j","545","NA","1242","7980","2347","NA","545","2","legacy","1024","2","48000","-16","task","5212118","even","NA","24244","27490","26247","57427","5840","16173","13825","57930","NA","57424","57930","57281","27490","58476","22673","56781","5832","NA","Lexical Decision Task","21","15261","21","yes","1024"
"2.858136002","0","4","phip","non-word","100","100","726.0909090909091","726.0909090909091","black","no","legacy","legacy","legacy","0","uniform","1","undefined","undefined","undefined","1","f","0","0","0","0","21","0","0","0","21","NA","17","21","17","0","17","3","21","0","21","Thu Feb 18 13:15:05 2021","The main experiment item","yes","Lexical_Decision_Task.osexp","C:/Users/Sarah/OneDrive/Documents/Uni/Uni 2/CaL","no","Andale Mono","no","18","no","white","no","yes","576","legacy","17","17","3","C:/Users/Sarah/OneDrive/Documents/Uni/Uni 2/CaL/subject-5212118..csv","legacy","Lentiform Loewenfeld","3.3.7","yes","yes","600bd7cfb6416f0113b04181","602110864497cf011d9c0822","0","f","NA","space","space","space","NA","f","713","NA","1242","7980","2347","NA","713","2","legacy","1024","2","48000","-16","task","5212118","even","NA","24244","27490","26247","59126","5840","16173","13825","59630","NA","59122","59630","58983","27490","60344","22673","58483","5832","NA","Lexical Decision Task","22","15974","22","yes","1024"
"3.397302518","7.01","2","knit","word","100","100","719.0434782608696","719.0434782608696","black","no","legacy","legacy","legacy","0","uniform","1","undefined","undefined","undefined","1","j","0","0","0","0","22","0","0","0","22","NA","18","22","18","0","18","3","22","0","22","Thu Feb 18 13:15:05 2021","The main experiment item","yes","Lexical_Decision_Task.osexp","C:/Users/Sarah/OneDrive/Documents/Uni/Uni 2/CaL","no","Andale Mono","no","18","no","white","no","yes","576","legacy","18","18","3","C:/Users/Sarah/OneDrive/Documents/Uni/Uni 2/CaL/subject-5212118..csv","legacy","Lentiform Loewenfeld","3.3.7","yes","yes","600bd7cfb6416f0113b04181","602110864497cf011d9c0822","0","j","NA","space","space","space","NA","j","564","NA","1242","7980","2347","NA","564","2","legacy","1024","2","48000","-16","task","5212118","even","NA","24244","27490","26247","60992","5840","16173","13825","61495","NA","60987","61495","60852","27490","62060","22673","60352","5832","NA","Lexical Decision Task","23","16538","23","yes","1024"
"3.302475237","0","7","leel","non-word","100","100","718.0416666666666","718.0416666666666","black","no","legacy","legacy","legacy","0","uniform","1","undefined","undefined","undefined","1","f","0","0","0","0","23","0","0","0","23","NA","19","23","19","0","19","3","23","0","23","Thu Feb 18 13:15:05 2021","The main experiment item","yes","Lexical_Decision_Task.osexp","C:/Users/Sarah/OneDrive/Documents/Uni/Uni 2/CaL","no","Andale Mono","no","18","no","white","no","yes","576","legacy","19","19","3","C:/Users/Sarah/OneDrive/Documents/Uni/Uni 2/CaL/subject-5212118..csv","legacy","Lentiform Loewenfeld","3.3.7","yes","yes","600bd7cfb6416f0113b04181","602110864497cf011d9c0822","0","f","NA","space","space","space","NA","f","695","NA","1242","7980","2347","NA","695","2","legacy","1024","2","48000","-16","task","5212118","even","NA","24244","27490","26247","62712","5840","16173","13825","63215","NA","62708","63215","62569","27490","63911","22673","62069","5832","NA","Lexical Decision Task","24","17233","24","yes","1024"
"3.366547468","0","6","plat","non-word","100","100","720.44","720.44","black","no","legacy","legacy","legacy","0","uniform","1","undefined","undefined","undefined","1","f","0","0","0","0","24","0","0","0","24","NA","20","24","20","0","20","3","24","0","24","Thu Feb 18 13:15:05 2021","The main experiment item","yes","Lexical_Decision_Task.osexp","C:/Users/Sarah/OneDrive/Documents/Uni/Uni 2/CaL","no","Andale Mono","no","18","no","white","no","yes","576","legacy","20","20","3","C:/Users/Sarah/OneDrive/Documents/Uni/Uni 2/CaL/subject-5212118..csv","legacy","Lentiform Loewenfeld","3.3.7","yes","yes","600bd7cfb6416f0113b04181","602110864497cf011d9c0822","0","f","NA","space","space","space","NA","f","778","NA","1242","7980","2347","NA","778","2","legacy","1024","2","48000","-16","task","5212118","even","NA","24244","27490","26247","64570","5840","16173","13825","65073","NA","64564","65073","64419","27490","65852","22673","63918","5832","NA","Lexical Decision Task","25","18011","25","yes","1024"
"3.15462682","0","6","noal","non-word","100","100","717.3076923076923","717.3076923076923","black","no","legacy","legacy","legacy","0","uniform","1","undefined","undefined","undefined","1","f","0","0","0","0","25","0","0","0","25","NA","21","25","21","0","21","3","25","0","25","Thu Feb 18 13:15:05 2021","The main experiment item","yes","Lexical_Decision_Task.osexp","C:/Users/Sarah/OneDrive/Documents/Uni/Uni 2/CaL","no","Andale Mono","no","18","no","white","no","yes","576","legacy","21","21","3","C:/Users/Sarah/OneDrive/Documents/Uni/Uni 2/CaL/subject-5212118..csv","legacy","Lentiform Loewenfeld","3.3.7","yes","yes","600bd7cfb6416f0113b04181","602110864497cf011d9c0822","0","f","NA","space","space","space","NA","f","639","NA","1242","7980","2347","NA","639","2","legacy","1024","2","48000","-16","task","5212118","even","NA","24244","27490","26247","66490","5840","16173","13825","66993","NA","66487","66993","66359","27490","67633","22673","65859","5832","NA","Lexical Decision Task","26","18650","26","yes","1024"
"3.303771854","0","9","dath","non-word","100","100","714.1111111111111","714.1111111111111","black","no","legacy","legacy","legacy","0","uniform","1","undefined","undefined","undefined","1","f","0","0","0","0","26","0","0","0","26","NA","22","26","22","0","22","3","26","0","26","Thu Feb 18 13:15:05 2021","The main experiment item","yes","Lexical_Decision_Task.osexp","C:/Users/Sarah/OneDrive/Documents/Uni/Uni 2/CaL","no","Andale Mono","no","18","no","white","no","yes","576","legacy","22","22","3","C:/Users/Sarah/OneDrive/Documents/Uni/Uni 2/CaL/subject-5212118..csv","legacy","Lentiform Loewenfeld","3.3.7","yes","yes","600bd7cfb6416f0113b04181","602110864497cf011d9c0822","0","f","NA","space","space","space","NA","f","631","NA","1242","7980","2347","NA","631","2","legacy","1024","2","48000","-16","task","5212118","even","NA","24244","27490","26247","68273","5840","16173","13825","68777","NA","68270","68777","68140","27490","69409","22673","67640","5832","NA","Lexical Decision Task","27","19281","27","yes","1024"
"3.149629599","0","2","cleb","non-word","100","100","712.9285714285714","712.9285714285714","black","no","legacy","legacy","legacy","0","uniform","1","undefined","undefined","undefined","1","f","0","0","0","0","27","0","0","0","27","NA","23","27","23","0","23","3","27","0","27","Thu Feb 18 13:15:05 2021","The main experiment item","yes","Lexical_Decision_Task.osexp","C:/Users/Sarah/OneDrive/Documents/Uni/Uni 2/CaL","no","Andale Mono","no","18","no","white","no","yes","576","legacy","23","23","3","C:/Users/Sarah/OneDrive/Documents/Uni/Uni 2/CaL/subject-5212118..csv","legacy","Lentiform Loewenfeld","3.3.7","yes","yes","600bd7cfb6416f0113b04181","602110864497cf011d9c0822","0","f","NA","space","space","space","NA","f","681","NA","1242","7980","2347","NA","681","2","legacy","1024","2","48000","-16","task","5212118","even","NA","24244","27490","26247","70049","5840","16173","13825","70556","NA","70045","70556","69915","27490","71238","22673","69415","5832","NA","Lexical Decision Task","28","19962","28","yes","1024"
"3.443783828","7.65","3","verb","word","100","100","708","708","black","no","legacy","legacy","legacy","0","uniform","1","undefined","undefined","undefined","1","j","0","0","0","0","28","0","0","0","28","NA","24","28","24","0","24","3","28","0","28","Thu Feb 18 13:15:05 2021","The main experiment item","yes","Lexical_Decision_Task.osexp","C:/Users/Sarah/OneDrive/Documents/Uni/Uni 2/CaL","no","Andale Mono","no","18","no","white","no","yes","576","legacy","24","24","3","C:/Users/Sarah/OneDrive/Documents/Uni/Uni 2/CaL/subject-5212118..csv","legacy","Lentiform Loewenfeld","3.3.7","yes","yes","600bd7cfb6416f0113b04181","602110864497cf011d9c0822","0","j","NA","space","space","space","NA","j","570","NA","1242","7980","2347","NA","570","2","legacy","1024","2","48000","-16","task","5212118","even","NA","24244","27490","26247","71875","5840","16173","13825","72378","NA","71871","72378","71745","27490","72949","22673","71245","5832","NA","Lexical Decision Task","29","20532","29","yes","1024"
"3.347850856","10.51","2","rich","word","100","100","701.6666666666666","701.6666666666666","black","no","legacy","legacy","legacy","0","uniform","1","undefined","undefined","undefined","1","j","0","0","0","0","29","0","0","0","29","NA","25","29","25","0","25","3","29","0","29","Thu Feb 18 13:15:05 2021","The main experiment item","yes","Lexical_Decision_Task.osexp","C:/Users/Sarah/OneDrive/Documents/Uni/Uni 2/CaL","no","Andale Mono","no","18","no","white","no","yes","576","legacy","25","25","3","C:/Users/Sarah/OneDrive/Documents/Uni/Uni 2/CaL/subject-5212118..csv","legacy","Lentiform Loewenfeld","3.3.7","yes","yes","600bd7cfb6416f0113b04181","602110864497cf011d9c0822","0","j","NA","space","space","space","NA","j","518","NA","1242","7980","2347","NA","518","2","legacy","1024","2","48000","-16","task","5212118","even","NA","24244","27490","26247","73591","5840","16173","13825","74094","NA","73587","74094","73458","27490","74613","22673","72958","5832","NA","Lexical Decision Task","30","21050","30","yes","1024"
"3.705778213","0","6","stin","non-word","100","100","700.6129032258065","700.6129032258065","black","no","legacy","legacy","legacy","0","uniform","1","undefined","undefined","undefined","1","f","0","0","0","0","30","0","0","0","30","NA","26","30","26","0","26","3","30","0","30","Thu Feb 18 13:15:05 2021","The main experiment item","yes","Lexical_Decision_Task.osexp","C:/Users/Sarah/OneDrive/Documents/Uni/Uni 2/CaL","no","Andale Mono","no","18","no","white","no","yes","576","legacy","26","26","3","C:/Users/Sarah/OneDrive/Documents/Uni/Uni 2/CaL/subject-5212118..csv","legacy","Lentiform Loewenfeld","3.3.7","yes","yes","600bd7cfb6416f0113b04181","602110864497cf011d9c0822","0","f","NA","space","space","space","NA","f","669","NA","1242","7980","2347","NA","669","2","legacy","1024","2","48000","-16","task","5212118","even","NA","24244","27490","26247","75251","5840","16173","13825","75754","NA","75247","75754","75121","27490","76424","22673","74620","5832","NA","Lexical Decision Task","31","21719","31","yes","1024"
"2.719886232","7.98","2","quiz","word","100","100","695.375","695.375","black","no","legacy","legacy","legacy","0","uniform","1","undefined","undefined","undefined","1","j","0","0","0","0","31","0","0","0","31","NA","27","31","27","0","27","3","31","0","31","Thu Feb 18 13:15:05 2021","The main experiment item","yes","Lexical_Decision_Task.osexp","C:/Users/Sarah/OneDrive/Documents/Uni/Uni 2/CaL","no","Andale Mono","no","18","no","white","no","yes","576","legacy","27","27","3","C:/Users/Sarah/OneDrive/Documents/Uni/Uni 2/CaL/subject-5212118..csv","legacy","Lentiform Loewenfeld","3.3.7","yes","yes","600bd7cfb6416f0113b04181","602110864497cf011d9c0822","0","j","NA","space","space","space","NA","j","533","NA","1242","7980","2347","NA","533","2","legacy","1024","2","48000","-16","task","5212118","even","NA","24244","27490","26247","77065","5840","16173","13825","77569","NA","77062","77569","76931","27490","78103","22673","76431","5832","NA","Lexical Decision Task","32","22252","32","yes","1024"
"3.374198258","0","8","vist","non-word","96.96969696969697","96.96969696969697","690.9090909090909","690.9090909090909","black","no","legacy","legacy","legacy","0","uniform","0","undefined","undefined","undefined","0","f","0","0","0","0","32","0","0","0","32","NA","28","32","28","0","28","3","32","0","32","Thu Feb 18 13:15:05 2021","The main experiment item","yes","Lexical_Decision_Task.osexp","C:/Users/Sarah/OneDrive/Documents/Uni/Uni 2/CaL","no","Andale Mono","no","18","no","white","no","yes","576","legacy","28","28","3","C:/Users/Sarah/OneDrive/Documents/Uni/Uni 2/CaL/subject-5212118..csv","legacy","Lentiform Loewenfeld","3.3.7","yes","yes","600bd7cfb6416f0113b04181","602110864497cf011d9c0822","0","j","NA","space","space","space","NA","j","548","NA","1242","7980","2347","NA","548","2","legacy","1024","2","48000","-16","task","5212118","even","NA","24244","27490","26247","78746","5840","16173","13825","79250","NA","78743","79251","78614","27490","79800","22673","78114","5832","NA","Lexical Decision Task","32","22800","33","yes","1024"
"3.121778632","0","9","sark","non-word","97.05882352941177","97.05882352941177","689.8823529411765","689.8823529411765","black","no","legacy","legacy","legacy","0","uniform","1","undefined","undefined","undefined","1","f","0","0","0","0","33","0","0","0","33","NA","29","33","29","0","29","3","33","0","33","Thu Feb 18 13:15:05 2021","The main experiment item","yes","Lexical_Decision_Task.osexp","C:/Users/Sarah/OneDrive/Documents/Uni/Uni 2/CaL","no","Andale Mono","no","18","no","white","no","yes","576","legacy","29","29","3","C:/Users/Sarah/OneDrive/Documents/Uni/Uni 2/CaL/subject-5212118..csv","legacy","Lentiform Loewenfeld","3.3.7","yes","yes","600bd7cfb6416f0113b04181","602110864497cf011d9c0822","0","f","NA","space","space","space","NA","f","656","NA","1242","7980","2347","NA","656","2","legacy","1024","2","48000","-16","task","5212118","even","NA","24244","27490","26247","81443","5840","16173","13825","81947","NA","81440","81947","81309","27490","82605","22673","78114","5832","79809","Lexical Decision Task","33","23456","34","yes","1024"
"2.794720352","0","9","koot","non-word","97.14285714285714","97.14285714285714","689.8","689.8","black","no","legacy","legacy","legacy","0","uniform","1","undefined","undefined","undefined","1","f","0","0","0","0","34","0","0","0","34","NA","30","34","30","0","30","3","34","0","34","Thu Feb 18 13:15:05 2021","The main experiment item","yes","Lexical_Decision_Task.osexp","C:/Users/Sarah/OneDrive/Documents/Uni/Uni 2/CaL","no","Andale Mono","no","18","no","white","no","yes","576","legacy","30","30","3","C:/Users/Sarah/OneDrive/Documents/Uni/Uni 2/CaL/subject-5212118..csv","legacy","Lentiform Loewenfeld","3.3.7","yes","yes","600bd7cfb6416f0113b04181","602110864497cf011d9c0822","0","f","NA","space","space","space","NA","f","687","NA","1242","7980","2347","NA","687","2","legacy","1024","2","48000","-16","task","5212118","even","NA","24244","27490","26247","83248","5840","16173","13825","83753","NA","83244","83753","83112","27490","84441","22673","82611","5832","79809","Lexical Decision Task","34","24143","35","yes","1024"
"2.728085817","10.02","9","bike","word","97.22222222222223","97.22222222222223","690.4722222222222","690.4722222222222","black","no","legacy","legacy","legacy","0","uniform","1","undefined","undefined","undefined","1","j","0","0","0","0","35","0","0","0","35","NA","31","35","31","0","31","3","35","0","35","Thu Feb 18 13:15:05 2021","The main experiment item","yes","Lexical_Decision_Task.osexp","C:/Users/Sarah/OneDrive/Documents/Uni/Uni 2/CaL","no","Andale Mono","no","18","no","white","no","yes","576","legacy","31","31","3","C:/Users/Sarah/OneDrive/Documents/Uni/Uni 2/CaL/subject-5212118..csv","legacy","Lentiform Loewenfeld","3.3.7","yes","yes","600bd7cfb6416f0113b04181","602110864497cf011d9c0822","0","j","NA","space","space","space","NA","j","714","NA","1242","7980","2347","NA","714","2","legacy","1024","2","48000","-16","task","5212118","even","NA","24244","27490","26247","85077","5840","16173","13825","85583","NA","85074","85583","84947","27490","86299","22673","84447","5832","79809","Lexical Decision Task","35","24857","36","yes","1024"
"3.159867847","5.98","5","brim","word","94.5945945945946","94.5945945945946","687.4324324324324","687.4324324324324","black","no","legacy","legacy","legacy","0","uniform","0","undefined","undefined","undefined","0","j","0","0","0","0","36","0","0","0","36","NA","32","36","32","0","32","3","36","0","36","Thu Feb 18 13:15:05 2021","The main experiment item","yes","Lexical_Decision_Task.osexp","C:/Users/Sarah/OneDrive/Documents/Uni/Uni 2/CaL","no","Andale Mono","no","18","no","white","no","yes","576","legacy","32","32","3","C:/Users/Sarah/OneDrive/Documents/Uni/Uni 2/CaL/subject-5212118..csv","legacy","Lentiform Loewenfeld","3.3.7","yes","yes","600bd7cfb6416f0113b04181","602110864497cf011d9c0822","0","f","NA","space","space","space","NA","f","578","NA","1242","7980","2347","NA","578","2","legacy","1024","2","48000","-16","task","5212118","even","NA","24244","27490","26247","86939","5840","16173","13825","87442","NA","86935","87442","86806","27490","88021","22673","86305","5832","79809","Lexical Decision Task","35","25435","37","yes","1024"
"3.263399331","0","8","cour","non-word","94.73684210526316","94.73684210526316","687.8684210526316","687.8684210526316","black","no","legacy","legacy","legacy","0","uniform","1","undefined","undefined","undefined","1","f","0","0","0","0","37","0","0","0","37","NA","33","37","33","0","33","3","37","0","37","Thu Feb 18 13:15:05 2021","The main experiment item","yes","Lexical_Decision_Task.osexp","C:/Users/Sarah/OneDrive/Documents/Uni/Uni 2/CaL","no","Andale Mono","no","18","no","white","no","yes","576","legacy","33","33","3","C:/Users/Sarah/OneDrive/Documents/Uni/Uni 2/CaL/subject-5212118..csv","legacy","Lentiform Loewenfeld","3.3.7","yes","yes","600bd7cfb6416f0113b04181","602110864497cf011d9c0822","0","f","NA","space","space","space","NA","f","704","NA","1242","7980","2347","NA","704","2","legacy","1024","2","48000","-16","task","5212118","even","NA","24244","27490","26247","89661","5840","16173","13825","90164","NA","89656","90164","89528","27490","90869","22673","86305","5832","88027","Lexical Decision Task","36","26139","38","yes","1024"
"3.274157849","0","8","leet","non-word","94.87179487179488","94.87179487179488","688.3333333333334","688.3333333333334","black","no","legacy","legacy","legacy","0","uniform","1","undefined","undefined","undefined","1","f","0","0","0","0","38","0","0","0","38","NA","34","38","34","0","34","3","38","0","38","Thu Feb 18 13:15:05 2021","The main experiment item","yes","Lexical_Decision_Task.osexp","C:/Users/Sarah/OneDrive/Documents/Uni/Uni 2/CaL","no","Andale Mono","no","18","no","white","no","yes","576","legacy","34","34","3","C:/Users/Sarah/OneDrive/Documents/Uni/Uni 2/CaL/subject-5212118..csv","legacy","Lentiform Loewenfeld","3.3.7","yes","yes","600bd7cfb6416f0113b04181","602110864497cf011d9c0822","0","f","NA","space","space","space","NA","f","706","NA","1242","7980","2347","NA","706","2","legacy","1024","2","48000","-16","task","5212118","even","NA","24244","27490","26247","91509","5840","16173","13825","92012","NA","91505","92012","91376","27490","92719","22673","90876","5832","88027","Lexical Decision Task","37","26845","39","yes","1024"
"3.20871002","7.15","8","cram","word","95","95","690.825","690.825","black","no","legacy","legacy","legacy","0","uniform","1","undefined","undefined","undefined","1","j","0","0","0","0","39","0","0","0","39","NA","35","39","35","0","35","3","39","0","39","Thu Feb 18 13:15:05 2021","The main experiment item","yes","Lexical_Decision_Task.osexp","C:/Users/Sarah/OneDrive/Documents/Uni/Uni 2/CaL","no","Andale Mono","no","18","no","white","no","yes","576","legacy","35","35","3","C:/Users/Sarah/OneDrive/Documents/Uni/Uni 2/CaL/subject-5212118..csv","legacy","Lentiform Loewenfeld","3.3.7","yes","yes","600bd7cfb6416f0113b04181","602110864497cf011d9c0822","0","j","NA","space","space","space","NA","j","788","NA","1242","7980","2347","NA","788","2","legacy","1024","2","48000","-16","task","5212118","even","NA","24244","27490","26247","93363","5840","16173","13825","93866","NA","93360","93866","93226","27490","94655","22673","92725","5832","88027","Lexical Decision Task","38","27633","40","yes","1024"
"3.363486562","6.93","9","lush","word","95.1219512195122","95.1219512195122","693.1951219512196","693.1951219512196","black","no","legacy","legacy","legacy","0","uniform","1","undefined","undefined","undefined","1","j","0","0","0","0","40","0","0","0","40","NA","36","40","36","0","36","3","40","0","40","Thu Feb 18 13:15:05 2021","The main experiment item","yes","Lexical_Decision_Task.osexp","C:/Users/Sarah/OneDrive/Documents/Uni/Uni 2/CaL","no","Andale Mono","no","18","no","white","no","yes","576","legacy","36","36","3","C:/Users/Sarah/OneDrive/Documents/Uni/Uni 2/CaL/subject-5212118..csv","legacy","Lentiform Loewenfeld","3.3.7","yes","yes","600bd7cfb6416f0113b04181","602110864497cf011d9c0822","0","j","NA","space","space","space","NA","j","788","NA","1242","7980","2347","NA","788","2","legacy","1024","2","48000","-16","task","5212118","even","NA","24244","27490","26247","95293","5840","16173","13825","95797","NA","95290","95798","95163","27490","96587","22673","94662","5832","88027","Lexical Decision Task","39","28421","41","yes","1024"
"2.703007489","8.37","3","pulp","word","95.23809523809524","95.23809523809524","692.9285714285714","692.9285714285714","black","no","legacy","legacy","legacy","0","uniform","1","undefined","undefined","undefined","1","j","0","0","0","0","41","0","0","0","41","NA","37","41","37","0","37","3","41","0","41","Thu Feb 18 13:15:05 2021","The main experiment item","yes","Lexical_Decision_Task.osexp","C:/Users/Sarah/OneDrive/Documents/Uni/Uni 2/CaL","no","Andale Mono","no","18","no","white","no","yes","576","legacy","37","37","3","C:/Users/Sarah/OneDrive/Documents/Uni/Uni 2/CaL/subject-5212118..csv","legacy","Lentiform Loewenfeld","3.3.7","yes","yes","600bd7cfb6416f0113b04181","602110864497cf011d9c0822","0","j","NA","space","space","space","NA","j","682","NA","1242","7980","2347","NA","682","2","legacy","1024","2","48000","-16","task","5212118","even","NA","24244","27490","26247","97233","5840","16173","13825","97736","NA","97229","97736","97094","27490","98419","22673","96594","5832","88027","Lexical Decision Task","40","29103","42","yes","1024"
"2.966923697","5.4","2","fume","word","93.02325581395348","93.02325581395348","696.1627906976744","696.1627906976744","black","no","legacy","legacy","legacy","0","uniform","0","undefined","undefined","undefined","0","j","0","0","0","0","42","0","0","0","42","NA","38","42","38","0","38","3","42","0","42","Thu Feb 18 13:15:05 2021","The main experiment item","yes","Lexical_Decision_Task.osexp","C:/Users/Sarah/OneDrive/Documents/Uni/Uni 2/CaL","no","Andale Mono","no","18","no","white","no","yes","576","legacy","38","38","3","C:/Users/Sarah/OneDrive/Documents/Uni/Uni 2/CaL/subject-5212118..csv","legacy","Lentiform Loewenfeld","3.3.7","yes","yes","600bd7cfb6416f0113b04181","602110864497cf011d9c0822","0","f","NA","space","space","space","NA","f","832","NA","1242","7980","2347","NA","832","2","legacy","1024","2","48000","-16","task","5212118","even","NA","24244","27490","26247","99063","5840","16173","13825","99567","NA","99060","99567","98926","27490","100401","22673","98426","5832","88027","Lexical Decision Task","40","29935","43","yes","1024"
"3.068433376","8.09","2","bulb","word","93.18181818181819","93.18181818181819","691.8181818181819","691.8181818181819","black","no","legacy","legacy","legacy","0","uniform","1","undefined","undefined","undefined","1","j","0","0","0","0","43","0","0","0","43","NA","39","43","39","0","39","3","43","0","43","Thu Feb 18 13:15:05 2021","The main experiment item","yes","Lexical_Decision_Task.osexp","C:/Users/Sarah/OneDrive/Documents/Uni/Uni 2/CaL","no","Andale Mono","no","18","no","white","no","yes","576","legacy","39","39","3","C:/Users/Sarah/OneDrive/Documents/Uni/Uni 2/CaL/subject-5212118..csv","legacy","Lentiform Loewenfeld","3.3.7","yes","yes","600bd7cfb6416f0113b04181","602110864497cf011d9c0822","0","j","NA","space","space","space","NA","j","505","NA","1242","7980","2347","NA","505","2","legacy","1024","2","48000","-16","task","5212118","even","NA","24244","27490","26247","102040","5840","16173","13825","102543","NA","102036","102543","101909","27490","103050","22673","98426","5832","100409","Lexical Decision Task","41","30440","44","yes","1024"
"2.839268497","0","8","maft","non-word","93.33333333333333","93.33333333333333","702.4666666666667","702.4666666666667","black","no","legacy","legacy","legacy","0","uniform","1","undefined","undefined","undefined","1","f","0","0","0","0","44","0","0","0","44","NA","40","44","40","0","40","3","44","0","44","Thu Feb 18 13:15:05 2021","The main experiment item","yes","Lexical_Decision_Task.osexp","C:/Users/Sarah/OneDrive/Documents/Uni/Uni 2/CaL","no","Andale Mono","no","18","no","white","no","yes","576","legacy","40","40","3","C:/Users/Sarah/OneDrive/Documents/Uni/Uni 2/CaL/subject-5212118..csv","legacy","Lentiform Loewenfeld","3.3.7","yes","yes","600bd7cfb6416f0113b04181","602110864497cf011d9c0822","0","f","NA","space","space","space","NA","f","1171","NA","1242","7980","2347","NA","1171","2","legacy","1024","2","48000","-16","task","5212118","even","NA","24244","27490","26247","103705","5840","16173","13825","104211","NA","103702","104211","103556","27490","105383","22673","103056","5832","100409","Lexical Decision Task","42","31611","45","yes","1024"
"2.8162413","0","5","nusk","non-word","93.47826086956522","93.47826086956522","704.6304347826087","704.6304347826087","black","no","legacy","legacy","legacy","0","uniform","1","undefined","undefined","undefined","1","f","0","0","0","0","45","0","0","0","45","NA","41","45","41","0","41","3","45","0","45","Thu Feb 18 13:15:05 2021","The main experiment item","yes","Lexical_Decision_Task.osexp","C:/Users/Sarah/OneDrive/Documents/Uni/Uni 2/CaL","no","Andale Mono","no","18","no","white","no","yes","576","legacy","41","41","3","C:/Users/Sarah/OneDrive/Documents/Uni/Uni 2/CaL/subject-5212118..csv","legacy","Lentiform Loewenfeld","3.3.7","yes","yes","600bd7cfb6416f0113b04181","602110864497cf011d9c0822","0","f","NA","space","space","space","NA","f","802","NA","1242","7980","2347","NA","802","2","legacy","1024","2","48000","-16","task","5212118","even","NA","24244","27490","26247","106025","5840","16173","13825","106528","NA","106022","106529","105890","27490","107332","22673","105390","5832","100409","Lexical Decision Task","43","32413","46","yes","1024"
"3.208172527","10.27","7","deck","word","93.61702127659575","93.61702127659575","703.468085106383","703.468085106383","black","no","legacy","legacy","legacy","0","uniform","1","undefined","undefined","undefined","1","j","0","0","0","0","46","0","0","0","46","NA","42","46","42","0","42","3","46","0","46","Thu Feb 18 13:15:05 2021","The main experiment item","yes","Lexical_Decision_Task.osexp","C:/Users/Sarah/OneDrive/Documents/Uni/Uni 2/CaL","no","Andale Mono","no","18","no","white","no","yes","576","legacy","42","42","3","C:/Users/Sarah/OneDrive/Documents/Uni/Uni 2/CaL/subject-5212118..csv","legacy","Lentiform Loewenfeld","3.3.7","yes","yes","600bd7cfb6416f0113b04181","602110864497cf011d9c0822","0","j","NA","space","space","space","NA","j","650","NA","1242","7980","2347","NA","650","2","legacy","1024","2","48000","-16","task","5212118","even","NA","24244","27490","26247","107986","5840","16173","13825","108490","NA","107982","108490","107839","27490","109142","22673","107339","5832","100409","Lexical Decision Task","44","33063","47","yes","1024"
"2.980911938","7.15","7","hoop","word","93.75","93.75","701.3333333333334","701.3333333333334","black","no","legacy","legacy","legacy","0","uniform","1","undefined","undefined","undefined","1","j","0","0","0","0","47","0","0","0","47","NA","43","47","43","0","43","3","47","0","47","Thu Feb 18 13:15:05 2021","The main experiment item","yes","Lexical_Decision_Task.osexp","C:/Users/Sarah/OneDrive/Documents/Uni/Uni 2/CaL","no","Andale Mono","no","18","no","white","no","yes","576","legacy","43","43","3","C:/Users/Sarah/OneDrive/Documents/Uni/Uni 2/CaL/subject-5212118..csv","legacy","Lentiform Loewenfeld","3.3.7","yes","yes","600bd7cfb6416f0113b04181","602110864497cf011d9c0822","0","j","NA","space","space","space","NA","j","601","NA","1242","7980","2347","NA","601","2","legacy","1024","2","48000","-16","task","5212118","even","NA","24244","27490","26247","109781","5840","16173","13825","110284","NA","109777","110284","109649","27490","110886","22673","109149","5832","100409","Lexical Decision Task","45","33664","48","yes","1024"
"3.276537627","9.15","5","trap","word","93.87755102040816","93.87755102040816","698.5510204081633","698.5510204081633","black","no","legacy","legacy","legacy","0","uniform","1","undefined","undefined","undefined","1","j","0","0","0","0","48","0","0","0","48","NA","44","48","44","0","44","3","48","0","48","Thu Feb 18 13:15:05 2021","The main experiment item","yes","Lexical_Decision_Task.osexp","C:/Users/Sarah/OneDrive/Documents/Uni/Uni 2/CaL","no","Andale Mono","no","18","no","white","no","yes","576","legacy","44","44","3","C:/Users/Sarah/OneDrive/Documents/Uni/Uni 2/CaL/subject-5212118..csv","legacy","Lentiform Loewenfeld","3.3.7","yes","yes","600bd7cfb6416f0113b04181","602110864497cf011d9c0822","0","j","NA","space","space","space","NA","j","565","NA","1242","7980","2347","NA","565","2","legacy","1024","2","48000","-16","task","5212118","even","NA","24244","27490","26247","111528","5840","16173","13825","112031","NA","111524","112031","111393","27490","112598","22673","110893","5832","100409","Lexical Decision Task","46","34229","49","yes","1024"
"2.6599162","0","6","flug","non-word","94","94","699.7","699.7","black","no","legacy","legacy","legacy","0","uniform","1","undefined","undefined","undefined","1","f","0","0","0","0","49","0","0","0","49","NA","45","49","45","0","45","3","49","0","49","Thu Feb 18 13:15:05 2021","The main experiment item","yes","Lexical_Decision_Task.osexp","C:/Users/Sarah/OneDrive/Documents/Uni/Uni 2/CaL","no","Andale Mono","no","18","no","white","no","yes","576","legacy","45","45","3","C:/Users/Sarah/OneDrive/Documents/Uni/Uni 2/CaL/subject-5212118..csv","legacy","Lentiform Loewenfeld","3.3.7","yes","yes","600bd7cfb6416f0113b04181","602110864497cf011d9c0822","0","f","NA","space","space","space","NA","f","756","NA","1242","7980","2347","NA","756","2","legacy","1024","2","48000","-16","task","5212118","even","NA","24244","27490","26247","113244","5840","16173","13825","113748","NA","113241","113748","113105","27490","114505","22673","112605","5832","100409","Lexical Decision Task","47","34985","50","yes","1024"
"2.895974732","6.65","5","sift","word","92.15686274509804","92.15686274509804","698.6666666666666","698.6666666666666","black","no","legacy","legacy","legacy","0","uniform","0","undefined","undefined","undefined","0","j","0","0","0","0","50","0","0","0","50","NA","46","50","46","0","46","3","50","0","50","Thu Feb 18 13:15:05 2021","The main experiment item","yes","Lexical_Decision_Task.osexp","C:/Users/Sarah/OneDrive/Documents/Uni/Uni 2/CaL","no","Andale Mono","no","18","no","white","no","yes","576","legacy","46","46","3","C:/Users/Sarah/OneDrive/Documents/Uni/Uni 2/CaL/subject-5212118..csv","legacy","Lentiform Loewenfeld","3.3.7","yes","yes","600bd7cfb6416f0113b04181","602110864497cf011d9c0822","0","f","NA","space","space","space","NA","f","647","NA","1242","7980","2347","NA","647","2","legacy","1024","2","48000","-16","task","5212118","even","NA","24244","27490","26247","115154","5840","16173","13825","115659","NA","115151","115660","115013","27490","116309","22673","114512","5832","100409","Lexical Decision Task","47","35632","51","yes","1024"
"3.153104174","10.89","6","door","word","92.3076923076923","92.3076923076923","694.2884615384615","694.2884615384615","black","no","legacy","legacy","legacy","0","uniform","1","undefined","undefined","undefined","1","j","0","0","0","0","51","0","0","0","51","NA","47","51","47","0","47","3","51","0","51","Thu Feb 18 13:15:05 2021","The main experiment item","yes","Lexical_Decision_Task.osexp","C:/Users/Sarah/OneDrive/Documents/Uni/Uni 2/CaL","no","Andale Mono","no","18","no","white","no","yes","576","legacy","47","47","3","C:/Users/Sarah/OneDrive/Documents/Uni/Uni 2/CaL/subject-5212118..csv","legacy","Lentiform Loewenfeld","3.3.7","yes","yes","600bd7cfb6416f0113b04181","602110864497cf011d9c0822","0","j","NA","space","space","space","NA","j","471","NA","1242","7980","2347","NA","471","2","legacy","1024","2","48000","-16","task","5212118","even","NA","24244","27490","26247","117955","5840","16173","13825","118458","NA","117951","118458","117816","27490","118931","22673","114512","5832","116315","Lexical Decision Task","48","36103","52","yes","1024"
"3.031812271","6.52","3","gulp","word","92.45283018867924","92.45283018867924","696.5094339622641","696.5094339622641","black","no","legacy","legacy","legacy","0","uniform","1","undefined","undefined","undefined","1","j","0","0","0","0","52","0","0","0","52","NA","48","52","48","0","48","3","52","0","52","Thu Feb 18 13:15:05 2021","The main experiment item","yes","Lexical_Decision_Task.osexp","C:/Users/Sarah/OneDrive/Documents/Uni/Uni 2/CaL","no","Andale Mono","no","18","no","white","no","yes","576","legacy","48","48","3","C:/Users/Sarah/OneDrive/Documents/Uni/Uni 2/CaL/subject-5212118..csv","legacy","Lentiform Loewenfeld","3.3.7","yes","yes","600bd7cfb6416f0113b04181","602110864497cf011d9c0822","0","j","NA","space","space","space","NA","j","812","NA","1242","7980","2347","NA","812","2","legacy","1024","2","48000","-16","task","5212118","even","NA","24244","27490","26247","119569","5840","16173","13825","120072","NA","119565","120072","119437","27490","120885","22673","118937","5832","116315","Lexical Decision Task","49","36915","53","yes","1024"
"3.257359335","8","6","brew","word","92.5925925925926","92.5925925925926","694.5370370370371","694.5370370370371","black","no","legacy","legacy","legacy","0","uniform","1","undefined","undefined","undefined","1","j","0","0","0","0","53","0","0","0","53","NA","49","53","49","0","49","3","53","0","53","Thu Feb 18 13:15:05 2021","The main experiment item","yes","Lexical_Decision_Task.osexp","C:/Users/Sarah/OneDrive/Documents/Uni/Uni 2/CaL","no","Andale Mono","no","18","no","white","no","yes","576","legacy","49","49","3","C:/Users/Sarah/OneDrive/Documents/Uni/Uni 2/CaL/subject-5212118..csv","legacy","Lentiform Loewenfeld","3.3.7","yes","yes","600bd7cfb6416f0113b04181","602110864497cf011d9c0822","0","j","NA","space","space","space","NA","j","590","NA","1242","7980","2347","NA","590","2","legacy","1024","2","48000","-16","task","5212118","even","NA","24244","27490","26247","121526","5840","16173","13825","122029","NA","121522","122030","121392","27490","122621","22673","120892","5832","116315","Lexical Decision Task","50","37505","54","yes","1024"
"3.066077331","0","7","vorn","non-word","92.72727272727273","92.72727272727273","699.9454545454546","699.9454545454546","black","no","legacy","legacy","legacy","0","uniform","1","undefined","undefined","undefined","1","f","0","0","0","0","54","0","0","0","54","0","50","54","50","0","50","3","54","0","54","Thu Feb 18 13:15:05 2021","The main experiment item","yes","Lexical_Decision_Task.osexp","C:/Users/Sarah/OneDrive/Documents/Uni/Uni 2/CaL","no","Andale Mono","no","18","no","white","no","yes","576","legacy","50","50","3","C:/Users/Sarah/OneDrive/Documents/Uni/Uni 2/CaL/subject-5212118..csv","legacy","Lentiform Loewenfeld","3.3.7","yes","yes","600bd7cfb6416f0113b04181","602110864497cf011d9c0822","0","f","NA","space","space","space","space","f","992","NA","1242","7980","2347","3902","992","2","legacy","1024","2","48000","-16","task","5212118","even","NA","24244","27490","26247","127235","5840","16173","13825","127743","123202","127232","127744","123128","27490","128737","22673","122628","5832","116315","Lexical Decision Task","51","38497","55","yes","1024"
"3.374137706","10.21","4","tree","word","92.85714285714286","92.85714285714286","700.2142857142857","700.2142857142857","black","no","legacy","legacy","legacy","0","uniform","1","undefined","undefined","undefined","1","j","0","0","0","0","55","0","0","0","55","0","51","55","51","0","51","3","55","0","55","Thu Feb 18 13:15:05 2021","The main experiment item","yes","Lexical_Decision_Task.osexp","C:/Users/Sarah/OneDrive/Documents/Uni/Uni 2/CaL","no","Andale Mono","no","18","no","white","no","yes","576","legacy","51","51","3","C:/Users/Sarah/OneDrive/Documents/Uni/Uni 2/CaL/subject-5212118..csv","legacy","Lentiform Loewenfeld","3.3.7","yes","yes","600bd7cfb6416f0113b04181","602110864497cf011d9c0822","0","j","NA","space","space","space","space","j","715","NA","1242","7980","2347","3902","715","2","legacy","1024","2","48000","-16","task","5212118","even","NA","24244","27490","26247","129377","5840","16173","13825","129880","123202","129374","129880","129246","27490","130598","22673","128745","5832","116315","Lexical Decision Task","52","39212","56","yes","1024"
"3.062080345","0","6","tomp","non-word","92.98245614035088","92.98245614035088","699.8070175438596","699.8070175438596","black","no","legacy","legacy","legacy","0","uniform","1","undefined","undefined","undefined","1","f","0","0","0","0","56","0","0","0","56","0","52","56","52","0","52","3","56","0","56","Thu Feb 18 13:15:05 2021","The main experiment item","yes","Lexical_Decision_Task.osexp","C:/Users/Sarah/OneDrive/Documents/Uni/Uni 2/CaL","no","Andale Mono","no","18","no","white","no","yes","576","legacy","52","52","3","C:/Users/Sarah/OneDrive/Documents/Uni/Uni 2/CaL/subject-5212118..csv","legacy","Lentiform Loewenfeld","3.3.7","yes","yes","600bd7cfb6416f0113b04181","602110864497cf011d9c0822","0","f","NA","space","space","space","space","f","677","NA","1242","7980","2347","3902","677","2","legacy","1024","2","48000","-16","task","5212118","even","NA","24244","27490","26247","131235","5840","16173","13825","131741","123202","131231","131741","131105","27490","132420","22673","130604","5832","116315","Lexical Decision Task","53","39889","57","yes","1024"
"2.6599162","0","2","saff","non-word","93.10344827586206","93.10344827586206","703.5689655172414","703.5689655172414","black","no","legacy","legacy","legacy","0","uniform","1","undefined","undefined","undefined","1","f","0","0","0","0","57","0","0","0","57","0","53","57","53","0","53","3","57","0","57","Thu Feb 18 13:15:05 2021","The main experiment item","yes","Lexical_Decision_Task.osexp","C:/Users/Sarah/OneDrive/Documents/Uni/Uni 2/CaL","no","Andale Mono","no","18","no","white","no","yes","576","legacy","53","53","3","C:/Users/Sarah/OneDrive/Documents/Uni/Uni 2/CaL/subject-5212118..csv","legacy","Lentiform Loewenfeld","3.3.7","yes","yes","600bd7cfb6416f0113b04181","602110864497cf011d9c0822","0","f","NA","space","space","space","space","f","918","NA","1242","7980","2347","3902","918","2","legacy","1024","2","48000","-16","task","5212118","even","NA","24244","27490","26247","133067","5840","16173","13825","133570","123202","133064","133570","132927","27490","134489","22673","132426","5832","116315","Lexical Decision Task","54","40807","58","yes","1024"
"2.803231716","5.26","3","kiln","word","91.52542372881356","91.52542372881356","702.9322033898305","702.9322033898305","black","no","legacy","legacy","legacy","0","uniform","0","undefined","undefined","undefined","0","j","0","0","0","0","58","0","0","0","58","0","54","58","54","0","54","3","58","0","58","Thu Feb 18 13:15:05 2021","The main experiment item","yes","Lexical_Decision_Task.osexp","C:/Users/Sarah/OneDrive/Documents/Uni/Uni 2/CaL","no","Andale Mono","no","18","no","white","no","yes","576","legacy","54","54","3","C:/Users/Sarah/OneDrive/Documents/Uni/Uni 2/CaL/subject-5212118..csv","legacy","Lentiform Loewenfeld","3.3.7","yes","yes","600bd7cfb6416f0113b04181","602110864497cf011d9c0822","0","f","NA","space","space","space","space","f","666","NA","1242","7980","2347","3902","666","2","legacy","1024","2","48000","-16","task","5212118","even","NA","24244","27490","26247","135138","5840","16173","13825","135642","123202","135135","135642","134997","27490","136310","22673","134496","5832","116315","Lexical Decision Task","54","41473","59","yes","1024"
"3.145920145","8.51","8","flew","word","91.66666666666667","91.66666666666667","700.7833333333333","700.7833333333333","black","no","legacy","legacy","legacy","0","uniform","1","undefined","undefined","undefined","1","j","0","0","0","0","59","0","0","0","59","0","55","59","55","0","55","3","59","0","59","Thu Feb 18 13:15:05 2021","The main experiment item","yes","Lexical_Decision_Task.osexp","C:/Users/Sarah/OneDrive/Documents/Uni/Uni 2/CaL","no","Andale Mono","no","18","no","white","no","yes","576","legacy","55","55","3","C:/Users/Sarah/OneDrive/Documents/Uni/Uni 2/CaL/subject-5212118..csv","legacy","Lentiform Loewenfeld","3.3.7","yes","yes","600bd7cfb6416f0113b04181","602110864497cf011d9c0822","0","j","NA","space","space","space","space","j","574","NA","1242","7980","2347","3902","574","2","legacy","1024","2","48000","-16","task","5212118","even","NA","24244","27490","26247","137946","5840","16173","13825","138449","123202","137943","138449","137816","27490","139025","22673","134496","5832","136316","Lexical Decision Task","55","42047","60","yes","1024"
"2.814027728","8.2","4","foam","word","91.80327868852459","91.80327868852459","700.7049180327868","700.7049180327868","black","no","legacy","legacy","legacy","0","uniform","1","undefined","undefined","undefined","1","j","0","0","0","0","60","0","0","0","60","0","56","60","56","0","56","3","60","0","60","Thu Feb 18 13:15:05 2021","The main experiment item","yes","Lexical_Decision_Task.osexp","C:/Users/Sarah/OneDrive/Documents/Uni/Uni 2/CaL","no","Andale Mono","no","18","no","white","no","yes","576","legacy","56","56","3","C:/Users/Sarah/OneDrive/Documents/Uni/Uni 2/CaL/subject-5212118..csv","legacy","Lentiform Loewenfeld","3.3.7","yes","yes","600bd7cfb6416f0113b04181","602110864497cf011d9c0822","0","j","NA","space","space","space","space","j","696","NA","1242","7980","2347","3902","696","2","legacy","1024","2","48000","-16","task","5212118","even","NA","24244","27490","26247","139666","5840","16173","13825","140170","123202","139663","140170","139534","27490","140867","22673","139034","5832","136316","Lexical Decision Task","56","42743","61","yes","1024"
"2.843025032","0","9","pusk","non-word","91.93548387096774","91.93548387096774","702.1129032258065","702.1129032258065","black","no","legacy","legacy","legacy","0","uniform","1","undefined","undefined","undefined","1","f","0","0","0","0","61","0","0","0","61","0","57","61","57","0","57","3","61","0","61","Thu Feb 18 13:15:05 2021","The main experiment item","yes","Lexical_Decision_Task.osexp","C:/Users/Sarah/OneDrive/Documents/Uni/Uni 2/CaL","no","Andale Mono","no","18","no","white","no","yes","576","legacy","57","57","3","C:/Users/Sarah/OneDrive/Documents/Uni/Uni 2/CaL/subject-5212118..csv","legacy","Lentiform Loewenfeld","3.3.7","yes","yes","600bd7cfb6416f0113b04181","602110864497cf011d9c0822","0","f","NA","space","space","space","space","f","788","NA","1242","7980","2347","3902","788","2","legacy","1024","2","48000","-16","task","5212118","even","NA","24244","27490","26247","141513","5840","16173","13825","142016","123202","141510","142016","141374","27490","142806","22673","140874","5832","136316","Lexical Decision Task","57","43531","62","yes","1024"
"3.269668578","0","7","trag","non-word","92.06349206349206","92.06349206349206","708.3650793650794","708.3650793650794","black","no","legacy","legacy","legacy","0","uniform","1","undefined","undefined","undefined","1","f","0","0","0","0","62","0","0","0","62","0","58","62","58","0","58","3","62","0","62","Thu Feb 18 13:15:05 2021","The main experiment item","yes","Lexical_Decision_Task.osexp","C:/Users/Sarah/OneDrive/Documents/Uni/Uni 2/CaL","no","Andale Mono","no","18","no","white","no","yes","576","legacy","58","58","3","C:/Users/Sarah/OneDrive/Documents/Uni/Uni 2/CaL/subject-5212118..csv","legacy","Lentiform Loewenfeld","3.3.7","yes","yes","600bd7cfb6416f0113b04181","602110864497cf011d9c0822","0","f","NA","space","space","space","space","f","1096","NA","1242","7980","2347","3902","1096","2","legacy","1024","2","48000","-16","task","5212118","even","NA","24244","27490","26247","143448","5840","16173","13825","143951","123202","143444","143951","143313","27490","145049","22673","142813","5832","136316","Lexical Decision Task","58","44627","63","yes","1024"
"3.495914186","0","4","peng","non-word","90.625","90.625","706.0625","706.0625","black","no","legacy","legacy","legacy","0","uniform","0","undefined","undefined","undefined","0","f","0","0","0","0","63","0","0","0","63","0","59","63","59","0","59","3","63","0","63","Thu Feb 18 13:15:05 2021","The main experiment item","yes","Lexical_Decision_Task.osexp","C:/Users/Sarah/OneDrive/Documents/Uni/Uni 2/CaL","no","Andale Mono","no","18","no","white","no","yes","576","legacy","59","59","3","C:/Users/Sarah/OneDrive/Documents/Uni/Uni 2/CaL/subject-5212118..csv","legacy","Lentiform Loewenfeld","3.3.7","yes","yes","600bd7cfb6416f0113b04181","602110864497cf011d9c0822","0","j","NA","space","space","space","space","j","561","NA","1242","7980","2347","3902","561","2","legacy","1024","2","48000","-16","task","5212118","even","NA","24244","27490","26247","145689","5840","16173","13825","146192","123202","145685","146192","145556","27490","146755","22673","145056","5832","136316","Lexical Decision Task","58","45188","64","yes","1024"
"2.693726949","5.08","3","swig","word","90.76923076923077","90.76923076923077","709.2923076923076","709.2923076923076","black","no","legacy","legacy","legacy","0","uniform","1","undefined","undefined","undefined","1","j","0","0","0","0","64","0","0","0","64","0","60","64","60","0","60","3","64","0","64","Thu Feb 18 13:15:05 2021","The main experiment item","yes","Lexical_Decision_Task.osexp","C:/Users/Sarah/OneDrive/Documents/Uni/Uni 2/CaL","no","Andale Mono","no","18","no","white","no","yes","576","legacy","60","60","3","C:/Users/Sarah/OneDrive/Documents/Uni/Uni 2/CaL/subject-5212118..csv","legacy","Lentiform Loewenfeld","3.3.7","yes","yes","600bd7cfb6416f0113b04181","602110864497cf011d9c0822","0","j","NA","space","space","space","space","j","916","NA","1242","7980","2347","3902","916","2","legacy","1024","2","48000","-16","task","5212118","even","NA","24244","27490","26247","148400","5840","16173","13825","148906","123202","148396","148906","148268","27490","149824","22673","145056","5832","146768","Lexical Decision Task","59","46104","65","yes","1024"
"3.165936429","0","7","leps","non-word","90.9090909090909","90.9090909090909","710.8939393939394","710.8939393939394","black","no","legacy","legacy","legacy","0","uniform","1","undefined","undefined","undefined","1","f","0","0","0","0","65","0","0","0","65","0","61","65","61","0","61","3","65","0","65","Thu Feb 18 13:15:05 2021","The main experiment item","yes","Lexical_Decision_Task.osexp","C:/Users/Sarah/OneDrive/Documents/Uni/Uni 2/CaL","no","Andale Mono","no","18","no","white","no","yes","576","legacy","61","61","3","C:/Users/Sarah/OneDrive/Documents/Uni/Uni 2/CaL/subject-5212118..csv","legacy","Lentiform Loewenfeld","3.3.7","yes","yes","600bd7cfb6416f0113b04181","602110864497cf011d9c0822","0","f","NA","space","space","space","space","f","815","NA","1242","7980","2347","3902","815","2","legacy","1024","2","48000","-16","task","5212118","even","NA","24244","27490","26247","150466","5840","16173","13825","150971","123202","150463","150972","150331","27490","151789","22673","149830","5832","146768","Lexical Decision Task","60","46919","66","yes","1024"
"3.039414119","0","9","meep","non-word","91.04477611940298","91.04477611940298","714.5223880597015","714.5223880597015","black","no","legacy","legacy","legacy","0","uniform","1","undefined","undefined","undefined","1","f","0","0","0","0","66","0","0","0","66","0","62","66","62","0","62","3","66","0","66","Thu Feb 18 13:15:05 2021","The main experiment item","yes","Lexical_Decision_Task.osexp","C:/Users/Sarah/OneDrive/Documents/Uni/Uni 2/CaL","no","Andale Mono","no","18","no","white","no","yes","576","legacy","62","62","3","C:/Users/Sarah/OneDrive/Documents/Uni/Uni 2/CaL/subject-5212118..csv","legacy","Lentiform Loewenfeld","3.3.7","yes","yes","600bd7cfb6416f0113b04181","602110864497cf011d9c0822","0","f","NA","space","space","space","space","f","954","NA","1242","7980","2347","3902","954","2","legacy","1024","2","48000","-16","task","5212118","even","NA","24244","27490","26247","152431","5840","16173","13825","152936","123202","152426","152936","152295","27490","153891","22673","151795","5832","146768","Lexical Decision Task","61","47873","67","yes","1024"
"3.168400243","9.12","6","horn","word","91.17647058823529","91.17647058823529","712.7205882352941","712.7205882352941","black","no","legacy","legacy","legacy","0","uniform","1","undefined","undefined","undefined","1","j","0","0","0","0","67","0","0","0","67","0","63","67","63","0","63","3","67","0","67","Thu Feb 18 13:15:05 2021","The main experiment item","yes","Lexical_Decision_Task.osexp","C:/Users/Sarah/OneDrive/Documents/Uni/Uni 2/CaL","no","Andale Mono","no","18","no","white","no","yes","576","legacy","63","63","3","C:/Users/Sarah/OneDrive/Documents/Uni/Uni 2/CaL/subject-5212118..csv","legacy","Lentiform Loewenfeld","3.3.7","yes","yes","600bd7cfb6416f0113b04181","602110864497cf011d9c0822","0","j","NA","space","space","space","space","j","592","NA","1242","7980","2347","3902","592","2","legacy","1024","2","48000","-16","task","5212118","even","NA","24244","27490","26247","154530","5840","16173","13825","155033","123202","154526","155033","154398","27490","155627","22673","153898","5832","146768","Lexical Decision Task","62","48465","68","yes","1024"
"3.225825991","0","7","talm","non-word","91.30434782608695","91.30434782608695","711.5217391304348","711.5217391304348","black","no","legacy","legacy","legacy","0","uniform","1","undefined","undefined","undefined","1","f","0","0","0","0","68","0","0","0","68","0","64","68","64","0","64","3","68","0","68","Thu Feb 18 13:15:05 2021","The main experiment item","yes","Lexical_Decision_Task.osexp","C:/Users/Sarah/OneDrive/Documents/Uni/Uni 2/CaL","no","Andale Mono","no","18","no","white","no","yes","576","legacy","64","64","3","C:/Users/Sarah/OneDrive/Documents/Uni/Uni 2/CaL/subject-5212118..csv","legacy","Lentiform Loewenfeld","3.3.7","yes","yes","600bd7cfb6416f0113b04181","602110864497cf011d9c0822","0","f","NA","space","space","space","space","f","630","NA","1242","7980","2347","3902","630","2","legacy","1024","2","48000","-16","task","5212118","even","NA","24244","27490","26247","156267","5840","16173","13825","156772","123202","156263","156772","156135","27490","157404","22673","155634","5832","146768","Lexical Decision Task","63","49095","69","yes","1024"
"3.082307743","9.68","8","camp","word","91.42857142857143","91.42857142857143","710.6428571428571","710.6428571428571","black","no","legacy","legacy","legacy","0","uniform","1","undefined","undefined","undefined","1","j","0","0","0","0","69","0","0","0","69","0","65","69","65","0","65","3","69","0","69","Thu Feb 18 13:15:05 2021","The main experiment item","yes","Lexical_Decision_Task.osexp","C:/Users/Sarah/OneDrive/Documents/Uni/Uni 2/CaL","no","Andale Mono","no","18","no","white","no","yes","576","legacy","65","65","3","C:/Users/Sarah/OneDrive/Documents/Uni/Uni 2/CaL/subject-5212118..csv","legacy","Lentiform Loewenfeld","3.3.7","yes","yes","600bd7cfb6416f0113b04181","602110864497cf011d9c0822","0","j","NA","space","space","space","space","j","650","NA","1242","7980","2347","3902","650","2","legacy","1024","2","48000","-16","task","5212118","even","NA","24244","27490","26247","158043","5840","16173","13825","158546","123202","158039","158546","157911","27490","159198","22673","157410","5832","146768","Lexical Decision Task","64","49745","70","yes","1024"
"3.29439347","8.6","9","wand","word","91.54929577464789","91.54929577464789","711.943661971831","711.943661971831","black","no","legacy","legacy","legacy","0","uniform","1","undefined","undefined","undefined","1","j","0","0","0","0","70","0","0","0","70","0","66","70","66","0","66","3","70","0","70","Thu Feb 18 13:15:05 2021","The main experiment item","yes","Lexical_Decision_Task.osexp","C:/Users/Sarah/OneDrive/Documents/Uni/Uni 2/CaL","no","Andale Mono","no","18","no","white","no","yes","576","legacy","66","66","3","C:/Users/Sarah/OneDrive/Documents/Uni/Uni 2/CaL/subject-5212118..csv","legacy","Lentiform Loewenfeld","3.3.7","yes","yes","600bd7cfb6416f0113b04181","602110864497cf011d9c0822","0","j","NA","space","space","space","space","j","803","NA","1242","7980","2347","3902","803","2","legacy","1024","2","48000","-16","task","5212118","even","NA","24244","27490","26247","159840","5840","16173","13825","160343","123202","159837","160343","159705","27490","161148","22673","159204","5832","146768","Lexical Decision Task","65","50548","71","yes","1024"
"3.031408464","0","7","drow","non-word","91.66666666666667","91.66666666666667","714.8472222222222","714.8472222222222","black","no","legacy","legacy","legacy","0","uniform","1","undefined","undefined","undefined","1","f","0","0","0","0","71","0","0","0","71","0","67","71","67","0","67","3","71","0","71","Thu Feb 18 13:15:05 2021","The main experiment item","yes","Lexical_Decision_Task.osexp","C:/Users/Sarah/OneDrive/Documents/Uni/Uni 2/CaL","no","Andale Mono","no","18","no","white","no","yes","576","legacy","67","67","3","C:/Users/Sarah/OneDrive/Documents/Uni/Uni 2/CaL/subject-5212118..csv","legacy","Lentiform Loewenfeld","3.3.7","yes","yes","600bd7cfb6416f0113b04181","602110864497cf011d9c0822","0","f","NA","space","space","space","space","f","921","NA","1242","7980","2347","3902","921","2","legacy","1024","2","48000","-16","task","5212118","even","NA","24244","27490","26247","161789","5840","16173","13825","162292","123202","161784","162292","161655","27490","163215","22673","161154","5832","146768","Lexical Decision Task","66","51469","72","yes","1024"
"2.782472624","10.55","2","huge","word","91.78082191780823","91.78082191780823","714.6712328767123","714.6712328767123","black","no","legacy","legacy","legacy","0","uniform","1","undefined","undefined","undefined","1","j","0","0","0","0","72","0","0","0","72","0","68","72","68","0","68","3","72","0","72","Thu Feb 18 13:15:05 2021","The main experiment item","yes","Lexical_Decision_Task.osexp","C:/Users/Sarah/OneDrive/Documents/Uni/Uni 2/CaL","no","Andale Mono","no","18","no","white","no","yes","576","legacy","68","68","3","C:/Users/Sarah/OneDrive/Documents/Uni/Uni 2/CaL/subject-5212118..csv","legacy","Lentiform Loewenfeld","3.3.7","yes","yes","600bd7cfb6416f0113b04181","602110864497cf011d9c0822","0","j","NA","space","space","space","space","j","702","NA","1242","7980","2347","3902","702","2","legacy","1024","2","48000","-16","task","5212118","even","NA","24244","27490","26247","163853","5840","16173","13825","164359","123202","163850","164359","163721","27490","165063","22673","163221","5832","146768","Lexical Decision Task","67","52171","73","yes","1024"
"3.299579929","0","2","flis","non-word","91.89189189189189","91.89189189189189","712.6216216216217","712.6216216216217","black","no","legacy","legacy","legacy","0","uniform","1","undefined","undefined","undefined","1","f","0","0","0","0","73","0","0","0","73","0","69","73","69","0","69","3","73","0","73","Thu Feb 18 13:15:05 2021","The main experiment item","yes","Lexical_Decision_Task.osexp","C:/Users/Sarah/OneDrive/Documents/Uni/Uni 2/CaL","no","Andale Mono","no","18","no","white","no","yes","576","legacy","69","69","3","C:/Users/Sarah/OneDrive/Documents/Uni/Uni 2/CaL/subject-5212118..csv","legacy","Lentiform Loewenfeld","3.3.7","yes","yes","600bd7cfb6416f0113b04181","602110864497cf011d9c0822","0","f","NA","space","space","space","space","f","563","NA","1242","7980","2347","3902","563","2","legacy","1024","2","48000","-16","task","5212118","even","NA","24244","27490","26247","165704","5840","16173","13825","166210","123202","165700","166211","165570","27490","166775","22673","165070","5832","146768","Lexical Decision Task","68","52734","74","yes","1024"
"2.80048796","0","8","pife","non-word","92","92","714.68","714.68","black","no","legacy","legacy","legacy","0","uniform","1","undefined","undefined","undefined","1","f","0","0","0","0","74","0","0","0","74","0","70","74","70","0","70","3","74","0","74","Thu Feb 18 13:15:05 2021","The main experiment item","yes","Lexical_Decision_Task.osexp","C:/Users/Sarah/OneDrive/Documents/Uni/Uni 2/CaL","no","Andale Mono","no","18","no","white","no","yes","576","legacy","70","70","3","C:/Users/Sarah/OneDrive/Documents/Uni/Uni 2/CaL/subject-5212118..csv","legacy","Lentiform Loewenfeld","3.3.7","yes","yes","600bd7cfb6416f0113b04181","602110864497cf011d9c0822","0","f","NA","space","space","space","space","f","867","NA","1242","7980","2347","3902","867","2","legacy","1024","2","48000","-16","task","5212118","even","NA","24244","27490","26247","167418","5840","16173","13825","167924","123202","167415","167925","167283","27490","168794","22673","166783","5832","146768","Lexical Decision Task","69","53601","75","yes","1024"
"2.899638141","0","3","hapt","non-word","92.10526315789474","92.10526315789474","714.1973684210526","714.1973684210526","black","no","legacy","legacy","legacy","0","uniform","1","undefined","undefined","undefined","1","f","0","0","0","0","75","0","0","0","75","0","71","75","71","0","71","3","75","0","75","Thu Feb 18 13:15:05 2021","The main experiment item","yes","Lexical_Decision_Task.osexp","C:/Users/Sarah/OneDrive/Documents/Uni/Uni 2/CaL","no","Andale Mono","no","18","no","white","no","yes","576","legacy","71","71","3","C:/Users/Sarah/OneDrive/Documents/Uni/Uni 2/CaL/subject-5212118..csv","legacy","Lentiform Loewenfeld","3.3.7","yes","yes","600bd7cfb6416f0113b04181","602110864497cf011d9c0822","0","f","NA","space","space","space","space","f","678","NA","1242","7980","2347","3902","678","2","legacy","1024","2","48000","-16","task","5212118","even","NA","24244","27490","26247","169433","5840","16173","13825","169936","123202","169429","169936","169302","27490","170616","22673","168801","5832","146768","Lexical Decision Task","70","54279","76","yes","1024"
"3.168890155","0","6","thet","non-word","92.20779220779221","92.20779220779221","713.9090909090909","713.9090909090909","black","no","legacy","legacy","legacy","0","uniform","1","undefined","undefined","undefined","1","f","0","0","0","0","76","0","0","0","76","0","72","76","72","0","72","3","76","0","76","Thu Feb 18 13:15:05 2021","The main experiment item","yes","Lexical_Decision_Task.osexp","C:/Users/Sarah/OneDrive/Documents/Uni/Uni 2/CaL","no","Andale Mono","no","18","no","white","no","yes","576","legacy","72","72","3","C:/Users/Sarah/OneDrive/Documents/Uni/Uni 2/CaL/subject-5212118..csv","legacy","Lentiform Loewenfeld","3.3.7","yes","yes","600bd7cfb6416f0113b04181","602110864497cf011d9c0822","0","f","NA","space","space","space","space","f","692","NA","1242","7980","2347","3902","692","2","legacy","1024","2","48000","-16","task","5212118","even","NA","24244","27490","26247","171259","5840","16173","13825","171763","123202","171256","171763","171123","27490","172460","22673","170623","5832","146768","Lexical Decision Task","71","54971","77","yes","1024"
"2.809559715","8.44","4","volt","word","92.3076923076923","92.3076923076923","712.6282051282051","712.6282051282051","black","no","legacy","legacy","legacy","0","uniform","1","undefined","undefined","undefined","1","j","0","0","0","0","77","0","0","0","77","0","73","77","73","0","73","3","77","0","77","Thu Feb 18 13:15:05 2021","The main experiment item","yes","Lexical_Decision_Task.osexp","C:/Users/Sarah/OneDrive/Documents/Uni/Uni 2/CaL","no","Andale Mono","no","18","no","white","no","yes","576","legacy","73","73","3","C:/Users/Sarah/OneDrive/Documents/Uni/Uni 2/CaL/subject-5212118..csv","legacy","Lentiform Loewenfeld","3.3.7","yes","yes","600bd7cfb6416f0113b04181","602110864497cf011d9c0822","0","j","NA","space","space","space","space","j","614","NA","1242","7980","2347","3902","614","2","legacy","1024","2","48000","-16","task","5212118","even","NA","24244","27490","26247","173105","5840","16173","13825","173608","123202","173101","173608","172967","27490","174224","22673","172467","5832","146768","Lexical Decision Task","72","55585","78","yes","1024"
"2.899092422","7.27","6","snag","word","92.40506329113924","92.40506329113924","711","711","black","no","legacy","legacy","legacy","0","uniform","1","undefined","undefined","undefined","1","j","0","0","0","0","78","0","0","0","78","0","74","78","74","0","74","3","78","0","78","Thu Feb 18 13:15:05 2021","The main experiment item","yes","Lexical_Decision_Task.osexp","C:/Users/Sarah/OneDrive/Documents/Uni/Uni 2/CaL","no","Andale Mono","no","18","no","white","no","yes","576","legacy","74","74","3","C:/Users/Sarah/OneDrive/Documents/Uni/Uni 2/CaL/subject-5212118..csv","legacy","Lentiform Loewenfeld","3.3.7","yes","yes","600bd7cfb6416f0113b04181","602110864497cf011d9c0822","0","j","NA","space","space","space","space","j","584","NA","1242","7980","2347","3902","584","2","legacy","1024","2","48000","-16","task","5212118","even","NA","24244","27490","26247","174865","5840","16173","13825","175368","123202","174861","175368","174732","27490","175953","22673","174232","5832","146768","Lexical Decision Task","73","56169","79","yes","1024"
"2.706148589","0","4","hube","non-word","92.5","92.5","710.175","710.175","black","no","legacy","legacy","legacy","0","uniform","1","undefined","undefined","undefined","1","f","0","0","0","0","79","0","0","0","79","0","75","79","75","0","75","3","79","0","79","Thu Feb 18 13:15:05 2021","The main experiment item","yes","Lexical_Decision_Task.osexp","C:/Users/Sarah/OneDrive/Documents/Uni/Uni 2/CaL","no","Andale Mono","no","18","no","white","no","yes","576","legacy","75","75","3","C:/Users/Sarah/OneDrive/Documents/Uni/Uni 2/CaL/subject-5212118..csv","legacy","Lentiform Loewenfeld","3.3.7","yes","yes","600bd7cfb6416f0113b04181","602110864497cf011d9c0822","0","f","NA","space","space","space","space","f","645","NA","1242","7980","2347","3902","645","2","legacy","1024","2","48000","-16","task","5212118","even","NA","24244","27490","26247","176597","5840","16173","13825","177100","123202","176593","177100","176460","27490","177747","22673","175960","5832","146768","Lexical Decision Task","74","56814","80","yes","1024"
"2.594027722","9.08","8","skip","word","92.5925925925926","92.5925925925926","707.5555555555555","707.5555555555555","black","no","legacy","legacy","legacy","0","uniform","1","undefined","undefined","undefined","1","j","0","0","0","0","80","0","0","0","80","0","76","80","76","0","76","3","80","0","80","Thu Feb 18 13:15:05 2021","The main experiment item","yes","Lexical_Decision_Task.osexp","C:/Users/Sarah/OneDrive/Documents/Uni/Uni 2/CaL","no","Andale Mono","no","18","no","white","no","yes","576","legacy","76","76","3","C:/Users/Sarah/OneDrive/Documents/Uni/Uni 2/CaL/subject-5212118..csv","legacy","Lentiform Loewenfeld","3.3.7","yes","yes","600bd7cfb6416f0113b04181","602110864497cf011d9c0822","0","j","NA","space","space","space","space","j","498","NA","1242","7980","2347","3902","498","2","legacy","1024","2","48000","-16","task","5212118","even","NA","24244","27490","26247","178390","5840","16173","13825","178893","123202","178386","178893","178255","27490","179393","22673","177755","5832","146768","Lexical Decision Task","75","57312","81","yes","1024"
"2.873320602","0","4","lurg","non-word","92.6829268292683","92.6829268292683","706.670731707317","706.670731707317","black","no","legacy","legacy","legacy","0","uniform","1","undefined","undefined","undefined","1","f","0","0","0","0","81","0","0","0","81","0","77","81","77","0","77","3","81","0","81","Thu Feb 18 13:15:05 2021","The main experiment item","yes","Lexical_Decision_Task.osexp","C:/Users/Sarah/OneDrive/Documents/Uni/Uni 2/CaL","no","Andale Mono","no","18","no","white","no","yes","576","legacy","77","77","3","C:/Users/Sarah/OneDrive/Documents/Uni/Uni 2/CaL/subject-5212118..csv","legacy","Lentiform Loewenfeld","3.3.7","yes","yes","600bd7cfb6416f0113b04181","602110864497cf011d9c0822","0","f","NA","space","space","space","space","f","635","NA","1242","7980","2347","3902","635","2","legacy","1024","2","48000","-16","task","5212118","even","NA","24244","27490","26247","180052","5840","16173","13825","180555","123202","180048","180555","179900","27490","181192","22673","179400","5832","146768","Lexical Decision Task","76","57947","82","yes","1024"
"3.081107167","0","6","chot","non-word","92.7710843373494","92.7710843373494","706.156626506024","706.156626506024","black","no","legacy","legacy","legacy","0","uniform","1","undefined","undefined","undefined","1","f","0","0","0","0","82","0","0","0","82","0","78","82","78","0","78","3","82","0","82","Thu Feb 18 13:15:05 2021","The main experiment item","yes","Lexical_Decision_Task.osexp","C:/Users/Sarah/OneDrive/Documents/Uni/Uni 2/CaL","no","Andale Mono","no","18","no","white","no","yes","576","legacy","78","78","3","C:/Users/Sarah/OneDrive/Documents/Uni/Uni 2/CaL/subject-5212118..csv","legacy","Lentiform Loewenfeld","3.3.7","yes","yes","600bd7cfb6416f0113b04181","602110864497cf011d9c0822","0","f","NA","space","space","space","space","f","664","NA","1242","7980","2347","3902","664","2","legacy","1024","2","48000","-16","task","5212118","even","NA","24244","27490","26247","181847","5840","16173","13825","182351","123202","181844","182351","181701","27490","183017","22673","181201","5832","146768","Lexical Decision Task","77","58611","83","yes","1024"
"3.307211407","6.07","7","honk","word","92.85714285714286","92.85714285714286","704.797619047619","704.797619047619","black","no","legacy","legacy","legacy","0","uniform","1","undefined","undefined","undefined","1","j","0","0","0","0","83","0","0","0","83","0","79","83","79","0","79","3","83","0","83","Thu Feb 18 13:15:05 2021","The main experiment item","yes","Lexical_Decision_Task.osexp","C:/Users/Sarah/OneDrive/Documents/Uni/Uni 2/CaL","no","Andale Mono","no","18","no","white","no","yes","576","legacy","79","79","3","C:/Users/Sarah/OneDrive/Documents/Uni/Uni 2/CaL/subject-5212118..csv","legacy","Lentiform Loewenfeld","3.3.7","yes","yes","600bd7cfb6416f0113b04181","602110864497cf011d9c0822","0","j","NA","space","space","space","space","j","592","NA","1242","7980","2347","3902","592","2","legacy","1024","2","48000","-16","task","5212118","even","NA","24244","27490","26247","183658","5840","16173","13825","184162","123202","183655","184163","183524","27490","184756","22673","183024","5832","146768","Lexical Decision Task","78","59203","84","yes","1024"
"3.259832699","0","9","flar","non-word","92.94117647058823","92.94117647058823","703.964705882353","703.964705882353","black","no","legacy","legacy","legacy","0","uniform","1","undefined","undefined","undefined","1","f","0","0","0","0","84","0","0","0","84","0","80","84","80","0","80","3","84","0","84","Thu Feb 18 13:15:05 2021","The main experiment item","yes","Lexical_Decision_Task.osexp","C:/Users/Sarah/OneDrive/Documents/Uni/Uni 2/CaL","no","Andale Mono","no","18","no","white","no","yes","576","legacy","80","80","3","C:/Users/Sarah/OneDrive/Documents/Uni/Uni 2/CaL/subject-5212118..csv","legacy","Lentiform Loewenfeld","3.3.7","yes","yes","600bd7cfb6416f0113b04181","602110864497cf011d9c0822","0","f","NA","space","space","space","space","f","634","NA","1242","7980","2347","3902","634","2","legacy","1024","2","48000","-16","task","5212118","even","NA","24244","27490","26247","185400","5840","16173","13825","185904","123202","185397","185904","185264","27490","186540","22673","184763","5832","146768","Lexical Decision Task","79","59837","85","yes","1024"
"2.839898939","8.99","6","soap","word","93.02325581395348","93.02325581395348","702.1162790697674","702.1162790697674","black","no","legacy","legacy","legacy","0","uniform","1","undefined","undefined","undefined","1","j","0","0","0","0","85","0","0","0","85","0","81","85","81","0","81","3","85","0","85","Thu Feb 18 13:15:05 2021","The main experiment item","yes","Lexical_Decision_Task.osexp","C:/Users/Sarah/OneDrive/Documents/Uni/Uni 2/CaL","no","Andale Mono","no","18","no","white","no","yes","576","legacy","81","81","3","C:/Users/Sarah/OneDrive/Documents/Uni/Uni 2/CaL/subject-5212118..csv","legacy","Lentiform Loewenfeld","3.3.7","yes","yes","600bd7cfb6416f0113b04181","602110864497cf011d9c0822","0","j","NA","space","space","space","space","j","545","NA","1242","7980","2347","3902","545","2","legacy","1024","2","48000","-16","task","5212118","even","NA","24244","27490","26247","187191","5840","16173","13825","187695","123202","187188","187695","187047","27490","188242","22673","186547","5832","146768","Lexical Decision Task","80","60382","86","yes","1024"
"3.131833513","7.66","4","limb","word","93.10344827586206","93.10344827586206","701.1494252873563","701.1494252873563","black","no","legacy","legacy","legacy","0","uniform","1","undefined","undefined","undefined","1","j","0","0","0","0","86","0","0","0","86","0","82","86","82","0","82","3","86","0","86","Thu Feb 18 13:15:05 2021","The main experiment item","yes","Lexical_Decision_Task.osexp","C:/Users/Sarah/OneDrive/Documents/Uni/Uni 2/CaL","no","Andale Mono","no","18","no","white","no","yes","576","legacy","82","82","3","C:/Users/Sarah/OneDrive/Documents/Uni/Uni 2/CaL/subject-5212118..csv","legacy","Lentiform Loewenfeld","3.3.7","yes","yes","600bd7cfb6416f0113b04181","602110864497cf011d9c0822","0","j","NA","space","space","space","space","j","618","NA","1242","7980","2347","3902","618","2","legacy","1024","2","48000","-16","task","5212118","even","NA","24244","27490","26247","188892","5840","16173","13825","189397","123202","188889","189398","188749","27490","190018","22673","188249","5832","146768","Lexical Decision Task","81","61000","87","yes","1024"
"2.69019608","9.01","2","myth","word","93.18181818181819","93.18181818181819","700.25","700.25","black","no","legacy","legacy","legacy","0","uniform","1","undefined","undefined","undefined","1","j","0","0","0","0","87","0","0","0","87","0","83","87","83","0","83","3","87","0","87","Thu Feb 18 13:15:05 2021","The main experiment item","yes","Lexical_Decision_Task.osexp","C:/Users/Sarah/OneDrive/Documents/Uni/Uni 2/CaL","no","Andale Mono","no","18","no","white","no","yes","576","legacy","83","83","3","C:/Users/Sarah/OneDrive/Documents/Uni/Uni 2/CaL/subject-5212118..csv","legacy","Lentiform Loewenfeld","3.3.7","yes","yes","600bd7cfb6416f0113b04181","602110864497cf011d9c0822","0","j","NA","space","space","space","space","j","622","NA","1242","7980","2347","3902","622","2","legacy","1024","2","48000","-16","task","5212118","even","NA","24244","27490","26247","190657","5840","16173","13825","191164","123202","190654","191165","190525","27490","191789","22673","190025","5832","146768","Lexical Decision Task","82","61622","88","yes","1024"
"3.274543461","7.46","7","scar","word","93.25842696629213","93.25842696629213","698.3033707865169","698.3033707865169","black","no","legacy","legacy","legacy","0","uniform","1","undefined","undefined","undefined","1","j","0","0","0","0","88","0","0","0","88","0","84","88","84","0","84","3","88","0","88","Thu Feb 18 13:15:05 2021","The main experiment item","yes","Lexical_Decision_Task.osexp","C:/Users/Sarah/OneDrive/Documents/Uni/Uni 2/CaL","no","Andale Mono","no","18","no","white","no","yes","576","legacy","84","84","3","C:/Users/Sarah/OneDrive/Documents/Uni/Uni 2/CaL/subject-5212118..csv","legacy","Lentiform Loewenfeld","3.3.7","yes","yes","600bd7cfb6416f0113b04181","602110864497cf011d9c0822","0","j","NA","space","space","space","space","j","527","NA","1242","7980","2347","3902","527","2","legacy","1024","2","48000","-16","task","5212118","even","NA","24244","27490","26247","192432","5840","16173","13825","192935","123202","192429","192935","192296","27490","193464","22673","191796","5832","146768","Lexical Decision Task","83","62149","89","yes","1024"
"3.230789326","5.38","5","prim","word","93.33333333333333","93.33333333333333","697","697","black","no","legacy","legacy","legacy","0","uniform","1","undefined","undefined","undefined","1","j","0","0","0","0","89","0","0","0","89","0","85","89","85","0","85","3","89","0","89","Thu Feb 18 13:15:05 2021","The main experiment item","yes","Lexical_Decision_Task.osexp","C:/Users/Sarah/OneDrive/Documents/Uni/Uni 2/CaL","no","Andale Mono","no","18","no","white","no","yes","576","legacy","85","85","3","C:/Users/Sarah/OneDrive/Documents/Uni/Uni 2/CaL/subject-5212118..csv","legacy","Lentiform Loewenfeld","3.3.7","yes","yes","600bd7cfb6416f0113b04181","602110864497cf011d9c0822","0","j","NA","space","space","space","space","j","581","NA","1242","7980","2347","3902","581","2","legacy","1024","2","48000","-16","task","5212118","even","NA","24244","27490","26247","194104","5840","16173","13825","194607","123202","194101","194607","193971","27490","195190","22673","193471","5832","146768","Lexical Decision Task","84","62730","90","yes","1024"
"2.695770526","7.34","6","pawn","word","93.4065934065934","93.4065934065934","694.7142857142857","694.7142857142857","black","no","legacy","legacy","legacy","0","uniform","1","undefined","undefined","undefined","1","j","0","0","0","0","90","0","0","0","90","0","86","90","86","0","86","3","90","0","90","Thu Feb 18 13:15:05 2021","The main experiment item","yes","Lexical_Decision_Task.osexp","C:/Users/Sarah/OneDrive/Documents/Uni/Uni 2/CaL","no","Andale Mono","no","18","no","white","no","yes","576","legacy","86","86","3","C:/Users/Sarah/OneDrive/Documents/Uni/Uni 2/CaL/subject-5212118..csv","legacy","Lentiform Loewenfeld","3.3.7","yes","yes","600bd7cfb6416f0113b04181","602110864497cf011d9c0822","0","j","NA","space","space","space","space","j","489","NA","1242","7980","2347","3902","489","2","legacy","1024","2","48000","-16","task","5212118","even","NA","24244","27490","26247","195830","5840","16173","13825","196335","123202","195826","196335","195698","27490","196827","22673","195198","5832","146768","Lexical Decision Task","85","63219","91","yes","1024"
"3.134602053","0","8","jart","non-word","93.47826086956522","93.47826086956522","694.3913043478261","694.3913043478261","black","no","legacy","legacy","legacy","0","uniform","1","undefined","undefined","undefined","1","f","0","0","0","0","91","0","0","0","91","0","87","91","87","0","87","3","91","0","91","Thu Feb 18 13:15:05 2021","The main experiment item","yes","Lexical_Decision_Task.osexp","C:/Users/Sarah/OneDrive/Documents/Uni/Uni 2/CaL","no","Andale Mono","no","18","no","white","no","yes","576","legacy","87","87","3","C:/Users/Sarah/OneDrive/Documents/Uni/Uni 2/CaL/subject-5212118..csv","legacy","Lentiform Loewenfeld","3.3.7","yes","yes","600bd7cfb6416f0113b04181","602110864497cf011d9c0822","0","f","NA","space","space","space","space","f","665","NA","1242","7980","2347","3902","665","2","legacy","1024","2","48000","-16","task","5212118","even","NA","24244","27490","26247","197468","5840","16173","13825","197971","123202","197464","197971","197334","27490","198638","22673","196834","5832","146768","Lexical Decision Task","86","63884","92","yes","1024"
"2.7084209","0","8","vump","non-word","93.54838709677419","93.54838709677419","695.1290322580645","695.1290322580645","black","no","legacy","legacy","legacy","0","uniform","1","undefined","undefined","undefined","1","f","0","0","0","0","92","0","0","0","92","0","88","92","88","0","88","3","92","0","92","Thu Feb 18 13:15:05 2021","The main experiment item","yes","Lexical_Decision_Task.osexp","C:/Users/Sarah/OneDrive/Documents/Uni/Uni 2/CaL","no","Andale Mono","no","18","no","white","no","yes","576","legacy","88","88","3","C:/Users/Sarah/OneDrive/Documents/Uni/Uni 2/CaL/subject-5212118..csv","legacy","Lentiform Loewenfeld","3.3.7","yes","yes","600bd7cfb6416f0113b04181","602110864497cf011d9c0822","0","f","NA","space","space","space","space","f","763","NA","1242","7980","2347","3902","763","2","legacy","1024","2","48000","-16","task","5212118","even","NA","24244","27490","26247","199293","5840","16173","13825","199799","123202","199290","199799","199146","27490","200564","22673","198646","5832","146768","Lexical Decision Task","87","64647","93","yes","1024"
"3.088136089","8.32","9","worm","word","93.61702127659575","93.61702127659575","692.7765957446809","692.7765957446809","black","no","legacy","legacy","legacy","0","uniform","1","undefined","undefined","undefined","1","j","0","0","0","0","93","0","0","0","93","0","89","93","89","0","89","3","93","0","93","Thu Feb 18 13:15:05 2021","The main experiment item","yes","Lexical_Decision_Task.osexp","C:/Users/Sarah/OneDrive/Documents/Uni/Uni 2/CaL","no","Andale Mono","no","18","no","white","no","yes","576","legacy","89","89","3","C:/Users/Sarah/OneDrive/Documents/Uni/Uni 2/CaL/subject-5212118..csv","legacy","Lentiform Loewenfeld","3.3.7","yes","yes","600bd7cfb6416f0113b04181","602110864497cf011d9c0822","0","j","NA","space","space","space","space","j","474","NA","1242","7980","2347","3902","474","2","legacy","1024","2","48000","-16","task","5212118","even","NA","24244","27490","26247","201204","5840","16173","13825","201707","123202","201200","201707","201071","27490","202183","22673","200571","5832","146768","Lexical Decision Task","88","65121","94","yes","1024"
"2.767650507","0","6","yolt","non-word","92.63157894736842","92.63157894736842","691.4947368421052","691.4947368421052","black","no","legacy","legacy","legacy","0","uniform","0","undefined","undefined","undefined","0","f","0","0","0","0","94","0","0","0","94","0","90","94","90","0","90","3","94","0","94","Thu Feb 18 13:15:05 2021","The main experiment item","yes","Lexical_Decision_Task.osexp","C:/Users/Sarah/OneDrive/Documents/Uni/Uni 2/CaL","no","Andale Mono","no","18","no","white","no","yes","576","legacy","90","90","3","C:/Users/Sarah/OneDrive/Documents/Uni/Uni 2/CaL/subject-5212118..csv","legacy","Lentiform Loewenfeld","3.3.7","yes","yes","600bd7cfb6416f0113b04181","602110864497cf011d9c0822","0","j","NA","space","space","space","space","j","571","NA","1242","7980","2347","3902","571","2","legacy","1024","2","48000","-16","task","5212118","even","NA","24244","27490","26247","202824","5840","16173","13825","203331","123202","202821","203332","202690","27490","203905","22673","202189","5832","146768","Lexical Decision Task","88","65692","95","yes","1024"
"3.218535505","7.85","7","goat","word","92.70833333333333","92.70833333333333","690.4479166666666","690.4479166666666","black","no","legacy","legacy","legacy","0","uniform","1","undefined","undefined","undefined","1","j","0","0","0","0","95","0","0","0","95","0","91","95","91","0","91","3","95","0","95","Thu Feb 18 13:15:05 2021","The main experiment item","yes","Lexical_Decision_Task.osexp","C:/Users/Sarah/OneDrive/Documents/Uni/Uni 2/CaL","no","Andale Mono","no","18","no","white","no","yes","576","legacy","91","91","3","C:/Users/Sarah/OneDrive/Documents/Uni/Uni 2/CaL/subject-5212118..csv","legacy","Lentiform Loewenfeld","3.3.7","yes","yes","600bd7cfb6416f0113b04181","602110864497cf011d9c0822","0","j","NA","space","space","space","space","j","591","NA","1242","7980","2347","3902","591","2","legacy","1024","2","48000","-16","task","5212118","even","NA","24244","27490","26247","205544","5840","16173","13825","206051","123202","205541","206052","205413","27490","206645","22673","202189","5832","203912","Lexical Decision Task","89","66283","96","yes","1024"
"2.980306438","0","7","slun","non-word","92.78350515463917","92.78350515463917","690.4742268041238","690.4742268041238","black","no","legacy","legacy","legacy","0","uniform","1","undefined","undefined","undefined","1","f","0","0","0","0","96","0","0","0","96","0","92","96","92","0","92","3","96","0","96","Thu Feb 18 13:15:05 2021","The main experiment item","yes","Lexical_Decision_Task.osexp","C:/Users/Sarah/OneDrive/Documents/Uni/Uni 2/CaL","no","Andale Mono","no","18","no","white","no","yes","576","legacy","92","92","3","C:/Users/Sarah/OneDrive/Documents/Uni/Uni 2/CaL/subject-5212118..csv","legacy","Lentiform Loewenfeld","3.3.7","yes","yes","600bd7cfb6416f0113b04181","602110864497cf011d9c0822","0","f","NA","space","space","space","space","f","693","NA","1242","7980","2347","3902","693","2","legacy","1024","2","48000","-16","task","5212118","even","NA","24244","27490","26247","207292","5840","16173","13825","207797","123202","207289","207798","207152","27490","208493","22673","206652","5832","203912","Lexical Decision Task","90","66976","97","yes","1024"
