"Log_BG","Log_Freq_HAL","Ortho_N","Stimulus","Type","acc","accuracy","average_response_time","avg_rt","background","bidi","canvas_backend","clock_backend","color_backend","compensation","coordinates","correct","correct_Experimental_intro","correct_Introduction","correct_Practice_intro","correct_experimenter_kb","correct_response","count_End_Of_Experiment","count_End_Of_Practice","count_Experimental_Loop","count_Experimental_intro","count_Fixation","count_Introduction","count_Practice_Loop","count_Practice_intro","count_Stimulus","count_block_break_feedback","count_experimental_sequence","count_experimenter_kb","count_increment_trial_count","count_init_trial_count","count_logger","count_practice_sequence","count_right","count_task","count_wrong","datetime","description","disable_garbage_collection","experiment_file","experiment_path","font_bold","font_family","font_italic","font_size","font_underline","foreground","form_clicks","fullscreen","height","keyboard_backend","live_row","live_row_Experimental_Loop","live_row_Practice_Loop","logfile","mouse_backend","opensesame_codename","opensesame_version","osf_always_upload_data","osf_always_upload_experiment","osf_datanode_id","osf_id","repeat_cycle","response","response_End_Of_Experiment","response_Experimental_intro","response_Introduction","response_Practice_intro","response_block_break_feedback","response_experimenter_kb","response_time","response_time_End_Of_Experiment","response_time_Experimental_intro","response_time_Introduction","response_time_Practice_intro","response_time_block_break_feedback","response_time_experimenter_kb","round_decimals","sampler_backend","sound_buf_size","sound_channels","sound_freq","sound_sample_size","start","subject_nr","subject_parity","time_End_Of_Experiment","time_End_Of_Practice","time_Experimental_Loop","time_Experimental_intro","time_Fixation","time_Introduction","time_Practice_Loop","time_Practice_intro","time_Stimulus","time_block_break_feedback","time_experimental_sequence","time_experimenter_kb","time_increment_trial_count","time_init_trial_count","time_logger","time_practice_sequence","time_right","time_task","time_wrong","title","total_correct","total_response_time","total_responses","uniform_coordinates","width"
"2.67699827","0","6","hulf","non-word","80","80","1292.6","1292.6","black","no","legacy","legacy","legacy","0","uniform","0","undefined","undefined","undefined","0","f","0","0","0","0","4","0","0","0","4","NA","0","4","0","0","0","3","4","0","4","Fri Feb 19 12:16:04 2021","The main experiment item","yes","Lexical_Decision_Task.osexp","C:/Users/nicho/OneDrive/Psychology/Year 2/Semester 2/CAL/Seminars","no","Andale Mono","no","18","no","white","no","yes","576","legacy","0","0","3","C:/Users/nicho/OneDrive/Psychology/Year 2/Semester 2/CAL/Seminars/subject.-5203705.csv","legacy","Lentiform Loewenfeld","3.3.7","yes","yes","600bd7cfb6416f0113b04181","602110864497cf011d9c0822","0","None","NA","left super","space","space","NA","None","3000","NA","4336","24074","16252","NA","3000","2","legacy","1024","2","48000","-16","task","5203705","odd","NA","54666","61006","56669","61132","6155","46485","30232","61635","NA","61129","62026","NA","61006","65026","52850","54091","6123","NA","Lexical Decision Task","4","6463","5","yes","1024"
"3.137775856","7.39","5","comb","word","66.66666666666667","66.66666666666667","1577.1666666666667","1577.1666666666667","black","no","legacy","legacy","legacy","0","uniform","0","undefined","undefined","undefined","0","j","0","0","0","0","5","0","0","0","5","NA","1","5","1","0","1","3","5","0","5","Fri Feb 19 12:16:04 2021","The main experiment item","yes","Lexical_Decision_Task.osexp","C:/Users/nicho/OneDrive/Psychology/Year 2/Semester 2/CAL/Seminars","no","Andale Mono","no","18","no","white","no","yes","576","legacy","1","1","3","C:/Users/nicho/OneDrive/Psychology/Year 2/Semester 2/CAL/Seminars/subject.-5203705.csv","legacy","Lentiform Loewenfeld","3.3.7","yes","yes","600bd7cfb6416f0113b04181","602110864497cf011d9c0822","0","None","NA","left super","space","space","NA","None","3000","NA","4336","24074","16252","NA","3000","2","legacy","1024","2","48000","-16","task","5203705","odd","NA","54666","61006","56669","66790","6155","46485","30232","67292","NA","66787","67292","66557","61006","70297","52850","54091","6123","65056","Lexical Decision Task","4","9463","6","yes","1024"
"3.378276681","6.39","8","bran","word","71.42857142857143","71.42857142857143","1750.5714285714287","1750.5714285714287","black","no","legacy","legacy","legacy","0","uniform","1","undefined","undefined","undefined","1","j","0","0","0","0","6","0","0","0","6","NA","2","6","2","0","2","3","6","0","6","Fri Feb 19 12:16:04 2021","The main experiment item","yes","Lexical_Decision_Task.osexp","C:/Users/nicho/OneDrive/Psychology/Year 2/Semester 2/CAL/Seminars","no","Andale Mono","no","18","no","white","no","yes","576","legacy","2","2","3","C:/Users/nicho/OneDrive/Psychology/Year 2/Semester 2/CAL/Seminars/subject.-5203705.csv","legacy","Lentiform Loewenfeld","3.3.7","yes","yes","600bd7cfb6416f0113b04181","602110864497cf011d9c0822","0","j","NA","left super","space","space","NA","j","2791","NA","4336","24074","16252","NA","2791","2","legacy","1024","2","48000","-16","task","5203705","odd","NA","54666","61006","56669","72041","6155","46485","30232","72543","NA","72008","72545","71809","61006","75337","52850","54091","6123","70308","Lexical Decision Task","5","12254","7","yes","1024"
"2.839898939","8.99","6","soap","word","75","75","1610.5","1610.5","black","no","legacy","legacy","legacy","0","uniform","1","undefined","undefined","undefined","1","j","0","0","0","0","7","0","0","0","7","NA","3","7","3","0","3","3","7","0","7","Fri Feb 19 12:16:04 2021","The main experiment item","yes","Lexical_Decision_Task.osexp","C:/Users/nicho/OneDrive/Psychology/Year 2/Semester 2/CAL/Seminars","no","Andale Mono","no","18","no","white","no","yes","576","legacy","3","3","3","C:/Users/nicho/OneDrive/Psychology/Year 2/Semester 2/CAL/Seminars/subject.-5203705.csv","legacy","Lentiform Loewenfeld","3.3.7","yes","yes","600bd7cfb6416f0113b04181","602110864497cf011d9c0822","0","j","NA","left super","space","space","NA","j","630","NA","4336","24074","16252","NA","630","2","legacy","1024","2","48000","-16","task","5203705","odd","NA","54666","61006","56669","76015","6155","46485","30232","76517","NA","76013","76518","75855","61006","77148","52850","75354","6123","70308","Lexical Decision Task","6","12884","8","yes","1024"
"2.782472624","10.55","2","huge","word","77.77777777777777","77.77777777777777","1482.888888888889","1482.888888888889","black","no","legacy","legacy","legacy","0","uniform","1","undefined","undefined","undefined","1","j","0","0","0","0","8","0","0","0","8","NA","4","8","4","0","4","3","8","0","8","Fri Feb 19 12:16:04 2021","The main experiment item","yes","Lexical_Decision_Task.osexp","C:/Users/nicho/OneDrive/Psychology/Year 2/Semester 2/CAL/Seminars","no","Andale Mono","no","18","no","white","no","yes","576","legacy","4","4","3","C:/Users/nicho/OneDrive/Psychology/Year 2/Semester 2/CAL/Seminars/subject.-5203705.csv","legacy","Lentiform Loewenfeld","3.3.7","yes","yes","600bd7cfb6416f0113b04181","602110864497cf011d9c0822","0","j","NA","left super","space","space","NA","j","462","NA","4336","24074","16252","NA","462","2","legacy","1024","2","48000","-16","task","5203705","odd","NA","54666","61006","56669","77794","6155","46485","30232","78296","NA","77791","78296","77668","61006","78760","52850","77168","6123","70308","Lexical Decision Task","7","13346","9","yes","1024"
"2.668385917","5.48","4","twig","word","70","70","1389.4","1389.4","black","no","legacy","legacy","legacy","0","uniform","0","undefined","undefined","undefined","0","j","0","0","0","0","9","0","0","0","9","NA","5","9","5","0","5","3","9","0","9","Fri Feb 19 12:16:04 2021","The main experiment item","yes","Lexical_Decision_Task.osexp","C:/Users/nicho/OneDrive/Psychology/Year 2/Semester 2/CAL/Seminars","no","Andale Mono","no","18","no","white","no","yes","576","legacy","5","5","3","C:/Users/nicho/OneDrive/Psychology/Year 2/Semester 2/CAL/Seminars/subject.-5203705.csv","legacy","Lentiform Loewenfeld","3.3.7","yes","yes","600bd7cfb6416f0113b04181","602110864497cf011d9c0822","0","f","NA","left super","space","space","NA","f","548","NA","4336","24074","16252","NA","548","2","legacy","1024","2","48000","-16","task","5203705","odd","NA","54666","61006","56669","79414","6155","46485","30232","79916","NA","79411","79917","79280","61006","80466","52850","78779","6123","70308","Lexical Decision Task","7","13894","10","yes","1024"
"2.893578687","8.69","3","surf","word","72.72727272727273","72.72727272727273","1327.7272727272727","1327.7272727272727","black","no","legacy","legacy","legacy","0","uniform","1","undefined","undefined","undefined","1","j","0","0","0","0","10","0","0","0","10","NA","6","10","6","0","6","3","10","0","10","Fri Feb 19 12:16:04 2021","The main experiment item","yes","Lexical_Decision_Task.osexp","C:/Users/nicho/OneDrive/Psychology/Year 2/Semester 2/CAL/Seminars","no","Andale Mono","no","18","no","white","no","yes","576","legacy","6","6","3","C:/Users/nicho/OneDrive/Psychology/Year 2/Semester 2/CAL/Seminars/subject.-5203705.csv","legacy","Lentiform Loewenfeld","3.3.7","yes","yes","600bd7cfb6416f0113b04181","602110864497cf011d9c0822","0","j","NA","left super","space","space","NA","j","711","NA","4336","24074","16252","NA","711","2","legacy","1024","2","48000","-16","task","5203705","odd","NA","54666","61006","56669","82127","6155","46485","30232","82629","NA","82125","82629","81983","61006","83341","52850","78779","6123","80483","Lexical Decision Task","8","14605","11","yes","1024"
"2.952953801","0","8","clax","non-word","75","75","1271.3333333333333","1271.3333333333333","black","no","legacy","legacy","legacy","0","uniform","1","undefined","undefined","undefined","1","f","0","0","0","0","11","0","0","0","11","NA","7","11","7","0","7","3","11","0","11","Fri Feb 19 12:16:04 2021","The main experiment item","yes","Lexical_Decision_Task.osexp","C:/Users/nicho/OneDrive/Psychology/Year 2/Semester 2/CAL/Seminars","no","Andale Mono","no","18","no","white","no","yes","576","legacy","7","7","3","C:/Users/nicho/OneDrive/Psychology/Year 2/Semester 2/CAL/Seminars/subject.-5203705.csv","legacy","Lentiform Loewenfeld","3.3.7","yes","yes","600bd7cfb6416f0113b04181","602110864497cf011d9c0822","0","f","NA","left super","space","space","NA","f","651","NA","4336","24074","16252","NA","651","2","legacy","1024","2","48000","-16","task","5203705","odd","NA","54666","61006","56669","83998","6155","46485","30232","84500","NA","83994","84500","83859","61006","85152","52850","83359","6123","80483","Lexical Decision Task","9","15256","12","yes","1024"
"2.86332286","6.71","2","feud","word","76.92307692307692","76.92307692307692","1231.4615384615386","1231.4615384615386","black","no","legacy","legacy","legacy","0","uniform","1","undefined","undefined","undefined","1","j","0","0","0","0","12","0","0","0","12","NA","8","12","8","0","8","3","12","0","12","Fri Feb 19 12:16:04 2021","The main experiment item","yes","Lexical_Decision_Task.osexp","C:/Users/nicho/OneDrive/Psychology/Year 2/Semester 2/CAL/Seminars","no","Andale Mono","no","18","no","white","no","yes","576","legacy","8","8","3","C:/Users/nicho/OneDrive/Psychology/Year 2/Semester 2/CAL/Seminars/subject.-5203705.csv","legacy","Lentiform Loewenfeld","3.3.7","yes","yes","600bd7cfb6416f0113b04181","602110864497cf011d9c0822","0","j","NA","left super","space","space","NA","j","753","NA","4336","24074","16252","NA","753","2","legacy","1024","2","48000","-16","task","5203705","odd","NA","54666","61006","56669","85794","6155","46485","30232","86297","NA","85791","86298","85669","61006","87053","52850","85169","6123","80483","Lexical Decision Task","10","16009","13","yes","1024"
"3.159867847","5.98","5","brim","word","78.57142857142857","78.57142857142857","1185","1185","black","no","legacy","legacy","legacy","0","uniform","1","undefined","undefined","undefined","1","j","0","0","0","0","13","0","0","0","13","NA","9","13","9","0","9","3","13","0","13","Fri Feb 19 12:16:04 2021","The main experiment item","yes","Lexical_Decision_Task.osexp","C:/Users/nicho/OneDrive/Psychology/Year 2/Semester 2/CAL/Seminars","no","Andale Mono","no","18","no","white","no","yes","576","legacy","9","9","3","C:/Users/nicho/OneDrive/Psychology/Year 2/Semester 2/CAL/Seminars/subject.-5203705.csv","legacy","Lentiform Loewenfeld","3.3.7","yes","yes","600bd7cfb6416f0113b04181","602110864497cf011d9c0822","0","j","NA","left super","space","space","NA","j","581","NA","4336","24074","16252","NA","581","2","legacy","1024","2","48000","-16","task","5203705","odd","NA","54666","61006","56669","87724","6155","46485","30232","88226","NA","87721","88226","87566","61006","88808","52850","87066","6123","80483","Lexical Decision Task","11","16590","14","yes","1024"
"2.771097306","0","9","jold","non-word","73.33333333333333","73.33333333333333","1158.4666666666667","1158.4666666666667","black","no","legacy","legacy","legacy","0","uniform","0","undefined","undefined","undefined","0","f","0","0","0","0","14","0","0","0","14","NA","10","14","10","0","10","3","14","0","14","Fri Feb 19 12:16:04 2021","The main experiment item","yes","Lexical_Decision_Task.osexp","C:/Users/nicho/OneDrive/Psychology/Year 2/Semester 2/CAL/Seminars","no","Andale Mono","no","18","no","white","no","yes","576","legacy","10","10","3","C:/Users/nicho/OneDrive/Psychology/Year 2/Semester 2/CAL/Seminars/subject.-5203705.csv","legacy","Lentiform Loewenfeld","3.3.7","yes","yes","600bd7cfb6416f0113b04181","602110864497cf011d9c0822","0","j","NA","left super","space","space","NA","j","787","NA","4336","24074","16252","NA","787","2","legacy","1024","2","48000","-16","task","5203705","odd","NA","54666","61006","56669","89468","6155","46485","30232","89970","NA","89466","89971","89327","61006","90759","52850","88826","6123","80483","Lexical Decision Task","11","17377","15","yes","1024"
"2.705007959","6.01","4","wept","word","75","75","1126.375","1126.375","black","no","legacy","legacy","legacy","0","uniform","1","undefined","undefined","undefined","1","j","0","0","0","0","15","0","0","0","15","NA","11","15","11","0","11","3","15","0","15","Fri Feb 19 12:16:04 2021","The main experiment item","yes","Lexical_Decision_Task.osexp","C:/Users/nicho/OneDrive/Psychology/Year 2/Semester 2/CAL/Seminars","no","Andale Mono","no","18","no","white","no","yes","576","legacy","11","11","3","C:/Users/nicho/OneDrive/Psychology/Year 2/Semester 2/CAL/Seminars/subject.-5203705.csv","legacy","Lentiform Loewenfeld","3.3.7","yes","yes","600bd7cfb6416f0113b04181","602110864497cf011d9c0822","0","j","NA","left super","space","space","NA","j","645","NA","4336","24074","16252","NA","645","2","legacy","1024","2","48000","-16","task","5203705","odd","NA","54666","61006","56669","92418","6155","46485","30232","92920","NA","92416","92920","92278","61006","93566","52850","88826","6123","90778","Lexical Decision Task","12","18022","16","yes","1024"
"2.8162413","0","5","nusk","non-word","76.47058823529412","76.47058823529412","1109.3529411764705","1109.3529411764705","black","no","legacy","legacy","legacy","0","uniform","1","undefined","undefined","undefined","1","f","0","0","0","0","16","0","0","0","16","NA","12","16","12","0","12","3","16","0","16","Fri Feb 19 12:16:04 2021","The main experiment item","yes","Lexical_Decision_Task.osexp","C:/Users/nicho/OneDrive/Psychology/Year 2/Semester 2/CAL/Seminars","no","Andale Mono","no","18","no","white","no","yes","576","legacy","12","12","3","C:/Users/nicho/OneDrive/Psychology/Year 2/Semester 2/CAL/Seminars/subject.-5203705.csv","legacy","Lentiform Loewenfeld","3.3.7","yes","yes","600bd7cfb6416f0113b04181","602110864497cf011d9c0822","0","f","NA","left super","space","space","NA","f","837","NA","4336","24074","16252","NA","837","2","legacy","1024","2","48000","-16","task","5203705","odd","NA","54666","61006","56669","94205","6155","46485","30232","94708","NA","94202","94708","94084","61006","95546","52850","93584","6123","90778","Lexical Decision Task","13","18859","17","yes","1024"
"2.696644658","5.78","2","yolk","word","77.77777777777777","77.77777777777777","1082.9444444444443","1082.9444444444443","black","no","legacy","legacy","legacy","0","uniform","1","undefined","undefined","undefined","1","j","0","0","0","0","17","0","0","0","17","NA","13","17","13","0","13","3","17","0","17","Fri Feb 19 12:16:04 2021","The main experiment item","yes","Lexical_Decision_Task.osexp","C:/Users/nicho/OneDrive/Psychology/Year 2/Semester 2/CAL/Seminars","no","Andale Mono","no","18","no","white","no","yes","576","legacy","13","13","3","C:/Users/nicho/OneDrive/Psychology/Year 2/Semester 2/CAL/Seminars/subject.-5203705.csv","legacy","Lentiform Loewenfeld","3.3.7","yes","yes","600bd7cfb6416f0113b04181","602110864497cf011d9c0822","0","j","NA","left super","space","space","NA","j","634","NA","4336","24074","16252","NA","634","2","legacy","1024","2","48000","-16","task","5203705","odd","NA","54666","61006","56669","96217","6155","46485","30232","96719","NA","96214","96719","96062","61006","97355","52850","95562","6123","90778","Lexical Decision Task","14","19493","18","yes","1024"
"3.028977705","0","7","frow","non-word","73.6842105263158","73.6842105263158","1060","1060","black","no","legacy","legacy","legacy","0","uniform","0","undefined","undefined","undefined","0","f","0","0","0","0","18","0","0","0","18","NA","14","18","14","0","14","3","18","0","18","Fri Feb 19 12:16:04 2021","The main experiment item","yes","Lexical_Decision_Task.osexp","C:/Users/nicho/OneDrive/Psychology/Year 2/Semester 2/CAL/Seminars","no","Andale Mono","no","18","no","white","no","yes","576","legacy","14","14","3","C:/Users/nicho/OneDrive/Psychology/Year 2/Semester 2/CAL/Seminars/subject.-5203705.csv","legacy","Lentiform Loewenfeld","3.3.7","yes","yes","600bd7cfb6416f0113b04181","602110864497cf011d9c0822","0","j","NA","left super","space","space","NA","j","647","NA","4336","24074","16252","NA","647","2","legacy","1024","2","48000","-16","task","5203705","odd","NA","54666","61006","56669","98030","6155","46485","30232","98534","NA","98028","98535","97875","61006","99183","52850","97375","6123","90778","Lexical Decision Task","14","20140","19","yes","1024"
"3.043885998","0","9","gome","non-word","75","75","1049.25","1049.25","black","no","legacy","legacy","legacy","0","uniform","1","undefined","undefined","undefined","1","f","0","0","0","0","19","0","0","0","19","NA","15","19","15","0","15","3","19","0","19","Fri Feb 19 12:16:04 2021","The main experiment item","yes","Lexical_Decision_Task.osexp","C:/Users/nicho/OneDrive/Psychology/Year 2/Semester 2/CAL/Seminars","no","Andale Mono","no","18","no","white","no","yes","576","legacy","15","15","3","C:/Users/nicho/OneDrive/Psychology/Year 2/Semester 2/CAL/Seminars/subject.-5203705.csv","legacy","Lentiform Loewenfeld","3.3.7","yes","yes","600bd7cfb6416f0113b04181","602110864497cf011d9c0822","0","f","NA","left super","space","space","NA","f","845","NA","4336","24074","16252","NA","845","2","legacy","1024","2","48000","-16","task","5203705","odd","NA","54666","61006","56669","100854","6155","46485","30232","101358","NA","100851","101358","100702","61006","102204","52850","97375","6123","99201","Lexical Decision Task","15","20985","20","yes","1024"
"3.274543461","7.46","7","scar","word","71.42857142857143","71.42857142857143","1023.1428571428571","1023.1428571428571","black","no","legacy","legacy","legacy","0","uniform","0","undefined","undefined","undefined","0","j","0","0","0","0","20","0","0","0","20","NA","16","20","16","0","16","3","20","0","20","Fri Feb 19 12:16:04 2021","The main experiment item","yes","Lexical_Decision_Task.osexp","C:/Users/nicho/OneDrive/Psychology/Year 2/Semester 2/CAL/Seminars","no","Andale Mono","no","18","no","white","no","yes","576","legacy","16","16","3","C:/Users/nicho/OneDrive/Psychology/Year 2/Semester 2/CAL/Seminars/subject.-5203705.csv","legacy","Lentiform Loewenfeld","3.3.7","yes","yes","600bd7cfb6416f0113b04181","602110864497cf011d9c0822","0","f","NA","left super","space","space","NA","f","501","NA","4336","24074","16252","NA","501","2","legacy","1024","2","48000","-16","task","5203705","odd","NA","54666","61006","56669","102845","6155","46485","30232","103348","NA","102842","103348","102722","61006","103851","52850","102222","6123","99201","Lexical Decision Task","15","21486","21","yes","1024"
"3.431095062","5.74","9","perk","word","72.72727272727273","72.72727272727273","1011.5","1011.5","black","no","legacy","legacy","legacy","0","uniform","1","undefined","undefined","undefined","1","j","0","0","0","0","21","0","0","0","21","NA","17","21","17","0","17","3","21","0","21","Fri Feb 19 12:16:04 2021","The main experiment item","yes","Lexical_Decision_Task.osexp","C:/Users/nicho/OneDrive/Psychology/Year 2/Semester 2/CAL/Seminars","no","Andale Mono","no","18","no","white","no","yes","576","legacy","17","17","3","C:/Users/nicho/OneDrive/Psychology/Year 2/Semester 2/CAL/Seminars/subject.-5203705.csv","legacy","Lentiform Loewenfeld","3.3.7","yes","yes","600bd7cfb6416f0113b04181","602110864497cf011d9c0822","0","j","NA","left super","space","space","NA","j","767","NA","4336","24074","16252","NA","767","2","legacy","1024","2","48000","-16","task","5203705","odd","NA","54666","61006","56669","105519","6155","46485","30232","106021","NA","105516","106022","105365","61006","106790","52850","102222","6123","103865","Lexical Decision Task","16","22253","22","yes","1024"
"3.090140555","5.81","8","pout","word","69.56521739130434","69.56521739130434","1000.6086956521739","1000.6086956521739","black","no","legacy","legacy","legacy","0","uniform","0","undefined","undefined","undefined","0","j","0","0","0","0","22","0","0","0","22","NA","18","22","18","0","18","3","22","0","22","Fri Feb 19 12:16:04 2021","The main experiment item","yes","Lexical_Decision_Task.osexp","C:/Users/nicho/OneDrive/Psychology/Year 2/Semester 2/CAL/Seminars","no","Andale Mono","no","18","no","white","no","yes","576","legacy","18","18","3","C:/Users/nicho/OneDrive/Psychology/Year 2/Semester 2/CAL/Seminars/subject.-5203705.csv","legacy","Lentiform Loewenfeld","3.3.7","yes","yes","600bd7cfb6416f0113b04181","602110864497cf011d9c0822","0","f","NA","left super","space","space","NA","f","761","NA","4336","24074","16252","NA","761","2","legacy","1024","2","48000","-16","task","5203705","odd","NA","54666","61006","56669","107443","6155","46485","30232","107946","NA","107439","107946","107305","61006","108709","52850","106805","6123","103865","Lexical Decision Task","16","23014","23","yes","1024"
"2.809559715","8.44","4","volt","word","70.83333333333333","70.83333333333333","984.9166666666666","984.9166666666666","black","no","legacy","legacy","legacy","0","uniform","1","undefined","undefined","undefined","1","j","0","0","0","0","23","0","0","0","23","NA","19","23","19","0","19","3","23","0","23","Fri Feb 19 12:16:04 2021","The main experiment item","yes","Lexical_Decision_Task.osexp","C:/Users/nicho/OneDrive/Psychology/Year 2/Semester 2/CAL/Seminars","no","Andale Mono","no","18","no","white","no","yes","576","legacy","19","19","3","C:/Users/nicho/OneDrive/Psychology/Year 2/Semester 2/CAL/Seminars/subject.-5203705.csv","legacy","Lentiform Loewenfeld","3.3.7","yes","yes","600bd7cfb6416f0113b04181","602110864497cf011d9c0822","0","j","NA","left super","space","space","NA","j","624","NA","4336","24074","16252","NA","624","2","legacy","1024","2","48000","-16","task","5203705","odd","NA","54666","61006","56669","110345","6155","46485","30232","110847","NA","110341","110847","110216","61006","111472","52850","106805","6123","108716","Lexical Decision Task","17","23638","24","yes","1024"
"3.474361976","5.24","6","veer","word","72","72","971.28","971.28","black","no","legacy","legacy","legacy","0","uniform","1","undefined","undefined","undefined","1","j","0","0","0","0","24","0","0","0","24","NA","20","24","20","0","20","3","24","0","24","Fri Feb 19 12:16:04 2021","The main experiment item","yes","Lexical_Decision_Task.osexp","C:/Users/nicho/OneDrive/Psychology/Year 2/Semester 2/CAL/Seminars","no","Andale Mono","no","18","no","white","no","yes","576","legacy","20","20","3","C:/Users/nicho/OneDrive/Psychology/Year 2/Semester 2/CAL/Seminars/subject.-5203705.csv","legacy","Lentiform Loewenfeld","3.3.7","yes","yes","600bd7cfb6416f0113b04181","602110864497cf011d9c0822","0","j","NA","left super","space","space","NA","j","644","NA","4336","24074","16252","NA","644","2","legacy","1024","2","48000","-16","task","5203705","odd","NA","54666","61006","56669","112135","6155","46485","30232","112637","NA","112131","112637","111986","61006","113282","52850","111486","6123","108716","Lexical Decision Task","18","24282","25","yes","1024"
"2.75025376","10.2","6","jump","word","73.07692307692308","73.07692307692308","956.7307692307693","956.7307692307693","black","no","legacy","legacy","legacy","0","uniform","1","undefined","undefined","undefined","1","j","0","0","0","0","25","0","0","0","25","NA","21","25","21","0","21","3","25","0","25","Fri Feb 19 12:16:04 2021","The main experiment item","yes","Lexical_Decision_Task.osexp","C:/Users/nicho/OneDrive/Psychology/Year 2/Semester 2/CAL/Seminars","no","Andale Mono","no","18","no","white","no","yes","576","legacy","21","21","3","C:/Users/nicho/OneDrive/Psychology/Year 2/Semester 2/CAL/Seminars/subject.-5203705.csv","legacy","Lentiform Loewenfeld","3.3.7","yes","yes","600bd7cfb6416f0113b04181","602110864497cf011d9c0822","0","j","NA","left super","space","space","NA","j","593","NA","4336","24074","16252","NA","593","2","legacy","1024","2","48000","-16","task","5203705","odd","NA","54666","61006","56669","113925","6155","46485","30232","114427","NA","113923","114427","113804","61006","115021","52850","113304","6123","108716","Lexical Decision Task","19","24875","26","yes","1024"
"3.248054965","7.86","5","glow","word","74.07407407407408","74.07407407407408","938.7777777777778","938.7777777777778","black","no","legacy","legacy","legacy","0","uniform","1","undefined","undefined","undefined","1","j","0","0","0","0","26","0","0","0","26","NA","22","26","22","0","22","3","26","0","26","Fri Feb 19 12:16:04 2021","The main experiment item","yes","Lexical_Decision_Task.osexp","C:/Users/nicho/OneDrive/Psychology/Year 2/Semester 2/CAL/Seminars","no","Andale Mono","no","18","no","white","no","yes","576","legacy","22","22","3","C:/Users/nicho/OneDrive/Psychology/Year 2/Semester 2/CAL/Seminars/subject.-5203705.csv","legacy","Lentiform Loewenfeld","3.3.7","yes","yes","600bd7cfb6416f0113b04181","602110864497cf011d9c0822","0","j","NA","left super","space","space","NA","j","472","NA","4336","24074","16252","NA","472","2","legacy","1024","2","48000","-16","task","5203705","odd","NA","54666","61006","56669","115681","6155","46485","30232","116183","NA","115679","116183","115535","61006","116656","52850","115035","6123","108716","Lexical Decision Task","20","25347","27","yes","1024"
"2.7084209","0","8","vump","non-word","71.42857142857143","71.42857142857143","923.4642857142857","923.4642857142857","black","no","legacy","legacy","legacy","0","uniform","0","undefined","undefined","undefined","0","f","0","0","0","0","27","0","0","0","27","NA","23","27","23","0","23","3","27","0","27","Fri Feb 19 12:16:04 2021","The main experiment item","yes","Lexical_Decision_Task.osexp","C:/Users/nicho/OneDrive/Psychology/Year 2/Semester 2/CAL/Seminars","no","Andale Mono","no","18","no","white","no","yes","576","legacy","23","23","3","C:/Users/nicho/OneDrive/Psychology/Year 2/Semester 2/CAL/Seminars/subject.-5203705.csv","legacy","Lentiform Loewenfeld","3.3.7","yes","yes","600bd7cfb6416f0113b04181","602110864497cf011d9c0822","0","j","NA","left super","space","space","NA","j","510","NA","4336","24074","16252","NA","510","2","legacy","1024","2","48000","-16","task","5203705","odd","NA","54666","61006","56669","117335","6155","46485","30232","117836","NA","117333","117837","117171","61006","118348","52850","116671","6123","108716","Lexical Decision Task","20","25857","28","yes","1024"
"3.088136089","8.32","9","worm","word","72.41379310344827","72.41379310344827","915.9310344827586","915.9310344827586","black","no","legacy","legacy","legacy","0","uniform","1","undefined","undefined","undefined","1","j","0","0","0","0","28","0","0","0","28","NA","24","28","24","0","24","3","28","0","28","Fri Feb 19 12:16:04 2021","The main experiment item","yes","Lexical_Decision_Task.osexp","C:/Users/nicho/OneDrive/Psychology/Year 2/Semester 2/CAL/Seminars","no","Andale Mono","no","18","no","white","no","yes","576","legacy","24","24","3","C:/Users/nicho/OneDrive/Psychology/Year 2/Semester 2/CAL/Seminars/subject.-5203705.csv","legacy","Lentiform Loewenfeld","3.3.7","yes","yes","600bd7cfb6416f0113b04181","602110864497cf011d9c0822","0","j","NA","left super","space","space","NA","j","705","NA","4336","24074","16252","NA","705","2","legacy","1024","2","48000","-16","task","5203705","odd","NA","54666","61006","56669","120005","6155","46485","30232","120508","NA","120002","120508","119862","61006","121214","52850","116671","6123","118362","Lexical Decision Task","21","26562","29","yes","1024"
"3.307211407","6.07","7","honk","word","70","70","907.1333333333333","907.1333333333333","black","no","legacy","legacy","legacy","0","uniform","0","undefined","undefined","undefined","0","j","0","0","0","0","29","0","0","0","29","NA","25","29","25","0","25","3","29","0","29","Fri Feb 19 12:16:04 2021","The main experiment item","yes","Lexical_Decision_Task.osexp","C:/Users/nicho/OneDrive/Psychology/Year 2/Semester 2/CAL/Seminars","no","Andale Mono","no","18","no","white","no","yes","576","legacy","25","25","3","C:/Users/nicho/OneDrive/Psychology/Year 2/Semester 2/CAL/Seminars/subject.-5203705.csv","legacy","Lentiform Loewenfeld","3.3.7","yes","yes","600bd7cfb6416f0113b04181","602110864497cf011d9c0822","0","f","NA","left super","space","space","NA","f","652","NA","4336","24074","16252","NA","652","2","legacy","1024","2","48000","-16","task","5203705","odd","NA","54666","61006","56669","121849","6155","46485","30232","122351","NA","121845","122351","121721","61006","123004","52850","121221","6123","118362","Lexical Decision Task","21","27214","30","yes","1024"
"3.153104174","10.89","6","door","word","70.96774193548387","70.96774193548387","893.0967741935484","893.0967741935484","black","no","legacy","legacy","legacy","0","uniform","1","undefined","undefined","undefined","1","j","0","0","0","0","30","0","0","0","30","NA","26","30","26","0","26","3","30","0","30","Fri Feb 19 12:16:04 2021","The main experiment item","yes","Lexical_Decision_Task.osexp","C:/Users/nicho/OneDrive/Psychology/Year 2/Semester 2/CAL/Seminars","no","Andale Mono","no","18","no","white","no","yes","576","legacy","26","26","3","C:/Users/nicho/OneDrive/Psychology/Year 2/Semester 2/CAL/Seminars/subject.-5203705.csv","legacy","Lentiform Loewenfeld","3.3.7","yes","yes","600bd7cfb6416f0113b04181","602110864497cf011d9c0822","0","j","NA","left super","space","space","NA","j","472","NA","4336","24074","16252","NA","472","2","legacy","1024","2","48000","-16","task","5203705","odd","NA","54666","61006","56669","124680","6155","46485","30232","125182","NA","124678","125182","124523","61006","125655","52850","121221","6123","123023","Lexical Decision Task","22","27686","31","yes","1024"
"2.709837904","6.85","8","skim","word","71.875","71.875","880.96875","880.96875","black","no","legacy","legacy","legacy","0","uniform","1","undefined","undefined","undefined","1","j","0","0","0","0","31","0","0","0","31","NA","27","31","27","0","27","3","31","0","31","Fri Feb 19 12:16:04 2021","The main experiment item","yes","Lexical_Decision_Task.osexp","C:/Users/nicho/OneDrive/Psychology/Year 2/Semester 2/CAL/Seminars","no","Andale Mono","no","18","no","white","no","yes","576","legacy","27","27","3","C:/Users/nicho/OneDrive/Psychology/Year 2/Semester 2/CAL/Seminars/subject.-5203705.csv","legacy","Lentiform Loewenfeld","3.3.7","yes","yes","600bd7cfb6416f0113b04181","602110864497cf011d9c0822","0","j","NA","left super","space","space","NA","j","505","NA","4336","24074","16252","NA","505","2","legacy","1024","2","48000","-16","task","5203705","odd","NA","54666","61006","56669","126288","6155","46485","30232","126790","NA","126286","126790","126161","61006","127296","52850","125661","6123","123023","Lexical Decision Task","23","28191","32","yes","1024"
"2.990042563","6.64","9","plow","word","72.72727272727273","72.72727272727273","876.6060606060606","876.6060606060606","black","no","legacy","legacy","legacy","0","uniform","1","undefined","undefined","undefined","1","j","0","0","0","0","32","0","0","0","32","NA","28","32","28","0","28","3","32","0","32","Fri Feb 19 12:16:04 2021","The main experiment item","yes","Lexical_Decision_Task.osexp","C:/Users/nicho/OneDrive/Psychology/Year 2/Semester 2/CAL/Seminars","no","Andale Mono","no","18","no","white","no","yes","576","legacy","28","28","3","C:/Users/nicho/OneDrive/Psychology/Year 2/Semester 2/CAL/Seminars/subject.-5203705.csv","legacy","Lentiform Loewenfeld","3.3.7","yes","yes","600bd7cfb6416f0113b04181","602110864497cf011d9c0822","0","j","NA","left super","space","space","NA","j","737","NA","4336","24074","16252","NA","737","2","legacy","1024","2","48000","-16","task","5203705","odd","NA","54666","61006","56669","127938","6155","46485","30232","128440","NA","127934","128440","127815","61006","129178","52850","127315","6123","123023","Lexical Decision Task","24","28928","33","yes","1024"
"2.937852093","0","7","bamp","non-word","70.58823529411765","70.58823529411765","868.8529411764706","868.8529411764706","black","no","legacy","legacy","legacy","0","uniform","0","undefined","undefined","undefined","0","f","0","0","0","0","33","0","0","0","33","NA","29","33","29","0","29","3","33","0","33","Fri Feb 19 12:16:04 2021","The main experiment item","yes","Lexical_Decision_Task.osexp","C:/Users/nicho/OneDrive/Psychology/Year 2/Semester 2/CAL/Seminars","no","Andale Mono","no","18","no","white","no","yes","576","legacy","29","29","3","C:/Users/nicho/OneDrive/Psychology/Year 2/Semester 2/CAL/Seminars/subject.-5203705.csv","legacy","Lentiform Loewenfeld","3.3.7","yes","yes","600bd7cfb6416f0113b04181","602110864497cf011d9c0822","0","j","NA","left super","space","space","NA","j","613","NA","4336","24074","16252","NA","613","2","legacy","1024","2","48000","-16","task","5203705","odd","NA","54666","61006","56669","129819","6155","46485","30232","130321","NA","129816","130322","129685","61006","130937","52850","129185","6123","123023","Lexical Decision Task","24","29541","34","yes","1024"
"3.062080345","0","6","tomp","non-word","71.42857142857143","71.42857142857143","863.8857142857142","863.8857142857142","black","no","legacy","legacy","legacy","0","uniform","1","undefined","undefined","undefined","1","f","0","0","0","0","34","0","0","0","34","NA","30","34","30","0","30","3","34","0","34","Fri Feb 19 12:16:04 2021","The main experiment item","yes","Lexical_Decision_Task.osexp","C:/Users/nicho/OneDrive/Psychology/Year 2/Semester 2/CAL/Seminars","no","Andale Mono","no","18","no","white","no","yes","576","legacy","30","30","3","C:/Users/nicho/OneDrive/Psychology/Year 2/Semester 2/CAL/Seminars/subject.-5203705.csv","legacy","Lentiform Loewenfeld","3.3.7","yes","yes","600bd7cfb6416f0113b04181","602110864497cf011d9c0822","0","f","NA","left super","space","space","NA","f","695","NA","4336","24074","16252","NA","695","2","legacy","1024","2","48000","-16","task","5203705","odd","NA","54666","61006","56669","132573","6155","46485","30232","133075","NA","132571","133075","132452","61006","133773","52850","129185","6123","130952","Lexical Decision Task","25","30236","35","yes","1024"
"3.149629599","0","2","cleb","non-word","72.22222222222223","72.22222222222223","853.9166666666666","853.9166666666666","black","no","legacy","legacy","legacy","0","uniform","1","undefined","undefined","undefined","1","f","0","0","0","0","35","0","0","0","35","NA","31","35","31","0","31","3","35","0","35","Fri Feb 19 12:16:04 2021","The main experiment item","yes","Lexical_Decision_Task.osexp","C:/Users/nicho/OneDrive/Psychology/Year 2/Semester 2/CAL/Seminars","no","Andale Mono","no","18","no","white","no","yes","576","legacy","31","31","3","C:/Users/nicho/OneDrive/Psychology/Year 2/Semester 2/CAL/Seminars/subject.-5203705.csv","legacy","Lentiform Loewenfeld","3.3.7","yes","yes","600bd7cfb6416f0113b04181","602110864497cf011d9c0822","0","f","NA","left super","space","space","NA","f","505","NA","4336","24074","16252","NA","505","2","legacy","1024","2","48000","-16","task","5203705","odd","NA","54666","61006","56669","134424","6155","46485","30232","134926","NA","134421","134926","134292","61006","135433","52850","133792","6123","130952","Lexical Decision Task","26","30741","36","yes","1024"
"2.895974732","6.65","5","sift","word","72.97297297297297","72.97297297297297","873.8918918918919","873.8918918918919","black","no","legacy","legacy","legacy","0","uniform","1","undefined","undefined","undefined","1","j","0","0","0","0","36","0","0","0","36","NA","32","36","32","0","32","3","36","0","36","Fri Feb 19 12:16:04 2021","The main experiment item","yes","Lexical_Decision_Task.osexp","C:/Users/nicho/OneDrive/Psychology/Year 2/Semester 2/CAL/Seminars","no","Andale Mono","no","18","no","white","no","yes","576","legacy","32","32","3","C:/Users/nicho/OneDrive/Psychology/Year 2/Semester 2/CAL/Seminars/subject.-5203705.csv","legacy","Lentiform Loewenfeld","3.3.7","yes","yes","600bd7cfb6416f0113b04181","602110864497cf011d9c0822","0","j","NA","left super","space","space","NA","j","1593","NA","4336","24074","16252","NA","1593","2","legacy","1024","2","48000","-16","task","5203705","odd","NA","54666","61006","56669","136095","6155","46485","30232","136598","NA","136091","136598","135947","61006","138193","52850","135447","6123","130952","Lexical Decision Task","27","32334","37","yes","1024"
"3.363486562","6.93","9","lush","word","73.6842105263158","73.6842105263158","867.9473684210526","867.9473684210526","black","no","legacy","legacy","legacy","0","uniform","1","undefined","undefined","undefined","1","j","0","0","0","0","37","0","0","0","37","NA","33","37","33","0","33","3","37","0","37","Fri Feb 19 12:16:04 2021","The main experiment item","yes","Lexical_Decision_Task.osexp","C:/Users/nicho/OneDrive/Psychology/Year 2/Semester 2/CAL/Seminars","no","Andale Mono","no","18","no","white","no","yes","576","legacy","33","33","3","C:/Users/nicho/OneDrive/Psychology/Year 2/Semester 2/CAL/Seminars/subject.-5203705.csv","legacy","Lentiform Loewenfeld","3.3.7","yes","yes","600bd7cfb6416f0113b04181","602110864497cf011d9c0822","0","j","NA","left super","space","space","NA","j","648","NA","4336","24074","16252","NA","648","2","legacy","1024","2","48000","-16","task","5203705","odd","NA","54666","61006","56669","138837","6155","46485","30232","139339","NA","138833","139339","138707","61006","139988","52850","138207","6123","130952","Lexical Decision Task","28","32982","38","yes","1024"
"3.208978517","10.33","4","fish","word","74.35897435897436","74.35897435897436","860.2307692307693","860.2307692307693","black","no","legacy","legacy","legacy","0","uniform","1","undefined","undefined","undefined","1","j","0","0","0","0","38","0","0","0","38","NA","34","38","34","0","34","3","38","0","38","Fri Feb 19 12:16:04 2021","The main experiment item","yes","Lexical_Decision_Task.osexp","C:/Users/nicho/OneDrive/Psychology/Year 2/Semester 2/CAL/Seminars","no","Andale Mono","no","18","no","white","no","yes","576","legacy","34","34","3","C:/Users/nicho/OneDrive/Psychology/Year 2/Semester 2/CAL/Seminars/subject.-5203705.csv","legacy","Lentiform Loewenfeld","3.3.7","yes","yes","600bd7cfb6416f0113b04181","602110864497cf011d9c0822","0","j","NA","left super","space","space","NA","j","567","NA","4336","24074","16252","NA","567","2","legacy","1024","2","48000","-16","task","5203705","odd","NA","54666","61006","56669","140660","6155","46485","30232","141162","NA","140658","141162","140508","61006","141731","52850","140007","6123","130952","Lexical Decision Task","29","33549","39","yes","1024"
"2.664328519","0","4","plux","non-word","75","75","867.125","867.125","black","no","legacy","legacy","legacy","0","uniform","1","undefined","undefined","undefined","1","f","0","0","0","0","39","0","0","0","39","NA","35","39","35","0","35","3","39","0","39","Fri Feb 19 12:16:04 2021","The main experiment item","yes","Lexical_Decision_Task.osexp","C:/Users/nicho/OneDrive/Psychology/Year 2/Semester 2/CAL/Seminars","no","Andale Mono","no","18","no","white","no","yes","576","legacy","35","35","3","C:/Users/nicho/OneDrive/Psychology/Year 2/Semester 2/CAL/Seminars/subject.-5203705.csv","legacy","Lentiform Loewenfeld","3.3.7","yes","yes","600bd7cfb6416f0113b04181","602110864497cf011d9c0822","0","f","NA","left super","space","space","NA","f","1136","NA","4336","24074","16252","NA","1136","2","legacy","1024","2","48000","-16","task","5203705","odd","NA","54666","61006","56669","142387","6155","46485","30232","142889","NA","142384","142890","142244","61006","144028","52850","141744","6123","130952","Lexical Decision Task","30","34685","40","yes","1024"
"2.746890964","9.67","3","plug","word","75.60975609756098","75.60975609756098","863.3414634146342","863.3414634146342","black","no","legacy","legacy","legacy","0","uniform","1","undefined","undefined","undefined","1","j","0","0","0","0","40","0","0","0","40","NA","36","40","36","0","36","3","40","0","40","Fri Feb 19 12:16:04 2021","The main experiment item","yes","Lexical_Decision_Task.osexp","C:/Users/nicho/OneDrive/Psychology/Year 2/Semester 2/CAL/Seminars","no","Andale Mono","no","18","no","white","no","yes","576","legacy","36","36","3","C:/Users/nicho/OneDrive/Psychology/Year 2/Semester 2/CAL/Seminars/subject.-5203705.csv","legacy","Lentiform Loewenfeld","3.3.7","yes","yes","600bd7cfb6416f0113b04181","602110864497cf011d9c0822","0","j","NA","left super","space","space","NA","j","712","NA","4336","24074","16252","NA","712","2","legacy","1024","2","48000","-16","task","5203705","odd","NA","54666","61006","56669","144675","6155","46485","30232","145177","NA","144673","145178","144548","61006","145891","52850","144048","6123","130952","Lexical Decision Task","31","35397","41","yes","1024"
"3.133964479","0","8","graw","non-word","73.80952380952381","73.80952380952381","856.1190476190476","856.1190476190476","black","no","legacy","legacy","legacy","0","uniform","0","undefined","undefined","undefined","0","f","0","0","0","0","41","0","0","0","41","NA","37","41","37","0","37","3","41","0","41","Fri Feb 19 12:16:04 2021","The main experiment item","yes","Lexical_Decision_Task.osexp","C:/Users/nicho/OneDrive/Psychology/Year 2/Semester 2/CAL/Seminars","no","Andale Mono","no","18","no","white","no","yes","576","legacy","37","37","3","C:/Users/nicho/OneDrive/Psychology/Year 2/Semester 2/CAL/Seminars/subject.-5203705.csv","legacy","Lentiform Loewenfeld","3.3.7","yes","yes","600bd7cfb6416f0113b04181","602110864497cf011d9c0822","0","j","NA","left super","space","space","NA","j","560","NA","4336","24074","16252","NA","560","2","legacy","1024","2","48000","-16","task","5203705","odd","NA","54666","61006","56669","146558","6155","46485","30232","147061","NA","146556","147061","146414","61006","147624","52850","145913","6123","130952","Lexical Decision Task","31","35957","42","yes","1024"
"3.374137706","10.21","4","tree","word","74.4186046511628","74.4186046511628","852.6744186046511","852.6744186046511","black","no","legacy","legacy","legacy","0","uniform","1","undefined","undefined","undefined","1","j","0","0","0","0","42","0","0","0","42","NA","38","42","38","0","38","3","42","0","42","Fri Feb 19 12:16:04 2021","The main experiment item","yes","Lexical_Decision_Task.osexp","C:/Users/nicho/OneDrive/Psychology/Year 2/Semester 2/CAL/Seminars","no","Andale Mono","no","18","no","white","no","yes","576","legacy","38","38","3","C:/Users/nicho/OneDrive/Psychology/Year 2/Semester 2/CAL/Seminars/subject.-5203705.csv","legacy","Lentiform Loewenfeld","3.3.7","yes","yes","600bd7cfb6416f0113b04181","602110864497cf011d9c0822","0","j","NA","left super","space","space","NA","j","708","NA","4336","24074","16252","NA","708","2","legacy","1024","2","48000","-16","task","5203705","odd","NA","54666","61006","56669","149282","6155","46485","30232","149784","NA","149278","149784","149144","61006","150493","52850","145913","6123","147644","Lexical Decision Task","32","36665","43","yes","1024"
"3.216517684","10.87","3","film","word","75","75","845.7727272727273","845.7727272727273","black","no","legacy","legacy","legacy","0","uniform","1","undefined","undefined","undefined","1","j","0","0","0","0","43","0","0","0","43","NA","39","43","39","0","39","3","43","0","43","Fri Feb 19 12:16:04 2021","The main experiment item","yes","Lexical_Decision_Task.osexp","C:/Users/nicho/OneDrive/Psychology/Year 2/Semester 2/CAL/Seminars","no","Andale Mono","no","18","no","white","no","yes","576","legacy","39","39","3","C:/Users/nicho/OneDrive/Psychology/Year 2/Semester 2/CAL/Seminars/subject.-5203705.csv","legacy","Lentiform Loewenfeld","3.3.7","yes","yes","600bd7cfb6416f0113b04181","602110864497cf011d9c0822","0","j","NA","left super","space","space","NA","j","549","NA","4336","24074","16252","NA","549","2","legacy","1024","2","48000","-16","task","5203705","odd","NA","54666","61006","56669","151169","6155","46485","30232","151671","NA","151166","151671","151012","61006","152221","52850","150512","6123","147644","Lexical Decision Task","33","37214","44","yes","1024"
"2.807758206","6.25","4","hurl","word","75.55555555555556","75.55555555555556","844.9555555555555","844.9555555555555","black","no","legacy","legacy","legacy","0","uniform","1","undefined","undefined","undefined","1","j","0","0","0","0","44","0","0","0","44","NA","40","44","40","0","40","3","44","0","44","Fri Feb 19 12:16:04 2021","The main experiment item","yes","Lexical_Decision_Task.osexp","C:/Users/nicho/OneDrive/Psychology/Year 2/Semester 2/CAL/Seminars","no","Andale Mono","no","18","no","white","no","yes","576","legacy","40","40","3","C:/Users/nicho/OneDrive/Psychology/Year 2/Semester 2/CAL/Seminars/subject.-5203705.csv","legacy","Lentiform Loewenfeld","3.3.7","yes","yes","600bd7cfb6416f0113b04181","602110864497cf011d9c0822","0","j","NA","left super","space","space","NA","j","809","NA","4336","24074","16252","NA","809","2","legacy","1024","2","48000","-16","task","5203705","odd","NA","54666","61006","56669","152869","6155","46485","30232","153371","NA","152865","153372","152739","61006","154183","52850","152239","6123","147644","Lexical Decision Task","34","38023","45","yes","1024"
"3.197740804","6.74","3","ache","word","76.08695652173913","76.08695652173913","841.7173913043479","841.7173913043479","black","no","legacy","legacy","legacy","0","uniform","1","undefined","undefined","undefined","1","j","0","0","0","0","45","0","0","0","45","NA","41","45","41","0","41","3","45","0","45","Fri Feb 19 12:16:04 2021","The main experiment item","yes","Lexical_Decision_Task.osexp","C:/Users/nicho/OneDrive/Psychology/Year 2/Semester 2/CAL/Seminars","no","Andale Mono","no","18","no","white","no","yes","576","legacy","41","41","3","C:/Users/nicho/OneDrive/Psychology/Year 2/Semester 2/CAL/Seminars/subject.-5203705.csv","legacy","Lentiform Loewenfeld","3.3.7","yes","yes","600bd7cfb6416f0113b04181","602110864497cf011d9c0822","0","j","NA","left super","space","space","NA","j","696","NA","4336","24074","16252","NA","696","2","legacy","1024","2","48000","-16","task","5203705","odd","NA","54666","61006","56669","154820","6155","46485","30232","155323","NA","154817","155323","154698","61006","156021","52850","154198","6123","147644","Lexical Decision Task","35","38719","46","yes","1024"
"3.121778632","0","9","sark","non-word","76.59574468085107","76.59574468085107","838.6382978723404","838.6382978723404","black","no","legacy","legacy","legacy","0","uniform","1","undefined","undefined","undefined","1","f","0","0","0","0","46","0","0","0","46","NA","42","46","42","0","42","3","46","0","46","Fri Feb 19 12:16:04 2021","The main experiment item","yes","Lexical_Decision_Task.osexp","C:/Users/nicho/OneDrive/Psychology/Year 2/Semester 2/CAL/Seminars","no","Andale Mono","no","18","no","white","no","yes","576","legacy","42","42","3","C:/Users/nicho/OneDrive/Psychology/Year 2/Semester 2/CAL/Seminars/subject.-5203705.csv","legacy","Lentiform Loewenfeld","3.3.7","yes","yes","600bd7cfb6416f0113b04181","602110864497cf011d9c0822","0","f","NA","left super","space","space","NA","f","697","NA","4336","24074","16252","NA","697","2","legacy","1024","2","48000","-16","task","5203705","odd","NA","54666","61006","56669","156671","6155","46485","30232","157173","NA","156668","157174","156541","61006","157872","52850","156041","6123","147644","Lexical Decision Task","36","39416","47","yes","1024"
"2.728085817","10.02","9","bike","word","77.08333333333333","77.08333333333333","834.0416666666666","834.0416666666666","black","no","legacy","legacy","legacy","0","uniform","1","undefined","undefined","undefined","1","j","0","0","0","0","47","0","0","0","47","NA","43","47","43","0","43","3","47","0","47","Fri Feb 19 12:16:04 2021","The main experiment item","yes","Lexical_Decision_Task.osexp","C:/Users/nicho/OneDrive/Psychology/Year 2/Semester 2/CAL/Seminars","no","Andale Mono","no","18","no","white","no","yes","576","legacy","43","43","3","C:/Users/nicho/OneDrive/Psychology/Year 2/Semester 2/CAL/Seminars/subject.-5203705.csv","legacy","Lentiform Loewenfeld","3.3.7","yes","yes","600bd7cfb6416f0113b04181","602110864497cf011d9c0822","0","j","NA","left super","space","space","NA","j","618","NA","4336","24074","16252","NA","618","2","legacy","1024","2","48000","-16","task","5203705","odd","NA","54666","61006","56669","158540","6155","46485","30232","159042","NA","158537","159042","158398","61006","159661","52850","157898","6123","147644","Lexical Decision Task","37","40034","48","yes","1024"
"2.793790385","5.67","9","swab","word","77.55102040816327","77.55102040816327","829.1836734693877","829.1836734693877","black","no","legacy","legacy","legacy","0","uniform","1","undefined","undefined","undefined","1","j","0","0","0","0","48","0","0","0","48","NA","44","48","44","0","44","3","48","0","48","Fri Feb 19 12:16:04 2021","The main experiment item","yes","Lexical_Decision_Task.osexp","C:/Users/nicho/OneDrive/Psychology/Year 2/Semester 2/CAL/Seminars","no","Andale Mono","no","18","no","white","no","yes","576","legacy","44","44","3","C:/Users/nicho/OneDrive/Psychology/Year 2/Semester 2/CAL/Seminars/subject.-5203705.csv","legacy","Lentiform Loewenfeld","3.3.7","yes","yes","600bd7cfb6416f0113b04181","602110864497cf011d9c0822","0","j","NA","left super","space","space","NA","j","596","NA","4336","24074","16252","NA","596","2","legacy","1024","2","48000","-16","task","5203705","odd","NA","54666","61006","56669","160320","6155","46485","30232","160822","NA","160316","160823","160177","61006","161420","52850","159677","6123","147644","Lexical Decision Task","38","40630","49","yes","1024"
"2.875447132","0","9","jelt","non-word","76","76","826.32","826.32","black","no","legacy","legacy","legacy","0","uniform","0","undefined","undefined","undefined","0","f","0","0","0","0","49","0","0","0","49","NA","45","49","45","0","45","3","49","0","49","Fri Feb 19 12:16:04 2021","The main experiment item","yes","Lexical_Decision_Task.osexp","C:/Users/nicho/OneDrive/Psychology/Year 2/Semester 2/CAL/Seminars","no","Andale Mono","no","18","no","white","no","yes","576","legacy","45","45","3","C:/Users/nicho/OneDrive/Psychology/Year 2/Semester 2/CAL/Seminars/subject.-5203705.csv","legacy","Lentiform Loewenfeld","3.3.7","yes","yes","600bd7cfb6416f0113b04181","602110864497cf011d9c0822","0","j","NA","left super","space","space","NA","j","686","NA","4336","24074","16252","NA","686","2","legacy","1024","2","48000","-16","task","5203705","odd","NA","54666","61006","56669","162093","6155","46485","30232","162596","NA","162090","162596","161934","61006","163284","52850","161434","6123","147644","Lexical Decision Task","38","41316","50","yes","1024"
"2.68604012","0","3","mulb","non-word","76.47058823529412","76.47058823529412","826.2352941176471","826.2352941176471","black","no","legacy","legacy","legacy","0","uniform","1","undefined","undefined","undefined","1","f","0","0","0","0","50","0","0","0","50","NA","46","50","46","0","46","3","50","0","50","Fri Feb 19 12:16:04 2021","The main experiment item","yes","Lexical_Decision_Task.osexp","C:/Users/nicho/OneDrive/Psychology/Year 2/Semester 2/CAL/Seminars","no","Andale Mono","no","18","no","white","no","yes","576","legacy","46","46","3","C:/Users/nicho/OneDrive/Psychology/Year 2/Semester 2/CAL/Seminars/subject.-5203705.csv","legacy","Lentiform Loewenfeld","3.3.7","yes","yes","600bd7cfb6416f0113b04181","602110864497cf011d9c0822","0","f","NA","left super","space","space","NA","f","822","NA","4336","24074","16252","NA","822","2","legacy","1024","2","48000","-16","task","5203705","odd","NA","54666","61006","56669","164940","6155","46485","30232","165442","NA","164937","165442","164801","61006","166266","52850","161434","6123","163301","Lexical Decision Task","39","42138","51","yes","1024"
"2.907588697","8.91","9","mood","word","76.92307692307692","76.92307692307692","821.0961538461538","821.0961538461538","black","no","legacy","legacy","legacy","0","uniform","1","undefined","undefined","undefined","1","j","0","0","0","0","51","0","0","0","51","NA","47","51","47","0","47","3","51","0","51","Fri Feb 19 12:16:04 2021","The main experiment item","yes","Lexical_Decision_Task.osexp","C:/Users/nicho/OneDrive/Psychology/Year 2/Semester 2/CAL/Seminars","no","Andale Mono","no","18","no","white","no","yes","576","legacy","47","47","3","C:/Users/nicho/OneDrive/Psychology/Year 2/Semester 2/CAL/Seminars/subject.-5203705.csv","legacy","Lentiform Loewenfeld","3.3.7","yes","yes","600bd7cfb6416f0113b04181","602110864497cf011d9c0822","0","j","NA","left super","space","space","NA","j","559","NA","4336","24074","16252","NA","559","2","legacy","1024","2","48000","-16","task","5203705","odd","NA","54666","61006","56669","166896","6155","46485","30232","167399","NA","166893","167399","166773","61006","167960","52850","166273","6123","163301","Lexical Decision Task","40","42697","52","yes","1024"
"3.094121596","0","8","fode","non-word","77.35849056603773","77.35849056603773","816.7169811320755","816.7169811320755","black","no","legacy","legacy","legacy","0","uniform","1","undefined","undefined","undefined","1","f","0","0","0","0","52","0","0","0","52","NA","48","52","48","0","48","3","52","0","52","Fri Feb 19 12:16:04 2021","The main experiment item","yes","Lexical_Decision_Task.osexp","C:/Users/nicho/OneDrive/Psychology/Year 2/Semester 2/CAL/Seminars","no","Andale Mono","no","18","no","white","no","yes","576","legacy","48","48","3","C:/Users/nicho/OneDrive/Psychology/Year 2/Semester 2/CAL/Seminars/subject.-5203705.csv","legacy","Lentiform Loewenfeld","3.3.7","yes","yes","600bd7cfb6416f0113b04181","602110864497cf011d9c0822","0","f","NA","left super","space","space","NA","f","589","NA","4336","24074","16252","NA","589","2","legacy","1024","2","48000","-16","task","5203705","odd","NA","54666","61006","56669","168608","6155","46485","30232","169110","NA","168603","169110","168479","61006","169700","52850","167979","6123","163301","Lexical Decision Task","41","43286","53","yes","1024"
"3.257359335","8","6","brew","word","77.77777777777777","77.77777777777777","812.074074074074","812.074074074074","black","no","legacy","legacy","legacy","0","uniform","1","undefined","undefined","undefined","1","j","0","0","0","0","53","0","0","0","53","NA","49","53","49","0","49","3","53","0","53","Fri Feb 19 12:16:04 2021","The main experiment item","yes","Lexical_Decision_Task.osexp","C:/Users/nicho/OneDrive/Psychology/Year 2/Semester 2/CAL/Seminars","no","Andale Mono","no","18","no","white","no","yes","576","legacy","49","49","3","C:/Users/nicho/OneDrive/Psychology/Year 2/Semester 2/CAL/Seminars/subject.-5203705.csv","legacy","Lentiform Loewenfeld","3.3.7","yes","yes","600bd7cfb6416f0113b04181","602110864497cf011d9c0822","0","j","NA","left super","space","space","NA","j","566","NA","4336","24074","16252","NA","566","2","legacy","1024","2","48000","-16","task","5203705","odd","NA","54666","61006","56669","170354","6155","46485","30232","170857","NA","170352","170857","170219","61006","171425","52850","169719","6123","163301","Lexical Decision Task","42","43852","54","yes","1024"
"3.302475237","0","7","leel","non-word","76.36363636363636","76.36363636363636","852.0909090909091","852.0909090909091","black","no","legacy","legacy","legacy","0","uniform","0","undefined","undefined","undefined","0","f","0","0","0","0","54","0","0","0","54","0","50","54","50","0","50","3","54","0","54","Fri Feb 19 12:16:04 2021","The main experiment item","yes","Lexical_Decision_Task.osexp","C:/Users/nicho/OneDrive/Psychology/Year 2/Semester 2/CAL/Seminars","no","Andale Mono","no","18","no","white","no","yes","576","legacy","50","50","3","C:/Users/nicho/OneDrive/Psychology/Year 2/Semester 2/CAL/Seminars/subject.-5203705.csv","legacy","Lentiform Loewenfeld","3.3.7","yes","yes","600bd7cfb6416f0113b04181","602110864497cf011d9c0822","0","None","NA","left super","space","space","left super","None","3013","NA","4336","24074","16252","6390","3013","2","legacy","1024","2","48000","-16","task","5203705","odd","NA","54666","61006","56669","178529","6155","46485","30232","179030","172010","178527","179387","171936","61006","182402","52850","171436","6123","163301","Lexical Decision Task","42","46865","55","yes","1024"
"2.6599162","0","6","flug","non-word","75","75","865.0357142857143","865.0357142857143","black","no","legacy","legacy","legacy","0","uniform","0","undefined","undefined","undefined","0","f","0","0","0","0","55","0","0","0","55","0","51","55","51","0","51","3","55","0","55","Fri Feb 19 12:16:04 2021","The main experiment item","yes","Lexical_Decision_Task.osexp","C:/Users/nicho/OneDrive/Psychology/Year 2/Semester 2/CAL/Seminars","no","Andale Mono","no","18","no","white","no","yes","576","legacy","51","51","3","C:/Users/nicho/OneDrive/Psychology/Year 2/Semester 2/CAL/Seminars/subject.-5203705.csv","legacy","Lentiform Loewenfeld","3.3.7","yes","yes","600bd7cfb6416f0113b04181","602110864497cf011d9c0822","0","j","NA","left super","space","space","left super","j","1577","NA","4336","24074","16252","6390","1577","2","legacy","1024","2","48000","-16","task","5203705","odd","NA","54666","61006","56669","184263","6155","46485","30232","184766","172010","184046","184849","183913","61006","186429","52850","171436","6123","182413","Lexical Decision Task","42","48442","56","yes","1024"
"3.252447662","9.67","9","boat","word","73.6842105263158","73.6842105263158","861.7543859649123","861.7543859649123","black","no","legacy","legacy","legacy","0","uniform","0","undefined","undefined","undefined","0","j","0","0","0","0","56","0","0","0","56","0","52","56","52","0","52","3","56","0","56","Fri Feb 19 12:16:04 2021","The main experiment item","yes","Lexical_Decision_Task.osexp","C:/Users/nicho/OneDrive/Psychology/Year 2/Semester 2/CAL/Seminars","no","Andale Mono","no","18","no","white","no","yes","576","legacy","52","52","3","C:/Users/nicho/OneDrive/Psychology/Year 2/Semester 2/CAL/Seminars/subject.-5203705.csv","legacy","Lentiform Loewenfeld","3.3.7","yes","yes","600bd7cfb6416f0113b04181","602110864497cf011d9c0822","0","f","NA","left super","space","space","left super","f","678","NA","4336","24074","16252","6390","678","2","legacy","1024","2","48000","-16","task","5203705","odd","NA","54666","61006","56669","188118","6155","46485","30232","188622","172010","188111","188623","187937","61006","189302","52850","171436","6123","186437","Lexical Decision Task","42","49120","57","yes","1024"
"2.812467698","0","7","hafe","non-word","74.13793103448276","74.13793103448276","861","861","black","no","legacy","legacy","legacy","0","uniform","1","undefined","undefined","undefined","1","f","0","0","0","0","57","0","0","0","57","0","53","57","53","0","53","3","57","0","57","Fri Feb 19 12:16:04 2021","The main experiment item","yes","Lexical_Decision_Task.osexp","C:/Users/nicho/OneDrive/Psychology/Year 2/Semester 2/CAL/Seminars","no","Andale Mono","no","18","no","white","no","yes","576","legacy","53","53","3","C:/Users/nicho/OneDrive/Psychology/Year 2/Semester 2/CAL/Seminars/subject.-5203705.csv","legacy","Lentiform Loewenfeld","3.3.7","yes","yes","600bd7cfb6416f0113b04181","602110864497cf011d9c0822","0","f","NA","left super","space","space","left super","f","818","NA","4336","24074","16252","6390","818","2","legacy","1024","2","48000","-16","task","5203705","odd","NA","54666","61006","56669","190940","6155","46485","30232","191443","172010","190937","191444","190816","61006","192264","52850","171436","6123","189316","Lexical Decision Task","43","49938","58","yes","1024"
"3.316948329","0","1","besc","non-word","74.57627118644068","74.57627118644068","857.9491525423729","857.9491525423729","black","no","legacy","legacy","legacy","0","uniform","1","undefined","undefined","undefined","1","f","0","0","0","0","58","0","0","0","58","0","54","58","54","0","54","3","58","0","58","Fri Feb 19 12:16:04 2021","The main experiment item","yes","Lexical_Decision_Task.osexp","C:/Users/nicho/OneDrive/Psychology/Year 2/Semester 2/CAL/Seminars","no","Andale Mono","no","18","no","white","no","yes","576","legacy","54","54","3","C:/Users/nicho/OneDrive/Psychology/Year 2/Semester 2/CAL/Seminars/subject.-5203705.csv","legacy","Lentiform Loewenfeld","3.3.7","yes","yes","600bd7cfb6416f0113b04181","602110864497cf011d9c0822","0","f","NA","left super","space","space","left super","f","681","NA","4336","24074","16252","6390","681","2","legacy","1024","2","48000","-16","task","5203705","odd","NA","54666","61006","56669","192901","6155","46485","30232","193403","172010","192899","193403","192778","61006","194086","52850","192278","6123","189316","Lexical Decision Task","44","50619","59","yes","1024"
"3.443783828","7.65","3","verb","word","75","75","855.6666666666666","855.6666666666666","black","no","legacy","legacy","legacy","0","uniform","1","undefined","undefined","undefined","1","j","0","0","0","0","59","0","0","0","59","0","55","59","55","0","55","3","59","0","59","Fri Feb 19 12:16:04 2021","The main experiment item","yes","Lexical_Decision_Task.osexp","C:/Users/nicho/OneDrive/Psychology/Year 2/Semester 2/CAL/Seminars","no","Andale Mono","no","18","no","white","no","yes","576","legacy","55","55","3","C:/Users/nicho/OneDrive/Psychology/Year 2/Semester 2/CAL/Seminars/subject.-5203705.csv","legacy","Lentiform Loewenfeld","3.3.7","yes","yes","600bd7cfb6416f0113b04181","602110864497cf011d9c0822","0","j","NA","left super","space","space","left super","j","721","NA","4336","24074","16252","6390","721","2","legacy","1024","2","48000","-16","task","5203705","odd","NA","54666","61006","56669","194742","6155","46485","30232","195245","172010","194739","195246","194600","61006","195969","52850","194100","6123","189316","Lexical Decision Task","45","51340","60","yes","1024"
"3.091901331","0","9","nipe","non-word","73.77049180327869","73.77049180327869","853.2786885245902","853.2786885245902","black","no","legacy","legacy","legacy","0","uniform","0","undefined","undefined","undefined","0","f","0","0","0","0","60","0","0","0","60","0","56","60","56","0","56","3","60","0","60","Fri Feb 19 12:16:04 2021","The main experiment item","yes","Lexical_Decision_Task.osexp","C:/Users/nicho/OneDrive/Psychology/Year 2/Semester 2/CAL/Seminars","no","Andale Mono","no","18","no","white","no","yes","576","legacy","56","56","3","C:/Users/nicho/OneDrive/Psychology/Year 2/Semester 2/CAL/Seminars/subject.-5203705.csv","legacy","Lentiform Loewenfeld","3.3.7","yes","yes","600bd7cfb6416f0113b04181","602110864497cf011d9c0822","0","j","NA","left super","space","space","left super","j","710","NA","4336","24074","16252","6390","710","2","legacy","1024","2","48000","-16","task","5203705","odd","NA","54666","61006","56669","196636","6155","46485","30232","197138","172010","196632","197139","196487","61006","197852","52850","195987","6123","189316","Lexical Decision Task","45","52050","61","yes","1024"
"3.492014979","0","9","yine","non-word","72.58064516129032","72.58064516129032","849.6290322580645","849.6290322580645","black","no","legacy","legacy","legacy","0","uniform","0","undefined","undefined","undefined","0","f","0","0","0","0","61","0","0","0","61","0","57","61","57","0","57","3","61","0","61","Fri Feb 19 12:16:04 2021","The main experiment item","yes","Lexical_Decision_Task.osexp","C:/Users/nicho/OneDrive/Psychology/Year 2/Semester 2/CAL/Seminars","no","Andale Mono","no","18","no","white","no","yes","576","legacy","57","57","3","C:/Users/nicho/OneDrive/Psychology/Year 2/Semester 2/CAL/Seminars/subject.-5203705.csv","legacy","Lentiform Loewenfeld","3.3.7","yes","yes","600bd7cfb6416f0113b04181","602110864497cf011d9c0822","0","j","NA","left super","space","space","left super","j","627","NA","4336","24074","16252","6390","627","2","legacy","1024","2","48000","-16","task","5203705","odd","NA","54666","61006","56669","199529","6155","46485","30232","200031","172010","199526","200031","199372","61006","200660","52850","195987","6123","197872","Lexical Decision Task","45","52677","62","yes","1024"
"2.953276337","6.32","4","thaw","word","73.01587301587301","73.01587301587301","846.1428571428571","846.1428571428571","black","no","legacy","legacy","legacy","0","uniform","1","undefined","undefined","undefined","1","j","0","0","0","0","62","0","0","0","62","0","58","62","58","0","58","3","62","0","62","Fri Feb 19 12:16:04 2021","The main experiment item","yes","Lexical_Decision_Task.osexp","C:/Users/nicho/OneDrive/Psychology/Year 2/Semester 2/CAL/Seminars","no","Andale Mono","no","18","no","white","no","yes","576","legacy","58","58","3","C:/Users/nicho/OneDrive/Psychology/Year 2/Semester 2/CAL/Seminars/subject.-5203705.csv","legacy","Lentiform Loewenfeld","3.3.7","yes","yes","600bd7cfb6416f0113b04181","602110864497cf011d9c0822","0","j","NA","left super","space","space","left super","j","630","NA","4336","24074","16252","6390","630","2","legacy","1024","2","48000","-16","task","5203705","odd","NA","54666","61006","56669","202301","6155","46485","30232","202803","172010","202298","202803","202178","61006","203435","52850","195987","6123","200678","Lexical Decision Task","46","53307","63","yes","1024"
"2.744553742","0","2","nawk","non-word","73.4375","73.4375","841.5625","841.5625","black","no","legacy","legacy","legacy","0","uniform","1","undefined","undefined","undefined","1","f","0","0","0","0","63","0","0","0","63","0","59","63","59","0","59","3","63","0","63","Fri Feb 19 12:16:04 2021","The main experiment item","yes","Lexical_Decision_Task.osexp","C:/Users/nicho/OneDrive/Psychology/Year 2/Semester 2/CAL/Seminars","no","Andale Mono","no","18","no","white","no","yes","576","legacy","59","59","3","C:/Users/nicho/OneDrive/Psychology/Year 2/Semester 2/CAL/Seminars/subject.-5203705.csv","legacy","Lentiform Loewenfeld","3.3.7","yes","yes","600bd7cfb6416f0113b04181","602110864497cf011d9c0822","0","f","NA","left super","space","space","left super","f","553","NA","4336","24074","16252","6390","553","2","legacy","1024","2","48000","-16","task","5203705","odd","NA","54666","61006","56669","204087","6155","46485","30232","204589","172010","204084","204589","203950","61006","205143","52850","203450","6123","200678","Lexical Decision Task","47","53860","64","yes","1024"
"3.705778213","0","6","stin","non-word","73.84615384615384","73.84615384615384","837.6","837.6","black","no","legacy","legacy","legacy","0","uniform","1","undefined","undefined","undefined","1","f","0","0","0","0","64","0","0","0","64","0","60","64","60","0","60","3","64","0","64","Fri Feb 19 12:16:04 2021","The main experiment item","yes","Lexical_Decision_Task.osexp","C:/Users/nicho/OneDrive/Psychology/Year 2/Semester 2/CAL/Seminars","no","Andale Mono","no","18","no","white","no","yes","576","legacy","60","60","3","C:/Users/nicho/OneDrive/Psychology/Year 2/Semester 2/CAL/Seminars/subject.-5203705.csv","legacy","Lentiform Loewenfeld","3.3.7","yes","yes","600bd7cfb6416f0113b04181","602110864497cf011d9c0822","0","f","NA","left super","space","space","left super","f","584","NA","4336","24074","16252","6390","584","2","legacy","1024","2","48000","-16","task","5203705","odd","NA","54666","61006","56669","205782","6155","46485","30232","206285","172010","205779","206285","205656","61006","206871","52850","205156","6123","200678","Lexical Decision Task","48","54444","65","yes","1024"
"3.14849993","10.75","7","hour","word","74.24242424242425","74.24242424242425","834.5909090909091","834.5909090909091","black","no","legacy","legacy","legacy","0","uniform","1","undefined","undefined","undefined","1","j","0","0","0","0","65","0","0","0","65","0","61","65","61","0","61","3","65","0","65","Fri Feb 19 12:16:04 2021","The main experiment item","yes","Lexical_Decision_Task.osexp","C:/Users/nicho/OneDrive/Psychology/Year 2/Semester 2/CAL/Seminars","no","Andale Mono","no","18","no","white","no","yes","576","legacy","61","61","3","C:/Users/nicho/OneDrive/Psychology/Year 2/Semester 2/CAL/Seminars/subject.-5203705.csv","legacy","Lentiform Loewenfeld","3.3.7","yes","yes","600bd7cfb6416f0113b04181","602110864497cf011d9c0822","0","j","NA","left super","space","space","left super","j","639","NA","4336","24074","16252","6390","639","2","legacy","1024","2","48000","-16","task","5203705","odd","NA","54666","61006","56669","207508","6155","46485","30232","208010","172010","207506","208010","207378","61006","208651","52850","206878","6123","200678","Lexical Decision Task","49","55083","66","yes","1024"
"2.696356389","0","1","pizz","non-word","74.6268656716418","74.6268656716418","838.2835820895523","838.2835820895523","black","no","legacy","legacy","legacy","0","uniform","1","undefined","undefined","undefined","1","f","0","0","0","0","66","0","0","0","66","0","62","66","62","0","62","3","66","0","66","Fri Feb 19 12:16:04 2021","The main experiment item","yes","Lexical_Decision_Task.osexp","C:/Users/nicho/OneDrive/Psychology/Year 2/Semester 2/CAL/Seminars","no","Andale Mono","no","18","no","white","no","yes","576","legacy","62","62","3","C:/Users/nicho/OneDrive/Psychology/Year 2/Semester 2/CAL/Seminars/subject.-5203705.csv","legacy","Lentiform Loewenfeld","3.3.7","yes","yes","600bd7cfb6416f0113b04181","602110864497cf011d9c0822","0","f","NA","left super","space","space","left super","f","1082","NA","4336","24074","16252","6390","1082","2","legacy","1024","2","48000","-16","task","5203705","odd","NA","54666","61006","56669","209304","6155","46485","30232","209807","172010","209301","209807","209166","61006","210891","52850","208666","6123","200678","Lexical Decision Task","50","56165","67","yes","1024"
"3.208172527","10.27","7","deck","word","75","75","834.3823529411765","834.3823529411765","black","no","legacy","legacy","legacy","0","uniform","1","undefined","undefined","undefined","1","j","0","0","0","0","67","0","0","0","67","0","63","67","63","0","63","3","67","0","67","Fri Feb 19 12:16:04 2021","The main experiment item","yes","Lexical_Decision_Task.osexp","C:/Users/nicho/OneDrive/Psychology/Year 2/Semester 2/CAL/Seminars","no","Andale Mono","no","18","no","white","no","yes","576","legacy","63","63","3","C:/Users/nicho/OneDrive/Psychology/Year 2/Semester 2/CAL/Seminars/subject.-5203705.csv","legacy","Lentiform Loewenfeld","3.3.7","yes","yes","600bd7cfb6416f0113b04181","602110864497cf011d9c0822","0","j","NA","left super","space","space","left super","j","573","NA","4336","24074","16252","6390","573","2","legacy","1024","2","48000","-16","task","5203705","odd","NA","54666","61006","56669","211555","6155","46485","30232","212058","172010","211553","212058","211409","61006","212633","52850","210909","6123","200678","Lexical Decision Task","51","56738","68","yes","1024"
"3.368162872","0","4","ferk","non-word","75.3623188405797","75.3623188405797","832.3478260869565","832.3478260869565","black","no","legacy","legacy","legacy","0","uniform","1","undefined","undefined","undefined","1","f","0","0","0","0","68","0","0","0","68","0","64","68","64","0","64","3","68","0","68","Fri Feb 19 12:16:04 2021","The main experiment item","yes","Lexical_Decision_Task.osexp","C:/Users/nicho/OneDrive/Psychology/Year 2/Semester 2/CAL/Seminars","no","Andale Mono","no","18","no","white","no","yes","576","legacy","64","64","3","C:/Users/nicho/OneDrive/Psychology/Year 2/Semester 2/CAL/Seminars/subject.-5203705.csv","legacy","Lentiform Loewenfeld","3.3.7","yes","yes","600bd7cfb6416f0113b04181","602110864497cf011d9c0822","0","f","NA","left super","space","space","left super","f","694","NA","4336","24074","16252","6390","694","2","legacy","1024","2","48000","-16","task","5203705","odd","NA","54666","61006","56669","213311","6155","46485","30232","213814","172010","213308","213814","213152","61006","214511","52850","212652","6123","200678","Lexical Decision Task","52","57432","69","yes","1024"
"2.698387659","6.66","7","skid","word","75.71428571428571","75.71428571428571","834.0428571428571","834.0428571428571","black","no","legacy","legacy","legacy","0","uniform","1","undefined","undefined","undefined","1","j","0","0","0","0","69","0","0","0","69","0","65","69","65","0","65","3","69","0","69","Fri Feb 19 12:16:04 2021","The main experiment item","yes","Lexical_Decision_Task.osexp","C:/Users/nicho/OneDrive/Psychology/Year 2/Semester 2/CAL/Seminars","no","Andale Mono","no","18","no","white","no","yes","576","legacy","65","65","3","C:/Users/nicho/OneDrive/Psychology/Year 2/Semester 2/CAL/Seminars/subject.-5203705.csv","legacy","Lentiform Loewenfeld","3.3.7","yes","yes","600bd7cfb6416f0113b04181","602110864497cf011d9c0822","0","j","NA","left super","space","space","left super","j","951","NA","4336","24074","16252","6390","951","2","legacy","1024","2","48000","-16","task","5203705","odd","NA","54666","61006","56669","215176","6155","46485","30232","215679","172010","215174","215679","215031","61006","216632","52850","214531","6123","200678","Lexical Decision Task","53","58383","70","yes","1024"
"3.120025233","0","2","nyst","non-word","76.05633802816901","76.05633802816901","833.1408450704225","833.1408450704225","black","no","legacy","legacy","legacy","0","uniform","1","undefined","undefined","undefined","1","f","0","0","0","0","70","0","0","0","70","0","66","70","66","0","66","3","70","0","70","Fri Feb 19 12:16:04 2021","The main experiment item","yes","Lexical_Decision_Task.osexp","C:/Users/nicho/OneDrive/Psychology/Year 2/Semester 2/CAL/Seminars","no","Andale Mono","no","18","no","white","no","yes","576","legacy","66","66","3","C:/Users/nicho/OneDrive/Psychology/Year 2/Semester 2/CAL/Seminars/subject.-5203705.csv","legacy","Lentiform Loewenfeld","3.3.7","yes","yes","600bd7cfb6416f0113b04181","602110864497cf011d9c0822","0","f","NA","left super","space","space","left super","f","770","NA","4336","24074","16252","6390","770","2","legacy","1024","2","48000","-16","task","5203705","odd","NA","54666","61006","56669","217277","6155","46485","30232","217779","172010","217275","217779","217145","61006","218551","52850","216644","6123","200678","Lexical Decision Task","54","59153","71","yes","1024"
"2.892836167","10.01","5","soft","word","76.38888888888889","76.38888888888889","830.5","830.5","black","no","legacy","legacy","legacy","0","uniform","1","undefined","undefined","undefined","1","j","0","0","0","0","71","0","0","0","71","0","67","71","67","0","67","3","71","0","71","Fri Feb 19 12:16:04 2021","The main experiment item","yes","Lexical_Decision_Task.osexp","C:/Users/nicho/OneDrive/Psychology/Year 2/Semester 2/CAL/Seminars","no","Andale Mono","no","18","no","white","no","yes","576","legacy","67","67","3","C:/Users/nicho/OneDrive/Psychology/Year 2/Semester 2/CAL/Seminars/subject.-5203705.csv","legacy","Lentiform Loewenfeld","3.3.7","yes","yes","600bd7cfb6416f0113b04181","602110864497cf011d9c0822","0","j","NA","left super","space","space","left super","j","643","NA","4336","24074","16252","6390","643","2","legacy","1024","2","48000","-16","task","5203705","odd","NA","54666","61006","56669","219202","6155","46485","30232","219704","172010","219198","219704","219069","61006","220348","52850","218569","6123","200678","Lexical Decision Task","55","59796","72","yes","1024"
"3.384413096","10.15","3","glad","word","76.71232876712328","76.71232876712328","827.1780821917808","827.1780821917808","black","no","legacy","legacy","legacy","0","uniform","1","undefined","undefined","undefined","1","j","0","0","0","0","72","0","0","0","72","0","68","72","68","0","68","3","72","0","72","Fri Feb 19 12:16:04 2021","The main experiment item","yes","Lexical_Decision_Task.osexp","C:/Users/nicho/OneDrive/Psychology/Year 2/Semester 2/CAL/Seminars","no","Andale Mono","no","18","no","white","no","yes","576","legacy","68","68","3","C:/Users/nicho/OneDrive/Psychology/Year 2/Semester 2/CAL/Seminars/subject.-5203705.csv","legacy","Lentiform Loewenfeld","3.3.7","yes","yes","600bd7cfb6416f0113b04181","602110864497cf011d9c0822","0","j","NA","left super","space","space","left super","j","588","NA","4336","24074","16252","6390","588","2","legacy","1024","2","48000","-16","task","5203705","odd","NA","54666","61006","56669","220992","6155","46485","30232","221495","172010","220990","221495","220867","61006","222085","52850","220367","6123","200678","Lexical Decision Task","56","60384","73","yes","1024"
"2.842815106","7.86","8","lump","word","77.02702702702703","77.02702702702703","824.1081081081081","824.1081081081081","black","no","legacy","legacy","legacy","0","uniform","1","undefined","undefined","undefined","1","j","0","0","0","0","73","0","0","0","73","0","69","73","69","0","69","3","73","0","73","Fri Feb 19 12:16:04 2021","The main experiment item","yes","Lexical_Decision_Task.osexp","C:/Users/nicho/OneDrive/Psychology/Year 2/Semester 2/CAL/Seminars","no","Andale Mono","no","18","no","white","no","yes","576","legacy","69","69","3","C:/Users/nicho/OneDrive/Psychology/Year 2/Semester 2/CAL/Seminars/subject.-5203705.csv","legacy","Lentiform Loewenfeld","3.3.7","yes","yes","600bd7cfb6416f0113b04181","602110864497cf011d9c0822","0","j","NA","left super","space","space","left super","j","600","NA","4336","24074","16252","6390","600","2","legacy","1024","2","48000","-16","task","5203705","odd","NA","54666","61006","56669","222741","6155","46485","30232","223243","172010","222737","223243","222599","61006","223845","52850","222099","6123","200678","Lexical Decision Task","57","60984","74","yes","1024"
"3.488597715","0","9","nain","non-word","77.33333333333333","77.33333333333333","831.4666666666667","831.4666666666667","black","no","legacy","legacy","legacy","0","uniform","1","undefined","undefined","undefined","1","f","0","0","0","0","74","0","0","0","74","0","70","74","70","0","70","3","74","0","74","Fri Feb 19 12:16:04 2021","The main experiment item","yes","Lexical_Decision_Task.osexp","C:/Users/nicho/OneDrive/Psychology/Year 2/Semester 2/CAL/Seminars","no","Andale Mono","no","18","no","white","no","yes","576","legacy","70","70","3","C:/Users/nicho/OneDrive/Psychology/Year 2/Semester 2/CAL/Seminars/subject.-5203705.csv","legacy","Lentiform Loewenfeld","3.3.7","yes","yes","600bd7cfb6416f0113b04181","602110864497cf011d9c0822","0","f","NA","left super","space","space","left super","f","1376","NA","4336","24074","16252","6390","1376","2","legacy","1024","2","48000","-16","task","5203705","odd","NA","54666","61006","56669","224489","6155","46485","30232","224991","172010","224486","224991","224359","61006","226369","52850","223858","6123","200678","Lexical Decision Task","58","62360","75","yes","1024"
"3.140404328","10.66","9","deep","word","77.63157894736842","77.63157894736842","828.1184210526316","828.1184210526316","black","no","legacy","legacy","legacy","0","uniform","1","undefined","undefined","undefined","1","j","0","0","0","0","75","0","0","0","75","0","71","75","71","0","71","3","75","0","75","Fri Feb 19 12:16:04 2021","The main experiment item","yes","Lexical_Decision_Task.osexp","C:/Users/nicho/OneDrive/Psychology/Year 2/Semester 2/CAL/Seminars","no","Andale Mono","no","18","no","white","no","yes","576","legacy","71","71","3","C:/Users/nicho/OneDrive/Psychology/Year 2/Semester 2/CAL/Seminars/subject.-5203705.csv","legacy","Lentiform Loewenfeld","3.3.7","yes","yes","600bd7cfb6416f0113b04181","602110864497cf011d9c0822","0","j","NA","left super","space","space","left super","j","577","NA","4336","24074","16252","6390","577","2","legacy","1024","2","48000","-16","task","5203705","odd","NA","54666","61006","56669","226999","6155","46485","30232","227501","172010","226996","227501","226876","61006","228080","52850","226376","6123","200678","Lexical Decision Task","59","62937","76","yes","1024"
"3.145920145","8.51","8","flew","word","77.92207792207792","77.92207792207792","826.3766233766233","826.3766233766233","black","no","legacy","legacy","legacy","0","uniform","1","undefined","undefined","undefined","1","j","0","0","0","0","76","0","0","0","76","0","72","76","72","0","72","3","76","0","76","Fri Feb 19 12:16:04 2021","The main experiment item","yes","Lexical_Decision_Task.osexp","C:/Users/nicho/OneDrive/Psychology/Year 2/Semester 2/CAL/Seminars","no","Andale Mono","no","18","no","white","no","yes","576","legacy","72","72","3","C:/Users/nicho/OneDrive/Psychology/Year 2/Semester 2/CAL/Seminars/subject.-5203705.csv","legacy","Lentiform Loewenfeld","3.3.7","yes","yes","600bd7cfb6416f0113b04181","602110864497cf011d9c0822","0","j","NA","left super","space","space","left super","j","694","NA","4336","24074","16252","6390","694","2","legacy","1024","2","48000","-16","task","5203705","odd","NA","54666","61006","56669","228737","6155","46485","30232","229240","172010","228735","229240","228601","61006","229936","52850","228101","6123","200678","Lexical Decision Task","60","63631","77","yes","1024"
"3.039414119","0","9","meep","non-word","78.2051282051282","78.2051282051282","827.9487179487179","827.9487179487179","black","no","legacy","legacy","legacy","0","uniform","1","undefined","undefined","undefined","1","f","0","0","0","0","77","0","0","0","77","0","73","77","73","0","73","3","77","0","77","Fri Feb 19 12:16:04 2021","The main experiment item","yes","Lexical_Decision_Task.osexp","C:/Users/nicho/OneDrive/Psychology/Year 2/Semester 2/CAL/Seminars","no","Andale Mono","no","18","no","white","no","yes","576","legacy","73","73","3","C:/Users/nicho/OneDrive/Psychology/Year 2/Semester 2/CAL/Seminars/subject.-5203705.csv","legacy","Lentiform Loewenfeld","3.3.7","yes","yes","600bd7cfb6416f0113b04181","602110864497cf011d9c0822","0","f","NA","left super","space","space","left super","f","949","NA","4336","24074","16252","6390","949","2","legacy","1024","2","48000","-16","task","5203705","odd","NA","54666","61006","56669","230580","6155","46485","30232","231082","172010","230576","231082","230454","61006","232034","52850","229954","6123","200678","Lexical Decision Task","61","64580","78","yes","1024"
"2.69019608","9.01","2","myth","word","78.48101265822785","78.48101265822785","829.5822784810126","829.5822784810126","black","no","legacy","legacy","legacy","0","uniform","1","undefined","undefined","undefined","1","j","0","0","0","0","78","0","0","0","78","0","74","78","74","0","74","3","78","0","78","Fri Feb 19 12:16:04 2021","The main experiment item","yes","Lexical_Decision_Task.osexp","C:/Users/nicho/OneDrive/Psychology/Year 2/Semester 2/CAL/Seminars","no","Andale Mono","no","18","no","white","no","yes","576","legacy","74","74","3","C:/Users/nicho/OneDrive/Psychology/Year 2/Semester 2/CAL/Seminars/subject.-5203705.csv","legacy","Lentiform Loewenfeld","3.3.7","yes","yes","600bd7cfb6416f0113b04181","602110864497cf011d9c0822","0","j","NA","left super","space","space","left super","j","957","NA","4336","24074","16252","6390","957","2","legacy","1024","2","48000","-16","task","5203705","odd","NA","54666","61006","56669","232701","6155","46485","30232","233203","172010","232698","233204","232550","61006","234163","52850","232050","6123","200678","Lexical Decision Task","62","65537","79","yes","1024"
"3.276537627","9.15","5","trap","word","78.75","78.75","826.925","826.925","black","no","legacy","legacy","legacy","0","uniform","1","undefined","undefined","undefined","1","j","0","0","0","0","79","0","0","0","79","0","75","79","75","0","75","3","79","0","79","Fri Feb 19 12:16:04 2021","The main experiment item","yes","Lexical_Decision_Task.osexp","C:/Users/nicho/OneDrive/Psychology/Year 2/Semester 2/CAL/Seminars","no","Andale Mono","no","18","no","white","no","yes","576","legacy","75","75","3","C:/Users/nicho/OneDrive/Psychology/Year 2/Semester 2/CAL/Seminars/subject.-5203705.csv","legacy","Lentiform Loewenfeld","3.3.7","yes","yes","600bd7cfb6416f0113b04181","602110864497cf011d9c0822","0","j","NA","left super","space","space","left super","j","617","NA","4336","24074","16252","6390","617","2","legacy","1024","2","48000","-16","task","5203705","odd","NA","54666","61006","56669","234801","6155","46485","30232","235304","172010","234797","235304","234670","61006","235923","52850","234170","6123","200678","Lexical Decision Task","63","66154","80","yes","1024"
"2.695770526","7.34","6","pawn","word","79.01234567901234","79.01234567901234","824.9876543209876","824.9876543209876","black","no","legacy","legacy","legacy","0","uniform","1","undefined","undefined","undefined","1","j","0","0","0","0","80","0","0","0","80","0","76","80","76","0","76","3","80","0","80","Fri Feb 19 12:16:04 2021","The main experiment item","yes","Lexical_Decision_Task.osexp","C:/Users/nicho/OneDrive/Psychology/Year 2/Semester 2/CAL/Seminars","no","Andale Mono","no","18","no","white","no","yes","576","legacy","76","76","3","C:/Users/nicho/OneDrive/Psychology/Year 2/Semester 2/CAL/Seminars/subject.-5203705.csv","legacy","Lentiform Loewenfeld","3.3.7","yes","yes","600bd7cfb6416f0113b04181","602110864497cf011d9c0822","0","j","NA","left super","space","space","left super","j","670","NA","4336","24074","16252","6390","670","2","legacy","1024","2","48000","-16","task","5203705","odd","NA","54666","61006","56669","236575","6155","46485","30232","237077","172010","236571","237077","236444","61006","237748","52850","235944","6123","200678","Lexical Decision Task","64","66824","81","yes","1024"
"3.481012421","8.34","5","teen","word","79.26829268292683","79.26829268292683","823.9024390243902","823.9024390243902","black","no","legacy","legacy","legacy","0","uniform","1","undefined","undefined","undefined","1","j","0","0","0","0","81","0","0","0","81","0","77","81","77","0","77","3","81","0","81","Fri Feb 19 12:16:04 2021","The main experiment item","yes","Lexical_Decision_Task.osexp","C:/Users/nicho/OneDrive/Psychology/Year 2/Semester 2/CAL/Seminars","no","Andale Mono","no","18","no","white","no","yes","576","legacy","77","77","3","C:/Users/nicho/OneDrive/Psychology/Year 2/Semester 2/CAL/Seminars/subject.-5203705.csv","legacy","Lentiform Loewenfeld","3.3.7","yes","yes","600bd7cfb6416f0113b04181","602110864497cf011d9c0822","0","j","NA","left super","space","space","left super","j","736","NA","4336","24074","16252","6390","736","2","legacy","1024","2","48000","-16","task","5203705","odd","NA","54666","61006","56669","238414","6155","46485","30232","238916","172010","238411","238917","238268","61006","239655","52850","237768","6123","200678","Lexical Decision Task","65","67560","82","yes","1024"
"2.898725182","0","7","turl","non-word","78.3132530120482","78.3132530120482","835.289156626506","835.289156626506","black","no","legacy","legacy","legacy","0","uniform","0","undefined","undefined","undefined","0","f","0","0","0","0","82","0","0","0","82","0","78","82","78","0","78","3","82","0","82","Fri Feb 19 12:16:04 2021","The main experiment item","yes","Lexical_Decision_Task.osexp","C:/Users/nicho/OneDrive/Psychology/Year 2/Semester 2/CAL/Seminars","no","Andale Mono","no","18","no","white","no","yes","576","legacy","78","78","3","C:/Users/nicho/OneDrive/Psychology/Year 2/Semester 2/CAL/Seminars/subject.-5203705.csv","legacy","Lentiform Loewenfeld","3.3.7","yes","yes","600bd7cfb6416f0113b04181","602110864497cf011d9c0822","0","j","NA","left super","space","space","left super","j","1769","NA","4336","24074","16252","6390","1769","2","legacy","1024","2","48000","-16","task","5203705","odd","NA","54666","61006","56669","240316","6155","46485","30232","240819","172010","240313","240819","240169","61006","242592","52850","239669","6123","200678","Lexical Decision Task","65","69329","83","yes","1024"
"2.9737419","7.69","7","claw","word","78.57142857142857","78.57142857142857","832.2738095238095","832.2738095238095","black","no","legacy","legacy","legacy","0","uniform","1","undefined","undefined","undefined","1","j","0","0","0","0","83","0","0","0","83","0","79","83","79","0","79","3","83","0","83","Fri Feb 19 12:16:04 2021","The main experiment item","yes","Lexical_Decision_Task.osexp","C:/Users/nicho/OneDrive/Psychology/Year 2/Semester 2/CAL/Seminars","no","Andale Mono","no","18","no","white","no","yes","576","legacy","79","79","3","C:/Users/nicho/OneDrive/Psychology/Year 2/Semester 2/CAL/Seminars/subject.-5203705.csv","legacy","Lentiform Loewenfeld","3.3.7","yes","yes","600bd7cfb6416f0113b04181","602110864497cf011d9c0822","0","j","NA","left super","space","space","left super","j","582","NA","4336","24074","16252","6390","582","2","legacy","1024","2","48000","-16","task","5203705","odd","NA","54666","61006","56669","244264","6155","46485","30232","244766","172010","244261","244766","244115","61006","245350","52850","239669","6123","242614","Lexical Decision Task","66","69911","84","yes","1024"
"2.784379519","0","2","snaf","non-word","78.82352941176471","78.82352941176471","832.9411764705883","832.9411764705883","black","no","legacy","legacy","legacy","0","uniform","1","undefined","undefined","undefined","1","f","0","0","0","0","84","0","0","0","84","0","80","84","80","0","80","3","84","0","84","Fri Feb 19 12:16:04 2021","The main experiment item","yes","Lexical_Decision_Task.osexp","C:/Users/nicho/OneDrive/Psychology/Year 2/Semester 2/CAL/Seminars","no","Andale Mono","no","18","no","white","no","yes","576","legacy","80","80","3","C:/Users/nicho/OneDrive/Psychology/Year 2/Semester 2/CAL/Seminars/subject.-5203705.csv","legacy","Lentiform Loewenfeld","3.3.7","yes","yes","600bd7cfb6416f0113b04181","602110864497cf011d9c0822","0","f","NA","left super","space","space","left super","f","889","NA","4336","24074","16252","6390","889","2","legacy","1024","2","48000","-16","task","5203705","odd","NA","54666","61006","56669","246013","6155","46485","30232","246515","172010","246011","246515","245857","61006","247406","52850","245357","6123","242614","Lexical Decision Task","67","70800","85","yes","1024"
"2.920123326","7.43","4","duel","word","79.06976744186046","79.06976744186046","831.7558139534884","831.7558139534884","black","no","legacy","legacy","legacy","0","uniform","1","undefined","undefined","undefined","1","j","0","0","0","0","85","0","0","0","85","0","81","85","81","0","81","3","85","0","85","Fri Feb 19 12:16:04 2021","The main experiment item","yes","Lexical_Decision_Task.osexp","C:/Users/nicho/OneDrive/Psychology/Year 2/Semester 2/CAL/Seminars","no","Andale Mono","no","18","no","white","no","yes","576","legacy","81","81","3","C:/Users/nicho/OneDrive/Psychology/Year 2/Semester 2/CAL/Seminars/subject.-5203705.csv","legacy","Lentiform Loewenfeld","3.3.7","yes","yes","600bd7cfb6416f0113b04181","602110864497cf011d9c0822","0","j","NA","left super","space","space","left super","j","731","NA","4336","24074","16252","6390","731","2","legacy","1024","2","48000","-16","task","5203705","odd","NA","54666","61006","56669","248087","6155","46485","30232","248590","172010","248085","248590","247926","61006","249323","52850","247426","6123","242614","Lexical Decision Task","68","71531","86","yes","1024"
"3.067070856","9.39","3","loud","word","79.3103448275862","79.3103448275862","829.8505747126437","829.8505747126437","black","no","legacy","legacy","legacy","0","uniform","1","undefined","undefined","undefined","1","j","0","0","0","0","86","0","0","0","86","0","82","86","82","0","82","3","86","0","86","Fri Feb 19 12:16:04 2021","The main experiment item","yes","Lexical_Decision_Task.osexp","C:/Users/nicho/OneDrive/Psychology/Year 2/Semester 2/CAL/Seminars","no","Andale Mono","no","18","no","white","no","yes","576","legacy","82","82","3","C:/Users/nicho/OneDrive/Psychology/Year 2/Semester 2/CAL/Seminars/subject.-5203705.csv","legacy","Lentiform Loewenfeld","3.3.7","yes","yes","600bd7cfb6416f0113b04181","602110864497cf011d9c0822","0","j","NA","left super","space","space","left super","j","666","NA","4336","24074","16252","6390","666","2","legacy","1024","2","48000","-16","task","5203705","odd","NA","54666","61006","56669","249966","6155","46485","30232","250468","172010","249964","250468","249838","61006","251136","52850","249338","6123","242614","Lexical Decision Task","69","72197","87","yes","1024"
"2.695481676","0","7","goke","non-word","79.54545454545455","79.54545454545455","829.2159090909091","829.2159090909091","black","no","legacy","legacy","legacy","0","uniform","1","undefined","undefined","undefined","1","f","0","0","0","0","87","0","0","0","87","0","83","87","83","0","83","3","87","0","87","Fri Feb 19 12:16:04 2021","The main experiment item","yes","Lexical_Decision_Task.osexp","C:/Users/nicho/OneDrive/Psychology/Year 2/Semester 2/CAL/Seminars","no","Andale Mono","no","18","no","white","no","yes","576","legacy","83","83","3","C:/Users/nicho/OneDrive/Psychology/Year 2/Semester 2/CAL/Seminars/subject.-5203705.csv","legacy","Lentiform Loewenfeld","3.3.7","yes","yes","600bd7cfb6416f0113b04181","602110864497cf011d9c0822","0","f","NA","left super","space","space","left super","f","774","NA","4336","24074","16252","6390","774","2","legacy","1024","2","48000","-16","task","5203705","odd","NA","54666","61006","56669","251781","6155","46485","30232","252283","172010","251778","252283","251655","61006","253059","52850","251155","6123","242614","Lexical Decision Task","70","72971","88","yes","1024"
"2.706148589","0","4","hube","non-word","78.65168539325843","78.65168539325843","834.1685393258427","834.1685393258427","black","no","legacy","legacy","legacy","0","uniform","0","undefined","undefined","undefined","0","f","0","0","0","0","88","0","0","0","88","0","84","88","84","0","84","3","88","0","88","Fri Feb 19 12:16:04 2021","The main experiment item","yes","Lexical_Decision_Task.osexp","C:/Users/nicho/OneDrive/Psychology/Year 2/Semester 2/CAL/Seminars","no","Andale Mono","no","18","no","white","no","yes","576","legacy","84","84","3","C:/Users/nicho/OneDrive/Psychology/Year 2/Semester 2/CAL/Seminars/subject.-5203705.csv","legacy","Lentiform Loewenfeld","3.3.7","yes","yes","600bd7cfb6416f0113b04181","602110864497cf011d9c0822","0","j","NA","left super","space","space","left super","j","1270","NA","4336","24074","16252","6390","1270","2","legacy","1024","2","48000","-16","task","5203705","odd","NA","54666","61006","56669","253705","6155","46485","30232","254208","172010","253702","254208","253566","61006","255480","52850","253066","6123","242614","Lexical Decision Task","70","74241","89","yes","1024"
"2.880623071","0","9","curp","non-word","78.88888888888889","78.88888888888889","834.1","834.1","black","no","legacy","legacy","legacy","0","uniform","1","undefined","undefined","undefined","1","f","0","0","0","0","89","0","0","0","89","0","85","89","85","0","85","3","89","0","89","Fri Feb 19 12:16:04 2021","The main experiment item","yes","Lexical_Decision_Task.osexp","C:/Users/nicho/OneDrive/Psychology/Year 2/Semester 2/CAL/Seminars","no","Andale Mono","no","18","no","white","no","yes","576","legacy","85","85","3","C:/Users/nicho/OneDrive/Psychology/Year 2/Semester 2/CAL/Seminars/subject.-5203705.csv","legacy","Lentiform Loewenfeld","3.3.7","yes","yes","600bd7cfb6416f0113b04181","602110864497cf011d9c0822","0","f","NA","left super","space","space","left super","f","828","NA","4336","24074","16252","6390","828","2","legacy","1024","2","48000","-16","task","5203705","odd","NA","54666","61006","56669","257131","6155","46485","30232","257633","172010","257129","257633","256999","61006","258463","52850","253066","6123","255499","Lexical Decision Task","71","75069","90","yes","1024"
"2.813801082","5.47","7","nook","word","79.12087912087912","79.12087912087912","832.6153846153846","832.6153846153846","black","no","legacy","legacy","legacy","0","uniform","1","undefined","undefined","undefined","1","j","0","0","0","0","90","0","0","0","90","0","86","90","86","0","86","3","90","0","90","Fri Feb 19 12:16:04 2021","The main experiment item","yes","Lexical_Decision_Task.osexp","C:/Users/nicho/OneDrive/Psychology/Year 2/Semester 2/CAL/Seminars","no","Andale Mono","no","18","no","white","no","yes","576","legacy","86","86","3","C:/Users/nicho/OneDrive/Psychology/Year 2/Semester 2/CAL/Seminars/subject.-5203705.csv","legacy","Lentiform Loewenfeld","3.3.7","yes","yes","600bd7cfb6416f0113b04181","602110864497cf011d9c0822","0","j","NA","left super","space","space","left super","j","699","NA","4336","24074","16252","6390","699","2","legacy","1024","2","48000","-16","task","5203705","odd","NA","54666","61006","56669","259122","6155","46485","30232","259625","172010","259119","259625","258986","61006","260326","52850","258486","6123","255499","Lexical Decision Task","72","75768","91","yes","1024"
"3.064581521","5.51","6","cask","word","79.34782608695652","79.34782608695652","833.6521739130435","833.6521739130435","black","no","legacy","legacy","legacy","0","uniform","1","undefined","undefined","undefined","1","j","0","0","0","0","91","0","0","0","91","0","87","91","87","0","87","3","91","0","91","Fri Feb 19 12:16:04 2021","The main experiment item","yes","Lexical_Decision_Task.osexp","C:/Users/nicho/OneDrive/Psychology/Year 2/Semester 2/CAL/Seminars","no","Andale Mono","no","18","no","white","no","yes","576","legacy","87","87","3","C:/Users/nicho/OneDrive/Psychology/Year 2/Semester 2/CAL/Seminars/subject.-5203705.csv","legacy","Lentiform Loewenfeld","3.3.7","yes","yes","600bd7cfb6416f0113b04181","602110864497cf011d9c0822","0","j","NA","left super","space","space","left super","j","928","NA","4336","24074","16252","6390","928","2","legacy","1024","2","48000","-16","task","5203705","odd","NA","54666","61006","56669","260985","6155","46485","30232","261487","172010","260982","261487","260846","61006","262417","52850","260346","6123","255499","Lexical Decision Task","73","76696","92","yes","1024"
