"Log_BG","Log_Freq_HAL","Ortho_N","Stimulus","Type","acc","accuracy","average_response_time","avg_rt","background","bidi","canvas_backend","clock_backend","color_backend","compensation","coordinates","correct","correct_Experimental_intro","correct_Introduction","correct_Practice_intro","correct_experimenter_kb","correct_response","count_End_Of_Experiment","count_End_Of_Practice","count_Experimental_Loop","count_Experimental_intro","count_Fixation","count_Introduction","count_Practice_Loop","count_Practice_intro","count_Stimulus","count_block_break_feedback","count_experimental_sequence","count_experimenter_kb","count_increment_trial_count","count_init_trial_count","count_logger","count_practice_sequence","count_right","count_task","count_wrong","datetime","description","disable_garbage_collection","experiment_file","experiment_path","font_bold","font_family","font_italic","font_size","font_underline","foreground","form_clicks","fullscreen","height","keyboard_backend","live_row","live_row_Experimental_Loop","live_row_Practice_Loop","logfile","mouse_backend","opensesame_codename","opensesame_version","osf_always_upload_data","osf_always_upload_experiment","osf_datanode_id","osf_id","repeat_cycle","response","response_End_Of_Experiment","response_Experimental_intro","response_Introduction","response_Practice_intro","response_block_break_feedback","response_experimenter_kb","response_time","response_time_End_Of_Experiment","response_time_Experimental_intro","response_time_Introduction","response_time_Practice_intro","response_time_block_break_feedback","response_time_experimenter_kb","round_decimals","sampler_backend","sound_buf_size","sound_channels","sound_freq","sound_sample_size","start","subject_nr","subject_parity","time_End_Of_Experiment","time_End_Of_Practice","time_Experimental_Loop","time_Experimental_intro","time_Fixation","time_Introduction","time_Practice_Loop","time_Practice_intro","time_Stimulus","time_block_break_feedback","time_experimental_sequence","time_experimenter_kb","time_increment_trial_count","time_init_trial_count","time_logger","time_practice_sequence","time_right","time_task","time_wrong","title","total_correct","total_response_time","total_responses","uniform_coordinates","width"
"3.209246849","0","7","slem","non-word","80","80","966.4","966.4","black","no","legacy","legacy","legacy","0","uniform","0","undefined","undefined","undefined","0","f","0","0","0","0","4","0","0","0","4","NA","0","4","0","0","0","3","4","0","4","Wed Feb 17 11:52:57 2021","The main experiment item","yes","Lexical_Decision_Task.osexp","C:/Users/Tianna","no","Andale Mono","no","18","no","white","no","yes","576","legacy","0","0","3","C:/Users/Tianna/subject-5208953.csv","legacy","Lentiform Loewenfeld","3.3.7","yes","yes","600bd7cfb6416f0113b04181","602110864497cf011d9c0822","0","j","NA","space","space","space","NA","j","1276","NA","2833","24568","5974","NA","1276","2","legacy","1024","2","48000","-16","task","5208953","odd","NA","43902","48741","45907","48839","4954","35500","29525","49342","NA","48835","49343","NA","48741","50620","42065","43340","4945","NA","Lexical Decision Task","4","4832","5","yes","1024"
"2.714888338","0","3","brug","non-word","83.33333333333333","83.33333333333333","1216","1216","black","no","legacy","legacy","legacy","0","uniform","1","undefined","undefined","undefined","1","f","0","0","0","0","5","0","0","0","5","NA","1","5","1","0","1","3","5","0","5","Wed Feb 17 11:52:57 2021","The main experiment item","yes","Lexical_Decision_Task.osexp","C:/Users/Tianna","no","Andale Mono","no","18","no","white","no","yes","576","legacy","1","1","3","C:/Users/Tianna/subject-5208953.csv","legacy","Lentiform Loewenfeld","3.3.7","yes","yes","600bd7cfb6416f0113b04181","602110864497cf011d9c0822","0","f","NA","space","space","space","NA","f","2464","NA","2833","24568","5974","NA","2464","2","legacy","1024","2","48000","-16","task","5208953","odd","NA","43902","48741","45907","52345","4954","35500","29525","52849","NA","52342","52849","52133","48741","55314","42065","43340","4945","50633","Lexical Decision Task","5","7296","6","yes","1024"
"3.302475237","0","7","leel","non-word","85.71428571428571","85.71428571428571","1244.857142857143","1244.857142857143","black","no","legacy","legacy","legacy","0","uniform","1","undefined","undefined","undefined","1","f","0","0","0","0","6","0","0","0","6","NA","2","6","2","0","2","3","6","0","6","Wed Feb 17 11:52:57 2021","The main experiment item","yes","Lexical_Decision_Task.osexp","C:/Users/Tianna","no","Andale Mono","no","18","no","white","no","yes","576","legacy","2","2","3","C:/Users/Tianna/subject-5208953.csv","legacy","Lentiform Loewenfeld","3.3.7","yes","yes","600bd7cfb6416f0113b04181","602110864497cf011d9c0822","0","f","NA","space","space","space","NA","f","1418","NA","2833","24568","5974","NA","1418","2","legacy","1024","2","48000","-16","task","5208953","odd","NA","43902","48741","45907","55968","4954","35500","29525","56471","NA","55965","56471","55820","48741","57890","42065","55320","4945","50633","Lexical Decision Task","6","8714","7","yes","1024"
"3.384413096","10.15","3","glad","word","87.5","87.5","1183.25","1183.25","black","no","legacy","legacy","legacy","0","uniform","1","undefined","undefined","undefined","1","j","0","0","0","0","7","0","0","0","7","NA","3","7","3","0","3","3","7","0","7","Wed Feb 17 11:52:57 2021","The main experiment item","yes","Lexical_Decision_Task.osexp","C:/Users/Tianna","no","Andale Mono","no","18","no","white","no","yes","576","legacy","3","3","3","C:/Users/Tianna/subject-5208953.csv","legacy","Lentiform Loewenfeld","3.3.7","yes","yes","600bd7cfb6416f0113b04181","602110864497cf011d9c0822","0","j","NA","space","space","space","NA","j","752","NA","2833","24568","5974","NA","752","2","legacy","1024","2","48000","-16","task","5208953","odd","NA","43902","48741","45907","58540","4954","35500","29525","59044","NA","58537","59044","58401","48741","59797","42065","57900","4945","50633","Lexical Decision Task","7","9466","8","yes","1024"
"2.924968096","0","4","phim","non-word","88.88888888888889","88.88888888888889","1180.2222222222222","1180.2222222222222","black","no","legacy","legacy","legacy","0","uniform","1","undefined","undefined","undefined","1","f","0","0","0","0","8","0","0","0","8","NA","4","8","4","0","4","3","8","0","8","Wed Feb 17 11:52:57 2021","The main experiment item","yes","Lexical_Decision_Task.osexp","C:/Users/Tianna","no","Andale Mono","no","18","no","white","no","yes","576","legacy","4","4","3","C:/Users/Tianna/subject-5208953.csv","legacy","Lentiform Loewenfeld","3.3.7","yes","yes","600bd7cfb6416f0113b04181","602110864497cf011d9c0822","0","f","NA","space","space","space","NA","f","1156","NA","2833","24568","5974","NA","1156","2","legacy","1024","2","48000","-16","task","5208953","odd","NA","43902","48741","45907","60397","4954","35500","29525","60899","NA","60393","60899","60303","48741","62056","42065","59803","4945","50633","Lexical Decision Task","8","10622","9","yes","1024"
"2.799799878","0","4","ciff","non-word","80","80","1204.6","1204.6","black","no","legacy","legacy","legacy","0","uniform","0","undefined","undefined","undefined","0","f","0","0","0","0","9","0","0","0","9","NA","5","9","5","0","5","3","9","0","9","Wed Feb 17 11:52:57 2021","The main experiment item","yes","Lexical_Decision_Task.osexp","C:/Users/Tianna","no","Andale Mono","no","18","no","white","no","yes","576","legacy","5","5","3","C:/Users/Tianna/subject-5208953.csv","legacy","Lentiform Loewenfeld","3.3.7","yes","yes","600bd7cfb6416f0113b04181","602110864497cf011d9c0822","0","j","NA","space","space","space","NA","j","1424","NA","2833","24568","5974","NA","1424","2","legacy","1024","2","48000","-16","task","5208953","odd","NA","43902","48741","45907","62693","4954","35500","29525","63196","NA","62688","63197","62566","48741","64622","42065","62066","4945","50633","Lexical Decision Task","8","12046","10","yes","1024"
"2.839898939","8.99","6","soap","word","81.81818181818181","81.81818181818181","1168.7272727272727","1168.7272727272727","black","no","legacy","legacy","legacy","0","uniform","1","undefined","undefined","undefined","1","j","0","0","0","0","10","0","0","0","10","NA","6","10","6","0","6","3","10","0","10","Wed Feb 17 11:52:57 2021","The main experiment item","yes","Lexical_Decision_Task.osexp","C:/Users/Tianna","no","Andale Mono","no","18","no","white","no","yes","576","legacy","6","6","3","C:/Users/Tianna/subject-5208953.csv","legacy","Lentiform Loewenfeld","3.3.7","yes","yes","600bd7cfb6416f0113b04181","602110864497cf011d9c0822","0","j","NA","space","space","space","NA","j","810","NA","2833","24568","5974","NA","810","2","legacy","1024","2","48000","-16","task","5208953","odd","NA","43902","48741","45907","66249","4954","35500","29525","66753","NA","66246","66753","66130","48741","67564","42065","62066","4945","64630","Lexical Decision Task","9","12856","11","yes","1024"
"2.898725182","0","7","turl","non-word","83.33333333333333","83.33333333333333","1148.1666666666667","1148.1666666666667","black","no","legacy","legacy","legacy","0","uniform","1","undefined","undefined","undefined","1","f","0","0","0","0","11","0","0","0","11","NA","7","11","7","0","7","3","11","0","11","Wed Feb 17 11:52:57 2021","The main experiment item","yes","Lexical_Decision_Task.osexp","C:/Users/Tianna","no","Andale Mono","no","18","no","white","no","yes","576","legacy","7","7","3","C:/Users/Tianna/subject-5208953.csv","legacy","Lentiform Loewenfeld","3.3.7","yes","yes","600bd7cfb6416f0113b04181","602110864497cf011d9c0822","0","f","NA","space","space","space","NA","f","922","NA","2833","24568","5974","NA","922","2","legacy","1024","2","48000","-16","task","5208953","odd","NA","43902","48741","45907","68198","4954","35500","29525","68701","NA","68195","68701","68074","48741","69624","42065","67574","4945","64630","Lexical Decision Task","10","13778","12","yes","1024"
"3.194328374","9.42","6","harm","word","84.61538461538461","84.61538461538461","1128.2307692307693","1128.2307692307693","black","no","legacy","legacy","legacy","0","uniform","1","undefined","undefined","undefined","1","j","0","0","0","0","12","0","0","0","12","NA","8","12","8","0","8","3","12","0","12","Wed Feb 17 11:52:57 2021","The main experiment item","yes","Lexical_Decision_Task.osexp","C:/Users/Tianna","no","Andale Mono","no","18","no","white","no","yes","576","legacy","8","8","3","C:/Users/Tianna/subject-5208953.csv","legacy","Lentiform Loewenfeld","3.3.7","yes","yes","600bd7cfb6416f0113b04181","602110864497cf011d9c0822","0","j","NA","space","space","space","NA","j","889","NA","2833","24568","5974","NA","889","2","legacy","1024","2","48000","-16","task","5208953","odd","NA","43902","48741","45907","70285","4954","35500","29525","70789","NA","70282","70789","70130","48741","71679","42065","69630","4945","64630","Lexical Decision Task","11","14667","13","yes","1024"
"3.488597715","0","9","nain","non-word","85.71428571428571","85.71428571428571","1117.357142857143","1117.357142857143","black","no","legacy","legacy","legacy","0","uniform","1","undefined","undefined","undefined","1","f","0","0","0","0","13","0","0","0","13","NA","9","13","9","0","9","3","13","0","13","Wed Feb 17 11:52:57 2021","The main experiment item","yes","Lexical_Decision_Task.osexp","C:/Users/Tianna","no","Andale Mono","no","18","no","white","no","yes","576","legacy","9","9","3","C:/Users/Tianna/subject-5208953.csv","legacy","Lentiform Loewenfeld","3.3.7","yes","yes","600bd7cfb6416f0113b04181","602110864497cf011d9c0822","0","f","NA","space","space","space","NA","f","976","NA","2833","24568","5974","NA","976","2","legacy","1024","2","48000","-16","task","5208953","odd","NA","43902","48741","45907","72333","4954","35500","29525","72837","NA","72329","72837","72185","48741","73814","42065","71685","4945","64630","Lexical Decision Task","12","15643","14","yes","1024"
"3.090140555","5.81","8","pout","word","86.66666666666667","86.66666666666667","1113.4","1113.4","black","no","legacy","legacy","legacy","0","uniform","1","undefined","undefined","undefined","1","j","0","0","0","0","14","0","0","0","14","NA","10","14","10","0","10","3","14","0","14","Wed Feb 17 11:52:57 2021","The main experiment item","yes","Lexical_Decision_Task.osexp","C:/Users/Tianna","no","Andale Mono","no","18","no","white","no","yes","576","legacy","10","10","3","C:/Users/Tianna/subject-5208953.csv","legacy","Lentiform Loewenfeld","3.3.7","yes","yes","600bd7cfb6416f0113b04181","602110864497cf011d9c0822","0","j","NA","space","space","space","NA","j","1058","NA","2833","24568","5974","NA","1058","2","legacy","1024","2","48000","-16","task","5208953","odd","NA","43902","48741","45907","74466","4954","35500","29525","74970","NA","74464","74970","74323","48741","76028","42065","73822","4945","64630","Lexical Decision Task","13","16701","15","yes","1024"
"3.252447662","9.67","9","boat","word","87.5","87.5","1087.6875","1087.6875","black","no","legacy","legacy","legacy","0","uniform","1","undefined","undefined","undefined","1","j","0","0","0","0","15","0","0","0","15","NA","11","15","11","0","11","3","15","0","15","Wed Feb 17 11:52:57 2021","The main experiment item","yes","Lexical_Decision_Task.osexp","C:/Users/Tianna","no","Andale Mono","no","18","no","white","no","yes","576","legacy","11","11","3","C:/Users/Tianna/subject-5208953.csv","legacy","Lentiform Loewenfeld","3.3.7","yes","yes","600bd7cfb6416f0113b04181","602110864497cf011d9c0822","0","j","NA","space","space","space","NA","j","702","NA","2833","24568","5974","NA","702","2","legacy","1024","2","48000","-16","task","5208953","odd","NA","43902","48741","45907","76665","4954","35500","29525","77169","NA","76663","77169","76537","48741","77872","42065","76037","4945","64630","Lexical Decision Task","14","17403","16","yes","1024"
"3.263399331","0","8","cour","non-word","88.23529411764706","88.23529411764706","1077.3529411764705","1077.3529411764705","black","no","legacy","legacy","legacy","0","uniform","1","undefined","undefined","undefined","1","f","0","0","0","0","16","0","0","0","16","NA","12","16","12","0","12","3","16","0","16","Wed Feb 17 11:52:57 2021","The main experiment item","yes","Lexical_Decision_Task.osexp","C:/Users/Tianna","no","Andale Mono","no","18","no","white","no","yes","576","legacy","12","12","3","C:/Users/Tianna/subject-5208953.csv","legacy","Lentiform Loewenfeld","3.3.7","yes","yes","600bd7cfb6416f0113b04181","602110864497cf011d9c0822","0","f","NA","space","space","space","NA","f","912","NA","2833","24568","5974","NA","912","2","legacy","1024","2","48000","-16","task","5208953","odd","NA","43902","48741","45907","78529","4954","35500","29525","79032","NA","78526","79033","78379","48741","79946","42065","77879","4945","64630","Lexical Decision Task","15","18315","17","yes","1024"
"3.261341392","5.08","8","reek","word","88.88888888888889","88.88888888888889","1061.888888888889","1061.888888888889","black","no","legacy","legacy","legacy","0","uniform","1","undefined","undefined","undefined","1","j","0","0","0","0","17","0","0","0","17","NA","13","17","13","0","13","3","17","0","17","Wed Feb 17 11:52:57 2021","The main experiment item","yes","Lexical_Decision_Task.osexp","C:/Users/Tianna","no","Andale Mono","no","18","no","white","no","yes","576","legacy","13","13","3","C:/Users/Tianna/subject-5208953.csv","legacy","Lentiform Loewenfeld","3.3.7","yes","yes","600bd7cfb6416f0113b04181","602110864497cf011d9c0822","0","j","NA","space","space","space","NA","j","799","NA","2833","24568","5974","NA","799","2","legacy","1024","2","48000","-16","task","5208953","odd","NA","43902","48741","45907","80569","4954","35500","29525","81073","NA","80567","81073","80457","48741","81874","42065","79957","4945","64630","Lexical Decision Task","16","19114","18","yes","1024"
"2.884795364","0","6","flob","non-word","84.21052631578948","84.21052631578948","1060.9473684210527","1060.9473684210527","black","no","legacy","legacy","legacy","0","uniform","0","undefined","undefined","undefined","0","f","0","0","0","0","18","0","0","0","18","NA","14","18","14","0","14","3","18","0","18","Wed Feb 17 11:52:57 2021","The main experiment item","yes","Lexical_Decision_Task.osexp","C:/Users/Tianna","no","Andale Mono","no","18","no","white","no","yes","576","legacy","14","14","3","C:/Users/Tianna/subject-5208953.csv","legacy","Lentiform Loewenfeld","3.3.7","yes","yes","600bd7cfb6416f0113b04181","602110864497cf011d9c0822","0","j","NA","space","space","space","NA","j","1044","NA","2833","24568","5974","NA","1044","2","legacy","1024","2","48000","-16","task","5208953","odd","NA","43902","48741","45907","82492","4954","35500","29525","82997","NA","82490","82997","82386","48741","84042","42065","81884","4945","64630","Lexical Decision Task","16","20158","19","yes","1024"
"3.276537627","9.15","5","trap","word","85","85","1041.55","1041.55","black","no","legacy","legacy","legacy","0","uniform","1","undefined","undefined","undefined","1","j","0","0","0","0","19","0","0","0","19","NA","15","19","15","0","15","3","19","0","19","Wed Feb 17 11:52:57 2021","The main experiment item","yes","Lexical_Decision_Task.osexp","C:/Users/Tianna","no","Andale Mono","no","18","no","white","no","yes","576","legacy","15","15","3","C:/Users/Tianna/subject-5208953.csv","legacy","Lentiform Loewenfeld","3.3.7","yes","yes","600bd7cfb6416f0113b04181","602110864497cf011d9c0822","0","j","NA","space","space","space","NA","j","673","NA","2833","24568","5974","NA","673","2","legacy","1024","2","48000","-16","task","5208953","odd","NA","43902","48741","45907","85755","4954","35500","29525","86260","NA","85751","86260","85549","48741","86934","42065","81884","4945","84049","Lexical Decision Task","17","20831","20","yes","1024"
"3.068433376","8.09","2","bulb","word","85.71428571428571","85.71428571428571","1035","1035","black","no","legacy","legacy","legacy","0","uniform","1","undefined","undefined","undefined","1","j","0","0","0","0","20","0","0","0","20","NA","16","20","16","0","16","3","20","0","20","Wed Feb 17 11:52:57 2021","The main experiment item","yes","Lexical_Decision_Task.osexp","C:/Users/Tianna","no","Andale Mono","no","18","no","white","no","yes","576","legacy","16","16","3","C:/Users/Tianna/subject-5208953.csv","legacy","Lentiform Loewenfeld","3.3.7","yes","yes","600bd7cfb6416f0113b04181","602110864497cf011d9c0822","0","j","NA","space","space","space","NA","j","904","NA","2833","24568","5974","NA","904","2","legacy","1024","2","48000","-16","task","5208953","odd","NA","43902","48741","45907","87557","4954","35500","29525","88061","NA","87555","88061","87442","48741","88967","42065","86942","4945","84049","Lexical Decision Task","18","21735","21","yes","1024"
"3.20871002","7.15","8","cram","word","86.36363636363636","86.36363636363636","1054.0454545454545","1054.0454545454545","black","no","legacy","legacy","legacy","0","uniform","1","undefined","undefined","undefined","1","j","0","0","0","0","21","0","0","0","21","NA","17","21","17","0","17","3","21","0","21","Wed Feb 17 11:52:57 2021","The main experiment item","yes","Lexical_Decision_Task.osexp","C:/Users/Tianna","no","Andale Mono","no","18","no","white","no","yes","576","legacy","17","17","3","C:/Users/Tianna/subject-5208953.csv","legacy","Lentiform Loewenfeld","3.3.7","yes","yes","600bd7cfb6416f0113b04181","602110864497cf011d9c0822","0","j","NA","space","space","space","NA","j","1454","NA","2833","24568","5974","NA","1454","2","legacy","1024","2","48000","-16","task","5208953","odd","NA","43902","48741","45907","89599","4954","35500","29525","90103","NA","89597","90103","89478","48741","91558","42065","88978","4945","84049","Lexical Decision Task","19","23189","22","yes","1024"
"2.767650507","0","6","yolt","non-word","82.6086956521739","82.6086956521739","1047.4347826086957","1047.4347826086957","black","no","legacy","legacy","legacy","0","uniform","0","undefined","undefined","undefined","0","f","0","0","0","0","22","0","0","0","22","NA","18","22","18","0","18","3","22","0","22","Wed Feb 17 11:52:57 2021","The main experiment item","yes","Lexical_Decision_Task.osexp","C:/Users/Tianna","no","Andale Mono","no","18","no","white","no","yes","576","legacy","18","18","3","C:/Users/Tianna/subject-5208953.csv","legacy","Lentiform Loewenfeld","3.3.7","yes","yes","600bd7cfb6416f0113b04181","602110864497cf011d9c0822","0","j","NA","space","space","space","NA","j","902","NA","2833","24568","5974","NA","902","2","legacy","1024","2","48000","-16","task","5208953","odd","NA","43902","48741","45907","92194","4954","35500","29525","92698","NA","92191","92698","92066","48741","93602","42065","91566","4945","84049","Lexical Decision Task","19","24091","23","yes","1024"
"3.132473155","0","4","glim","non-word","79.16666666666667","79.16666666666667","1048.4166666666667","1048.4166666666667","black","no","legacy","legacy","legacy","0","uniform","0","undefined","undefined","undefined","0","f","0","0","0","0","23","0","0","0","23","NA","19","23","19","0","19","3","23","0","23","Wed Feb 17 11:52:57 2021","The main experiment item","yes","Lexical_Decision_Task.osexp","C:/Users/Tianna","no","Andale Mono","no","18","no","white","no","yes","576","legacy","19","19","3","C:/Users/Tianna/subject-5208953.csv","legacy","Lentiform Loewenfeld","3.3.7","yes","yes","600bd7cfb6416f0113b04181","602110864497cf011d9c0822","0","j","NA","space","space","space","NA","j","1071","NA","2833","24568","5974","NA","1071","2","legacy","1024","2","48000","-16","task","5208953","odd","NA","43902","48741","45907","95268","4954","35500","29525","95772","NA","95266","95773","95114","48741","96845","42065","91566","4945","93614","Lexical Decision Task","19","25162","24","yes","1024"
"3.481012421","8.34","5","teen","word","80","80","1046.28","1046.28","black","no","legacy","legacy","legacy","0","uniform","1","undefined","undefined","undefined","1","j","0","0","0","0","24","0","0","0","24","NA","20","24","20","0","20","3","24","0","24","Wed Feb 17 11:52:57 2021","The main experiment item","yes","Lexical_Decision_Task.osexp","C:/Users/Tianna","no","Andale Mono","no","18","no","white","no","yes","576","legacy","20","20","3","C:/Users/Tianna/subject-5208953.csv","legacy","Lentiform Loewenfeld","3.3.7","yes","yes","600bd7cfb6416f0113b04181","602110864497cf011d9c0822","0","j","NA","space","space","space","NA","j","995","NA","2833","24568","5974","NA","995","2","legacy","1024","2","48000","-16","task","5208953","odd","NA","43902","48741","45907","98467","4954","35500","29525","98971","NA","98466","98971","98351","48741","99967","42065","91566","4945","96851","Lexical Decision Task","20","26157","25","yes","1024"
"3.531734309","0","6","lerd","non-word","80.76923076923077","80.76923076923077","1035.3846153846155","1035.3846153846155","black","no","legacy","legacy","legacy","0","uniform","1","undefined","undefined","undefined","1","f","0","0","0","0","25","0","0","0","25","NA","21","25","21","0","21","3","25","0","25","Wed Feb 17 11:52:57 2021","The main experiment item","yes","Lexical_Decision_Task.osexp","C:/Users/Tianna","no","Andale Mono","no","18","no","white","no","yes","576","legacy","21","21","3","C:/Users/Tianna/subject-5208953.csv","legacy","Lentiform Loewenfeld","3.3.7","yes","yes","600bd7cfb6416f0113b04181","602110864497cf011d9c0822","0","f","NA","space","space","space","NA","f","763","NA","2833","24568","5974","NA","763","2","legacy","1024","2","48000","-16","task","5208953","odd","NA","43902","48741","45907","100613","4954","35500","29525","101117","NA","100610","101117","100478","48741","101881","42065","99978","4945","96851","Lexical Decision Task","21","26920","26","yes","1024"
"3.105055783","0","2","norp","non-word","81.48148148148148","81.48148148148148","1020.6666666666666","1020.6666666666666","black","no","legacy","legacy","legacy","0","uniform","1","undefined","undefined","undefined","1","f","0","0","0","0","26","0","0","0","26","NA","22","26","22","0","22","3","26","0","26","Wed Feb 17 11:52:57 2021","The main experiment item","yes","Lexical_Decision_Task.osexp","C:/Users/Tianna","no","Andale Mono","no","18","no","white","no","yes","576","legacy","22","22","3","C:/Users/Tianna/subject-5208953.csv","legacy","Lentiform Loewenfeld","3.3.7","yes","yes","600bd7cfb6416f0113b04181","602110864497cf011d9c0822","0","f","NA","space","space","space","NA","f","638","NA","2833","24568","5974","NA","638","2","legacy","1024","2","48000","-16","task","5208953","odd","NA","43902","48741","45907","102546","4954","35500","29525","103050","NA","102544","103050","102388","48741","103690","42065","101887","4945","96851","Lexical Decision Task","22","27558","27","yes","1024"
"3.259832699","0","9","flar","non-word","82.14285714285714","82.14285714285714","1017.6428571428571","1017.6428571428571","black","no","legacy","legacy","legacy","0","uniform","1","undefined","undefined","undefined","1","f","0","0","0","0","27","0","0","0","27","NA","23","27","23","0","23","3","27","0","27","Wed Feb 17 11:52:57 2021","The main experiment item","yes","Lexical_Decision_Task.osexp","C:/Users/Tianna","no","Andale Mono","no","18","no","white","no","yes","576","legacy","23","23","3","C:/Users/Tianna/subject-5208953.csv","legacy","Lentiform Loewenfeld","3.3.7","yes","yes","600bd7cfb6416f0113b04181","602110864497cf011d9c0822","0","f","NA","space","space","space","NA","f","936","NA","2833","24568","5974","NA","936","2","legacy","1024","2","48000","-16","task","5208953","odd","NA","43902","48741","45907","104311","4954","35500","29525","104815","NA","104308","104815","104197","48741","105753","42065","103696","4945","96851","Lexical Decision Task","23","28494","28","yes","1024"
"2.845304797","0","6","buct","non-word","82.75862068965517","82.75862068965517","1014.1724137931035","1014.1724137931035","black","no","legacy","legacy","legacy","0","uniform","1","undefined","undefined","undefined","1","f","0","0","0","0","28","0","0","0","28","NA","24","28","24","0","24","3","28","0","28","Wed Feb 17 11:52:57 2021","The main experiment item","yes","Lexical_Decision_Task.osexp","C:/Users/Tianna","no","Andale Mono","no","18","no","white","no","yes","576","legacy","24","24","3","C:/Users/Tianna/subject-5208953.csv","legacy","Lentiform Loewenfeld","3.3.7","yes","yes","600bd7cfb6416f0113b04181","602110864497cf011d9c0822","0","f","NA","space","space","space","NA","f","917","NA","2833","24568","5974","NA","917","2","legacy","1024","2","48000","-16","task","5208953","odd","NA","43902","48741","45907","106389","4954","35500","29525","106893","NA","106387","106893","106264","48741","107812","42065","105764","4945","96851","Lexical Decision Task","24","29411","29","yes","1024"
"2.858136002","0","4","phip","non-word","83.33333333333333","83.33333333333333","1030.9","1030.9","black","no","legacy","legacy","legacy","0","uniform","1","undefined","undefined","undefined","1","f","0","0","0","0","29","0","0","0","29","NA","25","29","25","0","25","3","29","0","29","Wed Feb 17 11:52:57 2021","The main experiment item","yes","Lexical_Decision_Task.osexp","C:/Users/Tianna","no","Andale Mono","no","18","no","white","no","yes","576","legacy","25","25","3","C:/Users/Tianna/subject-5208953.csv","legacy","Lentiform Loewenfeld","3.3.7","yes","yes","600bd7cfb6416f0113b04181","602110864497cf011d9c0822","0","f","NA","space","space","space","NA","f","1516","NA","2833","24568","5974","NA","1516","2","legacy","1024","2","48000","-16","task","5208953","odd","NA","43902","48741","45907","108446","4954","35500","29525","108950","NA","108444","108950","108323","48741","110467","42065","107823","4945","96851","Lexical Decision Task","25","30927","30","yes","1024"
"3.145920145","8.51","8","flew","word","83.87096774193549","83.87096774193549","1022.6451612903226","1022.6451612903226","black","no","legacy","legacy","legacy","0","uniform","1","undefined","undefined","undefined","1","j","0","0","0","0","30","0","0","0","30","NA","26","30","26","0","26","3","30","0","30","Wed Feb 17 11:52:57 2021","The main experiment item","yes","Lexical_Decision_Task.osexp","C:/Users/Tianna","no","Andale Mono","no","18","no","white","no","yes","576","legacy","26","26","3","C:/Users/Tianna/subject-5208953.csv","legacy","Lentiform Loewenfeld","3.3.7","yes","yes","600bd7cfb6416f0113b04181","602110864497cf011d9c0822","0","j","NA","space","space","space","NA","j","775","NA","2833","24568","5974","NA","775","2","legacy","1024","2","48000","-16","task","5208953","odd","NA","43902","48741","45907","111100","4954","35500","29525","111604","NA","111098","111604","110977","48741","112381","42065","110477","4945","96851","Lexical Decision Task","26","31702","31","yes","1024"
"3.043885998","0","9","gome","non-word","81.25","81.25","1021.90625","1021.90625","black","no","legacy","legacy","legacy","0","uniform","0","undefined","undefined","undefined","0","f","0","0","0","0","31","0","0","0","31","NA","27","31","27","0","27","3","31","0","31","Wed Feb 17 11:52:57 2021","The main experiment item","yes","Lexical_Decision_Task.osexp","C:/Users/Tianna","no","Andale Mono","no","18","no","white","no","yes","576","legacy","27","27","3","C:/Users/Tianna/subject-5208953.csv","legacy","Lentiform Loewenfeld","3.3.7","yes","yes","600bd7cfb6416f0113b04181","602110864497cf011d9c0822","0","j","NA","space","space","space","NA","j","999","NA","2833","24568","5974","NA","999","2","legacy","1024","2","48000","-16","task","5208953","odd","NA","43902","48741","45907","113003","4954","35500","29525","113507","NA","113001","113508","112891","48741","114507","42065","112391","4945","96851","Lexical Decision Task","26","32701","32","yes","1024"
"2.821076612","0","4","lult","non-word","81.81818181818181","81.81818181818181","1016.3939393939394","1016.3939393939394","black","no","legacy","legacy","legacy","0","uniform","1","undefined","undefined","undefined","1","f","0","0","0","0","32","0","0","0","32","NA","28","32","28","0","28","3","32","0","32","Wed Feb 17 11:52:57 2021","The main experiment item","yes","Lexical_Decision_Task.osexp","C:/Users/Tianna","no","Andale Mono","no","18","no","white","no","yes","576","legacy","28","28","3","C:/Users/Tianna/subject-5208953.csv","legacy","Lentiform Loewenfeld","3.3.7","yes","yes","600bd7cfb6416f0113b04181","602110864497cf011d9c0822","0","f","NA","space","space","space","NA","f","840","NA","2833","24568","5974","NA","840","2","legacy","1024","2","48000","-16","task","5208953","odd","NA","43902","48741","45907","116167","4954","35500","29525","116671","NA","116165","116671","116015","48741","117512","42065","112391","4945","114514","Lexical Decision Task","27","33541","33","yes","1024"
"2.907588697","8.91","9","mood","word","82.3529411764706","82.3529411764706","1008.8529411764706","1008.8529411764706","black","no","legacy","legacy","legacy","0","uniform","1","undefined","undefined","undefined","1","j","0","0","0","0","33","0","0","0","33","NA","29","33","29","0","29","3","33","0","33","Wed Feb 17 11:52:57 2021","The main experiment item","yes","Lexical_Decision_Task.osexp","C:/Users/Tianna","no","Andale Mono","no","18","no","white","no","yes","576","legacy","29","29","3","C:/Users/Tianna/subject-5208953.csv","legacy","Lentiform Loewenfeld","3.3.7","yes","yes","600bd7cfb6416f0113b04181","602110864497cf011d9c0822","0","j","NA","space","space","space","NA","j","760","NA","2833","24568","5974","NA","760","2","legacy","1024","2","48000","-16","task","5208953","odd","NA","43902","48741","45907","118125","4954","35500","29525","118629","NA","118122","118629","118019","48741","119391","42065","117518","4945","114514","Lexical Decision Task","28","34301","34","yes","1024"
"3.067070856","9.39","3","loud","word","82.85714285714286","82.85714285714286","999.6857142857143","999.6857142857143","black","no","legacy","legacy","legacy","0","uniform","1","undefined","undefined","undefined","1","j","0","0","0","0","34","0","0","0","34","NA","30","34","30","0","30","3","34","0","34","Wed Feb 17 11:52:57 2021","The main experiment item","yes","Lexical_Decision_Task.osexp","C:/Users/Tianna","no","Andale Mono","no","18","no","white","no","yes","576","legacy","30","30","3","C:/Users/Tianna/subject-5208953.csv","legacy","Lentiform Loewenfeld","3.3.7","yes","yes","600bd7cfb6416f0113b04181","602110864497cf011d9c0822","0","j","NA","space","space","space","NA","j","688","NA","2833","24568","5974","NA","688","2","legacy","1024","2","48000","-16","task","5208953","odd","NA","43902","48741","45907","120013","4954","35500","29525","120517","NA","120011","120517","119903","48741","121206","42065","119402","4945","114514","Lexical Decision Task","29","34989","35","yes","1024"
"3.382617311","0","4","pret","non-word","83.33333333333333","83.33333333333333","1000.4166666666666","1000.4166666666666","black","no","legacy","legacy","legacy","0","uniform","1","undefined","undefined","undefined","1","f","0","0","0","0","35","0","0","0","35","NA","31","35","31","0","31","3","35","0","35","Wed Feb 17 11:52:57 2021","The main experiment item","yes","Lexical_Decision_Task.osexp","C:/Users/Tianna","no","Andale Mono","no","18","no","white","no","yes","576","legacy","31","31","3","C:/Users/Tianna/subject-5208953.csv","legacy","Lentiform Loewenfeld","3.3.7","yes","yes","600bd7cfb6416f0113b04181","602110864497cf011d9c0822","0","f","NA","space","space","space","NA","f","1026","NA","2833","24568","5974","NA","1026","2","legacy","1024","2","48000","-16","task","5208953","odd","NA","43902","48741","45907","121829","4954","35500","29525","122333","NA","121825","122334","121713","48741","123360","42065","121213","4945","114514","Lexical Decision Task","30","36015","36","yes","1024"
"3.066077331","0","7","vorn","non-word","83.78378378378379","83.78378378378379","996.4054054054054","996.4054054054054","black","no","legacy","legacy","legacy","0","uniform","1","undefined","undefined","undefined","1","f","0","0","0","0","36","0","0","0","36","NA","32","36","32","0","32","3","36","0","36","Wed Feb 17 11:52:57 2021","The main experiment item","yes","Lexical_Decision_Task.osexp","C:/Users/Tianna","no","Andale Mono","no","18","no","white","no","yes","576","legacy","32","32","3","C:/Users/Tianna/subject-5208953.csv","legacy","Lentiform Loewenfeld","3.3.7","yes","yes","600bd7cfb6416f0113b04181","602110864497cf011d9c0822","0","f","NA","space","space","space","NA","f","852","NA","2833","24568","5974","NA","852","2","legacy","1024","2","48000","-16","task","5208953","odd","NA","43902","48741","45907","123975","4954","35500","29525","124479","NA","123972","124479","123866","48741","125332","42065","123366","4945","114514","Lexical Decision Task","31","36867","37","yes","1024"
"3.120025233","0","2","nyst","non-word","84.21052631578948","84.21052631578948","993.3947368421053","993.3947368421053","black","no","legacy","legacy","legacy","0","uniform","1","undefined","undefined","undefined","1","f","0","0","0","0","37","0","0","0","37","NA","33","37","33","0","33","3","37","0","37","Wed Feb 17 11:52:57 2021","The main experiment item","yes","Lexical_Decision_Task.osexp","C:/Users/Tianna","no","Andale Mono","no","18","no","white","no","yes","576","legacy","33","33","3","C:/Users/Tianna/subject-5208953.csv","legacy","Lentiform Loewenfeld","3.3.7","yes","yes","600bd7cfb6416f0113b04181","602110864497cf011d9c0822","0","f","NA","space","space","space","NA","f","882","NA","2833","24568","5974","NA","882","2","legacy","1024","2","48000","-16","task","5208953","odd","NA","43902","48741","45907","125968","4954","35500","29525","126472","NA","125966","126472","125839","48741","127354","42065","125339","4945","114514","Lexical Decision Task","32","37749","38","yes","1024"
"2.68604012","0","3","mulb","non-word","84.61538461538461","84.61538461538461","1009.6410256410256","1009.6410256410256","black","no","legacy","legacy","legacy","0","uniform","1","undefined","undefined","undefined","1","f","0","0","0","0","38","0","0","0","38","NA","34","38","34","0","34","3","38","0","38","Wed Feb 17 11:52:57 2021","The main experiment item","yes","Lexical_Decision_Task.osexp","C:/Users/Tianna","no","Andale Mono","no","18","no","white","no","yes","576","legacy","34","34","3","C:/Users/Tianna/subject-5208953.csv","legacy","Lentiform Loewenfeld","3.3.7","yes","yes","600bd7cfb6416f0113b04181","602110864497cf011d9c0822","0","f","NA","space","space","space","NA","f","1627","NA","2833","24568","5974","NA","1627","2","legacy","1024","2","48000","-16","task","5208953","odd","NA","43902","48741","45907","127984","4954","35500","29525","128488","NA","127983","128488","127861","48741","130116","42065","127361","4945","114514","Lexical Decision Task","33","39376","39","yes","1024"
"2.706148589","0","4","hube","non-word","85","85","1004.575","1004.575","black","no","legacy","legacy","legacy","0","uniform","1","undefined","undefined","undefined","1","f","0","0","0","0","39","0","0","0","39","NA","35","39","35","0","35","3","39","0","39","Wed Feb 17 11:52:57 2021","The main experiment item","yes","Lexical_Decision_Task.osexp","C:/Users/Tianna","no","Andale Mono","no","18","no","white","no","yes","576","legacy","35","35","3","C:/Users/Tianna/subject-5208953.csv","legacy","Lentiform Loewenfeld","3.3.7","yes","yes","600bd7cfb6416f0113b04181","602110864497cf011d9c0822","0","f","NA","space","space","space","NA","f","807","NA","2833","24568","5974","NA","807","2","legacy","1024","2","48000","-16","task","5208953","odd","NA","43902","48741","45907","130772","4954","35500","29525","131276","NA","130770","131276","130625","48741","132084","42065","130124","4945","114514","Lexical Decision Task","34","40183","40","yes","1024"
"2.664011697","8.19","4","hawk","word","85.36585365853658","85.36585365853658","1002.0975609756098","1002.0975609756098","black","no","legacy","legacy","legacy","0","uniform","1","undefined","undefined","undefined","1","j","0","0","0","0","40","0","0","0","40","NA","36","40","36","0","36","3","40","0","40","Wed Feb 17 11:52:57 2021","The main experiment item","yes","Lexical_Decision_Task.osexp","C:/Users/Tianna","no","Andale Mono","no","18","no","white","no","yes","576","legacy","36","36","3","C:/Users/Tianna/subject-5208953.csv","legacy","Lentiform Loewenfeld","3.3.7","yes","yes","600bd7cfb6416f0113b04181","602110864497cf011d9c0822","0","j","NA","space","space","space","NA","j","903","NA","2833","24568","5974","NA","903","2","legacy","1024","2","48000","-16","task","5208953","odd","NA","43902","48741","45907","132703","4954","35500","29525","133207","NA","132701","133207","132595","48741","134112","42065","132094","4945","114514","Lexical Decision Task","35","41086","41","yes","1024"
"3.037294994","8.64","7","roof","word","83.33333333333333","83.33333333333333","1014.3095238095239","1014.3095238095239","black","no","legacy","legacy","legacy","0","uniform","0","undefined","undefined","undefined","0","j","0","0","0","0","41","0","0","0","41","NA","37","41","37","0","37","3","41","0","41","Wed Feb 17 11:52:57 2021","The main experiment item","yes","Lexical_Decision_Task.osexp","C:/Users/Tianna","no","Andale Mono","no","18","no","white","no","yes","576","legacy","37","37","3","C:/Users/Tianna/subject-5208953.csv","legacy","Lentiform Loewenfeld","3.3.7","yes","yes","600bd7cfb6416f0113b04181","602110864497cf011d9c0822","0","f","NA","space","space","space","NA","f","1515","NA","2833","24568","5974","NA","1515","2","legacy","1024","2","48000","-16","task","5208953","odd","NA","43902","48741","45907","134766","4954","35500","29525","135270","NA","134763","135270","134624","48741","136786","42065","134124","4945","114514","Lexical Decision Task","35","42601","42","yes","1024"
"3.378276681","6.39","8","bran","word","81.3953488372093","81.3953488372093","1012.5581395348837","1012.5581395348837","black","no","legacy","legacy","legacy","0","uniform","0","undefined","undefined","undefined","0","j","0","0","0","0","42","0","0","0","42","NA","38","42","38","0","38","3","42","0","42","Wed Feb 17 11:52:57 2021","The main experiment item","yes","Lexical_Decision_Task.osexp","C:/Users/Tianna","no","Andale Mono","no","18","no","white","no","yes","576","legacy","38","38","3","C:/Users/Tianna/subject-5208953.csv","legacy","Lentiform Loewenfeld","3.3.7","yes","yes","600bd7cfb6416f0113b04181","602110864497cf011d9c0822","0","f","NA","space","space","space","NA","f","939","NA","2833","24568","5974","NA","939","2","legacy","1024","2","48000","-16","task","5208953","odd","NA","43902","48741","45907","138424","4954","35500","29525","138928","NA","138422","138928","138293","48741","139868","42065","134124","4945","136793","Lexical Decision Task","35","43540","43","yes","1024"
"2.696356389","0","1","pizz","non-word","81.81818181818181","81.81818181818181","1013.6136363636364","1013.6136363636364","black","no","legacy","legacy","legacy","0","uniform","1","undefined","undefined","undefined","1","f","0","0","0","0","43","0","0","0","43","NA","39","43","39","0","39","3","43","0","43","Wed Feb 17 11:52:57 2021","The main experiment item","yes","Lexical_Decision_Task.osexp","C:/Users/Tianna","no","Andale Mono","no","18","no","white","no","yes","576","legacy","39","39","3","C:/Users/Tianna/subject-5208953.csv","legacy","Lentiform Loewenfeld","3.3.7","yes","yes","600bd7cfb6416f0113b04181","602110864497cf011d9c0822","0","f","NA","space","space","space","NA","f","1059","NA","2833","24568","5974","NA","1059","2","legacy","1024","2","48000","-16","task","5208953","odd","NA","43902","48741","45907","141513","4954","35500","29525","142017","NA","141510","142017","141379","48741","143078","42065","134124","4945","139879","Lexical Decision Task","36","44599","44","yes","1024"
"3.102203805","7.21","3","drip","word","82.22222222222223","82.22222222222223","1009.2888888888889","1009.2888888888889","black","no","legacy","legacy","legacy","0","uniform","1","undefined","undefined","undefined","1","j","0","0","0","0","44","0","0","0","44","NA","40","44","40","0","40","3","44","0","44","Wed Feb 17 11:52:57 2021","The main experiment item","yes","Lexical_Decision_Task.osexp","C:/Users/Tianna","no","Andale Mono","no","18","no","white","no","yes","576","legacy","40","40","3","C:/Users/Tianna/subject-5208953.csv","legacy","Lentiform Loewenfeld","3.3.7","yes","yes","600bd7cfb6416f0113b04181","602110864497cf011d9c0822","0","j","NA","space","space","space","NA","j","819","NA","2833","24568","5974","NA","819","2","legacy","1024","2","48000","-16","task","5208953","odd","NA","43902","48741","45907","143732","4954","35500","29525","144236","NA","143730","144236","143588","48741","145057","42065","143088","4945","139879","Lexical Decision Task","37","45418","45","yes","1024"
"3.311895072","0","9","gung","non-word","82.6086956521739","82.6086956521739","1023.195652173913","1023.195652173913","black","no","legacy","legacy","legacy","0","uniform","1","undefined","undefined","undefined","1","f","0","0","0","0","45","0","0","0","45","NA","41","45","41","0","41","3","45","0","45","Wed Feb 17 11:52:57 2021","The main experiment item","yes","Lexical_Decision_Task.osexp","C:/Users/Tianna","no","Andale Mono","no","18","no","white","no","yes","576","legacy","41","41","3","C:/Users/Tianna/subject-5208953.csv","legacy","Lentiform Loewenfeld","3.3.7","yes","yes","600bd7cfb6416f0113b04181","602110864497cf011d9c0822","0","f","NA","space","space","space","NA","f","1649","NA","2833","24568","5974","NA","1649","2","legacy","1024","2","48000","-16","task","5208953","odd","NA","43902","48741","45907","145687","4954","35500","29525","146192","NA","145685","146192","145568","48741","147842","42065","145068","4945","139879","Lexical Decision Task","38","47067","46","yes","1024"
"3.064581521","5.51","6","cask","word","82.97872340425532","82.97872340425532","1023.2340425531914","1023.2340425531914","black","no","legacy","legacy","legacy","0","uniform","1","undefined","undefined","undefined","1","j","0","0","0","0","46","0","0","0","46","NA","42","46","42","0","42","3","46","0","46","Wed Feb 17 11:52:57 2021","The main experiment item","yes","Lexical_Decision_Task.osexp","C:/Users/Tianna","no","Andale Mono","no","18","no","white","no","yes","576","legacy","42","42","3","C:/Users/Tianna/subject-5208953.csv","legacy","Lentiform Loewenfeld","3.3.7","yes","yes","600bd7cfb6416f0113b04181","602110864497cf011d9c0822","0","j","NA","space","space","space","NA","j","1025","NA","2833","24568","5974","NA","1025","2","legacy","1024","2","48000","-16","task","5208953","odd","NA","43902","48741","45907","148489","4954","35500","29525","148993","NA","148484","148993","148349","48741","150020","42065","147849","4945","139879","Lexical Decision Task","39","48092","47","yes","1024"
"3.010582609","0","2","drod","non-word","83.33333333333333","83.33333333333333","1021.1041666666666","1021.1041666666666","black","no","legacy","legacy","legacy","0","uniform","1","undefined","undefined","undefined","1","f","0","0","0","0","47","0","0","0","47","NA","43","47","43","0","43","3","47","0","47","Wed Feb 17 11:52:57 2021","The main experiment item","yes","Lexical_Decision_Task.osexp","C:/Users/Tianna","no","Andale Mono","no","18","no","white","no","yes","576","legacy","43","43","3","C:/Users/Tianna/subject-5208953.csv","legacy","Lentiform Loewenfeld","3.3.7","yes","yes","600bd7cfb6416f0113b04181","602110864497cf011d9c0822","0","f","NA","space","space","space","NA","f","921","NA","2833","24568","5974","NA","921","2","legacy","1024","2","48000","-16","task","5208953","odd","NA","43902","48741","45907","150669","4954","35500","29525","151173","NA","150667","151173","150532","48741","152095","42065","150032","4945","139879","Lexical Decision Task","40","49013","48","yes","1024"
"3.15462682","0","6","noal","non-word","83.6734693877551","83.6734693877551","1019.8367346938776","1019.8367346938776","black","no","legacy","legacy","legacy","0","uniform","1","undefined","undefined","undefined","1","f","0","0","0","0","48","0","0","0","48","NA","44","48","44","0","44","3","48","0","48","Wed Feb 17 11:52:57 2021","The main experiment item","yes","Lexical_Decision_Task.osexp","C:/Users/Tianna","no","Andale Mono","no","18","no","white","no","yes","576","legacy","44","44","3","C:/Users/Tianna/subject-5208953.csv","legacy","Lentiform Loewenfeld","3.3.7","yes","yes","600bd7cfb6416f0113b04181","602110864497cf011d9c0822","0","f","NA","space","space","space","NA","f","959","NA","2833","24568","5974","NA","959","2","legacy","1024","2","48000","-16","task","5208953","odd","NA","43902","48741","45907","152715","4954","35500","29525","153219","NA","152713","153219","152601","48741","154179","42065","152101","4945","139879","Lexical Decision Task","41","49972","49","yes","1024"
"3.353210739","0","9","reet","non-word","84","84","1016.98","1016.98","black","no","legacy","legacy","legacy","0","uniform","1","undefined","undefined","undefined","1","f","0","0","0","0","49","0","0","0","49","NA","45","49","45","0","45","3","49","0","49","Wed Feb 17 11:52:57 2021","The main experiment item","yes","Lexical_Decision_Task.osexp","C:/Users/Tianna","no","Andale Mono","no","18","no","white","no","yes","576","legacy","45","45","3","C:/Users/Tianna/subject-5208953.csv","legacy","Lentiform Loewenfeld","3.3.7","yes","yes","600bd7cfb6416f0113b04181","602110864497cf011d9c0822","0","f","NA","space","space","space","NA","f","877","NA","2833","24568","5974","NA","877","2","legacy","1024","2","48000","-16","task","5208953","odd","NA","43902","48741","45907","154807","4954","35500","29525","155311","NA","154805","155311","154687","48741","156190","42065","154186","4945","139879","Lexical Decision Task","42","50849","50","yes","1024"
"2.899092422","7.27","6","snag","word","84.31372549019608","84.31372549019608","1015.9607843137255","1015.9607843137255","black","no","legacy","legacy","legacy","0","uniform","1","undefined","undefined","undefined","1","j","0","0","0","0","50","0","0","0","50","NA","46","50","46","0","46","3","50","0","50","Wed Feb 17 11:52:57 2021","The main experiment item","yes","Lexical_Decision_Task.osexp","C:/Users/Tianna","no","Andale Mono","no","18","no","white","no","yes","576","legacy","46","46","3","C:/Users/Tianna/subject-5208953.csv","legacy","Lentiform Loewenfeld","3.3.7","yes","yes","600bd7cfb6416f0113b04181","602110864497cf011d9c0822","0","j","NA","space","space","space","NA","j","965","NA","2833","24568","5974","NA","965","2","legacy","1024","2","48000","-16","task","5208953","odd","NA","43902","48741","45907","156859","4954","35500","29525","157363","NA","156856","157363","156701","48741","158329","42065","156200","4945","139879","Lexical Decision Task","43","51814","51","yes","1024"
"2.920123326","7.43","4","duel","word","84.61538461538461","84.61538461538461","1017.3846153846154","1017.3846153846154","black","no","legacy","legacy","legacy","0","uniform","1","undefined","undefined","undefined","1","j","0","0","0","0","51","0","0","0","51","NA","47","51","47","0","47","3","51","0","51","Wed Feb 17 11:52:57 2021","The main experiment item","yes","Lexical_Decision_Task.osexp","C:/Users/Tianna","no","Andale Mono","no","18","no","white","no","yes","576","legacy","47","47","3","C:/Users/Tianna/subject-5208953.csv","legacy","Lentiform Loewenfeld","3.3.7","yes","yes","600bd7cfb6416f0113b04181","602110864497cf011d9c0822","0","j","NA","space","space","space","NA","j","1090","NA","2833","24568","5974","NA","1090","2","legacy","1024","2","48000","-16","task","5208953","odd","NA","43902","48741","45907","158967","4954","35500","29525","159471","NA","158965","159471","158837","48741","160563","42065","158337","4945","139879","Lexical Decision Task","44","52904","52","yes","1024"
"2.719886232","7.98","2","quiz","word","84.90566037735849","84.90566037735849","1012.8301886792453","1012.8301886792453","black","no","legacy","legacy","legacy","0","uniform","1","undefined","undefined","undefined","1","j","0","0","0","0","52","0","0","0","52","NA","48","52","48","0","48","3","52","0","52","Wed Feb 17 11:52:57 2021","The main experiment item","yes","Lexical_Decision_Task.osexp","C:/Users/Tianna","no","Andale Mono","no","18","no","white","no","yes","576","legacy","48","48","3","C:/Users/Tianna/subject-5208953.csv","legacy","Lentiform Loewenfeld","3.3.7","yes","yes","600bd7cfb6416f0113b04181","602110864497cf011d9c0822","0","j","NA","space","space","space","NA","j","776","NA","2833","24568","5974","NA","776","2","legacy","1024","2","48000","-16","task","5208953","odd","NA","43902","48741","45907","161179","4954","35500","29525","161683","NA","161176","161683","161069","48741","162461","42065","160569","4945","139879","Lexical Decision Task","45","53680","53","yes","1024"
"2.7084209","0","8","vump","non-word","85.18518518518519","85.18518518518519","1010.4629629629629","1010.4629629629629","black","no","legacy","legacy","legacy","0","uniform","1","undefined","undefined","undefined","1","f","0","0","0","0","53","0","0","0","53","NA","49","53","49","0","49","3","53","0","53","Wed Feb 17 11:52:57 2021","The main experiment item","yes","Lexical_Decision_Task.osexp","C:/Users/Tianna","no","Andale Mono","no","18","no","white","no","yes","576","legacy","49","49","3","C:/Users/Tianna/subject-5208953.csv","legacy","Lentiform Loewenfeld","3.3.7","yes","yes","600bd7cfb6416f0113b04181","602110864497cf011d9c0822","0","f","NA","space","space","space","NA","f","885","NA","2833","24568","5974","NA","885","2","legacy","1024","2","48000","-16","task","5208953","odd","NA","43902","48741","45907","163105","4954","35500","29525","163609","NA","163102","163609","162972","48741","164496","42065","162471","4945","139879","Lexical Decision Task","46","54565","54","yes","1024"
"3.366547468","0","6","plat","non-word","85.45454545454545","85.45454545454545","1008.8181818181819","1008.8181818181819","black","no","legacy","legacy","legacy","0","uniform","1","undefined","undefined","undefined","1","f","0","0","0","0","54","0","0","0","54","0","50","54","50","0","50","3","54","0","54","Wed Feb 17 11:52:57 2021","The main experiment item","yes","Lexical_Decision_Task.osexp","C:/Users/Tianna","no","Andale Mono","no","18","no","white","no","yes","576","legacy","50","50","3","C:/Users/Tianna/subject-5208953.csv","legacy","Lentiform Loewenfeld","3.3.7","yes","yes","600bd7cfb6416f0113b04181","602110864497cf011d9c0822","0","f","NA","space","space","space","space","f","920","NA","2833","24568","5974","7554","920","2","legacy","1024","2","48000","-16","task","5208953","odd","NA","43902","48741","45907","172785","4954","35500","29525","173288","165140","172782","173289","165008","48741","174211","42065","164508","4945","139879","Lexical Decision Task","47","55485","55","yes","1024"
"3.208978517","10.33","4","fish","word","85.71428571428571","85.71428571428571","1001.9285714285714","1001.9285714285714","black","no","legacy","legacy","legacy","0","uniform","1","undefined","undefined","undefined","1","j","0","0","0","0","55","0","0","0","55","0","51","55","51","0","51","3","55","0","55","Wed Feb 17 11:52:57 2021","The main experiment item","yes","Lexical_Decision_Task.osexp","C:/Users/Tianna","no","Andale Mono","no","18","no","white","no","yes","576","legacy","51","51","3","C:/Users/Tianna/subject-5208953.csv","legacy","Lentiform Loewenfeld","3.3.7","yes","yes","600bd7cfb6416f0113b04181","602110864497cf011d9c0822","0","j","NA","space","space","space","space","j","623","NA","2833","24568","5974","7554","623","2","legacy","1024","2","48000","-16","task","5208953","odd","NA","43902","48741","45907","174845","4954","35500","29525","175349","165140","174843","175349","174723","48741","175974","42065","174222","4945","139879","Lexical Decision Task","48","56108","56","yes","1024"
"3.140404328","10.66","9","deep","word","85.96491228070175","85.96491228070175","997.0877192982456","997.0877192982456","black","no","legacy","legacy","legacy","0","uniform","1","undefined","undefined","undefined","1","j","0","0","0","0","56","0","0","0","56","0","52","56","52","0","52","3","56","0","56","Wed Feb 17 11:52:57 2021","The main experiment item","yes","Lexical_Decision_Task.osexp","C:/Users/Tianna","no","Andale Mono","no","18","no","white","no","yes","576","legacy","52","52","3","C:/Users/Tianna/subject-5208953.csv","legacy","Lentiform Loewenfeld","3.3.7","yes","yes","600bd7cfb6416f0113b04181","602110864497cf011d9c0822","0","j","NA","space","space","space","space","j","726","NA","2833","24568","5974","7554","726","2","legacy","1024","2","48000","-16","task","5208953","odd","NA","43902","48741","45907","176596","4954","35500","29525","177100","165140","176593","177100","176483","48741","177827","42065","175982","4945","139879","Lexical Decision Task","49","56834","57","yes","1024"
"3.20996159","0","4","clee","non-word","86.20689655172414","86.20689655172414","994.2931034482758","994.2931034482758","black","no","legacy","legacy","legacy","0","uniform","1","undefined","undefined","undefined","1","f","0","0","0","0","57","0","0","0","57","0","53","57","53","0","53","3","57","0","57","Wed Feb 17 11:52:57 2021","The main experiment item","yes","Lexical_Decision_Task.osexp","C:/Users/Tianna","no","Andale Mono","no","18","no","white","no","yes","576","legacy","53","53","3","C:/Users/Tianna/subject-5208953.csv","legacy","Lentiform Loewenfeld","3.3.7","yes","yes","600bd7cfb6416f0113b04181","602110864497cf011d9c0822","0","f","NA","space","space","space","space","f","835","NA","2833","24568","5974","7554","835","2","legacy","1024","2","48000","-16","task","5208953","odd","NA","43902","48741","45907","178506","4954","35500","29525","179010","165140","178503","179010","178336","48741","179847","42065","177836","4945","139879","Lexical Decision Task","50","57669","58","yes","1024"
"2.8162413","0","5","nusk","non-word","86.44067796610169","86.44067796610169","997.728813559322","997.728813559322","black","no","legacy","legacy","legacy","0","uniform","1","undefined","undefined","undefined","1","f","0","0","0","0","58","0","0","0","58","0","54","58","54","0","54","3","58","0","58","Wed Feb 17 11:52:57 2021","The main experiment item","yes","Lexical_Decision_Task.osexp","C:/Users/Tianna","no","Andale Mono","no","18","no","white","no","yes","576","legacy","54","54","3","C:/Users/Tianna/subject-5208953.csv","legacy","Lentiform Loewenfeld","3.3.7","yes","yes","600bd7cfb6416f0113b04181","602110864497cf011d9c0822","0","f","NA","space","space","space","space","f","1197","NA","2833","24568","5974","7554","1197","2","legacy","1024","2","48000","-16","task","5208953","odd","NA","43902","48741","45907","180496","4954","35500","29525","181000","165140","180494","181000","180358","48741","182199","42065","179858","4945","139879","Lexical Decision Task","51","58866","59","yes","1024"
"3.028977705","0","7","frow","non-word","86.66666666666667","86.66666666666667","1006.1666666666666","1006.1666666666666","black","no","legacy","legacy","legacy","0","uniform","1","undefined","undefined","undefined","1","f","0","0","0","0","59","0","0","0","59","0","55","59","55","0","55","3","59","0","59","Wed Feb 17 11:52:57 2021","The main experiment item","yes","Lexical_Decision_Task.osexp","C:/Users/Tianna","no","Andale Mono","no","18","no","white","no","yes","576","legacy","55","55","3","C:/Users/Tianna/subject-5208953.csv","legacy","Lentiform Loewenfeld","3.3.7","yes","yes","600bd7cfb6416f0113b04181","602110864497cf011d9c0822","0","f","NA","space","space","space","space","f","1504","NA","2833","24568","5974","7554","1504","2","legacy","1024","2","48000","-16","task","5208953","odd","NA","43902","48741","45907","182827","4954","35500","29525","183331","165140","182825","183332","182711","48741","184838","42065","182210","4945","139879","Lexical Decision Task","52","60370","60","yes","1024"
"3.134602053","0","8","jart","non-word","86.88524590163935","86.88524590163935","1004.4426229508197","1004.4426229508197","black","no","legacy","legacy","legacy","0","uniform","1","undefined","undefined","undefined","1","f","0","0","0","0","60","0","0","0","60","0","56","60","56","0","56","3","60","0","60","Wed Feb 17 11:52:57 2021","The main experiment item","yes","Lexical_Decision_Task.osexp","C:/Users/Tianna","no","Andale Mono","no","18","no","white","no","yes","576","legacy","56","56","3","C:/Users/Tianna/subject-5208953.csv","legacy","Lentiform Loewenfeld","3.3.7","yes","yes","600bd7cfb6416f0113b04181","602110864497cf011d9c0822","0","f","NA","space","space","space","space","f","901","NA","2833","24568","5974","7554","901","2","legacy","1024","2","48000","-16","task","5208953","odd","NA","43902","48741","45907","185486","4954","35500","29525","185990","165140","185483","185991","185349","48741","186894","42065","184848","4945","139879","Lexical Decision Task","53","61271","61","yes","1024"
"3.081107167","0","6","chot","non-word","87.09677419354838","87.09677419354838","1006.3387096774194","1006.3387096774194","black","no","legacy","legacy","legacy","0","uniform","1","undefined","undefined","undefined","1","f","0","0","0","0","61","0","0","0","61","0","57","61","57","0","57","3","61","0","61","Wed Feb 17 11:52:57 2021","The main experiment item","yes","Lexical_Decision_Task.osexp","C:/Users/Tianna","no","Andale Mono","no","18","no","white","no","yes","576","legacy","57","57","3","C:/Users/Tianna/subject-5208953.csv","legacy","Lentiform Loewenfeld","3.3.7","yes","yes","600bd7cfb6416f0113b04181","602110864497cf011d9c0822","0","f","NA","space","space","space","space","f","1122","NA","2833","24568","5974","7554","1122","2","legacy","1024","2","48000","-16","task","5208953","odd","NA","43902","48741","45907","187556","4954","35500","29525","188060","165140","187554","188060","187404","48741","189184","42065","186904","4945","139879","Lexical Decision Task","54","62393","62","yes","1024"
"2.713490543","0","3","feps","non-word","87.3015873015873","87.3015873015873","1005.3015873015873","1005.3015873015873","black","no","legacy","legacy","legacy","0","uniform","1","undefined","undefined","undefined","1","f","0","0","0","0","62","0","0","0","62","0","58","62","58","0","58","3","62","0","62","Wed Feb 17 11:52:57 2021","The main experiment item","yes","Lexical_Decision_Task.osexp","C:/Users/Tianna","no","Andale Mono","no","18","no","white","no","yes","576","legacy","58","58","3","C:/Users/Tianna/subject-5208953.csv","legacy","Lentiform Loewenfeld","3.3.7","yes","yes","600bd7cfb6416f0113b04181","602110864497cf011d9c0822","0","f","NA","space","space","space","space","f","941","NA","2833","24568","5974","7554","941","2","legacy","1024","2","48000","-16","task","5208953","odd","NA","43902","48741","45907","189830","4954","35500","29525","190334","165140","189827","190335","189695","48741","191277","42065","189195","4945","139879","Lexical Decision Task","55","63334","63","yes","1024"
"2.67699827","0","6","hulf","non-word","87.5","87.5","1001.375","1001.375","black","no","legacy","legacy","legacy","0","uniform","1","undefined","undefined","undefined","1","f","0","0","0","0","63","0","0","0","63","0","59","63","59","0","59","3","63","0","63","Wed Feb 17 11:52:57 2021","The main experiment item","yes","Lexical_Decision_Task.osexp","C:/Users/Tianna","no","Andale Mono","no","18","no","white","no","yes","576","legacy","59","59","3","C:/Users/Tianna/subject-5208953.csv","legacy","Lentiform Loewenfeld","3.3.7","yes","yes","600bd7cfb6416f0113b04181","602110864497cf011d9c0822","0","f","NA","space","space","space","space","f","754","NA","2833","24568","5974","7554","754","2","legacy","1024","2","48000","-16","task","5208953","odd","NA","43902","48741","45907","191896","4954","35500","29525","192400","165140","191893","192401","191786","48741","193157","42065","191286","4945","139879","Lexical Decision Task","56","64088","64","yes","1024"
"2.875447132","0","9","jelt","non-word","86.15384615384616","86.15384615384616","997.5692307692308","997.5692307692308","black","no","legacy","legacy","legacy","0","uniform","0","undefined","undefined","undefined","0","f","0","0","0","0","64","0","0","0","64","0","60","64","60","0","60","3","64","0","64","Wed Feb 17 11:52:57 2021","The main experiment item","yes","Lexical_Decision_Task.osexp","C:/Users/Tianna","no","Andale Mono","no","18","no","white","no","yes","576","legacy","60","60","3","C:/Users/Tianna/subject-5208953.csv","legacy","Lentiform Loewenfeld","3.3.7","yes","yes","600bd7cfb6416f0113b04181","602110864497cf011d9c0822","0","j","NA","space","space","space","space","j","754","NA","2833","24568","5974","7554","754","2","legacy","1024","2","48000","-16","task","5208953","odd","NA","43902","48741","45907","193791","4954","35500","29525","194295","165140","193788","194295","193667","48741","195051","42065","193167","4945","139879","Lexical Decision Task","56","64842","65","yes","1024"
"3.492014979","0","9","yine","non-word","86.36363636363636","86.36363636363636","994.5757575757576","994.5757575757576","black","no","legacy","legacy","legacy","0","uniform","1","undefined","undefined","undefined","1","f","0","0","0","0","65","0","0","0","65","0","61","65","61","0","61","3","65","0","65","Wed Feb 17 11:52:57 2021","The main experiment item","yes","Lexical_Decision_Task.osexp","C:/Users/Tianna","no","Andale Mono","no","18","no","white","no","yes","576","legacy","61","61","3","C:/Users/Tianna/subject-5208953.csv","legacy","Lentiform Loewenfeld","3.3.7","yes","yes","600bd7cfb6416f0113b04181","602110864497cf011d9c0822","0","f","NA","space","space","space","space","f","800","NA","2833","24568","5974","7554","800","2","legacy","1024","2","48000","-16","task","5208953","odd","NA","43902","48741","45907","196724","4954","35500","29525","197228","165140","196722","197228","196559","48741","198031","42065","193167","4945","195059","Lexical Decision Task","57","65642","66","yes","1024"
"2.812467698","0","7","hafe","non-word","86.56716417910448","86.56716417910448","996.4029850746268","996.4029850746268","black","no","legacy","legacy","legacy","0","uniform","1","undefined","undefined","undefined","1","f","0","0","0","0","66","0","0","0","66","0","62","66","62","0","62","3","66","0","66","Wed Feb 17 11:52:57 2021","The main experiment item","yes","Lexical_Decision_Task.osexp","C:/Users/Tianna","no","Andale Mono","no","18","no","white","no","yes","576","legacy","62","62","3","C:/Users/Tianna/subject-5208953.csv","legacy","Lentiform Loewenfeld","3.3.7","yes","yes","600bd7cfb6416f0113b04181","602110864497cf011d9c0822","0","f","NA","space","space","space","space","f","1117","NA","2833","24568","5974","7554","1117","2","legacy","1024","2","48000","-16","task","5208953","odd","NA","43902","48741","45907","198672","4954","35500","29525","199176","165140","198669","199176","198541","48741","200294","42065","198040","4945","195059","Lexical Decision Task","58","66759","67","yes","1024"
"3.303771854","0","9","dath","non-word","86.76470588235294","86.76470588235294","993.3823529411765","993.3823529411765","black","no","legacy","legacy","legacy","0","uniform","1","undefined","undefined","undefined","1","f","0","0","0","0","67","0","0","0","67","0","63","67","63","0","63","3","67","0","67","Wed Feb 17 11:52:57 2021","The main experiment item","yes","Lexical_Decision_Task.osexp","C:/Users/Tianna","no","Andale Mono","no","18","no","white","no","yes","576","legacy","63","63","3","C:/Users/Tianna/subject-5208953.csv","legacy","Lentiform Loewenfeld","3.3.7","yes","yes","600bd7cfb6416f0113b04181","602110864497cf011d9c0822","0","f","NA","space","space","space","space","f","791","NA","2833","24568","5974","7554","791","2","legacy","1024","2","48000","-16","task","5208953","odd","NA","43902","48741","45907","200934","4954","35500","29525","201438","165140","200929","201438","200800","48741","202231","42065","200300","4945","195059","Lexical Decision Task","59","67550","68","yes","1024"
"2.695770526","7.34","6","pawn","word","86.95652173913044","86.95652173913044","996.2753623188406","996.2753623188406","black","no","legacy","legacy","legacy","0","uniform","1","undefined","undefined","undefined","1","j","0","0","0","0","68","0","0","0","68","0","64","68","64","0","64","3","68","0","68","Wed Feb 17 11:52:57 2021","The main experiment item","yes","Lexical_Decision_Task.osexp","C:/Users/Tianna","no","Andale Mono","no","18","no","white","no","yes","576","legacy","64","64","3","C:/Users/Tianna/subject-5208953.csv","legacy","Lentiform Loewenfeld","3.3.7","yes","yes","600bd7cfb6416f0113b04181","602110864497cf011d9c0822","0","j","NA","space","space","space","space","j","1193","NA","2833","24568","5974","7554","1193","2","legacy","1024","2","48000","-16","task","5208953","odd","NA","43902","48741","45907","202862","4954","35500","29525","203364","165140","202860","203364","202743","48741","204558","42065","202243","4945","195059","Lexical Decision Task","60","68743","69","yes","1024"
"3.062080345","0","6","tomp","non-word","87.14285714285714","87.14285714285714","992.9428571428572","992.9428571428572","black","no","legacy","legacy","legacy","0","uniform","1","undefined","undefined","undefined","1","f","0","0","0","0","69","0","0","0","69","0","65","69","65","0","65","3","69","0","69","Wed Feb 17 11:52:57 2021","The main experiment item","yes","Lexical_Decision_Task.osexp","C:/Users/Tianna","no","Andale Mono","no","18","no","white","no","yes","576","legacy","65","65","3","C:/Users/Tianna/subject-5208953.csv","legacy","Lentiform Loewenfeld","3.3.7","yes","yes","600bd7cfb6416f0113b04181","602110864497cf011d9c0822","0","f","NA","space","space","space","space","f","763","NA","2833","24568","5974","7554","763","2","legacy","1024","2","48000","-16","task","5208953","odd","NA","43902","48741","45907","205196","4954","35500","29525","205700","165140","205193","205700","205066","48741","206465","42065","204565","4945","195059","Lexical Decision Task","61","69506","70","yes","1024"
"3.282244367","0","6","fute","non-word","87.32394366197182","87.32394366197182","995.6197183098592","995.6197183098592","black","no","legacy","legacy","legacy","0","uniform","1","undefined","undefined","undefined","1","f","0","0","0","0","70","0","0","0","70","0","66","70","66","0","66","3","70","0","70","Wed Feb 17 11:52:57 2021","The main experiment item","yes","Lexical_Decision_Task.osexp","C:/Users/Tianna","no","Andale Mono","no","18","no","white","no","yes","576","legacy","66","66","3","C:/Users/Tianna/subject-5208953.csv","legacy","Lentiform Loewenfeld","3.3.7","yes","yes","600bd7cfb6416f0113b04181","602110864497cf011d9c0822","0","f","NA","space","space","space","space","f","1183","NA","2833","24568","5974","7554","1183","2","legacy","1024","2","48000","-16","task","5208953","odd","NA","43902","48741","45907","207096","4954","35500","29525","207600","165140","207093","207600","206973","48741","208785","42065","206473","4945","195059","Lexical Decision Task","62","70689","71","yes","1024"
"2.983324025","9.56","2","debt","word","87.5","87.5","995.8194444444445","995.8194444444445","black","no","legacy","legacy","legacy","0","uniform","1","undefined","undefined","undefined","1","j","0","0","0","0","71","0","0","0","71","0","67","71","67","0","67","3","71","0","71","Wed Feb 17 11:52:57 2021","The main experiment item","yes","Lexical_Decision_Task.osexp","C:/Users/Tianna","no","Andale Mono","no","18","no","white","no","yes","576","legacy","67","67","3","C:/Users/Tianna/subject-5208953.csv","legacy","Lentiform Loewenfeld","3.3.7","yes","yes","600bd7cfb6416f0113b04181","602110864497cf011d9c0822","0","j","NA","space","space","space","space","j","1010","NA","2833","24568","5974","7554","1010","2","legacy","1024","2","48000","-16","task","5208953","odd","NA","43902","48741","45907","209409","4954","35500","29525","209913","165140","209407","209913","209292","48741","210926","42065","208792","4945","195059","Lexical Decision Task","63","71699","72","yes","1024"
"3.031812271","6.52","3","gulp","word","86.3013698630137","86.3013698630137","992.1232876712329","992.1232876712329","black","no","legacy","legacy","legacy","0","uniform","0","undefined","undefined","undefined","0","j","0","0","0","0","72","0","0","0","72","0","68","72","68","0","68","3","72","0","72","Wed Feb 17 11:52:57 2021","The main experiment item","yes","Lexical_Decision_Task.osexp","C:/Users/Tianna","no","Andale Mono","no","18","no","white","no","yes","576","legacy","68","68","3","C:/Users/Tianna/subject-5208953.csv","legacy","Lentiform Loewenfeld","3.3.7","yes","yes","600bd7cfb6416f0113b04181","602110864497cf011d9c0822","0","f","NA","space","space","space","space","f","726","NA","2833","24568","5974","7554","726","2","legacy","1024","2","48000","-16","task","5208953","odd","NA","43902","48741","45907","211547","4954","35500","29525","212051","165140","211545","212051","211437","48741","212778","42065","210936","4945","195059","Lexical Decision Task","63","72425","73","yes","1024"
"2.880623071","0","9","curp","non-word","86.48648648648648","86.48648648648648","990.3648648648649","990.3648648648649","black","no","legacy","legacy","legacy","0","uniform","1","undefined","undefined","undefined","1","f","0","0","0","0","73","0","0","0","73","0","69","73","69","0","69","3","73","0","73","Wed Feb 17 11:52:57 2021","The main experiment item","yes","Lexical_Decision_Task.osexp","C:/Users/Tianna","no","Andale Mono","no","18","no","white","no","yes","576","legacy","69","69","3","C:/Users/Tianna/subject-5208953.csv","legacy","Lentiform Loewenfeld","3.3.7","yes","yes","600bd7cfb6416f0113b04181","602110864497cf011d9c0822","0","f","NA","space","space","space","space","f","862","NA","2833","24568","5974","7554","862","2","legacy","1024","2","48000","-16","task","5208953","odd","NA","43902","48741","45907","214402","4954","35500","29525","214907","165140","214400","214907","214285","48741","215772","42065","210936","4945","212785","Lexical Decision Task","64","73287","74","yes","1024"
"2.782472624","10.55","2","huge","word","86.66666666666667","86.66666666666667","986.76","986.76","black","no","legacy","legacy","legacy","0","uniform","1","undefined","undefined","undefined","1","j","0","0","0","0","74","0","0","0","74","0","70","74","70","0","70","3","74","0","74","Wed Feb 17 11:52:57 2021","The main experiment item","yes","Lexical_Decision_Task.osexp","C:/Users/Tianna","no","Andale Mono","no","18","no","white","no","yes","576","legacy","70","70","3","C:/Users/Tianna/subject-5208953.csv","legacy","Lentiform Loewenfeld","3.3.7","yes","yes","600bd7cfb6416f0113b04181","602110864497cf011d9c0822","0","j","NA","space","space","space","space","j","720","NA","2833","24568","5974","7554","720","2","legacy","1024","2","48000","-16","task","5208953","odd","NA","43902","48741","45907","216429","4954","35500","29525","216933","165140","216426","216934","216283","48741","217658","42065","215783","4945","212785","Lexical Decision Task","65","74007","75","yes","1024"
"3.431095062","5.74","9","perk","word","86.84210526315789","86.84210526315789","984.4342105263158","984.4342105263158","black","no","legacy","legacy","legacy","0","uniform","1","undefined","undefined","undefined","1","j","0","0","0","0","75","0","0","0","75","0","71","75","71","0","71","3","75","0","75","Wed Feb 17 11:52:57 2021","The main experiment item","yes","Lexical_Decision_Task.osexp","C:/Users/Tianna","no","Andale Mono","no","18","no","white","no","yes","576","legacy","71","71","3","C:/Users/Tianna/subject-5208953.csv","legacy","Lentiform Loewenfeld","3.3.7","yes","yes","600bd7cfb6416f0113b04181","602110864497cf011d9c0822","0","j","NA","space","space","space","space","j","810","NA","2833","24568","5974","7554","810","2","legacy","1024","2","48000","-16","task","5208953","odd","NA","43902","48741","45907","218269","4954","35500","29525","218773","165140","218266","218773","218167","48741","219584","42065","217667","4945","212785","Lexical Decision Task","66","74817","76","yes","1024"
"3.003891166","8.05","2","frog","word","87.01298701298701","87.01298701298701","979.987012987013","979.987012987013","black","no","legacy","legacy","legacy","0","uniform","1","undefined","undefined","undefined","1","j","0","0","0","0","76","0","0","0","76","0","72","76","72","0","72","3","76","0","76","Wed Feb 17 11:52:57 2021","The main experiment item","yes","Lexical_Decision_Task.osexp","C:/Users/Tianna","no","Andale Mono","no","18","no","white","no","yes","576","legacy","72","72","3","C:/Users/Tianna/subject-5208953.csv","legacy","Lentiform Loewenfeld","3.3.7","yes","yes","600bd7cfb6416f0113b04181","602110864497cf011d9c0822","0","j","NA","space","space","space","space","j","642","NA","2833","24568","5974","7554","642","2","legacy","1024","2","48000","-16","task","5208953","odd","NA","43902","48741","45907","220211","4954","35500","29525","220714","165140","220209","220715","220092","48741","221359","42065","219592","4945","212785","Lexical Decision Task","67","75459","77","yes","1024"
"3.257359335","8","6","brew","word","87.17948717948718","87.17948717948718","974.8205128205128","974.8205128205128","black","no","legacy","legacy","legacy","0","uniform","1","undefined","undefined","undefined","1","j","0","0","0","0","77","0","0","0","77","0","73","77","73","0","73","3","77","0","77","Wed Feb 17 11:52:57 2021","The main experiment item","yes","Lexical_Decision_Task.osexp","C:/Users/Tianna","no","Andale Mono","no","18","no","white","no","yes","576","legacy","73","73","3","C:/Users/Tianna/subject-5208953.csv","legacy","Lentiform Loewenfeld","3.3.7","yes","yes","600bd7cfb6416f0113b04181","602110864497cf011d9c0822","0","j","NA","space","space","space","space","j","577","NA","2833","24568","5974","7554","577","2","legacy","1024","2","48000","-16","task","5208953","odd","NA","43902","48741","45907","222001","4954","35500","29525","222505","165140","221999","222505","221868","48741","223084","42065","221368","4945","212785","Lexical Decision Task","68","76036","78","yes","1024"
"3.197740804","6.74","3","ache","word","87.34177215189874","87.34177215189874","971.632911392405","971.632911392405","black","no","legacy","legacy","legacy","0","uniform","1","undefined","undefined","undefined","1","j","0","0","0","0","78","0","0","0","78","0","74","78","74","0","74","3","78","0","78","Wed Feb 17 11:52:57 2021","The main experiment item","yes","Lexical_Decision_Task.osexp","C:/Users/Tianna","no","Andale Mono","no","18","no","white","no","yes","576","legacy","74","74","3","C:/Users/Tianna/subject-5208953.csv","legacy","Lentiform Loewenfeld","3.3.7","yes","yes","600bd7cfb6416f0113b04181","602110864497cf011d9c0822","0","j","NA","space","space","space","space","j","723","NA","2833","24568","5974","7554","723","2","legacy","1024","2","48000","-16","task","5208953","odd","NA","43902","48741","45907","223710","4954","35500","29525","224214","165140","223707","224214","223590","48741","224940","42065","223090","4945","212785","Lexical Decision Task","69","76759","79","yes","1024"
"2.953276337","6.32","4","thaw","word","87.5","87.5","970.4625","970.4625","black","no","legacy","legacy","legacy","0","uniform","1","undefined","undefined","undefined","1","j","0","0","0","0","79","0","0","0","79","0","75","79","75","0","75","3","79","0","79","Wed Feb 17 11:52:57 2021","The main experiment item","yes","Lexical_Decision_Task.osexp","C:/Users/Tianna","no","Andale Mono","no","18","no","white","no","yes","576","legacy","75","75","3","C:/Users/Tianna/subject-5208953.csv","legacy","Lentiform Loewenfeld","3.3.7","yes","yes","600bd7cfb6416f0113b04181","602110864497cf011d9c0822","0","j","NA","space","space","space","space","j","878","NA","2833","24568","5974","7554","878","2","legacy","1024","2","48000","-16","task","5208953","odd","NA","43902","48741","45907","225557","4954","35500","29525","226061","165140","225555","226061","225451","48741","226944","42065","224951","4945","212785","Lexical Decision Task","70","77637","80","yes","1024"
"2.698100546","0","9","mulk","non-word","87.65432098765432","87.65432098765432","970.8518518518518","970.8518518518518","black","no","legacy","legacy","legacy","0","uniform","1","undefined","undefined","undefined","1","f","0","0","0","0","80","0","0","0","80","0","76","80","76","0","76","3","80","0","80","Wed Feb 17 11:52:57 2021","The main experiment item","yes","Lexical_Decision_Task.osexp","C:/Users/Tianna","no","Andale Mono","no","18","no","white","no","yes","576","legacy","76","76","3","C:/Users/Tianna/subject-5208953.csv","legacy","Lentiform Loewenfeld","3.3.7","yes","yes","600bd7cfb6416f0113b04181","602110864497cf011d9c0822","0","f","NA","space","space","space","space","f","1002","NA","2833","24568","5974","7554","1002","2","legacy","1024","2","48000","-16","task","5208953","odd","NA","43902","48741","45907","227577","4954","35500","29525","228081","165140","227575","228081","227451","48741","229087","42065","226951","4945","212785","Lexical Decision Task","71","78639","81","yes","1024"
"2.980911938","7.15","7","hoop","word","87.8048780487805","87.8048780487805","970.0243902439024","970.0243902439024","black","no","legacy","legacy","legacy","0","uniform","1","undefined","undefined","undefined","1","j","0","0","0","0","81","0","0","0","81","0","77","81","77","0","77","3","81","0","81","Wed Feb 17 11:52:57 2021","The main experiment item","yes","Lexical_Decision_Task.osexp","C:/Users/Tianna","no","Andale Mono","no","18","no","white","no","yes","576","legacy","77","77","3","C:/Users/Tianna/subject-5208953.csv","legacy","Lentiform Loewenfeld","3.3.7","yes","yes","600bd7cfb6416f0113b04181","602110864497cf011d9c0822","0","j","NA","space","space","space","space","j","903","NA","2833","24568","5974","7554","903","2","legacy","1024","2","48000","-16","task","5208953","odd","NA","43902","48741","45907","229689","4954","35500","29525","230194","165140","229686","230194","229598","48741","231099","42065","229098","4945","212785","Lexical Decision Task","72","79542","82","yes","1024"
"3.076883066","0","8","mout","non-word","87.95180722891567","87.95180722891567","973.1927710843373","973.1927710843373","black","no","legacy","legacy","legacy","0","uniform","1","undefined","undefined","undefined","1","f","0","0","0","0","82","0","0","0","82","0","78","82","78","0","78","3","82","0","82","Wed Feb 17 11:52:57 2021","The main experiment item","yes","Lexical_Decision_Task.osexp","C:/Users/Tianna","no","Andale Mono","no","18","no","white","no","yes","576","legacy","78","78","3","C:/Users/Tianna/subject-5208953.csv","legacy","Lentiform Loewenfeld","3.3.7","yes","yes","600bd7cfb6416f0113b04181","602110864497cf011d9c0822","0","f","NA","space","space","space","space","f","1233","NA","2833","24568","5974","7554","1233","2","legacy","1024","2","48000","-16","task","5208953","odd","NA","43902","48741","45907","231729","4954","35500","29525","232233","165140","231727","232233","231606","48741","233468","42065","231106","4945","212785","Lexical Decision Task","73","80775","83","yes","1024"
"2.819763221","0","2","durp","non-word","88.0952380952381","88.0952380952381","975.2142857142857","975.2142857142857","black","no","legacy","legacy","legacy","0","uniform","1","undefined","undefined","undefined","1","f","0","0","0","0","83","0","0","0","83","0","79","83","79","0","79","3","83","0","83","Wed Feb 17 11:52:57 2021","The main experiment item","yes","Lexical_Decision_Task.osexp","C:/Users/Tianna","no","Andale Mono","no","18","no","white","no","yes","576","legacy","79","79","3","C:/Users/Tianna/subject-5208953.csv","legacy","Lentiform Loewenfeld","3.3.7","yes","yes","600bd7cfb6416f0113b04181","602110864497cf011d9c0822","0","f","NA","space","space","space","space","f","1143","NA","2833","24568","5974","7554","1143","2","legacy","1024","2","48000","-16","task","5208953","odd","NA","43902","48741","45907","234080","4954","35500","29525","234585","165140","234077","234586","233975","48741","235733","42065","233475","4945","212785","Lexical Decision Task","74","81918","84","yes","1024"
"2.68604012","0","4","pumb","non-word","87.05882352941177","87.05882352941177","986.6941176470589","986.6941176470589","black","no","legacy","legacy","legacy","0","uniform","0","undefined","undefined","undefined","0","f","0","0","0","0","84","0","0","0","84","0","80","84","80","0","80","3","84","0","84","Wed Feb 17 11:52:57 2021","The main experiment item","yes","Lexical_Decision_Task.osexp","C:/Users/Tianna","no","Andale Mono","no","18","no","white","no","yes","576","legacy","80","80","3","C:/Users/Tianna/subject-5208953.csv","legacy","Lentiform Loewenfeld","3.3.7","yes","yes","600bd7cfb6416f0113b04181","602110864497cf011d9c0822","0","j","NA","space","space","space","space","j","1951","NA","2833","24568","5974","7554","1951","2","legacy","1024","2","48000","-16","task","5208953","odd","NA","43902","48741","45907","236355","4954","35500","29525","236859","165140","236352","236859","236241","48741","238812","42065","235741","4945","212785","Lexical Decision Task","74","83869","85","yes","1024"
"2.693726949","5.08","3","swig","word","87.20930232558139","87.20930232558139","993.7674418604652","993.7674418604652","black","no","legacy","legacy","legacy","0","uniform","1","undefined","undefined","undefined","1","j","0","0","0","0","85","0","0","0","85","0","81","85","81","0","81","3","85","0","85","Wed Feb 17 11:52:57 2021","The main experiment item","yes","Lexical_Decision_Task.osexp","C:/Users/Tianna","no","Andale Mono","no","18","no","white","no","yes","576","legacy","81","81","3","C:/Users/Tianna/subject-5208953.csv","legacy","Lentiform Loewenfeld","3.3.7","yes","yes","600bd7cfb6416f0113b04181","602110864497cf011d9c0822","0","j","NA","space","space","space","space","j","1595","NA","2833","24568","5974","7554","1595","2","legacy","1024","2","48000","-16","task","5208953","odd","NA","43902","48741","45907","240450","4954","35500","29525","240954","165140","240448","240954","240321","48741","242553","42065","235741","4945","238820","Lexical Decision Task","75","85464","86","yes","1024"
"3.705778213","0","6","stin","non-word","87.35632183908046","87.35632183908046","992.7241379310345","992.7241379310345","black","no","legacy","legacy","legacy","0","uniform","1","undefined","undefined","undefined","1","f","0","0","0","0","86","0","0","0","86","0","82","86","82","0","82","3","86","0","86","Wed Feb 17 11:52:57 2021","The main experiment item","yes","Lexical_Decision_Task.osexp","C:/Users/Tianna","no","Andale Mono","no","18","no","white","no","yes","576","legacy","82","82","3","C:/Users/Tianna/subject-5208953.csv","legacy","Lentiform Loewenfeld","3.3.7","yes","yes","600bd7cfb6416f0113b04181","602110864497cf011d9c0822","0","f","NA","space","space","space","space","f","903","NA","2833","24568","5974","7554","903","2","legacy","1024","2","48000","-16","task","5208953","odd","NA","43902","48741","45907","243205","4954","35500","29525","243709","165140","243203","243709","243063","48741","244615","42065","242563","4945","238820","Lexical Decision Task","76","86367","87","yes","1024"
"2.979548375","8.71","4","soup","word","87.5","87.5","989.5454545454545","989.5454545454545","black","no","legacy","legacy","legacy","0","uniform","1","undefined","undefined","undefined","1","j","0","0","0","0","87","0","0","0","87","0","83","87","83","0","83","3","87","0","87","Wed Feb 17 11:52:57 2021","The main experiment item","yes","Lexical_Decision_Task.osexp","C:/Users/Tianna","no","Andale Mono","no","18","no","white","no","yes","576","legacy","83","83","3","C:/Users/Tianna/subject-5208953.csv","legacy","Lentiform Loewenfeld","3.3.7","yes","yes","600bd7cfb6416f0113b04181","602110864497cf011d9c0822","0","j","NA","space","space","space","space","j","713","NA","2833","24568","5974","7554","713","2","legacy","1024","2","48000","-16","task","5208953","odd","NA","43902","48741","45907","245256","4954","35500","29525","245760","165140","245253","245760","245127","48741","246475","42065","244626","4945","238820","Lexical Decision Task","77","87080","88","yes","1024"
"2.696644658","5.78","2","yolk","word","87.64044943820225","87.64044943820225","987.4831460674158","987.4831460674158","black","no","legacy","legacy","legacy","0","uniform","1","undefined","undefined","undefined","1","j","0","0","0","0","88","0","0","0","88","0","84","88","84","0","84","3","88","0","88","Wed Feb 17 11:52:57 2021","The main experiment item","yes","Lexical_Decision_Task.osexp","C:/Users/Tianna","no","Andale Mono","no","18","no","white","no","yes","576","legacy","84","84","3","C:/Users/Tianna/subject-5208953.csv","legacy","Lentiform Loewenfeld","3.3.7","yes","yes","600bd7cfb6416f0113b04181","602110864497cf011d9c0822","0","j","NA","space","space","space","space","j","806","NA","2833","24568","5974","7554","806","2","legacy","1024","2","48000","-16","task","5208953","odd","NA","43902","48741","45907","247093","4954","35500","29525","247597","165140","247091","247597","246981","48741","248407","42065","246481","4945","238820","Lexical Decision Task","78","87886","89","yes","1024"
"2.966923697","5.4","2","fume","word","87.77777777777777","87.77777777777777","988.6888888888889","988.6888888888889","black","no","legacy","legacy","legacy","0","uniform","1","undefined","undefined","undefined","1","j","0","0","0","0","89","0","0","0","89","0","85","89","85","0","85","3","89","0","89","Wed Feb 17 11:52:57 2021","The main experiment item","yes","Lexical_Decision_Task.osexp","C:/Users/Tianna","no","Andale Mono","no","18","no","white","no","yes","576","legacy","85","85","3","C:/Users/Tianna/subject-5208953.csv","legacy","Lentiform Loewenfeld","3.3.7","yes","yes","600bd7cfb6416f0113b04181","602110864497cf011d9c0822","0","j","NA","space","space","space","space","j","1096","NA","2833","24568","5974","7554","1096","2","legacy","1024","2","48000","-16","task","5208953","odd","NA","43902","48741","45907","249066","4954","35500","29525","249570","165140","249064","249570","248917","48741","250668","42065","248417","4945","238820","Lexical Decision Task","79","88982","90","yes","1024"
"3.372543801","9.24","8","coat","word","87.91208791208791","87.91208791208791","984.1648351648352","984.1648351648352","black","no","legacy","legacy","legacy","0","uniform","1","undefined","undefined","undefined","1","j","0","0","0","0","90","0","0","0","90","0","86","90","86","0","86","3","90","0","90","Wed Feb 17 11:52:57 2021","The main experiment item","yes","Lexical_Decision_Task.osexp","C:/Users/Tianna","no","Andale Mono","no","18","no","white","no","yes","576","legacy","86","86","3","C:/Users/Tianna/subject-5208953.csv","legacy","Lentiform Loewenfeld","3.3.7","yes","yes","600bd7cfb6416f0113b04181","602110864497cf011d9c0822","0","j","NA","space","space","space","space","j","577","NA","2833","24568","5974","7554","577","2","legacy","1024","2","48000","-16","task","5208953","odd","NA","43902","48741","45907","251328","4954","35500","29525","251832","165140","251324","251833","251175","48741","252411","42065","250675","4945","238820","Lexical Decision Task","80","89559","91","yes","1024"
"3.153104174","10.89","6","door","word","88.04347826086956","88.04347826086956","980.8695652173913","980.8695652173913","black","no","legacy","legacy","legacy","0","uniform","1","undefined","undefined","undefined","1","j","0","0","0","0","91","0","0","0","91","0","87","91","87","0","87","3","91","0","91","Wed Feb 17 11:52:57 2021","The main experiment item","yes","Lexical_Decision_Task.osexp","C:/Users/Tianna","no","Andale Mono","no","18","no","white","no","yes","576","legacy","87","87","3","C:/Users/Tianna/subject-5208953.csv","legacy","Lentiform Loewenfeld","3.3.7","yes","yes","600bd7cfb6416f0113b04181","602110864497cf011d9c0822","0","j","NA","space","space","space","space","j","681","NA","2833","24568","5974","7554","681","2","legacy","1024","2","48000","-16","task","5208953","odd","NA","43902","48741","45907","253104","4954","35500","29525","253608","165140","253101","253608","252921","48741","254291","42065","252421","4945","238820","Lexical Decision Task","81","90240","92","yes","1024"
"2.838639236","0","4","furg","non-word","88.17204301075269","88.17204301075269","980.2688172043011","980.2688172043011","black","no","legacy","legacy","legacy","0","uniform","1","undefined","undefined","undefined","1","f","0","0","0","0","92","0","0","0","92","0","88","92","88","0","88","3","92","0","92","Wed Feb 17 11:52:57 2021","The main experiment item","yes","Lexical_Decision_Task.osexp","C:/Users/Tianna","no","Andale Mono","no","18","no","white","no","yes","576","legacy","88","88","3","C:/Users/Tianna/subject-5208953.csv","legacy","Lentiform Loewenfeld","3.3.7","yes","yes","600bd7cfb6416f0113b04181","602110864497cf011d9c0822","0","f","NA","space","space","space","space","f","925","NA","2833","24568","5974","7554","925","2","legacy","1024","2","48000","-16","task","5208953","odd","NA","43902","48741","45907","254952","4954","35500","29525","255456","165140","254950","255456","254799","48741","256384","42065","254299","4945","238820","Lexical Decision Task","82","91165","93","yes","1024"
"3.14849993","10.75","7","hour","word","88.29787234042553","88.29787234042553","976.7234042553191","976.7234042553191","black","no","legacy","legacy","legacy","0","uniform","1","undefined","undefined","undefined","1","j","0","0","0","0","93","0","0","0","93","0","89","93","89","0","89","3","93","0","93","Wed Feb 17 11:52:57 2021","The main experiment item","yes","Lexical_Decision_Task.osexp","C:/Users/Tianna","no","Andale Mono","no","18","no","white","no","yes","576","legacy","89","89","3","C:/Users/Tianna/subject-5208953.csv","legacy","Lentiform Loewenfeld","3.3.7","yes","yes","600bd7cfb6416f0113b04181","602110864497cf011d9c0822","0","j","NA","space","space","space","space","j","647","NA","2833","24568","5974","7554","647","2","legacy","1024","2","48000","-16","task","5208953","odd","NA","43902","48741","45907","257001","4954","35500","29525","257505","165140","256999","257505","256891","48741","258154","42065","256391","4945","238820","Lexical Decision Task","83","91812","94","yes","1024"
"3.094121596","0","8","fode","non-word","88.42105263157895","88.42105263157895","975.6421052631579","975.6421052631579","black","no","legacy","legacy","legacy","0","uniform","1","undefined","undefined","undefined","1","f","0","0","0","0","94","0","0","0","94","0","90","94","90","0","90","3","94","0","94","Wed Feb 17 11:52:57 2021","The main experiment item","yes","Lexical_Decision_Task.osexp","C:/Users/Tianna","no","Andale Mono","no","18","no","white","no","yes","576","legacy","90","90","3","C:/Users/Tianna/subject-5208953.csv","legacy","Lentiform Loewenfeld","3.3.7","yes","yes","600bd7cfb6416f0113b04181","602110864497cf011d9c0822","0","f","NA","space","space","space","space","f","874","NA","2833","24568","5974","7554","874","2","legacy","1024","2","48000","-16","task","5208953","odd","NA","43902","48741","45907","258768","4954","35500","29525","259271","165140","258765","259272","258662","48741","260148","42065","258162","4945","238820","Lexical Decision Task","84","92686","95","yes","1024"
"2.972357144","0","5","dasp","non-word","88.54166666666667","88.54166666666667","976.9375","976.9375","black","no","legacy","legacy","legacy","0","uniform","1","undefined","undefined","undefined","1","f","0","0","0","0","95","0","0","0","95","0","91","95","91","0","91","3","95","0","95","Wed Feb 17 11:52:57 2021","The main experiment item","yes","Lexical_Decision_Task.osexp","C:/Users/Tianna","no","Andale Mono","no","18","no","white","no","yes","576","legacy","91","91","3","C:/Users/Tianna/subject-5208953.csv","legacy","Lentiform Loewenfeld","3.3.7","yes","yes","600bd7cfb6416f0113b04181","602110864497cf011d9c0822","0","f","NA","space","space","space","space","f","1100","NA","2833","24568","5974","7554","1100","2","legacy","1024","2","48000","-16","task","5208953","odd","NA","43902","48741","45907","260806","4954","35500","29525","261310","165140","260804","261310","260655","48741","262412","42065","260155","4945","238820","Lexical Decision Task","85","93786","96","yes","1024"
"2.892836167","10.01","5","soft","word","88.65979381443299","88.65979381443299","973.6701030927835","973.6701030927835","black","no","legacy","legacy","legacy","0","uniform","1","undefined","undefined","undefined","1","j","0","0","0","0","96","0","0","0","96","0","92","96","92","0","92","3","96","0","96","Wed Feb 17 11:52:57 2021","The main experiment item","yes","Lexical_Decision_Task.osexp","C:/Users/Tianna","no","Andale Mono","no","18","no","white","no","yes","576","legacy","92","92","3","C:/Users/Tianna/subject-5208953.csv","legacy","Lentiform Loewenfeld","3.3.7","yes","yes","600bd7cfb6416f0113b04181","602110864497cf011d9c0822","0","j","NA","space","space","space","space","j","660","NA","2833","24568","5974","7554","660","2","legacy","1024","2","48000","-16","task","5208953","odd","NA","43902","48741","45907","263028","4954","35500","29525","263533","165140","263026","263533","262919","48741","264195","42065","262418","4945","238820","Lexical Decision Task","86","94446","97","yes","1024"
"2.709837904","6.85","8","skim","word","87.75510204081633","87.75510204081633","974","974","black","no","legacy","legacy","legacy","0","uniform","0","undefined","undefined","undefined","0","j","0","0","0","0","97","0","0","0","97","0","93","97","93","0","93","3","97","0","97","Wed Feb 17 11:52:57 2021","The main experiment item","yes","Lexical_Decision_Task.osexp","C:/Users/Tianna","no","Andale Mono","no","18","no","white","no","yes","576","legacy","93","93","3","C:/Users/Tianna/subject-5208953.csv","legacy","Lentiform Loewenfeld","3.3.7","yes","yes","600bd7cfb6416f0113b04181","602110864497cf011d9c0822","0","f","NA","space","space","space","space","f","1006","NA","2833","24568","5974","7554","1006","2","legacy","1024","2","48000","-16","task","5208953","odd","NA","43902","48741","45907","264819","4954","35500","29525","265323","165140","264816","265323","264703","48741","266333","42065","264203","4945","238820","Lexical Decision Task","86","95452","98","yes","1024"
"2.784379519","0","2","snaf","non-word","87.87878787878788","87.87878787878788","971.4444444444445","971.4444444444445","black","no","legacy","legacy","legacy","0","uniform","1","undefined","undefined","undefined","1","f","0","0","0","0","98","0","0","0","98","0","94","98","94","0","94","3","98","0","98","Wed Feb 17 11:52:57 2021","The main experiment item","yes","Lexical_Decision_Task.osexp","C:/Users/Tianna","no","Andale Mono","no","18","no","white","no","yes","576","legacy","94","94","3","C:/Users/Tianna/subject-5208953.csv","legacy","Lentiform Loewenfeld","3.3.7","yes","yes","600bd7cfb6416f0113b04181","602110864497cf011d9c0822","0","f","NA","space","space","space","space","f","721","NA","2833","24568","5974","7554","721","2","legacy","1024","2","48000","-16","task","5208953","odd","NA","43902","48741","45907","268002","4954","35500","29525","268506","165140","267999","268506","267844","48741","269231","42065","264203","4945","266343","Lexical Decision Task","87","96173","99","yes","1024"
"2.803231716","5.26","3","kiln","word","87","87","970.14","970.14","black","no","legacy","legacy","legacy","0","uniform","0","undefined","undefined","undefined","0","j","0","0","0","0","99","0","0","0","99","0","95","99","95","0","95","3","99","0","99","Wed Feb 17 11:52:57 2021","The main experiment item","yes","Lexical_Decision_Task.osexp","C:/Users/Tianna","no","Andale Mono","no","18","no","white","no","yes","576","legacy","95","95","3","C:/Users/Tianna/subject-5208953.csv","legacy","Lentiform Loewenfeld","3.3.7","yes","yes","600bd7cfb6416f0113b04181","602110864497cf011d9c0822","0","f","NA","space","space","space","space","f","841","NA","2833","24568","5974","7554","841","2","legacy","1024","2","48000","-16","task","5208953","odd","NA","43902","48741","45907","269889","4954","35500","29525","270393","165140","269887","270393","269741","48741","271237","42065","269241","4945","266343","Lexical Decision Task","87","97014","100","yes","1024"
"3.374137706","10.21","4","tree","word","87.12871287128714","87.12871287128714","966.0990099009902","966.0990099009902","black","no","legacy","legacy","legacy","0","uniform","1","undefined","undefined","undefined","1","j","0","0","0","0","100","0","0","0","100","0","96","100","96","0","96","3","100","0","100","Wed Feb 17 11:52:57 2021","The main experiment item","yes","Lexical_Decision_Task.osexp","C:/Users/Tianna","no","Andale Mono","no","18","no","white","no","yes","576","legacy","96","96","3","C:/Users/Tianna/subject-5208953.csv","legacy","Lentiform Loewenfeld","3.3.7","yes","yes","600bd7cfb6416f0113b04181","602110864497cf011d9c0822","0","j","NA","space","space","space","space","j","562","NA","2833","24568","5974","7554","562","2","legacy","1024","2","48000","-16","task","5208953","odd","NA","43902","48741","45907","272889","4954","35500","29525","273393","165140","272886","273394","272744","48741","273960","42065","269241","4945","271244","Lexical Decision Task","88","97576","101","yes","1024"
"2.728085817","10.02","9","bike","word","87.25490196078431","87.25490196078431","962.4215686274509","962.4215686274509","black","no","legacy","legacy","legacy","0","uniform","1","undefined","undefined","undefined","1","j","0","0","0","0","101","0","0","0","101","0","97","101","97","0","97","3","101","0","101","Wed Feb 17 11:52:57 2021","The main experiment item","yes","Lexical_Decision_Task.osexp","C:/Users/Tianna","no","Andale Mono","no","18","no","white","no","yes","576","legacy","97","97","3","C:/Users/Tianna/subject-5208953.csv","legacy","Lentiform Loewenfeld","3.3.7","yes","yes","600bd7cfb6416f0113b04181","602110864497cf011d9c0822","0","j","NA","space","space","space","space","j","591","NA","2833","24568","5974","7554","591","2","legacy","1024","2","48000","-16","task","5208953","odd","NA","43902","48741","45907","274600","4954","35500","29525","275105","165140","274598","275105","274473","48741","275701","42065","273973","4945","271244","Lexical Decision Task","89","98167","102","yes","1024"
