"Log_BG","Log_Freq_HAL","Ortho_N","Stimulus","Type","acc","accuracy","average_response_time","avg_rt","background","bidi","canvas_backend","clock_backend","color_backend","compensation","coordinates","correct","correct_Experimental_intro","correct_Introduction","correct_Practice_intro","correct_experimenter_kb","correct_response","count_End_Of_Experiment","count_End_Of_Practice","count_Experimental_Loop","count_Experimental_intro","count_Fixation","count_Introduction","count_Practice_Loop","count_Practice_intro","count_Stimulus","count_block_break_feedback","count_experimental_sequence","count_experimenter_kb","count_increment_trial_count","count_init_trial_count","count_logger","count_practice_sequence","count_right","count_task","count_wrong","datetime","description","disable_garbage_collection","experiment_file","experiment_path","font_bold","font_family","font_italic","font_size","font_underline","foreground","form_clicks","fullscreen","height","keyboard_backend","live_row","live_row_Experimental_Loop","live_row_Practice_Loop","logfile","mouse_backend","opensesame_codename","opensesame_version","osf_always_upload_data","osf_always_upload_experiment","osf_datanode_id","osf_id","repeat_cycle","response","response_End_Of_Experiment","response_Experimental_intro","response_Introduction","response_Practice_intro","response_block_break_feedback","response_experimenter_kb","response_time","response_time_End_Of_Experiment","response_time_Experimental_intro","response_time_Introduction","response_time_Practice_intro","response_time_block_break_feedback","response_time_experimenter_kb","round_decimals","sampler_backend","sound_buf_size","sound_channels","sound_freq","sound_sample_size","start","subject_nr","subject_parity","time_End_Of_Experiment","time_End_Of_Practice","time_Experimental_Loop","time_Experimental_intro","time_Fixation","time_Introduction","time_Practice_Loop","time_Practice_intro","time_Stimulus","time_block_break_feedback","time_experimental_sequence","time_experimenter_kb","time_increment_trial_count","time_init_trial_count","time_logger","time_practice_sequence","time_right","time_task","time_wrong","title","total_correct","total_response_time","total_responses","uniform_coordinates","width"
"3.067193647","6.73","6","raft","word","80","80","1369.8","1369.8","black","no","legacy","legacy","legacy","0","uniform","1","undefined","undefined","undefined","1","j","0","0","0","0","4","0","0","0","4","NA","0","4","0","0","0","3","4","0","4","Fri Feb 19 11:43:24 2021","The main experiment item","yes","Lexical_Decision_Task.osexp","/Users/talisayorke/Desktop/UNI/YEAR 2/Semester 2/Cognition ","no","Andale Mono","no","18","no","white","no","yes","576","legacy","0","0","3","/Users/talisayorke/Desktop/UNI/YEAR 2/Semester 2/Cognition /subject-5127602.csv","legacy","Lentiform Loewenfeld","3.3.7","yes","yes","600bd7cfb6416f0113b04181","602110864497cf011d9c0822","0","j","NA","j","space","j","NA","j","818","NA","29384","47869","2118","NA","818","2","legacy","1024","2","48000","-16","task","5127602","even","NA","64817","96205","66820","96224","3588","53583","51464","96727","NA","96222","96727","NA","96205","97545","63095","64296","3551","57119","Lexical Decision Task","4","6849","5","yes","1024"
"2.990042563","6.64","9","plow","word","66.66666666666667","66.66666666666667","1301.3333333333333","1301.3333333333333","black","no","legacy","legacy","legacy","0","uniform","0","undefined","undefined","undefined","0","j","0","0","0","0","5","0","0","0","5","NA","1","5","1","0","1","3","5","0","5","Fri Feb 19 11:43:24 2021","The main experiment item","yes","Lexical_Decision_Task.osexp","/Users/talisayorke/Desktop/UNI/YEAR 2/Semester 2/Cognition ","no","Andale Mono","no","18","no","white","no","yes","576","legacy","1","1","3","/Users/talisayorke/Desktop/UNI/YEAR 2/Semester 2/Cognition /subject-5127602.csv","legacy","Lentiform Loewenfeld","3.3.7","yes","yes","600bd7cfb6416f0113b04181","602110864497cf011d9c0822","0","f","NA","j","space","j","NA","f","959","NA","29384","47869","2118","NA","959","2","legacy","1024","2","48000","-16","task","5127602","even","NA","64817","96205","66820","98094","3588","53583","51464","98596","NA","98090","98597","98051","96205","99557","63095","97550","3551","57119","Lexical Decision Task","4","7808","6","yes","1024"
"2.813801082","5.47","7","nook","word","71.42857142857143","71.42857142857143","1202.4285714285713","1202.4285714285713","black","no","legacy","legacy","legacy","0","uniform","1","undefined","undefined","undefined","1","j","0","0","0","0","6","0","0","0","6","NA","2","6","2","0","2","3","6","0","6","Fri Feb 19 11:43:24 2021","The main experiment item","yes","Lexical_Decision_Task.osexp","/Users/talisayorke/Desktop/UNI/YEAR 2/Semester 2/Cognition ","no","Andale Mono","no","18","no","white","no","yes","576","legacy","2","2","3","/Users/talisayorke/Desktop/UNI/YEAR 2/Semester 2/Cognition /subject-5127602.csv","legacy","Lentiform Loewenfeld","3.3.7","yes","yes","600bd7cfb6416f0113b04181","602110864497cf011d9c0822","0","j","NA","j","space","j","NA","j","609","NA","29384","47869","2118","NA","609","2","legacy","1024","2","48000","-16","task","5127602","even","NA","64817","96205","66820","101102","3588","53583","51464","101604","NA","101099","101604","101060","96205","102213","63095","97550","3551","99560","Lexical Decision Task","5","8417","7","yes","1024"
"2.744553742","0","2","nawk","non-word","62.5","62.5","1136.125","1136.125","black","no","legacy","legacy","legacy","0","uniform","0","undefined","undefined","undefined","0","f","0","0","0","0","7","0","0","0","7","NA","3","7","3","0","3","3","7","0","7","Fri Feb 19 11:43:24 2021","The main experiment item","yes","Lexical_Decision_Task.osexp","/Users/talisayorke/Desktop/UNI/YEAR 2/Semester 2/Cognition ","no","Andale Mono","no","18","no","white","no","yes","576","legacy","3","3","3","/Users/talisayorke/Desktop/UNI/YEAR 2/Semester 2/Cognition /subject-5127602.csv","legacy","Lentiform Loewenfeld","3.3.7","yes","yes","600bd7cfb6416f0113b04181","602110864497cf011d9c0822","0","j","NA","j","space","j","NA","j","672","NA","29384","47869","2118","NA","672","2","legacy","1024","2","48000","-16","task","5127602","even","NA","64817","96205","66820","102757","3588","53583","51464","103260","NA","102754","103261","102717","96205","103933","63095","102217","3551","99560","Lexical Decision Task","5","9089","8","yes","1024"
"3.174641193","0","3","ramb","non-word","55.55555555555556","55.55555555555556","1103.888888888889","1103.888888888889","black","no","legacy","legacy","legacy","0","uniform","0","undefined","undefined","undefined","0","f","0","0","0","0","8","0","0","0","8","NA","4","8","4","0","4","3","8","0","8","Fri Feb 19 11:43:24 2021","The main experiment item","yes","Lexical_Decision_Task.osexp","/Users/talisayorke/Desktop/UNI/YEAR 2/Semester 2/Cognition ","no","Andale Mono","no","18","no","white","no","yes","576","legacy","4","4","3","/Users/talisayorke/Desktop/UNI/YEAR 2/Semester 2/Cognition /subject-5127602.csv","legacy","Lentiform Loewenfeld","3.3.7","yes","yes","600bd7cfb6416f0113b04181","602110864497cf011d9c0822","0","j","NA","j","space","j","NA","j","846","NA","29384","47869","2118","NA","846","2","legacy","1024","2","48000","-16","task","5127602","even","NA","64817","96205","66820","105479","3588","53583","51464","105982","NA","105476","105982","105437","96205","106829","63095","102217","3551","103937","Lexical Decision Task","5","9935","9","yes","1024"
"3.197740804","6.74","3","ache","word","60","60","1080.9","1080.9","black","no","legacy","legacy","legacy","0","uniform","1","undefined","undefined","undefined","1","j","0","0","0","0","9","0","0","0","9","NA","5","9","5","0","5","3","9","0","9","Fri Feb 19 11:43:24 2021","The main experiment item","yes","Lexical_Decision_Task.osexp","/Users/talisayorke/Desktop/UNI/YEAR 2/Semester 2/Cognition ","no","Andale Mono","no","18","no","white","no","yes","576","legacy","5","5","3","/Users/talisayorke/Desktop/UNI/YEAR 2/Semester 2/Cognition /subject-5127602.csv","legacy","Lentiform Loewenfeld","3.3.7","yes","yes","600bd7cfb6416f0113b04181","602110864497cf011d9c0822","0","j","NA","j","space","j","NA","j","874","NA","29384","47869","2118","NA","874","2","legacy","1024","2","48000","-16","task","5127602","even","NA","64817","96205","66820","108374","3588","53583","51464","108877","NA","108371","108877","108333","96205","109751","63095","102217","3551","106833","Lexical Decision Task","6","10809","10","yes","1024"
"2.80048796","0","8","pife","non-word","63.63636363636363","63.63636363636363","1042","1042","black","no","legacy","legacy","legacy","0","uniform","1","undefined","undefined","undefined","1","f","0","0","0","0","10","0","0","0","10","NA","6","10","6","0","6","3","10","0","10","Fri Feb 19 11:43:24 2021","The main experiment item","yes","Lexical_Decision_Task.osexp","/Users/talisayorke/Desktop/UNI/YEAR 2/Semester 2/Cognition ","no","Andale Mono","no","18","no","white","no","yes","576","legacy","6","6","3","/Users/talisayorke/Desktop/UNI/YEAR 2/Semester 2/Cognition /subject-5127602.csv","legacy","Lentiform Loewenfeld","3.3.7","yes","yes","600bd7cfb6416f0113b04181","602110864497cf011d9c0822","0","f","NA","j","space","j","NA","f","653","NA","29384","47869","2118","NA","653","2","legacy","1024","2","48000","-16","task","5127602","even","NA","64817","96205","66820","110295","3588","53583","51464","110797","NA","110292","110797","110255","96205","111451","63095","109755","3551","106833","Lexical Decision Task","7","11462","11","yes","1024"
"2.843025032","0","9","pusk","non-word","58.333333333333336","58.333333333333336","1010.8333333333334","1010.8333333333334","black","no","legacy","legacy","legacy","0","uniform","0","undefined","undefined","undefined","0","f","0","0","0","0","11","0","0","0","11","NA","7","11","7","0","7","3","11","0","11","Fri Feb 19 11:43:24 2021","The main experiment item","yes","Lexical_Decision_Task.osexp","/Users/talisayorke/Desktop/UNI/YEAR 2/Semester 2/Cognition ","no","Andale Mono","no","18","no","white","no","yes","576","legacy","7","7","3","/Users/talisayorke/Desktop/UNI/YEAR 2/Semester 2/Cognition /subject-5127602.csv","legacy","Lentiform Loewenfeld","3.3.7","yes","yes","600bd7cfb6416f0113b04181","602110864497cf011d9c0822","0","j","NA","j","space","j","NA","j","668","NA","29384","47869","2118","NA","668","2","legacy","1024","2","48000","-16","task","5127602","even","NA","64817","96205","66820","111996","3588","53583","51464","112498","NA","111993","112499","111955","96205","113168","63095","111454","3551","106833","Lexical Decision Task","7","12130","12","yes","1024"
"3.252447662","9.67","9","boat","word","61.53846153846154","61.53846153846154","970.5384615384615","970.5384615384615","black","no","legacy","legacy","legacy","0","uniform","1","undefined","undefined","undefined","1","j","0","0","0","0","12","0","0","0","12","NA","8","12","8","0","8","3","12","0","12","Fri Feb 19 11:43:24 2021","The main experiment item","yes","Lexical_Decision_Task.osexp","/Users/talisayorke/Desktop/UNI/YEAR 2/Semester 2/Cognition ","no","Andale Mono","no","18","no","white","no","yes","576","legacy","8","8","3","/Users/talisayorke/Desktop/UNI/YEAR 2/Semester 2/Cognition /subject-5127602.csv","legacy","Lentiform Loewenfeld","3.3.7","yes","yes","600bd7cfb6416f0113b04181","602110864497cf011d9c0822","0","j","NA","j","space","j","NA","j","487","NA","29384","47869","2118","NA","487","2","legacy","1024","2","48000","-16","task","5127602","even","NA","64817","96205","66820","114713","3588","53583","51464","115215","NA","114710","115215","114672","96205","115703","63095","111454","3551","113172","Lexical Decision Task","8","12617","13","yes","1024"
"3.137775856","7.39","5","comb","word","64.28571428571429","64.28571428571429","940.5","940.5","black","no","legacy","legacy","legacy","0","uniform","1","undefined","undefined","undefined","1","j","0","0","0","0","13","0","0","0","13","NA","9","13","9","0","9","3","13","0","13","Fri Feb 19 11:43:24 2021","The main experiment item","yes","Lexical_Decision_Task.osexp","/Users/talisayorke/Desktop/UNI/YEAR 2/Semester 2/Cognition ","no","Andale Mono","no","18","no","white","no","yes","576","legacy","9","9","3","/Users/talisayorke/Desktop/UNI/YEAR 2/Semester 2/Cognition /subject-5127602.csv","legacy","Lentiform Loewenfeld","3.3.7","yes","yes","600bd7cfb6416f0113b04181","602110864497cf011d9c0822","0","j","NA","j","space","j","NA","j","550","NA","29384","47869","2118","NA","550","2","legacy","1024","2","48000","-16","task","5127602","even","NA","64817","96205","66820","116246","3588","53583","51464","116748","NA","116243","116749","116206","96205","117299","63095","115706","3551","113172","Lexical Decision Task","9","13167","14","yes","1024"
"3.209246849","0","7","slem","non-word","66.66666666666667","66.66666666666667","927.4666666666667","927.4666666666667","black","no","legacy","legacy","legacy","0","uniform","1","undefined","undefined","undefined","1","f","0","0","0","0","14","0","0","0","14","NA","10","14","10","0","10","3","14","0","14","Fri Feb 19 11:43:24 2021","The main experiment item","yes","Lexical_Decision_Task.osexp","/Users/talisayorke/Desktop/UNI/YEAR 2/Semester 2/Cognition ","no","Andale Mono","no","18","no","white","no","yes","576","legacy","10","10","3","/Users/talisayorke/Desktop/UNI/YEAR 2/Semester 2/Cognition /subject-5127602.csv","legacy","Lentiform Loewenfeld","3.3.7","yes","yes","600bd7cfb6416f0113b04181","602110864497cf011d9c0822","0","f","NA","j","space","j","NA","f","745","NA","29384","47869","2118","NA","745","2","legacy","1024","2","48000","-16","task","5127602","even","NA","64817","96205","66820","117843","3588","53583","51464","118345","NA","117840","118346","117803","96205","119092","63095","117303","3551","113172","Lexical Decision Task","10","13912","15","yes","1024"
"3.153001286","8.7","5","palm","word","68.75","68.75","902.3125","902.3125","black","no","legacy","legacy","legacy","0","uniform","1","undefined","undefined","undefined","1","j","0","0","0","0","15","0","0","0","15","NA","11","15","11","0","11","3","15","0","15","Fri Feb 19 11:43:24 2021","The main experiment item","yes","Lexical_Decision_Task.osexp","/Users/talisayorke/Desktop/UNI/YEAR 2/Semester 2/Cognition ","no","Andale Mono","no","18","no","white","no","yes","576","legacy","11","11","3","/Users/talisayorke/Desktop/UNI/YEAR 2/Semester 2/Cognition /subject-5127602.csv","legacy","Lentiform Loewenfeld","3.3.7","yes","yes","600bd7cfb6416f0113b04181","602110864497cf011d9c0822","0","j","NA","j","space","j","NA","j","525","NA","29384","47869","2118","NA","525","2","legacy","1024","2","48000","-16","task","5127602","even","NA","64817","96205","66820","119636","3588","53583","51464","120138","NA","119632","120139","119595","96205","120665","63095","119095","3551","113172","Lexical Decision Task","11","14437","16","yes","1024"
"3.031812271","6.52","3","gulp","word","70.58823529411765","70.58823529411765","889.5294117647059","889.5294117647059","black","no","legacy","legacy","legacy","0","uniform","1","undefined","undefined","undefined","1","j","0","0","0","0","16","0","0","0","16","NA","12","16","12","0","12","3","16","0","16","Fri Feb 19 11:43:24 2021","The main experiment item","yes","Lexical_Decision_Task.osexp","/Users/talisayorke/Desktop/UNI/YEAR 2/Semester 2/Cognition ","no","Andale Mono","no","18","no","white","no","yes","576","legacy","12","12","3","/Users/talisayorke/Desktop/UNI/YEAR 2/Semester 2/Cognition /subject-5127602.csv","legacy","Lentiform Loewenfeld","3.3.7","yes","yes","600bd7cfb6416f0113b04181","602110864497cf011d9c0822","0","j","NA","j","space","j","NA","j","685","NA","29384","47869","2118","NA","685","2","legacy","1024","2","48000","-16","task","5127602","even","NA","64817","96205","66820","121208","3588","53583","51464","121713","NA","121205","121713","121168","96205","122398","63095","120668","3551","113172","Lexical Decision Task","12","15122","17","yes","1024"
"3.049218023","7.4","9","robe","word","72.22222222222223","72.22222222222223","872.7222222222222","872.7222222222222","black","no","legacy","legacy","legacy","0","uniform","1","undefined","undefined","undefined","1","j","0","0","0","0","17","0","0","0","17","NA","13","17","13","0","13","3","17","0","17","Fri Feb 19 11:43:24 2021","The main experiment item","yes","Lexical_Decision_Task.osexp","/Users/talisayorke/Desktop/UNI/YEAR 2/Semester 2/Cognition ","no","Andale Mono","no","18","no","white","no","yes","576","legacy","13","13","3","/Users/talisayorke/Desktop/UNI/YEAR 2/Semester 2/Cognition /subject-5127602.csv","legacy","Lentiform Loewenfeld","3.3.7","yes","yes","600bd7cfb6416f0113b04181","602110864497cf011d9c0822","0","j","NA","j","space","j","NA","j","587","NA","29384","47869","2118","NA","587","2","legacy","1024","2","48000","-16","task","5127602","even","NA","64817","96205","66820","122943","3588","53583","51464","123445","NA","122940","123446","122902","96205","124033","63095","122402","3551","113172","Lexical Decision Task","13","15709","18","yes","1024"
"3.028977705","0","7","frow","non-word","73.6842105263158","73.6842105263158","868.578947368421","868.578947368421","black","no","legacy","legacy","legacy","0","uniform","1","undefined","undefined","undefined","1","f","0","0","0","0","18","0","0","0","18","NA","14","18","14","0","14","3","18","0","18","Fri Feb 19 11:43:24 2021","The main experiment item","yes","Lexical_Decision_Task.osexp","/Users/talisayorke/Desktop/UNI/YEAR 2/Semester 2/Cognition ","no","Andale Mono","no","18","no","white","no","yes","576","legacy","14","14","3","/Users/talisayorke/Desktop/UNI/YEAR 2/Semester 2/Cognition /subject-5127602.csv","legacy","Lentiform Loewenfeld","3.3.7","yes","yes","600bd7cfb6416f0113b04181","602110864497cf011d9c0822","0","f","NA","j","space","j","NA","f","794","NA","29384","47869","2118","NA","794","2","legacy","1024","2","48000","-16","task","5127602","even","NA","64817","96205","66820","124576","3588","53583","51464","125078","NA","124573","125079","124536","96205","125874","63095","124036","3551","113172","Lexical Decision Task","14","16503","19","yes","1024"
"2.746890964","9.67","3","plug","word","75","75","847.45","847.45","black","no","legacy","legacy","legacy","0","uniform","1","undefined","undefined","undefined","1","j","0","0","0","0","19","0","0","0","19","NA","15","19","15","0","15","3","19","0","19","Fri Feb 19 11:43:24 2021","The main experiment item","yes","Lexical_Decision_Task.osexp","/Users/talisayorke/Desktop/UNI/YEAR 2/Semester 2/Cognition ","no","Andale Mono","no","18","no","white","no","yes","576","legacy","15","15","3","/Users/talisayorke/Desktop/UNI/YEAR 2/Semester 2/Cognition /subject-5127602.csv","legacy","Lentiform Loewenfeld","3.3.7","yes","yes","600bd7cfb6416f0113b04181","602110864497cf011d9c0822","0","j","NA","j","space","j","NA","j","446","NA","29384","47869","2118","NA","446","2","legacy","1024","2","48000","-16","task","5127602","even","NA","64817","96205","66820","126418","3588","53583","51464","126920","NA","126415","126921","126377","96205","127368","63095","125877","3551","113172","Lexical Decision Task","15","16949","20","yes","1024"
"3.261341392","5.08","8","reek","word","71.42857142857143","71.42857142857143","845.4761904761905","845.4761904761905","black","no","legacy","legacy","legacy","0","uniform","0","undefined","undefined","undefined","0","j","0","0","0","0","20","0","0","0","20","NA","16","20","16","0","16","3","20","0","20","Fri Feb 19 11:43:24 2021","The main experiment item","yes","Lexical_Decision_Task.osexp","/Users/talisayorke/Desktop/UNI/YEAR 2/Semester 2/Cognition ","no","Andale Mono","no","18","no","white","no","yes","576","legacy","16","16","3","/Users/talisayorke/Desktop/UNI/YEAR 2/Semester 2/Cognition /subject-5127602.csv","legacy","Lentiform Loewenfeld","3.3.7","yes","yes","600bd7cfb6416f0113b04181","602110864497cf011d9c0822","0","f","NA","j","space","j","NA","f","806","NA","29384","47869","2118","NA","806","2","legacy","1024","2","48000","-16","task","5127602","even","NA","64817","96205","66820","127912","3588","53583","51464","128414","NA","127909","128415","127872","96205","129221","63095","127372","3551","113172","Lexical Decision Task","15","17755","21","yes","1024"
"3.094121596","0","8","fode","non-word","72.72727272727273","72.72727272727273","837.3181818181819","837.3181818181819","black","no","legacy","legacy","legacy","0","uniform","1","undefined","undefined","undefined","1","f","0","0","0","0","21","0","0","0","21","NA","17","21","17","0","17","3","21","0","21","Fri Feb 19 11:43:24 2021","The main experiment item","yes","Lexical_Decision_Task.osexp","/Users/talisayorke/Desktop/UNI/YEAR 2/Semester 2/Cognition ","no","Andale Mono","no","18","no","white","no","yes","576","legacy","17","17","3","/Users/talisayorke/Desktop/UNI/YEAR 2/Semester 2/Cognition /subject-5127602.csv","legacy","Lentiform Loewenfeld","3.3.7","yes","yes","600bd7cfb6416f0113b04181","602110864497cf011d9c0822","0","f","NA","j","space","j","NA","f","666","NA","29384","47869","2118","NA","666","2","legacy","1024","2","48000","-16","task","5127602","even","NA","64817","96205","66820","130767","3588","53583","51464","131269","NA","130764","131269","130725","96205","131936","63095","127372","3551","129225","Lexical Decision Task","16","18421","22","yes","1024"
"2.937852093","0","7","bamp","non-word","73.91304347826087","73.91304347826087","838.304347826087","838.304347826087","black","no","legacy","legacy","legacy","0","uniform","1","undefined","undefined","undefined","1","f","0","0","0","0","22","0","0","0","22","NA","18","22","18","0","18","3","22","0","22","Fri Feb 19 11:43:24 2021","The main experiment item","yes","Lexical_Decision_Task.osexp","/Users/talisayorke/Desktop/UNI/YEAR 2/Semester 2/Cognition ","no","Andale Mono","no","18","no","white","no","yes","576","legacy","18","18","3","/Users/talisayorke/Desktop/UNI/YEAR 2/Semester 2/Cognition /subject-5127602.csv","legacy","Lentiform Loewenfeld","3.3.7","yes","yes","600bd7cfb6416f0113b04181","602110864497cf011d9c0822","0","f","NA","j","space","j","NA","f","860","NA","29384","47869","2118","NA","860","2","legacy","1024","2","48000","-16","task","5127602","even","NA","64817","96205","66820","132480","3588","53583","51464","132982","NA","132477","132983","132439","96205","133844","63095","131939","3551","129225","Lexical Decision Task","17","19281","23","yes","1024"
"3.039414119","0","9","meep","non-word","75","75","832.625","832.625","black","no","legacy","legacy","legacy","0","uniform","1","undefined","undefined","undefined","1","f","0","0","0","0","23","0","0","0","23","NA","19","23","19","0","19","3","23","0","23","Fri Feb 19 11:43:24 2021","The main experiment item","yes","Lexical_Decision_Task.osexp","/Users/talisayorke/Desktop/UNI/YEAR 2/Semester 2/Cognition ","no","Andale Mono","no","18","no","white","no","yes","576","legacy","19","19","3","/Users/talisayorke/Desktop/UNI/YEAR 2/Semester 2/Cognition /subject-5127602.csv","legacy","Lentiform Loewenfeld","3.3.7","yes","yes","600bd7cfb6416f0113b04181","602110864497cf011d9c0822","0","f","NA","j","space","j","NA","f","702","NA","29384","47869","2118","NA","702","2","legacy","1024","2","48000","-16","task","5127602","even","NA","64817","96205","66820","134388","3588","53583","51464","134890","NA","134385","134891","134348","96205","135594","63095","133848","3551","129225","Lexical Decision Task","18","19983","24","yes","1024"
"3.120025233","0","2","nyst","non-word","76","76","824.04","824.04","black","no","legacy","legacy","legacy","0","uniform","1","undefined","undefined","undefined","1","f","0","0","0","0","24","0","0","0","24","NA","20","24","20","0","20","3","24","0","24","Fri Feb 19 11:43:24 2021","The main experiment item","yes","Lexical_Decision_Task.osexp","/Users/talisayorke/Desktop/UNI/YEAR 2/Semester 2/Cognition ","no","Andale Mono","no","18","no","white","no","yes","576","legacy","20","20","3","/Users/talisayorke/Desktop/UNI/YEAR 2/Semester 2/Cognition /subject-5127602.csv","legacy","Lentiform Loewenfeld","3.3.7","yes","yes","600bd7cfb6416f0113b04181","602110864497cf011d9c0822","0","f","NA","j","space","j","NA","f","618","NA","29384","47869","2118","NA","618","2","legacy","1024","2","48000","-16","task","5127602","even","NA","64817","96205","66820","136138","3588","53583","51464","136640","NA","136135","136640","136098","96205","137259","63095","135598","3551","129225","Lexical Decision Task","19","20601","25","yes","1024"
"2.6599162","0","6","flug","non-word","76.92307692307692","76.92307692307692","817.9615384615385","817.9615384615385","black","no","legacy","legacy","legacy","0","uniform","1","undefined","undefined","undefined","1","f","0","0","0","0","25","0","0","0","25","NA","21","25","21","0","21","3","25","0","25","Fri Feb 19 11:43:24 2021","The main experiment item","yes","Lexical_Decision_Task.osexp","/Users/talisayorke/Desktop/UNI/YEAR 2/Semester 2/Cognition ","no","Andale Mono","no","18","no","white","no","yes","576","legacy","21","21","3","/Users/talisayorke/Desktop/UNI/YEAR 2/Semester 2/Cognition /subject-5127602.csv","legacy","Lentiform Loewenfeld","3.3.7","yes","yes","600bd7cfb6416f0113b04181","602110864497cf011d9c0822","0","f","NA","j","space","j","NA","f","666","NA","29384","47869","2118","NA","666","2","legacy","1024","2","48000","-16","task","5127602","even","NA","64817","96205","66820","137803","3588","53583","51464","138305","NA","137800","138305","137762","96205","138972","63095","137262","3551","129225","Lexical Decision Task","20","21267","26","yes","1024"
"3.481012421","8.34","5","teen","word","77.77777777777777","77.77777777777777","805.5925925925926","805.5925925925926","black","no","legacy","legacy","legacy","0","uniform","1","undefined","undefined","undefined","1","j","0","0","0","0","26","0","0","0","26","NA","22","26","22","0","22","3","26","0","26","Fri Feb 19 11:43:24 2021","The main experiment item","yes","Lexical_Decision_Task.osexp","/Users/talisayorke/Desktop/UNI/YEAR 2/Semester 2/Cognition ","no","Andale Mono","no","18","no","white","no","yes","576","legacy","22","22","3","/Users/talisayorke/Desktop/UNI/YEAR 2/Semester 2/Cognition /subject-5127602.csv","legacy","Lentiform Loewenfeld","3.3.7","yes","yes","600bd7cfb6416f0113b04181","602110864497cf011d9c0822","0","j","NA","j","space","j","NA","j","484","NA","29384","47869","2118","NA","484","2","legacy","1024","2","48000","-16","task","5127602","even","NA","64817","96205","66820","139517","3588","53583","51464","140019","NA","139513","140020","139476","96205","140505","63095","138976","3551","129225","Lexical Decision Task","21","21751","27","yes","1024"
"3.062080345","0","6","tomp","non-word","78.57142857142857","78.57142857142857","795.8214285714286","795.8214285714286","black","no","legacy","legacy","legacy","0","uniform","1","undefined","undefined","undefined","1","f","0","0","0","0","27","0","0","0","27","NA","23","27","23","0","23","3","27","0","27","Fri Feb 19 11:43:24 2021","The main experiment item","yes","Lexical_Decision_Task.osexp","/Users/talisayorke/Desktop/UNI/YEAR 2/Semester 2/Cognition ","no","Andale Mono","no","18","no","white","no","yes","576","legacy","23","23","3","/Users/talisayorke/Desktop/UNI/YEAR 2/Semester 2/Cognition /subject-5127602.csv","legacy","Lentiform Loewenfeld","3.3.7","yes","yes","600bd7cfb6416f0113b04181","602110864497cf011d9c0822","0","f","NA","j","space","j","NA","f","532","NA","29384","47869","2118","NA","532","2","legacy","1024","2","48000","-16","task","5127602","even","NA","64817","96205","66820","141048","3588","53583","51464","141551","NA","141045","141551","141008","96205","142084","63095","140508","3551","129225","Lexical Decision Task","22","22283","28","yes","1024"
"3.15462682","0","6","noal","non-word","79.3103448275862","79.3103448275862","787.7586206896551","787.7586206896551","black","no","legacy","legacy","legacy","0","uniform","1","undefined","undefined","undefined","1","f","0","0","0","0","28","0","0","0","28","NA","24","28","24","0","24","3","28","0","28","Fri Feb 19 11:43:24 2021","The main experiment item","yes","Lexical_Decision_Task.osexp","/Users/talisayorke/Desktop/UNI/YEAR 2/Semester 2/Cognition ","no","Andale Mono","no","18","no","white","no","yes","576","legacy","24","24","3","/Users/talisayorke/Desktop/UNI/YEAR 2/Semester 2/Cognition /subject-5127602.csv","legacy","Lentiform Loewenfeld","3.3.7","yes","yes","600bd7cfb6416f0113b04181","602110864497cf011d9c0822","0","f","NA","j","space","j","NA","f","562","NA","29384","47869","2118","NA","562","2","legacy","1024","2","48000","-16","task","5127602","even","NA","64817","96205","66820","142627","3588","53583","51464","143129","NA","142624","143130","142587","96205","143693","63095","142087","3551","129225","Lexical Decision Task","23","22845","29","yes","1024"
"3.705778213","0","6","stin","non-word","80","80","784.4333333333333","784.4333333333333","black","no","legacy","legacy","legacy","0","uniform","1","undefined","undefined","undefined","1","f","0","0","0","0","29","0","0","0","29","NA","25","29","25","0","25","3","29","0","29","Fri Feb 19 11:43:24 2021","The main experiment item","yes","Lexical_Decision_Task.osexp","/Users/talisayorke/Desktop/UNI/YEAR 2/Semester 2/Cognition ","no","Andale Mono","no","18","no","white","no","yes","576","legacy","25","25","3","/Users/talisayorke/Desktop/UNI/YEAR 2/Semester 2/Cognition /subject-5127602.csv","legacy","Lentiform Loewenfeld","3.3.7","yes","yes","600bd7cfb6416f0113b04181","602110864497cf011d9c0822","0","f","NA","j","space","j","NA","f","688","NA","29384","47869","2118","NA","688","2","legacy","1024","2","48000","-16","task","5127602","even","NA","64817","96205","66820","144237","3588","53583","51464","144740","NA","144234","144740","144196","96205","145429","63095","143696","3551","129225","Lexical Decision Task","24","23533","30","yes","1024"
"2.576725172","0","8","gowl","non-word","80.64516129032258","80.64516129032258","778.8387096774194","778.8387096774194","black","no","legacy","legacy","legacy","0","uniform","1","undefined","undefined","undefined","1","f","0","0","0","0","30","0","0","0","30","NA","26","30","26","0","26","3","30","0","30","Fri Feb 19 11:43:24 2021","The main experiment item","yes","Lexical_Decision_Task.osexp","/Users/talisayorke/Desktop/UNI/YEAR 2/Semester 2/Cognition ","no","Andale Mono","no","18","no","white","no","yes","576","legacy","26","26","3","/Users/talisayorke/Desktop/UNI/YEAR 2/Semester 2/Cognition /subject-5127602.csv","legacy","Lentiform Loewenfeld","3.3.7","yes","yes","600bd7cfb6416f0113b04181","602110864497cf011d9c0822","0","f","NA","j","space","j","NA","f","611","NA","29384","47869","2118","NA","611","2","legacy","1024","2","48000","-16","task","5127602","even","NA","64817","96205","66820","145973","3588","53583","51464","146475","NA","145970","146476","145933","96205","147088","63095","145433","3551","129225","Lexical Decision Task","25","24144","31","yes","1024"
"3.263399331","0","8","cour","non-word","78.125","78.125","773","773","black","no","legacy","legacy","legacy","0","uniform","0","undefined","undefined","undefined","0","f","0","0","0","0","31","0","0","0","31","NA","27","31","27","0","27","3","31","0","31","Fri Feb 19 11:43:24 2021","The main experiment item","yes","Lexical_Decision_Task.osexp","/Users/talisayorke/Desktop/UNI/YEAR 2/Semester 2/Cognition ","no","Andale Mono","no","18","no","white","no","yes","576","legacy","27","27","3","/Users/talisayorke/Desktop/UNI/YEAR 2/Semester 2/Cognition /subject-5127602.csv","legacy","Lentiform Loewenfeld","3.3.7","yes","yes","600bd7cfb6416f0113b04181","602110864497cf011d9c0822","0","j","NA","j","space","j","NA","j","592","NA","29384","47869","2118","NA","592","2","legacy","1024","2","48000","-16","task","5127602","even","NA","64817","96205","66820","147631","3588","53583","51464","148134","NA","147628","148134","147591","96205","148727","63095","147091","3551","129225","Lexical Decision Task","25","24736","32","yes","1024"
"3.159867847","5.98","5","brim","word","75.75757575757575","75.75757575757575","768.030303030303","768.030303030303","black","no","legacy","legacy","legacy","0","uniform","0","undefined","undefined","undefined","0","j","0","0","0","0","32","0","0","0","32","NA","28","32","28","0","28","3","32","0","32","Fri Feb 19 11:43:24 2021","The main experiment item","yes","Lexical_Decision_Task.osexp","/Users/talisayorke/Desktop/UNI/YEAR 2/Semester 2/Cognition ","no","Andale Mono","no","18","no","white","no","yes","576","legacy","28","28","3","/Users/talisayorke/Desktop/UNI/YEAR 2/Semester 2/Cognition /subject-5127602.csv","legacy","Lentiform Loewenfeld","3.3.7","yes","yes","600bd7cfb6416f0113b04181","602110864497cf011d9c0822","0","f","NA","j","space","j","NA","f","609","NA","29384","47869","2118","NA","609","2","legacy","1024","2","48000","-16","task","5127602","even","NA","64817","96205","66820","150271","3588","53583","51464","150774","NA","150268","150774","150230","96205","151384","63095","147091","3551","148730","Lexical Decision Task","25","25345","33","yes","1024"
"2.693726949","5.08","3","swig","word","76.47058823529412","76.47058823529412","759.7647058823529","759.7647058823529","black","no","legacy","legacy","legacy","0","uniform","1","undefined","undefined","undefined","1","j","0","0","0","0","33","0","0","0","33","NA","29","33","29","0","29","3","33","0","33","Fri Feb 19 11:43:24 2021","The main experiment item","yes","Lexical_Decision_Task.osexp","/Users/talisayorke/Desktop/UNI/YEAR 2/Semester 2/Cognition ","no","Andale Mono","no","18","no","white","no","yes","576","legacy","29","29","3","/Users/talisayorke/Desktop/UNI/YEAR 2/Semester 2/Cognition /subject-5127602.csv","legacy","Lentiform Loewenfeld","3.3.7","yes","yes","600bd7cfb6416f0113b04181","602110864497cf011d9c0822","0","j","NA","j","space","j","NA","j","487","NA","29384","47869","2118","NA","487","2","legacy","1024","2","48000","-16","task","5127602","even","NA","64817","96205","66820","152929","3588","53583","51464","153432","NA","152926","153432","152887","96205","153919","63095","147091","3551","151387","Lexical Decision Task","26","25832","34","yes","1024"
"2.703007489","8.37","3","pulp","word","77.14285714285714","77.14285714285714","758.8857142857142","758.8857142857142","black","no","legacy","legacy","legacy","0","uniform","1","undefined","undefined","undefined","1","j","0","0","0","0","34","0","0","0","34","NA","30","34","30","0","30","3","34","0","34","Fri Feb 19 11:43:24 2021","The main experiment item","yes","Lexical_Decision_Task.osexp","/Users/talisayorke/Desktop/UNI/YEAR 2/Semester 2/Cognition ","no","Andale Mono","no","18","no","white","no","yes","576","legacy","30","30","3","/Users/talisayorke/Desktop/UNI/YEAR 2/Semester 2/Cognition /subject-5127602.csv","legacy","Lentiform Loewenfeld","3.3.7","yes","yes","600bd7cfb6416f0113b04181","602110864497cf011d9c0822","0","j","NA","j","space","j","NA","j","729","NA","29384","47869","2118","NA","729","2","legacy","1024","2","48000","-16","task","5127602","even","NA","64817","96205","66820","154463","3588","53583","51464","154966","NA","154460","154966","154423","96205","155696","63095","153923","3551","151387","Lexical Decision Task","27","26561","35","yes","1024"
"2.838639236","0","4","furg","non-word","75","75","754","754","black","no","legacy","legacy","legacy","0","uniform","0","undefined","undefined","undefined","0","f","0","0","0","0","35","0","0","0","35","NA","31","35","31","0","31","3","35","0","35","Fri Feb 19 11:43:24 2021","The main experiment item","yes","Lexical_Decision_Task.osexp","/Users/talisayorke/Desktop/UNI/YEAR 2/Semester 2/Cognition ","no","Andale Mono","no","18","no","white","no","yes","576","legacy","31","31","3","/Users/talisayorke/Desktop/UNI/YEAR 2/Semester 2/Cognition /subject-5127602.csv","legacy","Lentiform Loewenfeld","3.3.7","yes","yes","600bd7cfb6416f0113b04181","602110864497cf011d9c0822","0","j","NA","j","space","j","NA","j","583","NA","29384","47869","2118","NA","583","2","legacy","1024","2","48000","-16","task","5127602","even","NA","64817","96205","66820","156240","3588","53583","51464","156743","NA","156237","156743","156200","96205","157327","63095","155700","3551","151387","Lexical Decision Task","27","27144","36","yes","1024"
"3.120135028","0","3","vals","non-word","75.67567567567568","75.67567567567568","748.918918918919","748.918918918919","black","no","legacy","legacy","legacy","0","uniform","1","undefined","undefined","undefined","1","f","0","0","0","0","36","0","0","0","36","NA","32","36","32","0","32","3","36","0","36","Fri Feb 19 11:43:24 2021","The main experiment item","yes","Lexical_Decision_Task.osexp","/Users/talisayorke/Desktop/UNI/YEAR 2/Semester 2/Cognition ","no","Andale Mono","no","18","no","white","no","yes","576","legacy","32","32","3","/Users/talisayorke/Desktop/UNI/YEAR 2/Semester 2/Cognition /subject-5127602.csv","legacy","Lentiform Loewenfeld","3.3.7","yes","yes","600bd7cfb6416f0113b04181","602110864497cf011d9c0822","0","f","NA","j","space","j","NA","f","566","NA","29384","47869","2118","NA","566","2","legacy","1024","2","48000","-16","task","5127602","even","NA","64817","96205","66820","158871","3588","53583","51464","159373","NA","158868","159374","158830","96205","159941","63095","155700","3551","157330","Lexical Decision Task","28","27710","37","yes","1024"
"3.132473155","0","4","glim","non-word","73.6842105263158","73.6842105263158","759.921052631579","759.921052631579","black","no","legacy","legacy","legacy","0","uniform","0","undefined","undefined","undefined","0","f","0","0","0","0","37","0","0","0","37","NA","33","37","33","0","33","3","37","0","37","Fri Feb 19 11:43:24 2021","The main experiment item","yes","Lexical_Decision_Task.osexp","/Users/talisayorke/Desktop/UNI/YEAR 2/Semester 2/Cognition ","no","Andale Mono","no","18","no","white","no","yes","576","legacy","33","33","3","/Users/talisayorke/Desktop/UNI/YEAR 2/Semester 2/Cognition /subject-5127602.csv","legacy","Lentiform Loewenfeld","3.3.7","yes","yes","600bd7cfb6416f0113b04181","602110864497cf011d9c0822","0","j","NA","j","space","j","NA","j","1167","NA","29384","47869","2118","NA","1167","2","legacy","1024","2","48000","-16","task","5127602","even","NA","64817","96205","66820","160485","3588","53583","51464","160987","NA","160482","160988","160445","96205","162156","63095","159945","3551","157330","Lexical Decision Task","28","28877","38","yes","1024"
"3.431095062","5.74","9","perk","word","71.7948717948718","71.7948717948718","755.5641025641025","755.5641025641025","black","no","legacy","legacy","legacy","0","uniform","0","undefined","undefined","undefined","0","j","0","0","0","0","38","0","0","0","38","NA","34","38","34","0","34","3","38","0","38","Fri Feb 19 11:43:24 2021","The main experiment item","yes","Lexical_Decision_Task.osexp","/Users/talisayorke/Desktop/UNI/YEAR 2/Semester 2/Cognition ","no","Andale Mono","no","18","no","white","no","yes","576","legacy","34","34","3","/Users/talisayorke/Desktop/UNI/YEAR 2/Semester 2/Cognition /subject-5127602.csv","legacy","Lentiform Loewenfeld","3.3.7","yes","yes","600bd7cfb6416f0113b04181","602110864497cf011d9c0822","0","f","NA","j","space","j","NA","f","590","NA","29384","47869","2118","NA","590","2","legacy","1024","2","48000","-16","task","5127602","even","NA","64817","96205","66820","163701","3588","53583","51464","164203","NA","163698","164204","163659","96205","164795","63095","159945","3551","162159","Lexical Decision Task","28","29467","39","yes","1024"
"3.397302518","7.01","2","knit","word","72.5","72.5","752.575","752.575","black","no","legacy","legacy","legacy","0","uniform","1","undefined","undefined","undefined","1","j","0","0","0","0","39","0","0","0","39","NA","35","39","35","0","35","3","39","0","39","Fri Feb 19 11:43:24 2021","The main experiment item","yes","Lexical_Decision_Task.osexp","/Users/talisayorke/Desktop/UNI/YEAR 2/Semester 2/Cognition ","no","Andale Mono","no","18","no","white","no","yes","576","legacy","35","35","3","/Users/talisayorke/Desktop/UNI/YEAR 2/Semester 2/Cognition /subject-5127602.csv","legacy","Lentiform Loewenfeld","3.3.7","yes","yes","600bd7cfb6416f0113b04181","602110864497cf011d9c0822","0","j","NA","j","space","j","NA","j","636","NA","29384","47869","2118","NA","636","2","legacy","1024","2","48000","-16","task","5127602","even","NA","64817","96205","66820","166340","3588","53583","51464","166842","NA","166337","166842","166298","96205","167479","63095","159945","3551","164798","Lexical Decision Task","29","30103","40","yes","1024"
"3.274543461","7.46","7","scar","word","73.17073170731707","73.17073170731707","745.2439024390244","745.2439024390244","black","no","legacy","legacy","legacy","0","uniform","1","undefined","undefined","undefined","1","j","0","0","0","0","40","0","0","0","40","NA","36","40","36","0","36","3","40","0","40","Fri Feb 19 11:43:24 2021","The main experiment item","yes","Lexical_Decision_Task.osexp","/Users/talisayorke/Desktop/UNI/YEAR 2/Semester 2/Cognition ","no","Andale Mono","no","18","no","white","no","yes","576","legacy","36","36","3","/Users/talisayorke/Desktop/UNI/YEAR 2/Semester 2/Cognition /subject-5127602.csv","legacy","Lentiform Loewenfeld","3.3.7","yes","yes","600bd7cfb6416f0113b04181","602110864497cf011d9c0822","0","j","NA","j","space","j","NA","j","452","NA","29384","47869","2118","NA","452","2","legacy","1024","2","48000","-16","task","5127602","even","NA","64817","96205","66820","168023","3588","53583","51464","168525","NA","168020","168526","167983","96205","168979","63095","167483","3551","164798","Lexical Decision Task","30","30555","41","yes","1024"
"3.088136089","8.32","9","worm","word","73.80952380952381","73.80952380952381","737.3333333333334","737.3333333333334","black","no","legacy","legacy","legacy","0","uniform","1","undefined","undefined","undefined","1","j","0","0","0","0","41","0","0","0","41","NA","37","41","37","0","37","3","41","0","41","Fri Feb 19 11:43:24 2021","The main experiment item","yes","Lexical_Decision_Task.osexp","/Users/talisayorke/Desktop/UNI/YEAR 2/Semester 2/Cognition ","no","Andale Mono","no","18","no","white","no","yes","576","legacy","37","37","3","/Users/talisayorke/Desktop/UNI/YEAR 2/Semester 2/Cognition /subject-5127602.csv","legacy","Lentiform Loewenfeld","3.3.7","yes","yes","600bd7cfb6416f0113b04181","602110864497cf011d9c0822","0","j","NA","j","space","j","NA","j","413","NA","29384","47869","2118","NA","413","2","legacy","1024","2","48000","-16","task","5127602","even","NA","64817","96205","66820","169523","3588","53583","51464","170026","NA","169519","170026","169482","96205","170440","63095","168982","3551","164798","Lexical Decision Task","31","30968","42","yes","1024"
"2.884795364","0","6","flob","non-word","74.4186046511628","74.4186046511628","734.7209302325581","734.7209302325581","black","no","legacy","legacy","legacy","0","uniform","1","undefined","undefined","undefined","1","f","0","0","0","0","42","0","0","0","42","NA","38","42","38","0","38","3","42","0","42","Fri Feb 19 11:43:24 2021","The main experiment item","yes","Lexical_Decision_Task.osexp","/Users/talisayorke/Desktop/UNI/YEAR 2/Semester 2/Cognition ","no","Andale Mono","no","18","no","white","no","yes","576","legacy","38","38","3","/Users/talisayorke/Desktop/UNI/YEAR 2/Semester 2/Cognition /subject-5127602.csv","legacy","Lentiform Loewenfeld","3.3.7","yes","yes","600bd7cfb6416f0113b04181","602110864497cf011d9c0822","0","f","NA","j","space","j","NA","f","625","NA","29384","47869","2118","NA","625","2","legacy","1024","2","48000","-16","task","5127602","even","NA","64817","96205","66820","170983","3588","53583","51464","171486","NA","170980","171486","170943","96205","172112","63095","170443","3551","164798","Lexical Decision Task","32","31593","43","yes","1024"
"3.2757719","0","5","slea","non-word","75","75","731.8636363636364","731.8636363636364","black","no","legacy","legacy","legacy","0","uniform","1","undefined","undefined","undefined","1","f","0","0","0","0","43","0","0","0","43","NA","39","43","39","0","39","3","43","0","43","Fri Feb 19 11:43:24 2021","The main experiment item","yes","Lexical_Decision_Task.osexp","/Users/talisayorke/Desktop/UNI/YEAR 2/Semester 2/Cognition ","no","Andale Mono","no","18","no","white","no","yes","576","legacy","39","39","3","/Users/talisayorke/Desktop/UNI/YEAR 2/Semester 2/Cognition /subject-5127602.csv","legacy","Lentiform Loewenfeld","3.3.7","yes","yes","600bd7cfb6416f0113b04181","602110864497cf011d9c0822","0","f","NA","j","space","j","NA","f","609","NA","29384","47869","2118","NA","609","2","legacy","1024","2","48000","-16","task","5127602","even","NA","64817","96205","66820","172657","3588","53583","51464","173160","NA","172654","173160","172615","96205","173770","63095","172115","3551","164798","Lexical Decision Task","33","32202","44","yes","1024"
"2.8162413","0","5","nusk","non-word","75.55555555555556","75.55555555555556","730.5333333333333","730.5333333333333","black","no","legacy","legacy","legacy","0","uniform","1","undefined","undefined","undefined","1","f","0","0","0","0","44","0","0","0","44","NA","40","44","40","0","40","3","44","0","44","Fri Feb 19 11:43:24 2021","The main experiment item","yes","Lexical_Decision_Task.osexp","/Users/talisayorke/Desktop/UNI/YEAR 2/Semester 2/Cognition ","no","Andale Mono","no","18","no","white","no","yes","576","legacy","40","40","3","/Users/talisayorke/Desktop/UNI/YEAR 2/Semester 2/Cognition /subject-5127602.csv","legacy","Lentiform Loewenfeld","3.3.7","yes","yes","600bd7cfb6416f0113b04181","602110864497cf011d9c0822","0","f","NA","j","space","j","NA","f","672","NA","29384","47869","2118","NA","672","2","legacy","1024","2","48000","-16","task","5127602","even","NA","64817","96205","66820","174314","3588","53583","51464","174816","NA","174311","174817","174273","96205","175490","63095","173773","3551","164798","Lexical Decision Task","34","32874","45","yes","1024"
"2.706148589","0","4","hube","non-word","76.08695652173913","76.08695652173913","729.9565217391304","729.9565217391304","black","no","legacy","legacy","legacy","0","uniform","1","undefined","undefined","undefined","1","f","0","0","0","0","45","0","0","0","45","NA","41","45","41","0","41","3","45","0","45","Fri Feb 19 11:43:24 2021","The main experiment item","yes","Lexical_Decision_Task.osexp","/Users/talisayorke/Desktop/UNI/YEAR 2/Semester 2/Cognition ","no","Andale Mono","no","18","no","white","no","yes","576","legacy","41","41","3","/Users/talisayorke/Desktop/UNI/YEAR 2/Semester 2/Cognition /subject-5127602.csv","legacy","Lentiform Loewenfeld","3.3.7","yes","yes","600bd7cfb6416f0113b04181","602110864497cf011d9c0822","0","f","NA","j","space","j","NA","f","704","NA","29384","47869","2118","NA","704","2","legacy","1024","2","48000","-16","task","5127602","even","NA","64817","96205","66820","176033","3588","53583","51464","176536","NA","176030","176536","175993","96205","177241","63095","175493","3551","164798","Lexical Decision Task","35","33578","46","yes","1024"
"3.366547468","0","6","plat","non-word","76.59574468085107","76.59574468085107","733.5744680851063","733.5744680851063","black","no","legacy","legacy","legacy","0","uniform","1","undefined","undefined","undefined","1","f","0","0","0","0","46","0","0","0","46","NA","42","46","42","0","42","3","46","0","46","Fri Feb 19 11:43:24 2021","The main experiment item","yes","Lexical_Decision_Task.osexp","/Users/talisayorke/Desktop/UNI/YEAR 2/Semester 2/Cognition ","no","Andale Mono","no","18","no","white","no","yes","576","legacy","42","42","3","/Users/talisayorke/Desktop/UNI/YEAR 2/Semester 2/Cognition /subject-5127602.csv","legacy","Lentiform Loewenfeld","3.3.7","yes","yes","600bd7cfb6416f0113b04181","602110864497cf011d9c0822","0","f","NA","j","space","j","NA","f","900","NA","29384","47869","2118","NA","900","2","legacy","1024","2","48000","-16","task","5127602","even","NA","64817","96205","66820","177786","3588","53583","51464","178288","NA","177783","178289","177744","96205","179190","63095","177244","3551","164798","Lexical Decision Task","36","34478","47","yes","1024"
"3.218535505","7.85","7","goat","word","75","75","737.5416666666666","737.5416666666666","black","no","legacy","legacy","legacy","0","uniform","0","undefined","undefined","undefined","0","j","0","0","0","0","47","0","0","0","47","NA","43","47","43","0","43","3","47","0","47","Fri Feb 19 11:43:24 2021","The main experiment item","yes","Lexical_Decision_Task.osexp","/Users/talisayorke/Desktop/UNI/YEAR 2/Semester 2/Cognition ","no","Andale Mono","no","18","no","white","no","yes","576","legacy","43","43","3","/Users/talisayorke/Desktop/UNI/YEAR 2/Semester 2/Cognition /subject-5127602.csv","legacy","Lentiform Loewenfeld","3.3.7","yes","yes","600bd7cfb6416f0113b04181","602110864497cf011d9c0822","0","f","NA","j","space","j","NA","f","924","NA","29384","47869","2118","NA","924","2","legacy","1024","2","48000","-16","task","5127602","even","NA","64817","96205","66820","179733","3588","53583","51464","180235","NA","179730","180236","179693","96205","181160","63095","179193","3551","164798","Lexical Decision Task","36","35402","48","yes","1024"
"3.443783828","7.65","3","verb","word","75.51020408163265","75.51020408163265","735.1632653061224","735.1632653061224","black","no","legacy","legacy","legacy","0","uniform","1","undefined","undefined","undefined","1","j","0","0","0","0","48","0","0","0","48","NA","44","48","44","0","44","3","48","0","48","Fri Feb 19 11:43:24 2021","The main experiment item","yes","Lexical_Decision_Task.osexp","/Users/talisayorke/Desktop/UNI/YEAR 2/Semester 2/Cognition ","no","Andale Mono","no","18","no","white","no","yes","576","legacy","44","44","3","/Users/talisayorke/Desktop/UNI/YEAR 2/Semester 2/Cognition /subject-5127602.csv","legacy","Lentiform Loewenfeld","3.3.7","yes","yes","600bd7cfb6416f0113b04181","602110864497cf011d9c0822","0","j","NA","j","space","j","NA","j","621","NA","29384","47869","2118","NA","621","2","legacy","1024","2","48000","-16","task","5127602","even","NA","64817","96205","66820","182707","3588","53583","51464","183209","NA","182704","183210","182664","96205","183832","63095","179193","3551","181164","Lexical Decision Task","37","36023","49","yes","1024"
"3.119255889","6.63","2","itch","word","76","76","732.62","732.62","black","no","legacy","legacy","legacy","0","uniform","1","undefined","undefined","undefined","1","j","0","0","0","0","49","0","0","0","49","NA","45","49","45","0","45","3","49","0","49","Fri Feb 19 11:43:24 2021","The main experiment item","yes","Lexical_Decision_Task.osexp","/Users/talisayorke/Desktop/UNI/YEAR 2/Semester 2/Cognition ","no","Andale Mono","no","18","no","white","no","yes","576","legacy","45","45","3","/Users/talisayorke/Desktop/UNI/YEAR 2/Semester 2/Cognition /subject-5127602.csv","legacy","Lentiform Loewenfeld","3.3.7","yes","yes","600bd7cfb6416f0113b04181","602110864497cf011d9c0822","0","j","NA","j","space","j","NA","j","608","NA","29384","47869","2118","NA","608","2","legacy","1024","2","48000","-16","task","5127602","even","NA","64817","96205","66820","184377","3588","53583","51464","184880","NA","184374","184880","184336","96205","185490","63095","183836","3551","181164","Lexical Decision Task","38","36631","50","yes","1024"
"3.102203805","7.21","3","drip","word","76.47058823529412","76.47058823529412","729.1764705882352","729.1764705882352","black","no","legacy","legacy","legacy","0","uniform","1","undefined","undefined","undefined","1","j","0","0","0","0","50","0","0","0","50","NA","46","50","46","0","46","3","50","0","50","Fri Feb 19 11:43:24 2021","The main experiment item","yes","Lexical_Decision_Task.osexp","/Users/talisayorke/Desktop/UNI/YEAR 2/Semester 2/Cognition ","no","Andale Mono","no","18","no","white","no","yes","576","legacy","46","46","3","/Users/talisayorke/Desktop/UNI/YEAR 2/Semester 2/Cognition /subject-5127602.csv","legacy","Lentiform Loewenfeld","3.3.7","yes","yes","600bd7cfb6416f0113b04181","602110864497cf011d9c0822","0","j","NA","j","space","j","NA","j","557","NA","29384","47869","2118","NA","557","2","legacy","1024","2","48000","-16","task","5127602","even","NA","64817","96205","66820","186033","3588","53583","51464","186535","NA","186030","186536","185993","96205","187094","63095","185493","3551","181164","Lexical Decision Task","39","37188","51","yes","1024"
"2.983324025","9.56","2","debt","word","76.92307692307692","76.92307692307692","724.0576923076923","724.0576923076923","black","no","legacy","legacy","legacy","0","uniform","1","undefined","undefined","undefined","1","j","0","0","0","0","51","0","0","0","51","NA","47","51","47","0","47","3","51","0","51","Fri Feb 19 11:43:24 2021","The main experiment item","yes","Lexical_Decision_Task.osexp","/Users/talisayorke/Desktop/UNI/YEAR 2/Semester 2/Cognition ","no","Andale Mono","no","18","no","white","no","yes","576","legacy","47","47","3","/Users/talisayorke/Desktop/UNI/YEAR 2/Semester 2/Cognition /subject-5127602.csv","legacy","Lentiform Loewenfeld","3.3.7","yes","yes","600bd7cfb6416f0113b04181","602110864497cf011d9c0822","0","j","NA","j","space","j","NA","j","463","NA","29384","47869","2118","NA","463","2","legacy","1024","2","48000","-16","task","5127602","even","NA","64817","96205","66820","187638","3588","53583","51464","188140","NA","187635","188141","187597","96205","188605","63095","187097","3551","181164","Lexical Decision Task","40","37651","52","yes","1024"
"2.794720352","0","9","koot","non-word","75.47169811320755","75.47169811320755","726.3018867924528","726.3018867924528","black","no","legacy","legacy","legacy","0","uniform","0","undefined","undefined","undefined","0","f","0","0","0","0","52","0","0","0","52","NA","48","52","48","0","48","3","52","0","52","Fri Feb 19 11:43:24 2021","The main experiment item","yes","Lexical_Decision_Task.osexp","/Users/talisayorke/Desktop/UNI/YEAR 2/Semester 2/Cognition ","no","Andale Mono","no","18","no","white","no","yes","576","legacy","48","48","3","/Users/talisayorke/Desktop/UNI/YEAR 2/Semester 2/Cognition /subject-5127602.csv","legacy","Lentiform Loewenfeld","3.3.7","yes","yes","600bd7cfb6416f0113b04181","602110864497cf011d9c0822","0","j","NA","j","space","j","NA","j","843","NA","29384","47869","2118","NA","843","2","legacy","1024","2","48000","-16","task","5127602","even","NA","64817","96205","66820","189149","3588","53583","51464","189651","NA","189146","189652","189109","96205","190496","63095","188609","3551","181164","Lexical Decision Task","40","38494","53","yes","1024"
"3.105055783","0","2","norp","non-word","75.92592592592592","75.92592592592592","750.2592592592592","750.2592592592592","black","no","legacy","legacy","legacy","0","uniform","1","undefined","undefined","undefined","1","f","0","0","0","0","53","0","0","0","53","NA","49","53","49","0","49","3","53","0","53","Fri Feb 19 11:43:24 2021","The main experiment item","yes","Lexical_Decision_Task.osexp","/Users/talisayorke/Desktop/UNI/YEAR 2/Semester 2/Cognition ","no","Andale Mono","no","18","no","white","no","yes","576","legacy","49","49","3","/Users/talisayorke/Desktop/UNI/YEAR 2/Semester 2/Cognition /subject-5127602.csv","legacy","Lentiform Loewenfeld","3.3.7","yes","yes","600bd7cfb6416f0113b04181","602110864497cf011d9c0822","0","f","NA","j","space","j","NA","f","2020","NA","29384","47869","2118","NA","2020","2","legacy","1024","2","48000","-16","task","5127602","even","NA","64817","96205","66820","192042","3588","53583","51464","192544","NA","192039","192545","191999","96205","194566","63095","188609","3551","190499","Lexical Decision Task","41","40514","54","yes","1024"
"3.1430148","7.92","8","bald","word","76.36363636363636","76.36363636363636","747.4909090909091","747.4909090909091","black","no","legacy","legacy","legacy","0","uniform","1","undefined","undefined","undefined","1","j","0","0","0","0","54","0","0","0","54","0","50","54","50","0","50","3","54","0","54","Fri Feb 19 11:43:24 2021","The main experiment item","yes","Lexical_Decision_Task.osexp","/Users/talisayorke/Desktop/UNI/YEAR 2/Semester 2/Cognition ","no","Andale Mono","no","18","no","white","no","yes","576","legacy","50","50","3","/Users/talisayorke/Desktop/UNI/YEAR 2/Semester 2/Cognition /subject-5127602.csv","legacy","Lentiform Loewenfeld","3.3.7","yes","yes","600bd7cfb6416f0113b04181","602110864497cf011d9c0822","0","j","NA","j","space","j","j","j","598","NA","29384","47869","2118","26508","598","2","legacy","1024","2","48000","-16","task","5127602","even","NA","64817","96205","66820","221636","3588","53583","51464","222139","195091","221634","222139","195069","96205","222738","63095","194569","3551","190499","Lexical Decision Task","42","41112","55","yes","1024"
"3.20996159","0","4","clee","non-word","76.78571428571429","76.78571428571429","744.6071428571429","744.6071428571429","black","no","legacy","legacy","legacy","0","uniform","1","undefined","undefined","undefined","1","f","0","0","0","0","55","0","0","0","55","0","51","55","51","0","51","3","55","0","55","Fri Feb 19 11:43:24 2021","The main experiment item","yes","Lexical_Decision_Task.osexp","/Users/talisayorke/Desktop/UNI/YEAR 2/Semester 2/Cognition ","no","Andale Mono","no","18","no","white","no","yes","576","legacy","51","51","3","/Users/talisayorke/Desktop/UNI/YEAR 2/Semester 2/Cognition /subject-5127602.csv","legacy","Lentiform Loewenfeld","3.3.7","yes","yes","600bd7cfb6416f0113b04181","602110864497cf011d9c0822","0","f","NA","j","space","j","j","f","586","NA","29384","47869","2118","26508","586","2","legacy","1024","2","48000","-16","task","5127602","even","NA","64817","96205","66820","223281","3588","53583","51464","223784","195091","223278","223784","223241","96205","224371","63095","222741","3551","190499","Lexical Decision Task","43","41698","56","yes","1024"
"2.807758206","6.25","4","hurl","word","77.19298245614036","77.19298245614036","744.9649122807018","744.9649122807018","black","no","legacy","legacy","legacy","0","uniform","1","undefined","undefined","undefined","1","j","0","0","0","0","56","0","0","0","56","0","52","56","52","0","52","3","56","0","56","Fri Feb 19 11:43:24 2021","The main experiment item","yes","Lexical_Decision_Task.osexp","/Users/talisayorke/Desktop/UNI/YEAR 2/Semester 2/Cognition ","no","Andale Mono","no","18","no","white","no","yes","576","legacy","52","52","3","/Users/talisayorke/Desktop/UNI/YEAR 2/Semester 2/Cognition /subject-5127602.csv","legacy","Lentiform Loewenfeld","3.3.7","yes","yes","600bd7cfb6416f0113b04181","602110864497cf011d9c0822","0","j","NA","j","space","j","j","j","765","NA","29384","47869","2118","26508","765","2","legacy","1024","2","48000","-16","task","5127602","even","NA","64817","96205","66820","224915","3588","53583","51464","225417","195091","224912","225418","224874","96205","226184","63095","224374","3551","190499","Lexical Decision Task","44","42463","57","yes","1024"
"2.6599162","0","2","saff","non-word","77.58620689655173","77.58620689655173","742.4827586206897","742.4827586206897","black","no","legacy","legacy","legacy","0","uniform","1","undefined","undefined","undefined","1","f","0","0","0","0","57","0","0","0","57","0","53","57","53","0","53","3","57","0","57","Fri Feb 19 11:43:24 2021","The main experiment item","yes","Lexical_Decision_Task.osexp","/Users/talisayorke/Desktop/UNI/YEAR 2/Semester 2/Cognition ","no","Andale Mono","no","18","no","white","no","yes","576","legacy","53","53","3","/Users/talisayorke/Desktop/UNI/YEAR 2/Semester 2/Cognition /subject-5127602.csv","legacy","Lentiform Loewenfeld","3.3.7","yes","yes","600bd7cfb6416f0113b04181","602110864497cf011d9c0822","0","f","NA","j","space","j","j","f","601","NA","29384","47869","2118","26508","601","2","legacy","1024","2","48000","-16","task","5127602","even","NA","64817","96205","66820","226728","3588","53583","51464","227230","195091","226724","227231","226687","96205","227833","63095","226187","3551","190499","Lexical Decision Task","45","43064","58","yes","1024"
"2.767650507","0","6","yolt","non-word","76.27118644067797","76.27118644067797","740.7627118644068","740.7627118644068","black","no","legacy","legacy","legacy","0","uniform","0","undefined","undefined","undefined","0","f","0","0","0","0","58","0","0","0","58","0","54","58","54","0","54","3","58","0","58","Fri Feb 19 11:43:24 2021","The main experiment item","yes","Lexical_Decision_Task.osexp","/Users/talisayorke/Desktop/UNI/YEAR 2/Semester 2/Cognition ","no","Andale Mono","no","18","no","white","no","yes","576","legacy","54","54","3","/Users/talisayorke/Desktop/UNI/YEAR 2/Semester 2/Cognition /subject-5127602.csv","legacy","Lentiform Loewenfeld","3.3.7","yes","yes","600bd7cfb6416f0113b04181","602110864497cf011d9c0822","0","j","NA","j","space","j","j","j","641","NA","29384","47869","2118","26508","641","2","legacy","1024","2","48000","-16","task","5127602","even","NA","64817","96205","66820","228376","3588","53583","51464","228879","195091","228373","228879","228336","96205","229521","63095","227836","3551","190499","Lexical Decision Task","45","43705","59","yes","1024"
"3.495914186","0","4","peng","non-word","75","75","739.4833333333333","739.4833333333333","black","no","legacy","legacy","legacy","0","uniform","0","undefined","undefined","undefined","0","f","0","0","0","0","59","0","0","0","59","0","55","59","55","0","55","3","59","0","59","Fri Feb 19 11:43:24 2021","The main experiment item","yes","Lexical_Decision_Task.osexp","/Users/talisayorke/Desktop/UNI/YEAR 2/Semester 2/Cognition ","no","Andale Mono","no","18","no","white","no","yes","576","legacy","55","55","3","/Users/talisayorke/Desktop/UNI/YEAR 2/Semester 2/Cognition /subject-5127602.csv","legacy","Lentiform Loewenfeld","3.3.7","yes","yes","600bd7cfb6416f0113b04181","602110864497cf011d9c0822","0","j","NA","j","space","j","j","j","664","NA","29384","47869","2118","26508","664","2","legacy","1024","2","48000","-16","task","5127602","even","NA","64817","96205","66820","231075","3588","53583","51464","231577","195091","231072","231578","231032","96205","232243","63095","227836","3551","229532","Lexical Decision Task","45","44369","60","yes","1024"
"3.076883066","0","8","mout","non-word","75.40983606557377","75.40983606557377","736.5737704918033","736.5737704918033","black","no","legacy","legacy","legacy","0","uniform","1","undefined","undefined","undefined","1","f","0","0","0","0","60","0","0","0","60","0","56","60","56","0","56","3","60","0","60","Fri Feb 19 11:43:24 2021","The main experiment item","yes","Lexical_Decision_Task.osexp","/Users/talisayorke/Desktop/UNI/YEAR 2/Semester 2/Cognition ","no","Andale Mono","no","18","no","white","no","yes","576","legacy","56","56","3","/Users/talisayorke/Desktop/UNI/YEAR 2/Semester 2/Cognition /subject-5127602.csv","legacy","Lentiform Loewenfeld","3.3.7","yes","yes","600bd7cfb6416f0113b04181","602110864497cf011d9c0822","0","f","NA","j","space","j","j","f","562","NA","29384","47869","2118","26508","562","2","legacy","1024","2","48000","-16","task","5127602","even","NA","64817","96205","66820","233788","3588","53583","51464","234290","195091","233785","234291","233746","96205","234854","63095","227836","3551","232246","Lexical Decision Task","46","44931","61","yes","1024"
"2.981215883","10.66","5","hair","word","75.80645161290323","75.80645161290323","733.1290322580645","733.1290322580645","black","no","legacy","legacy","legacy","0","uniform","1","undefined","undefined","undefined","1","j","0","0","0","0","61","0","0","0","61","0","57","61","57","0","57","3","61","0","61","Fri Feb 19 11:43:24 2021","The main experiment item","yes","Lexical_Decision_Task.osexp","/Users/talisayorke/Desktop/UNI/YEAR 2/Semester 2/Cognition ","no","Andale Mono","no","18","no","white","no","yes","576","legacy","57","57","3","/Users/talisayorke/Desktop/UNI/YEAR 2/Semester 2/Cognition /subject-5127602.csv","legacy","Lentiform Loewenfeld","3.3.7","yes","yes","600bd7cfb6416f0113b04181","602110864497cf011d9c0822","0","j","NA","j","space","j","j","j","523","NA","29384","47869","2118","26508","523","2","legacy","1024","2","48000","-16","task","5127602","even","NA","64817","96205","66820","235400","3588","53583","51464","235902","195091","235397","235903","235358","96205","236428","63095","234858","3551","232246","Lexical Decision Task","47","45454","62","yes","1024"
"3.010582609","0","2","drod","non-word","76.19047619047619","76.19047619047619","730.8253968253969","730.8253968253969","black","no","legacy","legacy","legacy","0","uniform","1","undefined","undefined","undefined","1","f","0","0","0","0","62","0","0","0","62","0","58","62","58","0","58","3","62","0","62","Fri Feb 19 11:43:24 2021","The main experiment item","yes","Lexical_Decision_Task.osexp","/Users/talisayorke/Desktop/UNI/YEAR 2/Semester 2/Cognition ","no","Andale Mono","no","18","no","white","no","yes","576","legacy","58","58","3","/Users/talisayorke/Desktop/UNI/YEAR 2/Semester 2/Cognition /subject-5127602.csv","legacy","Lentiform Loewenfeld","3.3.7","yes","yes","600bd7cfb6416f0113b04181","602110864497cf011d9c0822","0","f","NA","j","space","j","j","f","588","NA","29384","47869","2118","26508","588","2","legacy","1024","2","48000","-16","task","5127602","even","NA","64817","96205","66820","236972","3588","53583","51464","237474","195091","236969","237475","236931","96205","238064","63095","236431","3551","232246","Lexical Decision Task","48","46042","63","yes","1024"
"2.898725182","0","7","turl","non-word","76.5625","76.5625","729.25","729.25","black","no","legacy","legacy","legacy","0","uniform","1","undefined","undefined","undefined","1","f","0","0","0","0","63","0","0","0","63","0","59","63","59","0","59","3","63","0","63","Fri Feb 19 11:43:24 2021","The main experiment item","yes","Lexical_Decision_Task.osexp","/Users/talisayorke/Desktop/UNI/YEAR 2/Semester 2/Cognition ","no","Andale Mono","no","18","no","white","no","yes","576","legacy","59","59","3","/Users/talisayorke/Desktop/UNI/YEAR 2/Semester 2/Cognition /subject-5127602.csv","legacy","Lentiform Loewenfeld","3.3.7","yes","yes","600bd7cfb6416f0113b04181","602110864497cf011d9c0822","0","f","NA","j","space","j","j","f","630","NA","29384","47869","2118","26508","630","2","legacy","1024","2","48000","-16","task","5127602","even","NA","64817","96205","66820","238609","3588","53583","51464","239112","195091","238605","239112","238568","96205","239743","63095","238068","3551","232246","Lexical Decision Task","49","46672","64","yes","1024"
"2.95456409","0","4","taud","non-word","76.92307692307692","76.92307692307692","726.6769230769231","726.6769230769231","black","no","legacy","legacy","legacy","0","uniform","1","undefined","undefined","undefined","1","f","0","0","0","0","64","0","0","0","64","0","60","64","60","0","60","3","64","0","64","Fri Feb 19 11:43:24 2021","The main experiment item","yes","Lexical_Decision_Task.osexp","/Users/talisayorke/Desktop/UNI/YEAR 2/Semester 2/Cognition ","no","Andale Mono","no","18","no","white","no","yes","576","legacy","60","60","3","/Users/talisayorke/Desktop/UNI/YEAR 2/Semester 2/Cognition /subject-5127602.csv","legacy","Lentiform Loewenfeld","3.3.7","yes","yes","600bd7cfb6416f0113b04181","602110864497cf011d9c0822","0","f","NA","j","space","j","j","f","562","NA","29384","47869","2118","26508","562","2","legacy","1024","2","48000","-16","task","5127602","even","NA","64817","96205","66820","240288","3588","53583","51464","240790","195091","240285","240791","240247","96205","241354","63095","239747","3551","232246","Lexical Decision Task","50","47234","65","yes","1024"
"2.809559715","8.44","4","volt","word","75.75757575757575","75.75757575757575","723.2727272727273","723.2727272727273","black","no","legacy","legacy","legacy","0","uniform","0","undefined","undefined","undefined","0","j","0","0","0","0","65","0","0","0","65","0","61","65","61","0","61","3","65","0","65","Fri Feb 19 11:43:24 2021","The main experiment item","yes","Lexical_Decision_Task.osexp","/Users/talisayorke/Desktop/UNI/YEAR 2/Semester 2/Cognition ","no","Andale Mono","no","18","no","white","no","yes","576","legacy","61","61","3","/Users/talisayorke/Desktop/UNI/YEAR 2/Semester 2/Cognition /subject-5127602.csv","legacy","Lentiform Loewenfeld","3.3.7","yes","yes","600bd7cfb6416f0113b04181","602110864497cf011d9c0822","0","f","NA","j","space","j","j","f","502","NA","29384","47869","2118","26508","502","2","legacy","1024","2","48000","-16","task","5127602","even","NA","64817","96205","66820","241898","3588","53583","51464","242400","195091","241895","242401","241857","96205","242904","63095","241357","3551","232246","Lexical Decision Task","50","47736","66","yes","1024"
"3.153104174","10.89","6","door","word","76.11940298507463","76.11940298507463","719.7164179104477","719.7164179104477","black","no","legacy","legacy","legacy","0","uniform","1","undefined","undefined","undefined","1","j","0","0","0","0","66","0","0","0","66","0","62","66","62","0","62","3","66","0","66","Fri Feb 19 11:43:24 2021","The main experiment item","yes","Lexical_Decision_Task.osexp","/Users/talisayorke/Desktop/UNI/YEAR 2/Semester 2/Cognition ","no","Andale Mono","no","18","no","white","no","yes","576","legacy","62","62","3","/Users/talisayorke/Desktop/UNI/YEAR 2/Semester 2/Cognition /subject-5127602.csv","legacy","Lentiform Loewenfeld","3.3.7","yes","yes","600bd7cfb6416f0113b04181","602110864497cf011d9c0822","0","j","NA","j","space","j","j","j","485","NA","29384","47869","2118","26508","485","2","legacy","1024","2","48000","-16","task","5127602","even","NA","64817","96205","66820","244453","3588","53583","51464","244955","195091","244450","244956","244408","96205","245443","63095","241357","3551","242908","Lexical Decision Task","51","48221","67","yes","1024"
"3.257359335","8","6","brew","word","76.47058823529412","76.47058823529412","717.5294117647059","717.5294117647059","black","no","legacy","legacy","legacy","0","uniform","1","undefined","undefined","undefined","1","j","0","0","0","0","67","0","0","0","67","0","63","67","63","0","63","3","67","0","67","Fri Feb 19 11:43:24 2021","The main experiment item","yes","Lexical_Decision_Task.osexp","/Users/talisayorke/Desktop/UNI/YEAR 2/Semester 2/Cognition ","no","Andale Mono","no","18","no","white","no","yes","576","legacy","63","63","3","/Users/talisayorke/Desktop/UNI/YEAR 2/Semester 2/Cognition /subject-5127602.csv","legacy","Lentiform Loewenfeld","3.3.7","yes","yes","600bd7cfb6416f0113b04181","602110864497cf011d9c0822","0","j","NA","j","space","j","j","j","571","NA","29384","47869","2118","26508","571","2","legacy","1024","2","48000","-16","task","5127602","even","NA","64817","96205","66820","245987","3588","53583","51464","246490","195091","245984","246490","245946","96205","247062","63095","245446","3551","242908","Lexical Decision Task","52","48792","68","yes","1024"
"2.875447132","0","9","jelt","non-word","76.81159420289855","76.81159420289855","716.6666666666666","716.6666666666666","black","no","legacy","legacy","legacy","0","uniform","1","undefined","undefined","undefined","1","f","0","0","0","0","68","0","0","0","68","0","64","68","64","0","64","3","68","0","68","Fri Feb 19 11:43:24 2021","The main experiment item","yes","Lexical_Decision_Task.osexp","/Users/talisayorke/Desktop/UNI/YEAR 2/Semester 2/Cognition ","no","Andale Mono","no","18","no","white","no","yes","576","legacy","64","64","3","/Users/talisayorke/Desktop/UNI/YEAR 2/Semester 2/Cognition /subject-5127602.csv","legacy","Lentiform Loewenfeld","3.3.7","yes","yes","600bd7cfb6416f0113b04181","602110864497cf011d9c0822","0","f","NA","j","space","j","j","f","658","NA","29384","47869","2118","26508","658","2","legacy","1024","2","48000","-16","task","5127602","even","NA","64817","96205","66820","247606","3588","53583","51464","248108","195091","247603","248109","247565","96205","248769","63095","247065","3551","242908","Lexical Decision Task","53","49450","69","yes","1024"
"2.868644438","10.52","4","town","word","77.14285714285714","77.14285714285714","713.9428571428572","713.9428571428572","black","no","legacy","legacy","legacy","0","uniform","1","undefined","undefined","undefined","1","j","0","0","0","0","69","0","0","0","69","0","65","69","65","0","65","3","69","0","69","Fri Feb 19 11:43:24 2021","The main experiment item","yes","Lexical_Decision_Task.osexp","/Users/talisayorke/Desktop/UNI/YEAR 2/Semester 2/Cognition ","no","Andale Mono","no","18","no","white","no","yes","576","legacy","65","65","3","/Users/talisayorke/Desktop/UNI/YEAR 2/Semester 2/Cognition /subject-5127602.csv","legacy","Lentiform Loewenfeld","3.3.7","yes","yes","600bd7cfb6416f0113b04181","602110864497cf011d9c0822","0","j","NA","j","space","j","j","j","526","NA","29384","47869","2118","26508","526","2","legacy","1024","2","48000","-16","task","5127602","even","NA","64817","96205","66820","249313","3588","53583","51464","249815","195091","249310","249816","249272","96205","250343","63095","248772","3551","242908","Lexical Decision Task","54","49976","70","yes","1024"
"2.920123326","7.43","4","duel","word","76.05633802816901","76.05633802816901","712.4084507042254","712.4084507042254","black","no","legacy","legacy","legacy","0","uniform","0","undefined","undefined","undefined","0","j","0","0","0","0","70","0","0","0","70","0","66","70","66","0","66","3","70","0","70","Fri Feb 19 11:43:24 2021","The main experiment item","yes","Lexical_Decision_Task.osexp","/Users/talisayorke/Desktop/UNI/YEAR 2/Semester 2/Cognition ","no","Andale Mono","no","18","no","white","no","yes","576","legacy","66","66","3","/Users/talisayorke/Desktop/UNI/YEAR 2/Semester 2/Cognition /subject-5127602.csv","legacy","Lentiform Loewenfeld","3.3.7","yes","yes","600bd7cfb6416f0113b04181","602110864497cf011d9c0822","0","f","NA","j","space","j","j","f","605","NA","29384","47869","2118","26508","605","2","legacy","1024","2","48000","-16","task","5127602","even","NA","64817","96205","66820","250888","3588","53583","51464","251390","195091","250885","251391","250846","96205","251997","63095","250346","3551","242908","Lexical Decision Task","54","50581","71","yes","1024"
"2.996511672","0","7","hoil","non-word","76.38888888888889","76.38888888888889","713.375","713.375","black","no","legacy","legacy","legacy","0","uniform","1","undefined","undefined","undefined","1","f","0","0","0","0","71","0","0","0","71","0","67","71","67","0","67","3","71","0","71","Fri Feb 19 11:43:24 2021","The main experiment item","yes","Lexical_Decision_Task.osexp","/Users/talisayorke/Desktop/UNI/YEAR 2/Semester 2/Cognition ","no","Andale Mono","no","18","no","white","no","yes","576","legacy","67","67","3","/Users/talisayorke/Desktop/UNI/YEAR 2/Semester 2/Cognition /subject-5127602.csv","legacy","Lentiform Loewenfeld","3.3.7","yes","yes","600bd7cfb6416f0113b04181","602110864497cf011d9c0822","0","f","NA","j","space","j","j","f","782","NA","29384","47869","2118","26508","782","2","legacy","1024","2","48000","-16","task","5127602","even","NA","64817","96205","66820","253542","3588","53583","51464","254045","195091","253539","254045","253500","96205","254828","63095","250346","3551","252000","Lexical Decision Task","55","51363","72","yes","1024"
"3.066077331","0","7","vorn","non-word","76.71232876712328","76.71232876712328","714.9589041095891","714.9589041095891","black","no","legacy","legacy","legacy","0","uniform","1","undefined","undefined","undefined","1","f","0","0","0","0","72","0","0","0","72","0","68","72","68","0","68","3","72","0","72","Fri Feb 19 11:43:24 2021","The main experiment item","yes","Lexical_Decision_Task.osexp","/Users/talisayorke/Desktop/UNI/YEAR 2/Semester 2/Cognition ","no","Andale Mono","no","18","no","white","no","yes","576","legacy","68","68","3","/Users/talisayorke/Desktop/UNI/YEAR 2/Semester 2/Cognition /subject-5127602.csv","legacy","Lentiform Loewenfeld","3.3.7","yes","yes","600bd7cfb6416f0113b04181","602110864497cf011d9c0822","0","f","NA","j","space","j","j","f","829","NA","29384","47869","2118","26508","829","2","legacy","1024","2","48000","-16","task","5127602","even","NA","64817","96205","66820","255371","3588","53583","51464","255873","195091","255368","255874","255331","96205","256704","63095","254831","3551","252000","Lexical Decision Task","56","52192","73","yes","1024"
"2.971428938","9.86","7","spot","word","77.02702702702703","77.02702702702703","713.418918918919","713.418918918919","black","no","legacy","legacy","legacy","0","uniform","1","undefined","undefined","undefined","1","j","0","0","0","0","73","0","0","0","73","0","69","73","69","0","69","3","73","0","73","Fri Feb 19 11:43:24 2021","The main experiment item","yes","Lexical_Decision_Task.osexp","/Users/talisayorke/Desktop/UNI/YEAR 2/Semester 2/Cognition ","no","Andale Mono","no","18","no","white","no","yes","576","legacy","69","69","3","/Users/talisayorke/Desktop/UNI/YEAR 2/Semester 2/Cognition /subject-5127602.csv","legacy","Lentiform Loewenfeld","3.3.7","yes","yes","600bd7cfb6416f0113b04181","602110864497cf011d9c0822","0","j","NA","j","space","j","j","j","601","NA","29384","47869","2118","26508","601","2","legacy","1024","2","48000","-16","task","5127602","even","NA","64817","96205","66820","257247","3588","53583","51464","257749","195091","257244","257750","257207","96205","258352","63095","256707","3551","252000","Lexical Decision Task","57","52793","74","yes","1024"
"2.972819734","0","4","scew","non-word","77.33333333333333","77.33333333333333","722.0933333333334","722.0933333333334","black","no","legacy","legacy","legacy","0","uniform","1","undefined","undefined","undefined","1","f","0","0","0","0","74","0","0","0","74","0","70","74","70","0","70","3","74","0","74","Fri Feb 19 11:43:24 2021","The main experiment item","yes","Lexical_Decision_Task.osexp","/Users/talisayorke/Desktop/UNI/YEAR 2/Semester 2/Cognition ","no","Andale Mono","no","18","no","white","no","yes","576","legacy","70","70","3","/Users/talisayorke/Desktop/UNI/YEAR 2/Semester 2/Cognition /subject-5127602.csv","legacy","Lentiform Loewenfeld","3.3.7","yes","yes","600bd7cfb6416f0113b04181","602110864497cf011d9c0822","0","f","NA","j","space","j","j","f","1364","NA","29384","47869","2118","26508","1364","2","legacy","1024","2","48000","-16","task","5127602","even","NA","64817","96205","66820","258896","3588","53583","51464","259399","195091","258893","259399","258855","96205","260764","63095","258355","3551","252000","Lexical Decision Task","58","54157","75","yes","1024"
"2.873320602","0","4","lurg","non-word","76.3157894736842","76.3157894736842","726.328947368421","726.328947368421","black","no","legacy","legacy","legacy","0","uniform","0","undefined","undefined","undefined","0","f","0","0","0","0","75","0","0","0","75","0","71","75","71","0","71","3","75","0","75","Fri Feb 19 11:43:24 2021","The main experiment item","yes","Lexical_Decision_Task.osexp","/Users/talisayorke/Desktop/UNI/YEAR 2/Semester 2/Cognition ","no","Andale Mono","no","18","no","white","no","yes","576","legacy","71","71","3","/Users/talisayorke/Desktop/UNI/YEAR 2/Semester 2/Cognition /subject-5127602.csv","legacy","Lentiform Loewenfeld","3.3.7","yes","yes","600bd7cfb6416f0113b04181","602110864497cf011d9c0822","0","j","NA","j","space","j","j","j","1044","NA","29384","47869","2118","26508","1044","2","legacy","1024","2","48000","-16","task","5127602","even","NA","64817","96205","66820","261308","3588","53583","51464","261810","195091","261305","261811","261267","96205","262857","63095","260767","3551","252000","Lexical Decision Task","58","55201","76","yes","1024"
"2.979548375","8.71","4","soup","word","76.62337662337663","76.62337662337663","730.8701298701299","730.8701298701299","black","no","legacy","legacy","legacy","0","uniform","1","undefined","undefined","undefined","1","j","0","0","0","0","76","0","0","0","76","0","72","76","72","0","72","3","76","0","76","Fri Feb 19 11:43:24 2021","The main experiment item","yes","Lexical_Decision_Task.osexp","/Users/talisayorke/Desktop/UNI/YEAR 2/Semester 2/Cognition ","no","Andale Mono","no","18","no","white","no","yes","576","legacy","72","72","3","/Users/talisayorke/Desktop/UNI/YEAR 2/Semester 2/Cognition /subject-5127602.csv","legacy","Lentiform Loewenfeld","3.3.7","yes","yes","600bd7cfb6416f0113b04181","602110864497cf011d9c0822","0","j","NA","j","space","j","j","j","1076","NA","29384","47869","2118","26508","1076","2","legacy","1024","2","48000","-16","task","5127602","even","NA","64817","96205","66820","264403","3588","53583","51464","264905","195091","264399","264906","264360","96205","265983","63095","260767","3551","262860","Lexical Decision Task","59","56277","77","yes","1024"
"2.980911938","7.15","7","hoop","word","76.92307692307692","76.92307692307692","729.7820512820513","729.7820512820513","black","no","legacy","legacy","legacy","0","uniform","1","undefined","undefined","undefined","1","j","0","0","0","0","77","0","0","0","77","0","73","77","73","0","73","3","77","0","77","Fri Feb 19 11:43:24 2021","The main experiment item","yes","Lexical_Decision_Task.osexp","/Users/talisayorke/Desktop/UNI/YEAR 2/Semester 2/Cognition ","no","Andale Mono","no","18","no","white","no","yes","576","legacy","73","73","3","/Users/talisayorke/Desktop/UNI/YEAR 2/Semester 2/Cognition /subject-5127602.csv","legacy","Lentiform Loewenfeld","3.3.7","yes","yes","600bd7cfb6416f0113b04181","602110864497cf011d9c0822","0","j","NA","j","space","j","j","j","646","NA","29384","47869","2118","26508","646","2","legacy","1024","2","48000","-16","task","5127602","even","NA","64817","96205","66820","266527","3588","53583","51464","267029","195091","266524","267030","266487","96205","267677","63095","265987","3551","262860","Lexical Decision Task","60","56923","78","yes","1024"
"2.675164031","8.57","6","glue","word","77.21518987341773","77.21518987341773","728.2658227848101","728.2658227848101","black","no","legacy","legacy","legacy","0","uniform","1","undefined","undefined","undefined","1","j","0","0","0","0","78","0","0","0","78","0","74","78","74","0","74","3","78","0","78","Fri Feb 19 11:43:24 2021","The main experiment item","yes","Lexical_Decision_Task.osexp","/Users/talisayorke/Desktop/UNI/YEAR 2/Semester 2/Cognition ","no","Andale Mono","no","18","no","white","no","yes","576","legacy","74","74","3","/Users/talisayorke/Desktop/UNI/YEAR 2/Semester 2/Cognition /subject-5127602.csv","legacy","Lentiform Loewenfeld","3.3.7","yes","yes","600bd7cfb6416f0113b04181","602110864497cf011d9c0822","0","j","NA","j","space","j","j","j","610","NA","29384","47869","2118","26508","610","2","legacy","1024","2","48000","-16","task","5127602","even","NA","64817","96205","66820","268221","3588","53583","51464","268723","195091","268218","268724","268181","96205","269336","63095","267681","3551","262860","Lexical Decision Task","61","57533","79","yes","1024"
"3.195807436","0","6","stup","non-word","77.5","77.5","730.3625","730.3625","black","no","legacy","legacy","legacy","0","uniform","1","undefined","undefined","undefined","1","f","0","0","0","0","79","0","0","0","79","0","75","79","75","0","75","3","79","0","79","Fri Feb 19 11:43:24 2021","The main experiment item","yes","Lexical_Decision_Task.osexp","/Users/talisayorke/Desktop/UNI/YEAR 2/Semester 2/Cognition ","no","Andale Mono","no","18","no","white","no","yes","576","legacy","75","75","3","/Users/talisayorke/Desktop/UNI/YEAR 2/Semester 2/Cognition /subject-5127602.csv","legacy","Lentiform Loewenfeld","3.3.7","yes","yes","600bd7cfb6416f0113b04181","602110864497cf011d9c0822","0","f","NA","j","space","j","j","f","896","NA","29384","47869","2118","26508","896","2","legacy","1024","2","48000","-16","task","5127602","even","NA","64817","96205","66820","269879","3588","53583","51464","270382","195091","269876","270383","269839","96205","271280","63095","269339","3551","262860","Lexical Decision Task","62","58429","80","yes","1024"
"2.966923697","5.4","2","fume","word","77.77777777777777","77.77777777777777","729.7654320987655","729.7654320987655","black","no","legacy","legacy","legacy","0","uniform","1","undefined","undefined","undefined","1","j","0","0","0","0","80","0","0","0","80","0","76","80","76","0","76","3","80","0","80","Fri Feb 19 11:43:24 2021","The main experiment item","yes","Lexical_Decision_Task.osexp","/Users/talisayorke/Desktop/UNI/YEAR 2/Semester 2/Cognition ","no","Andale Mono","no","18","no","white","no","yes","576","legacy","76","76","3","/Users/talisayorke/Desktop/UNI/YEAR 2/Semester 2/Cognition /subject-5127602.csv","legacy","Lentiform Loewenfeld","3.3.7","yes","yes","600bd7cfb6416f0113b04181","602110864497cf011d9c0822","0","j","NA","j","space","j","j","j","682","NA","29384","47869","2118","26508","682","2","legacy","1024","2","48000","-16","task","5127602","even","NA","64817","96205","66820","271824","3588","53583","51464","272326","195091","271821","272327","271783","96205","273010","63095","271283","3551","262860","Lexical Decision Task","63","59111","81","yes","1024"
"2.709837904","6.85","8","skim","word","78.04878048780488","78.04878048780488","727.1585365853658","727.1585365853658","black","no","legacy","legacy","legacy","0","uniform","1","undefined","undefined","undefined","1","j","0","0","0","0","81","0","0","0","81","0","77","81","77","0","77","3","81","0","81","Fri Feb 19 11:43:24 2021","The main experiment item","yes","Lexical_Decision_Task.osexp","/Users/talisayorke/Desktop/UNI/YEAR 2/Semester 2/Cognition ","no","Andale Mono","no","18","no","white","no","yes","576","legacy","77","77","3","/Users/talisayorke/Desktop/UNI/YEAR 2/Semester 2/Cognition /subject-5127602.csv","legacy","Lentiform Loewenfeld","3.3.7","yes","yes","600bd7cfb6416f0113b04181","602110864497cf011d9c0822","0","j","NA","j","space","j","j","j","516","NA","29384","47869","2118","26508","516","2","legacy","1024","2","48000","-16","task","5127602","even","NA","64817","96205","66820","273555","3588","53583","51464","274058","195091","273552","274058","273514","96205","274575","63095","273014","3551","262860","Lexical Decision Task","64","59627","82","yes","1024"
"2.7084209","0","8","vump","non-word","78.3132530120482","78.3132530120482","726.566265060241","726.566265060241","black","no","legacy","legacy","legacy","0","uniform","1","undefined","undefined","undefined","1","f","0","0","0","0","82","0","0","0","82","0","78","82","78","0","78","3","82","0","82","Fri Feb 19 11:43:24 2021","The main experiment item","yes","Lexical_Decision_Task.osexp","/Users/talisayorke/Desktop/UNI/YEAR 2/Semester 2/Cognition ","no","Andale Mono","no","18","no","white","no","yes","576","legacy","78","78","3","/Users/talisayorke/Desktop/UNI/YEAR 2/Semester 2/Cognition /subject-5127602.csv","legacy","Lentiform Loewenfeld","3.3.7","yes","yes","600bd7cfb6416f0113b04181","602110864497cf011d9c0822","0","f","NA","j","space","j","j","f","678","NA","29384","47869","2118","26508","678","2","legacy","1024","2","48000","-16","task","5127602","even","NA","64817","96205","66820","275120","3588","53583","51464","275622","195091","275117","275623","275079","96205","276302","63095","274579","3551","262860","Lexical Decision Task","65","60305","83","yes","1024"
"2.845304797","0","6","buct","non-word","78.57142857142857","78.57142857142857","725.2142857142857","725.2142857142857","black","no","legacy","legacy","legacy","0","uniform","1","undefined","undefined","undefined","1","f","0","0","0","0","83","0","0","0","83","0","79","83","79","0","79","3","83","0","83","Fri Feb 19 11:43:24 2021","The main experiment item","yes","Lexical_Decision_Task.osexp","/Users/talisayorke/Desktop/UNI/YEAR 2/Semester 2/Cognition ","no","Andale Mono","no","18","no","white","no","yes","576","legacy","79","79","3","/Users/talisayorke/Desktop/UNI/YEAR 2/Semester 2/Cognition /subject-5127602.csv","legacy","Lentiform Loewenfeld","3.3.7","yes","yes","600bd7cfb6416f0113b04181","602110864497cf011d9c0822","0","f","NA","j","space","j","j","f","613","NA","29384","47869","2118","26508","613","2","legacy","1024","2","48000","-16","task","5127602","even","NA","64817","96205","66820","276846","3588","53583","51464","277349","195091","276843","277350","276805","96205","277964","63095","276305","3551","262860","Lexical Decision Task","66","60918","84","yes","1024"
"2.819763221","0","2","durp","non-word","78.82352941176471","78.82352941176471","729.8117647058823","729.8117647058823","black","no","legacy","legacy","legacy","0","uniform","1","undefined","undefined","undefined","1","f","0","0","0","0","84","0","0","0","84","0","80","84","80","0","80","3","84","0","84","Fri Feb 19 11:43:24 2021","The main experiment item","yes","Lexical_Decision_Task.osexp","/Users/talisayorke/Desktop/UNI/YEAR 2/Semester 2/Cognition ","no","Andale Mono","no","18","no","white","no","yes","576","legacy","80","80","3","/Users/talisayorke/Desktop/UNI/YEAR 2/Semester 2/Cognition /subject-5127602.csv","legacy","Lentiform Loewenfeld","3.3.7","yes","yes","600bd7cfb6416f0113b04181","602110864497cf011d9c0822","0","f","NA","j","space","j","j","f","1116","NA","29384","47869","2118","26508","1116","2","legacy","1024","2","48000","-16","task","5127602","even","NA","64817","96205","66820","278508","3588","53583","51464","279010","195091","278505","279010","278467","96205","280127","63095","277967","3551","262860","Lexical Decision Task","67","62034","85","yes","1024"
"3.474361976","5.24","6","veer","word","79.06976744186046","79.06976744186046","733.2209302325581","733.2209302325581","black","no","legacy","legacy","legacy","0","uniform","1","undefined","undefined","undefined","1","j","0","0","0","0","85","0","0","0","85","0","81","85","81","0","81","3","85","0","85","Fri Feb 19 11:43:24 2021","The main experiment item","yes","Lexical_Decision_Task.osexp","/Users/talisayorke/Desktop/UNI/YEAR 2/Semester 2/Cognition ","no","Andale Mono","no","18","no","white","no","yes","576","legacy","81","81","3","/Users/talisayorke/Desktop/UNI/YEAR 2/Semester 2/Cognition /subject-5127602.csv","legacy","Lentiform Loewenfeld","3.3.7","yes","yes","600bd7cfb6416f0113b04181","602110864497cf011d9c0822","0","j","NA","j","space","j","j","j","1023","NA","29384","47869","2118","26508","1023","2","legacy","1024","2","48000","-16","task","5127602","even","NA","64817","96205","66820","280671","3588","53583","51464","281174","195091","280667","281174","280630","96205","282198","63095","280130","3551","262860","Lexical Decision Task","68","63057","86","yes","1024"
"3.208978517","10.33","4","fish","word","79.3103448275862","79.3103448275862","730.7126436781609","730.7126436781609","black","no","legacy","legacy","legacy","0","uniform","1","undefined","undefined","undefined","1","j","0","0","0","0","86","0","0","0","86","0","82","86","82","0","82","3","86","0","86","Fri Feb 19 11:43:24 2021","The main experiment item","yes","Lexical_Decision_Task.osexp","/Users/talisayorke/Desktop/UNI/YEAR 2/Semester 2/Cognition ","no","Andale Mono","no","18","no","white","no","yes","576","legacy","82","82","3","/Users/talisayorke/Desktop/UNI/YEAR 2/Semester 2/Cognition /subject-5127602.csv","legacy","Lentiform Loewenfeld","3.3.7","yes","yes","600bd7cfb6416f0113b04181","602110864497cf011d9c0822","0","j","NA","j","space","j","j","j","515","NA","29384","47869","2118","26508","515","2","legacy","1024","2","48000","-16","task","5127602","even","NA","64817","96205","66820","282742","3588","53583","51464","283244","195091","282739","283245","282702","96205","283762","63095","282202","3551","262860","Lexical Decision Task","69","63572","87","yes","1024"
"3.003891166","8.05","2","frog","word","79.54545454545455","79.54545454545455","729.3522727272727","729.3522727272727","black","no","legacy","legacy","legacy","0","uniform","1","undefined","undefined","undefined","1","j","0","0","0","0","87","0","0","0","87","0","83","87","83","0","83","3","87","0","87","Fri Feb 19 11:43:24 2021","The main experiment item","yes","Lexical_Decision_Task.osexp","/Users/talisayorke/Desktop/UNI/YEAR 2/Semester 2/Cognition ","no","Andale Mono","no","18","no","white","no","yes","576","legacy","83","83","3","/Users/talisayorke/Desktop/UNI/YEAR 2/Semester 2/Cognition /subject-5127602.csv","legacy","Lentiform Loewenfeld","3.3.7","yes","yes","600bd7cfb6416f0113b04181","602110864497cf011d9c0822","0","j","NA","j","space","j","j","j","611","NA","29384","47869","2118","26508","611","2","legacy","1024","2","48000","-16","task","5127602","even","NA","64817","96205","66820","284307","3588","53583","51464","284809","195091","284304","284810","284266","96205","285422","63095","283766","3551","262860","Lexical Decision Task","70","64183","88","yes","1024"
"3.230789326","5.38","5","prim","word","79.7752808988764","79.7752808988764","729.4044943820224","729.4044943820224","black","no","legacy","legacy","legacy","0","uniform","1","undefined","undefined","undefined","1","j","0","0","0","0","88","0","0","0","88","0","84","88","84","0","84","3","88","0","88","Fri Feb 19 11:43:24 2021","The main experiment item","yes","Lexical_Decision_Task.osexp","/Users/talisayorke/Desktop/UNI/YEAR 2/Semester 2/Cognition ","no","Andale Mono","no","18","no","white","no","yes","576","legacy","84","84","3","/Users/talisayorke/Desktop/UNI/YEAR 2/Semester 2/Cognition /subject-5127602.csv","legacy","Lentiform Loewenfeld","3.3.7","yes","yes","600bd7cfb6416f0113b04181","602110864497cf011d9c0822","0","j","NA","j","space","j","j","j","734","NA","29384","47869","2118","26508","734","2","legacy","1024","2","48000","-16","task","5127602","even","NA","64817","96205","66820","285968","3588","53583","51464","286470","195091","285965","286471","285927","96205","287206","63095","285426","3551","262860","Lexical Decision Task","71","64917","89","yes","1024"
"3.347850856","10.51","2","rich","word","80","80","726.7888888888889","726.7888888888889","black","no","legacy","legacy","legacy","0","uniform","1","undefined","undefined","undefined","1","j","0","0","0","0","89","0","0","0","89","0","85","89","85","0","85","3","89","0","89","Fri Feb 19 11:43:24 2021","The main experiment item","yes","Lexical_Decision_Task.osexp","/Users/talisayorke/Desktop/UNI/YEAR 2/Semester 2/Cognition ","no","Andale Mono","no","18","no","white","no","yes","576","legacy","85","85","3","/Users/talisayorke/Desktop/UNI/YEAR 2/Semester 2/Cognition /subject-5127602.csv","legacy","Lentiform Loewenfeld","3.3.7","yes","yes","600bd7cfb6416f0113b04181","602110864497cf011d9c0822","0","j","NA","j","space","j","j","j","494","NA","29384","47869","2118","26508","494","2","legacy","1024","2","48000","-16","task","5127602","even","NA","64817","96205","66820","287750","3588","53583","51464","288253","195091","287747","288253","287709","96205","288748","63095","287209","3551","262860","Lexical Decision Task","72","65411","90","yes","1024"
"2.594027722","9.08","8","skip","word","80.21978021978022","80.21978021978022","723.8461538461538","723.8461538461538","black","no","legacy","legacy","legacy","0","uniform","1","undefined","undefined","undefined","1","j","0","0","0","0","90","0","0","0","90","0","86","90","86","0","86","3","90","0","90","Fri Feb 19 11:43:24 2021","The main experiment item","yes","Lexical_Decision_Task.osexp","/Users/talisayorke/Desktop/UNI/YEAR 2/Semester 2/Cognition ","no","Andale Mono","no","18","no","white","no","yes","576","legacy","86","86","3","/Users/talisayorke/Desktop/UNI/YEAR 2/Semester 2/Cognition /subject-5127602.csv","legacy","Lentiform Loewenfeld","3.3.7","yes","yes","600bd7cfb6416f0113b04181","602110864497cf011d9c0822","0","j","NA","j","space","j","j","j","459","NA","29384","47869","2118","26508","459","2","legacy","1024","2","48000","-16","task","5127602","even","NA","64817","96205","66820","289292","3588","53583","51464","289795","195091","289289","289795","289251","96205","290255","63095","288751","3551","262860","Lexical Decision Task","73","65870","91","yes","1024"
"2.952953801","0","8","clax","non-word","80.43478260869566","80.43478260869566","723.7826086956521","723.7826086956521","black","no","legacy","legacy","legacy","0","uniform","1","undefined","undefined","undefined","1","f","0","0","0","0","91","0","0","0","91","0","87","91","87","0","87","3","91","0","91","Fri Feb 19 11:43:24 2021","The main experiment item","yes","Lexical_Decision_Task.osexp","/Users/talisayorke/Desktop/UNI/YEAR 2/Semester 2/Cognition ","no","Andale Mono","no","18","no","white","no","yes","576","legacy","87","87","3","/Users/talisayorke/Desktop/UNI/YEAR 2/Semester 2/Cognition /subject-5127602.csv","legacy","Lentiform Loewenfeld","3.3.7","yes","yes","600bd7cfb6416f0113b04181","602110864497cf011d9c0822","0","f","NA","j","space","j","j","f","718","NA","29384","47869","2118","26508","718","2","legacy","1024","2","48000","-16","task","5127602","even","NA","64817","96205","66820","290799","3588","53583","51464","291302","195091","290796","291302","290758","96205","292021","63095","290258","3551","262860","Lexical Decision Task","74","66588","92","yes","1024"
"3.131833513","7.66","4","limb","word","80.64516129032258","80.64516129032258","721.9247311827957","721.9247311827957","black","no","legacy","legacy","legacy","0","uniform","1","undefined","undefined","undefined","1","j","0","0","0","0","92","0","0","0","92","0","88","92","88","0","88","3","92","0","92","Fri Feb 19 11:43:24 2021","The main experiment item","yes","Lexical_Decision_Task.osexp","/Users/talisayorke/Desktop/UNI/YEAR 2/Semester 2/Cognition ","no","Andale Mono","no","18","no","white","no","yes","576","legacy","88","88","3","/Users/talisayorke/Desktop/UNI/YEAR 2/Semester 2/Cognition /subject-5127602.csv","legacy","Lentiform Loewenfeld","3.3.7","yes","yes","600bd7cfb6416f0113b04181","602110864497cf011d9c0822","0","j","NA","j","space","j","j","j","551","NA","29384","47869","2118","26508","551","2","legacy","1024","2","48000","-16","task","5127602","even","NA","64817","96205","66820","292564","3588","53583","51464","293066","195091","292561","293066","292524","96205","293619","63095","292024","3551","262860","Lexical Decision Task","75","67139","93","yes","1024"
"2.714888338","0","3","brug","non-word","79.7872340425532","79.7872340425532","746.1595744680851","746.1595744680851","black","no","legacy","legacy","legacy","0","uniform","0","undefined","undefined","undefined","0","f","0","0","0","0","93","0","0","0","93","0","89","93","89","0","89","3","93","0","93","Fri Feb 19 11:43:24 2021","The main experiment item","yes","Lexical_Decision_Task.osexp","/Users/talisayorke/Desktop/UNI/YEAR 2/Semester 2/Cognition ","no","Andale Mono","no","18","no","white","no","yes","576","legacy","89","89","3","/Users/talisayorke/Desktop/UNI/YEAR 2/Semester 2/Cognition /subject-5127602.csv","legacy","Lentiform Loewenfeld","3.3.7","yes","yes","600bd7cfb6416f0113b04181","602110864497cf011d9c0822","0","None","NA","j","space","j","j","None","3000","NA","29384","47869","2118","26508","3000","2","legacy","1024","2","48000","-16","task","5127602","even","NA","64817","96205","66820","294164","3588","53583","51464","294667","195091","294161","294667","294122","96205","297667","63095","293622","3551","262860","Lexical Decision Task","75","70139","94","yes","1024"
"3.216517684","10.87","3","film","word","80","80","744.8631578947368","744.8631578947368","black","no","legacy","legacy","legacy","0","uniform","1","undefined","undefined","undefined","1","j","0","0","0","0","94","0","0","0","94","0","90","94","90","0","90","3","94","0","94","Fri Feb 19 11:43:24 2021","The main experiment item","yes","Lexical_Decision_Task.osexp","/Users/talisayorke/Desktop/UNI/YEAR 2/Semester 2/Cognition ","no","Andale Mono","no","18","no","white","no","yes","576","legacy","90","90","3","/Users/talisayorke/Desktop/UNI/YEAR 2/Semester 2/Cognition /subject-5127602.csv","legacy","Lentiform Loewenfeld","3.3.7","yes","yes","600bd7cfb6416f0113b04181","602110864497cf011d9c0822","0","j","NA","j","space","j","j","j","623","NA","29384","47869","2118","26508","623","2","legacy","1024","2","48000","-16","task","5127602","even","NA","64817","96205","66820","307344","3588","53583","51464","307847","195091","299210","307847","299171","96205","308471","63095","293622","3551","297671","Lexical Decision Task","76","70762","95","yes","1024"
