"Log_BG","Log_Freq_HAL","Ortho_N","Stimulus","Type","acc","accuracy","average_response_time","avg_rt","background","bidi","canvas_backend","clock_backend","color_backend","compensation","coordinates","correct","correct_Experimental_intro","correct_Introduction","correct_Practice_intro","correct_experimenter_kb","correct_response","count_End_Of_Experiment","count_End_Of_Practice","count_Experimental_Loop","count_Experimental_intro","count_Fixation","count_Introduction","count_Practice_Loop","count_Practice_intro","count_Stimulus","count_block_break_feedback","count_experimental_sequence","count_experimenter_kb","count_increment_trial_count","count_init_trial_count","count_logger","count_practice_sequence","count_right","count_task","count_wrong","datetime","description","disable_garbage_collection","experiment_file","experiment_path","font_bold","font_family","font_italic","font_size","font_underline","foreground","form_clicks","fullscreen","height","keyboard_backend","live_row","live_row_Experimental_Loop","live_row_Practice_Loop","logfile","mouse_backend","opensesame_codename","opensesame_version","osf_always_upload_data","osf_always_upload_experiment","osf_datanode_id","osf_id","repeat_cycle","response","response_End_Of_Experiment","response_Experimental_intro","response_Introduction","response_Practice_intro","response_block_break_feedback","response_experimenter_kb","response_time","response_time_End_Of_Experiment","response_time_Experimental_intro","response_time_Introduction","response_time_Practice_intro","response_time_block_break_feedback","response_time_experimenter_kb","round_decimals","sampler_backend","sound_buf_size","sound_channels","sound_freq","sound_sample_size","start","subject_nr","subject_parity","time_End_Of_Experiment","time_End_Of_Practice","time_Experimental_Loop","time_Experimental_intro","time_Fixation","time_Introduction","time_Practice_Loop","time_Practice_intro","time_Stimulus","time_block_break_feedback","time_experimental_sequence","time_experimenter_kb","time_increment_trial_count","time_init_trial_count","time_logger","time_practice_sequence","time_right","time_task","time_wrong","title","total_correct","total_response_time","total_responses","uniform_coordinates","width"
"2.952953801","0","8","clax","non-word","100","100","584.8","584.8","black","no","legacy","legacy","legacy","0","uniform","1","undefined","undefined","undefined","1","f","0","0","0","0","4","0","0","0","4","NA","0","4","0","0","0","3","4","0","4","Thu Feb 18 11:51:37 2021","The main experiment item","yes","Lexical_Decision_Task.osexp","/Users/darcycostelloe273","no","Andale Mono","no","18","no","white","no","yes","576","legacy","0","0","3","/Users/darcycostelloe273/subject-5215946.csv","legacy","Kafkaesque Koffka","3.2.8","yes","yes","600bd7cfb6416f0113b04181","602110864497cf011d9c0822","0","f","NA","space","space","space","NA","f","483","NA","5461","9598","6092","NA","483","2","legacy","1024","2","48000","-16","task","5215946","even","NA","25892","33363","27900","33450","3175","18880","12786","33961","NA","33443","33961","NA","33363","34445","24326","25358","3168","NA","Lexical Decision Task","5","2924","5","yes","1024"
"2.771097306","0","9","jold","non-word","100","100","588.833333333","588.833333333","black","no","legacy","legacy","legacy","0","uniform","1","undefined","undefined","undefined","1","f","0","0","0","0","5","0","0","0","5","NA","1","5","1","0","1","3","5","0","5","Thu Feb 18 11:51:37 2021","The main experiment item","yes","Lexical_Decision_Task.osexp","/Users/darcycostelloe273","no","Andale Mono","no","18","no","white","no","yes","576","legacy","1","1","3","/Users/darcycostelloe273/subject-5215946.csv","legacy","Kafkaesque Koffka","3.2.8","yes","yes","600bd7cfb6416f0113b04181","602110864497cf011d9c0822","0","f","NA","space","space","space","NA","f","609","NA","5461","9598","6092","NA","609","2","legacy","1024","2","48000","-16","task","5215946","even","NA","25892","33363","27900","35065","3175","18880","12786","35574","NA","35058","35574","34963","33363","36184","24326","34463","3168","NA","Lexical Decision Task","6","3533","6","yes","1024"
"2.990042563","6.64","9","plow","word","85.7142857143","85.7142857143","600.714285714","600.714285714","black","no","legacy","legacy","legacy","0","uniform","0","undefined","undefined","undefined","0","j","0","0","0","0","6","0","0","0","6","NA","2","6","2","0","2","3","6","0","6","Thu Feb 18 11:51:37 2021","The main experiment item","yes","Lexical_Decision_Task.osexp","/Users/darcycostelloe273","no","Andale Mono","no","18","no","white","no","yes","576","legacy","2","2","3","/Users/darcycostelloe273/subject-5215946.csv","legacy","Kafkaesque Koffka","3.2.8","yes","yes","600bd7cfb6416f0113b04181","602110864497cf011d9c0822","0","f","NA","space","space","space","NA","f","672","NA","5461","9598","6092","NA","672","2","legacy","1024","2","48000","-16","task","5215946","even","NA","25892","33363","27900","36797","3175","18880","12786","37306","NA","36790","37306","36697","33363","37979","24326","36197","3168","NA","Lexical Decision Task","6","4205","7","yes","1024"
"3.153104174","10.89","6","door","word","87.5","87.5","579.625","579.625","black","no","legacy","legacy","legacy","0","uniform","1","undefined","undefined","undefined","1","j","0","0","0","0","7","0","0","0","7","NA","3","7","3","0","3","3","7","0","7","Thu Feb 18 11:51:37 2021","The main experiment item","yes","Lexical_Decision_Task.osexp","/Users/darcycostelloe273","no","Andale Mono","no","18","no","white","no","yes","576","legacy","3","3","3","/Users/darcycostelloe273/subject-5215946.csv","legacy","Kafkaesque Koffka","3.2.8","yes","yes","600bd7cfb6416f0113b04181","602110864497cf011d9c0822","0","j","NA","space","space","space","NA","j","432","NA","5461","9598","6092","NA","432","2","legacy","1024","2","48000","-16","task","5215946","even","NA","25892","33363","27900","39588","3175","18880","12786","40100","NA","39581","40100","39491","33363","40533","24326","36197","3168","37991","Lexical Decision Task","7","4637","8","yes","1024"
"3.347850856","10.51","2","rich","word","88.8888888889","88.8888888889","575.333333333","575.333333333","black","no","legacy","legacy","legacy","0","uniform","1","undefined","undefined","undefined","1","j","0","0","0","0","8","0","0","0","8","NA","4","8","4","0","4","3","8","0","8","Thu Feb 18 11:51:37 2021","The main experiment item","yes","Lexical_Decision_Task.osexp","/Users/darcycostelloe273","no","Andale Mono","no","18","no","white","no","yes","576","legacy","4","4","3","/Users/darcycostelloe273/subject-5215946.csv","legacy","Kafkaesque Koffka","3.2.8","yes","yes","600bd7cfb6416f0113b04181","602110864497cf011d9c0822","0","j","NA","space","space","space","NA","j","541","NA","5461","9598","6092","NA","541","2","legacy","1024","2","48000","-16","task","5215946","even","NA","25892","33363","27900","41140","3175","18880","12786","41649","NA","41134","41649","41044","33363","42191","24326","40544","3168","37991","Lexical Decision Task","8","5178","9","yes","1024"
"2.616654026","9.37","5","gift","word","90","90","566.6","566.6","black","no","legacy","legacy","legacy","0","uniform","1","undefined","undefined","undefined","1","j","0","0","0","0","9","0","0","0","9","NA","5","9","5","0","5","3","9","0","9","Thu Feb 18 11:51:37 2021","The main experiment item","yes","Lexical_Decision_Task.osexp","/Users/darcycostelloe273","no","Andale Mono","no","18","no","white","no","yes","576","legacy","5","5","3","/Users/darcycostelloe273/subject-5215946.csv","legacy","Kafkaesque Koffka","3.2.8","yes","yes","600bd7cfb6416f0113b04181","602110864497cf011d9c0822","0","j","NA","space","space","space","NA","j","488","NA","5461","9598","6092","NA","488","2","legacy","1024","2","48000","-16","task","5215946","even","NA","25892","33363","27900","42800","3175","18880","12786","43311","NA","42793","43311","42703","33363","43801","24326","42203","3168","37991","Lexical Decision Task","9","5666","10","yes","1024"
"3.353210739","0","9","reet","non-word","81.8181818182","81.8181818182","581.272727273","581.272727273","black","no","legacy","legacy","legacy","0","uniform","0","undefined","undefined","undefined","0","f","0","0","0","0","10","0","0","0","10","NA","6","10","6","0","6","3","10","0","10","Thu Feb 18 11:51:37 2021","The main experiment item","yes","Lexical_Decision_Task.osexp","/Users/darcycostelloe273","no","Andale Mono","no","18","no","white","no","yes","576","legacy","6","6","3","/Users/darcycostelloe273/subject-5215946.csv","legacy","Kafkaesque Koffka","3.2.8","yes","yes","600bd7cfb6416f0113b04181","602110864497cf011d9c0822","0","j","NA","space","space","space","NA","j","728","NA","5461","9598","6092","NA","728","2","legacy","1024","2","48000","-16","task","5215946","even","NA","25892","33363","27900","44408","3175","18880","12786","44918","NA","44400","44919","44312","33363","45648","24326","43812","3168","37991","Lexical Decision Task","9","6394","11","yes","1024"
"2.693726949","5.08","3","swig","word","75","75","581.25","581.25","black","no","legacy","legacy","legacy","0","uniform","0","undefined","undefined","undefined","0","j","0","0","0","0","11","0","0","0","11","NA","7","11","7","0","7","3","11","0","11","Thu Feb 18 11:51:37 2021","The main experiment item","yes","Lexical_Decision_Task.osexp","/Users/darcycostelloe273","no","Andale Mono","no","18","no","white","no","yes","576","legacy","7","7","3","/Users/darcycostelloe273/subject-5215946.csv","legacy","Kafkaesque Koffka","3.2.8","yes","yes","600bd7cfb6416f0113b04181","602110864497cf011d9c0822","0","f","NA","space","space","space","NA","f","581","NA","5461","9598","6092","NA","581","2","legacy","1024","2","48000","-16","task","5215946","even","NA","25892","33363","27900","47270","3175","18880","12786","47782","NA","47263","47782","47160","33363","48364","24326","43812","3168","45660","Lexical Decision Task","9","6975","12","yes","1024"
"2.706148589","0","4","hube","non-word","76.9230769231","76.9230769231","592.230769231","592.230769231","black","no","legacy","legacy","legacy","0","uniform","1","undefined","undefined","undefined","1","f","0","0","0","0","12","0","0","0","12","NA","8","12","8","0","8","3","12","0","12","Thu Feb 18 11:51:37 2021","The main experiment item","yes","Lexical_Decision_Task.osexp","/Users/darcycostelloe273","no","Andale Mono","no","18","no","white","no","yes","576","legacy","8","8","3","/Users/darcycostelloe273/subject-5215946.csv","legacy","Kafkaesque Koffka","3.2.8","yes","yes","600bd7cfb6416f0113b04181","602110864497cf011d9c0822","0","f","NA","space","space","space","NA","f","724","NA","5461","9598","6092","NA","724","2","legacy","1024","2","48000","-16","task","5215946","even","NA","25892","33363","27900","49983","3175","18880","12786","50491","NA","49976","50491","49877","33363","51216","24326","43812","3168","48377","Lexical Decision Task","10","7699","13","yes","1024"
"3.22685757","9.99","7","roll","word","78.5714285714","78.5714285714","585.142857143","585.142857143","black","no","legacy","legacy","legacy","0","uniform","1","undefined","undefined","undefined","1","j","0","0","0","0","13","0","0","0","13","NA","9","13","9","0","9","3","13","0","13","Thu Feb 18 11:51:37 2021","The main experiment item","yes","Lexical_Decision_Task.osexp","/Users/darcycostelloe273","no","Andale Mono","no","18","no","white","no","yes","576","legacy","9","9","3","/Users/darcycostelloe273/subject-5215946.csv","legacy","Kafkaesque Koffka","3.2.8","yes","yes","600bd7cfb6416f0113b04181","602110864497cf011d9c0822","0","j","NA","space","space","space","NA","j","493","NA","5461","9598","6092","NA","493","2","legacy","1024","2","48000","-16","task","5215946","even","NA","25892","33363","27900","51819","3175","18880","12786","52332","NA","51812","52332","51727","33363","52826","24326","51227","3168","48377","Lexical Decision Task","11","8192","14","yes","1024"
"3.131833513","7.66","4","limb","word","80","80","579.8","579.8","black","no","legacy","legacy","legacy","0","uniform","1","undefined","undefined","undefined","1","j","0","0","0","0","14","0","0","0","14","NA","10","14","10","0","10","3","14","0","14","Thu Feb 18 11:51:37 2021","The main experiment item","yes","Lexical_Decision_Task.osexp","/Users/darcycostelloe273","no","Andale Mono","no","18","no","white","no","yes","576","legacy","10","10","3","/Users/darcycostelloe273/subject-5215946.csv","legacy","Kafkaesque Koffka","3.2.8","yes","yes","600bd7cfb6416f0113b04181","602110864497cf011d9c0822","0","j","NA","space","space","space","NA","j","505","NA","5461","9598","6092","NA","505","2","legacy","1024","2","48000","-16","task","5215946","even","NA","25892","33363","27900","53432","3175","18880","12786","53943","NA","53425","53943","53337","33363","54449","24326","52837","3168","48377","Lexical Decision Task","12","8697","15","yes","1024"
"2.708989954","9.28","9","bowl","word","81.25","81.25","577.125","577.125","black","no","legacy","legacy","legacy","0","uniform","1","undefined","undefined","undefined","1","j","0","0","0","0","15","0","0","0","15","NA","11","15","11","0","11","3","15","0","15","Thu Feb 18 11:51:37 2021","The main experiment item","yes","Lexical_Decision_Task.osexp","/Users/darcycostelloe273","no","Andale Mono","no","18","no","white","no","yes","576","legacy","11","11","3","/Users/darcycostelloe273/subject-5215946.csv","legacy","Kafkaesque Koffka","3.2.8","yes","yes","600bd7cfb6416f0113b04181","602110864497cf011d9c0822","0","j","NA","space","space","space","NA","j","537","NA","5461","9598","6092","NA","537","2","legacy","1024","2","48000","-16","task","5215946","even","NA","25892","33363","27900","55052","3175","18880","12786","55561","NA","55044","55561","54959","33363","56099","24326","54459","3168","48377","Lexical Decision Task","13","9234","16","yes","1024"
"2.6599162","0","6","flug","non-word","76.4705882353","76.4705882353","571.470588235","571.470588235","black","no","legacy","legacy","legacy","0","uniform","0","undefined","undefined","undefined","0","f","0","0","0","0","16","0","0","0","16","NA","12","16","12","0","12","3","16","0","16","Thu Feb 18 11:51:37 2021","The main experiment item","yes","Lexical_Decision_Task.osexp","/Users/darcycostelloe273","no","Andale Mono","no","18","no","white","no","yes","576","legacy","12","12","3","/Users/darcycostelloe273/subject-5215946.csv","legacy","Kafkaesque Koffka","3.2.8","yes","yes","600bd7cfb6416f0113b04181","602110864497cf011d9c0822","0","j","NA","space","space","space","NA","j","481","NA","5461","9598","6092","NA","481","2","legacy","1024","2","48000","-16","task","5215946","even","NA","25892","33363","27900","56715","3175","18880","12786","57225","NA","56709","57225","56609","33363","57707","24326","56109","3168","48377","Lexical Decision Task","13","9715","17","yes","1024"
"3.174641193","0","3","ramb","non-word","72.2222222222","72.2222222222","587.833333333","587.833333333","black","no","legacy","legacy","legacy","0","uniform","0","undefined","undefined","undefined","0","f","0","0","0","0","17","0","0","0","17","NA","13","17","13","0","13","3","17","0","17","Thu Feb 18 11:51:37 2021","The main experiment item","yes","Lexical_Decision_Task.osexp","/Users/darcycostelloe273","no","Andale Mono","no","18","no","white","no","yes","576","legacy","13","13","3","/Users/darcycostelloe273/subject-5215946.csv","legacy","Kafkaesque Koffka","3.2.8","yes","yes","600bd7cfb6416f0113b04181","602110864497cf011d9c0822","0","j","NA","space","space","space","NA","j","866","NA","5461","9598","6092","NA","866","2","legacy","1024","2","48000","-16","task","5215946","even","NA","25892","33363","27900","59320","3175","18880","12786","59827","NA","59313","59828","59219","33363","60695","24326","56109","3168","57718","Lexical Decision Task","13","10581","18","yes","1024"
"3.067070856","9.39","3","loud","word","73.6842105263","73.6842105263","587.157894737","587.157894737","black","no","legacy","legacy","legacy","0","uniform","1","undefined","undefined","undefined","1","j","0","0","0","0","18","0","0","0","18","NA","14","18","14","0","14","3","18","0","18","Thu Feb 18 11:51:37 2021","The main experiment item","yes","Lexical_Decision_Task.osexp","/Users/darcycostelloe273","no","Andale Mono","no","18","no","white","no","yes","576","legacy","14","14","3","/Users/darcycostelloe273/subject-5215946.csv","legacy","Kafkaesque Koffka","3.2.8","yes","yes","600bd7cfb6416f0113b04181","602110864497cf011d9c0822","0","j","NA","space","space","space","NA","j","575","NA","5461","9598","6092","NA","575","2","legacy","1024","2","48000","-16","task","5215946","even","NA","25892","33363","27900","62307","3175","18880","12786","62817","NA","62299","62817","62207","33363","63393","24326","56109","3168","60707","Lexical Decision Task","14","11156","19","yes","1024"
"3.068433376","8.09","2","bulb","word","75","75","587.05","587.05","black","no","legacy","legacy","legacy","0","uniform","1","undefined","undefined","undefined","1","j","0","0","0","0","19","0","0","0","19","NA","15","19","15","0","15","3","19","0","19","Thu Feb 18 11:51:37 2021","The main experiment item","yes","Lexical_Decision_Task.osexp","/Users/darcycostelloe273","no","Andale Mono","no","18","no","white","no","yes","576","legacy","15","15","3","/Users/darcycostelloe273/subject-5215946.csv","legacy","Kafkaesque Koffka","3.2.8","yes","yes","600bd7cfb6416f0113b04181","602110864497cf011d9c0822","0","j","NA","space","space","space","NA","j","585","NA","5461","9598","6092","NA","585","2","legacy","1024","2","48000","-16","task","5215946","even","NA","25892","33363","27900","64004","3175","18880","12786","64512","NA","63998","64512","63903","33363","65098","24326","63403","3168","60707","Lexical Decision Task","15","11741","20","yes","1024"
"3.168400243","9.12","6","horn","word","76.1904761905","76.1904761905","589.380952381","589.380952381","black","no","legacy","legacy","legacy","0","uniform","1","undefined","undefined","undefined","1","j","0","0","0","0","20","0","0","0","20","NA","16","20","16","0","16","3","20","0","20","Thu Feb 18 11:51:37 2021","The main experiment item","yes","Lexical_Decision_Task.osexp","/Users/darcycostelloe273","no","Andale Mono","no","18","no","white","no","yes","576","legacy","16","16","3","/Users/darcycostelloe273/subject-5215946.csv","legacy","Kafkaesque Koffka","3.2.8","yes","yes","600bd7cfb6416f0113b04181","602110864497cf011d9c0822","0","j","NA","space","space","space","NA","j","636","NA","5461","9598","6092","NA","636","2","legacy","1024","2","48000","-16","task","5215946","even","NA","25892","33363","27900","65707","3175","18880","12786","66218","NA","65700","66219","65610","33363","66856","24326","65110","3168","60707","Lexical Decision Task","16","12377","21","yes","1024"
"2.695770526","7.34","6","pawn","word","77.2727272727","77.2727272727","604","604","black","no","legacy","legacy","legacy","0","uniform","1","undefined","undefined","undefined","1","j","0","0","0","0","21","0","0","0","21","NA","17","21","17","0","17","3","21","0","21","Thu Feb 18 11:51:37 2021","The main experiment item","yes","Lexical_Decision_Task.osexp","/Users/darcycostelloe273","no","Andale Mono","no","18","no","white","no","yes","576","legacy","17","17","3","/Users/darcycostelloe273/subject-5215946.csv","legacy","Kafkaesque Koffka","3.2.8","yes","yes","600bd7cfb6416f0113b04181","602110864497cf011d9c0822","0","j","NA","space","space","space","NA","j","911","NA","5461","9598","6092","NA","911","2","legacy","1024","2","48000","-16","task","5215946","even","NA","25892","33363","27900","67463","3175","18880","12786","67975","NA","67457","67975","67367","33363","68887","24326","66867","3168","60707","Lexical Decision Task","17","13288","22","yes","1024"
"2.82129731","6.72","5","plum","word","78.2608695652","78.2608695652","602.086956522","602.086956522","black","no","legacy","legacy","legacy","0","uniform","1","undefined","undefined","undefined","1","j","0","0","0","0","22","0","0","0","22","NA","18","22","18","0","18","3","22","0","22","Thu Feb 18 11:51:37 2021","The main experiment item","yes","Lexical_Decision_Task.osexp","/Users/darcycostelloe273","no","Andale Mono","no","18","no","white","no","yes","576","legacy","18","18","3","/Users/darcycostelloe273/subject-5215946.csv","legacy","Kafkaesque Koffka","3.2.8","yes","yes","600bd7cfb6416f0113b04181","602110864497cf011d9c0822","0","j","NA","space","space","space","NA","j","560","NA","5461","9598","6092","NA","560","2","legacy","1024","2","48000","-16","task","5215946","even","NA","25892","33363","27900","69500","3175","18880","12786","70009","NA","69493","70009","69398","33363","70571","24326","68898","3168","60707","Lexical Decision Task","18","13848","23","yes","1024"
"3.010582609","0","2","drod","non-word","79.1666666667","79.1666666667","601.458333333","601.458333333","black","no","legacy","legacy","legacy","0","uniform","1","undefined","undefined","undefined","1","f","0","0","0","0","23","0","0","0","23","NA","19","23","19","0","19","3","23","0","23","Thu Feb 18 11:51:37 2021","The main experiment item","yes","Lexical_Decision_Task.osexp","/Users/darcycostelloe273","no","Andale Mono","no","18","no","white","no","yes","576","legacy","19","19","3","/Users/darcycostelloe273/subject-5215946.csv","legacy","Kafkaesque Koffka","3.2.8","yes","yes","600bd7cfb6416f0113b04181","602110864497cf011d9c0822","0","f","NA","space","space","space","NA","f","587","NA","5461","9598","6092","NA","587","2","legacy","1024","2","48000","-16","task","5215946","even","NA","25892","33363","27900","71178","3175","18880","12786","71688","NA","71171","71688","71082","33363","72276","24326","70582","3168","60707","Lexical Decision Task","19","14435","24","yes","1024"
"3.443783828","7.65","3","verb","word","80","80","600.16","600.16","black","no","legacy","legacy","legacy","0","uniform","1","undefined","undefined","undefined","1","j","0","0","0","0","24","0","0","0","24","NA","20","24","20","0","20","3","24","0","24","Thu Feb 18 11:51:37 2021","The main experiment item","yes","Lexical_Decision_Task.osexp","/Users/darcycostelloe273","no","Andale Mono","no","18","no","white","no","yes","576","legacy","20","20","3","/Users/darcycostelloe273/subject-5215946.csv","legacy","Kafkaesque Koffka","3.2.8","yes","yes","600bd7cfb6416f0113b04181","602110864497cf011d9c0822","0","j","NA","space","space","space","NA","j","569","NA","5461","9598","6092","NA","569","2","legacy","1024","2","48000","-16","task","5215946","even","NA","25892","33363","27900","72890","3175","18880","12786","73399","NA","72882","73400","72787","33363","73971","24326","72287","3168","60707","Lexical Decision Task","20","15004","25","yes","1024"
"3.168890155","0","6","thet","non-word","80.7692307692","80.7692307692","598.846153846","598.846153846","black","no","legacy","legacy","legacy","0","uniform","1","undefined","undefined","undefined","1","f","0","0","0","0","25","0","0","0","25","NA","21","25","21","0","21","3","25","0","25","Thu Feb 18 11:51:37 2021","The main experiment item","yes","Lexical_Decision_Task.osexp","/Users/darcycostelloe273","no","Andale Mono","no","18","no","white","no","yes","576","legacy","21","21","3","/Users/darcycostelloe273/subject-5215946.csv","legacy","Kafkaesque Koffka","3.2.8","yes","yes","600bd7cfb6416f0113b04181","602110864497cf011d9c0822","0","f","NA","space","space","space","NA","f","566","NA","5461","9598","6092","NA","566","2","legacy","1024","2","48000","-16","task","5215946","even","NA","25892","33363","27900","74579","3175","18880","12786","75088","NA","74573","75088","74481","33363","75656","24326","73981","3168","60707","Lexical Decision Task","21","15570","26","yes","1024"
"3.431095062","5.74","9","perk","word","81.4814814815","81.4814814815","620.111111111","620.111111111","black","no","legacy","legacy","legacy","0","uniform","1","undefined","undefined","undefined","1","j","0","0","0","0","26","0","0","0","26","NA","22","26","22","0","22","3","26","0","26","Thu Feb 18 11:51:37 2021","The main experiment item","yes","Lexical_Decision_Task.osexp","/Users/darcycostelloe273","no","Andale Mono","no","18","no","white","no","yes","576","legacy","22","22","3","/Users/darcycostelloe273/subject-5215946.csv","legacy","Kafkaesque Koffka","3.2.8","yes","yes","600bd7cfb6416f0113b04181","602110864497cf011d9c0822","0","j","NA","space","space","space","NA","j","1173","NA","5461","9598","6092","NA","1173","2","legacy","1024","2","48000","-16","task","5215946","even","NA","25892","33363","27900","76262","3175","18880","12786","76769","NA","76255","76769","76167","33363","77943","24326","75667","3168","60707","Lexical Decision Task","22","16743","27","yes","1024"
"2.782472624","10.55","2","huge","word","82.1428571429","82.1428571429","618.25","618.25","black","no","legacy","legacy","legacy","0","uniform","1","undefined","undefined","undefined","1","j","0","0","0","0","27","0","0","0","27","NA","23","27","23","0","23","3","27","0","27","Thu Feb 18 11:51:37 2021","The main experiment item","yes","Lexical_Decision_Task.osexp","/Users/darcycostelloe273","no","Andale Mono","no","18","no","white","no","yes","576","legacy","23","23","3","/Users/darcycostelloe273/subject-5215946.csv","legacy","Kafkaesque Koffka","3.2.8","yes","yes","600bd7cfb6416f0113b04181","602110864497cf011d9c0822","0","j","NA","space","space","space","NA","j","568","NA","5461","9598","6092","NA","568","2","legacy","1024","2","48000","-16","task","5215946","even","NA","25892","33363","27900","78556","3175","18880","12786","79067","NA","78550","79067","78454","33363","79637","24326","77954","3168","60707","Lexical Decision Task","23","17311","28","yes","1024"
"3.119255889","6.63","2","itch","word","82.7586206897","82.7586206897","616.068965517","616.068965517","black","no","legacy","legacy","legacy","0","uniform","1","undefined","undefined","undefined","1","j","0","0","0","0","28","0","0","0","28","NA","24","28","24","0","24","3","28","0","28","Thu Feb 18 11:51:37 2021","The main experiment item","yes","Lexical_Decision_Task.osexp","/Users/darcycostelloe273","no","Andale Mono","no","18","no","white","no","yes","576","legacy","24","24","3","/Users/darcycostelloe273/subject-5215946.csv","legacy","Kafkaesque Koffka","3.2.8","yes","yes","600bd7cfb6416f0113b04181","602110864497cf011d9c0822","0","j","NA","space","space","space","NA","j","555","NA","5461","9598","6092","NA","555","2","legacy","1024","2","48000","-16","task","5215946","even","NA","25892","33363","27900","80245","3175","18880","12786","80755","NA","80238","80755","80151","33363","81311","24326","79651","3168","60707","Lexical Decision Task","24","17866","29","yes","1024"
"2.793790385","5.67","9","swab","word","83.3333333333","83.3333333333","614.733333333","614.733333333","black","no","legacy","legacy","legacy","0","uniform","1","undefined","undefined","undefined","1","j","0","0","0","0","29","0","0","0","29","NA","25","29","25","0","25","3","29","0","29","Thu Feb 18 11:51:37 2021","The main experiment item","yes","Lexical_Decision_Task.osexp","/Users/darcycostelloe273","no","Andale Mono","no","18","no","white","no","yes","576","legacy","25","25","3","/Users/darcycostelloe273/subject-5215946.csv","legacy","Kafkaesque Koffka","3.2.8","yes","yes","600bd7cfb6416f0113b04181","602110864497cf011d9c0822","0","j","NA","space","space","space","NA","j","576","NA","5461","9598","6092","NA","576","2","legacy","1024","2","48000","-16","task","5215946","even","NA","25892","33363","27900","81921","3175","18880","12786","82430","NA","81914","82430","81822","33363","83007","24326","81322","3168","60707","Lexical Decision Task","25","18442","30","yes","1024"
"3.194328374","9.42","6","harm","word","83.8709677419","83.8709677419","614.129032258","614.129032258","black","no","legacy","legacy","legacy","0","uniform","1","undefined","undefined","undefined","1","j","0","0","0","0","30","0","0","0","30","NA","26","30","26","0","26","3","30","0","30","Thu Feb 18 11:51:37 2021","The main experiment item","yes","Lexical_Decision_Task.osexp","/Users/darcycostelloe273","no","Andale Mono","no","18","no","white","no","yes","576","legacy","26","26","3","/Users/darcycostelloe273/subject-5215946.csv","legacy","Kafkaesque Koffka","3.2.8","yes","yes","600bd7cfb6416f0113b04181","602110864497cf011d9c0822","0","j","NA","space","space","space","NA","j","596","NA","5461","9598","6092","NA","596","2","legacy","1024","2","48000","-16","task","5215946","even","NA","25892","33363","27900","83616","3175","18880","12786","84124","NA","83609","84124","83522","33363","84722","24326","83022","3168","60707","Lexical Decision Task","26","19038","31","yes","1024"
"3.474361976","5.24","6","veer","word","81.25","81.25","612.96875","612.96875","black","no","legacy","legacy","legacy","0","uniform","0","undefined","undefined","undefined","0","j","0","0","0","0","31","0","0","0","31","NA","27","31","27","0","27","3","31","0","31","Thu Feb 18 11:51:37 2021","The main experiment item","yes","Lexical_Decision_Task.osexp","/Users/darcycostelloe273","no","Andale Mono","no","18","no","white","no","yes","576","legacy","27","27","3","/Users/darcycostelloe273/subject-5215946.csv","legacy","Kafkaesque Koffka","3.2.8","yes","yes","600bd7cfb6416f0113b04181","602110864497cf011d9c0822","0","f","NA","space","space","space","NA","f","577","NA","5461","9598","6092","NA","577","2","legacy","1024","2","48000","-16","task","5215946","even","NA","25892","33363","27900","85334","3175","18880","12786","85842","NA","85327","85842","85234","33363","86421","24326","84734","3168","60707","Lexical Decision Task","26","19615","32","yes","1024"
"3.299579929","0","2","flis","non-word","81.8181818182","81.8181818182","616.878787879","616.878787879","black","no","legacy","legacy","legacy","0","uniform","1","undefined","undefined","undefined","1","f","0","0","0","0","32","0","0","0","32","NA","28","32","28","0","28","3","32","0","32","Thu Feb 18 11:51:37 2021","The main experiment item","yes","Lexical_Decision_Task.osexp","/Users/darcycostelloe273","no","Andale Mono","no","18","no","white","no","yes","576","legacy","28","28","3","/Users/darcycostelloe273/subject-5215946.csv","legacy","Kafkaesque Koffka","3.2.8","yes","yes","600bd7cfb6416f0113b04181","602110864497cf011d9c0822","0","f","NA","space","space","space","NA","f","742","NA","5461","9598","6092","NA","742","2","legacy","1024","2","48000","-16","task","5215946","even","NA","25892","33363","27900","88027","3175","18880","12786","88534","NA","88020","88535","87931","33363","89279","24326","84734","3168","86431","Lexical Decision Task","27","20357","33","yes","1024"
"2.698100546","0","9","mulk","non-word","82.3529411765","82.3529411765","621.882352941","621.882352941","black","no","legacy","legacy","legacy","0","uniform","1","undefined","undefined","undefined","1","f","0","0","0","0","33","0","0","0","33","NA","29","33","29","0","29","3","33","0","33","Thu Feb 18 11:51:37 2021","The main experiment item","yes","Lexical_Decision_Task.osexp","/Users/darcycostelloe273","no","Andale Mono","no","18","no","white","no","yes","576","legacy","29","29","3","/Users/darcycostelloe273/subject-5215946.csv","legacy","Kafkaesque Koffka","3.2.8","yes","yes","600bd7cfb6416f0113b04181","602110864497cf011d9c0822","0","f","NA","space","space","space","NA","f","787","NA","5461","9598","6092","NA","787","2","legacy","1024","2","48000","-16","task","5215946","even","NA","25892","33363","27900","89889","3175","18880","12786","90396","NA","89882","90397","89791","33363","91186","24326","89290","3168","86431","Lexical Decision Task","28","21144","34","yes","1024"
"3.153001286","8.7","5","palm","word","82.8571428571","82.8571428571","621.314285714","621.314285714","black","no","legacy","legacy","legacy","0","uniform","1","undefined","undefined","undefined","1","j","0","0","0","0","34","0","0","0","34","NA","30","34","30","0","30","3","34","0","34","Thu Feb 18 11:51:37 2021","The main experiment item","yes","Lexical_Decision_Task.osexp","/Users/darcycostelloe273","no","Andale Mono","no","18","no","white","no","yes","576","legacy","30","30","3","/Users/darcycostelloe273/subject-5215946.csv","legacy","Kafkaesque Koffka","3.2.8","yes","yes","600bd7cfb6416f0113b04181","602110864497cf011d9c0822","0","j","NA","space","space","space","NA","j","602","NA","5461","9598","6092","NA","602","2","legacy","1024","2","48000","-16","task","5215946","even","NA","25892","33363","27900","91801","3175","18880","12786","92308","NA","91794","92308","91696","33363","92912","24326","91196","3168","86431","Lexical Decision Task","29","21746","35","yes","1024"
"2.868644438","10.52","4","town","word","83.3333333333","83.3333333333","620.555555556","620.555555556","black","no","legacy","legacy","legacy","0","uniform","1","undefined","undefined","undefined","1","j","0","0","0","0","35","0","0","0","35","NA","31","35","31","0","31","3","35","0","35","Thu Feb 18 11:51:37 2021","The main experiment item","yes","Lexical_Decision_Task.osexp","/Users/darcycostelloe273","no","Andale Mono","no","18","no","white","no","yes","576","legacy","31","31","3","/Users/darcycostelloe273/subject-5215946.csv","legacy","Kafkaesque Koffka","3.2.8","yes","yes","600bd7cfb6416f0113b04181","602110864497cf011d9c0822","0","j","NA","space","space","space","NA","j","594","NA","5461","9598","6092","NA","594","2","legacy","1024","2","48000","-16","task","5215946","even","NA","25892","33363","27900","93519","3175","18880","12786","94029","NA","93513","94029","93422","33363","94624","24326","92922","3168","86431","Lexical Decision Task","30","22340","36","yes","1024"
"2.873320602","0","4","lurg","non-word","83.7837837838","83.7837837838","620.405405405","620.405405405","black","no","legacy","legacy","legacy","0","uniform","1","undefined","undefined","undefined","1","f","0","0","0","0","36","0","0","0","36","NA","32","36","32","0","32","3","36","0","36","Thu Feb 18 11:51:37 2021","The main experiment item","yes","Lexical_Decision_Task.osexp","/Users/darcycostelloe273","no","Andale Mono","no","18","no","white","no","yes","576","legacy","32","32","3","/Users/darcycostelloe273/subject-5215946.csv","legacy","Kafkaesque Koffka","3.2.8","yes","yes","600bd7cfb6416f0113b04181","602110864497cf011d9c0822","0","f","NA","space","space","space","NA","f","615","NA","5461","9598","6092","NA","615","2","legacy","1024","2","48000","-16","task","5215946","even","NA","25892","33363","27900","95230","3175","18880","12786","95738","NA","95223","95738","95135","33363","96354","24326","94635","3168","86431","Lexical Decision Task","31","22955","37","yes","1024"
"2.767650507","0","6","yolt","non-word","84.2105263158","84.2105263158","624.131578947","624.131578947","black","no","legacy","legacy","legacy","0","uniform","1","undefined","undefined","undefined","1","f","0","0","0","0","37","0","0","0","37","NA","33","37","33","0","33","3","37","0","37","Thu Feb 18 11:51:37 2021","The main experiment item","yes","Lexical_Decision_Task.osexp","/Users/darcycostelloe273","no","Andale Mono","no","18","no","white","no","yes","576","legacy","33","33","3","/Users/darcycostelloe273/subject-5215946.csv","legacy","Kafkaesque Koffka","3.2.8","yes","yes","600bd7cfb6416f0113b04181","602110864497cf011d9c0822","0","f","NA","space","space","space","NA","f","762","NA","5461","9598","6092","NA","762","2","legacy","1024","2","48000","-16","task","5215946","even","NA","25892","33363","27900","96959","3175","18880","12786","97468","NA","96951","97468","96866","33363","98232","24326","96366","3168","86431","Lexical Decision Task","32","23717","38","yes","1024"
"2.986323777","10.85","8","ship","word","84.6153846154","84.6153846154","624.564102564","624.564102564","black","no","legacy","legacy","legacy","0","uniform","1","undefined","undefined","undefined","1","j","0","0","0","0","38","0","0","0","38","NA","34","38","34","0","34","3","38","0","38","Thu Feb 18 11:51:37 2021","The main experiment item","yes","Lexical_Decision_Task.osexp","/Users/darcycostelloe273","no","Andale Mono","no","18","no","white","no","yes","576","legacy","34","34","3","/Users/darcycostelloe273/subject-5215946.csv","legacy","Kafkaesque Koffka","3.2.8","yes","yes","600bd7cfb6416f0113b04181","602110864497cf011d9c0822","0","j","NA","space","space","space","NA","j","641","NA","5461","9598","6092","NA","641","2","legacy","1024","2","48000","-16","task","5215946","even","NA","25892","33363","27900","98839","3175","18880","12786","99349","NA","98833","99349","98743","33363","99991","24326","98243","3168","86431","Lexical Decision Task","33","24358","39","yes","1024"
"2.895974732","6.65","5","sift","word","85","85","633.775","633.775","black","no","legacy","legacy","legacy","0","uniform","1","undefined","undefined","undefined","1","j","0","0","0","0","39","0","0","0","39","NA","35","39","35","0","35","3","39","0","39","Thu Feb 18 11:51:37 2021","The main experiment item","yes","Lexical_Decision_Task.osexp","/Users/darcycostelloe273","no","Andale Mono","no","18","no","white","no","yes","576","legacy","35","35","3","/Users/darcycostelloe273/subject-5215946.csv","legacy","Kafkaesque Koffka","3.2.8","yes","yes","600bd7cfb6416f0113b04181","602110864497cf011d9c0822","0","j","NA","space","space","space","NA","j","993","NA","5461","9598","6092","NA","993","2","legacy","1024","2","48000","-16","task","5215946","even","NA","25892","33363","27900","100596","3175","18880","12786","101105","NA","100589","101105","100501","33363","102099","24326","100001","3168","86431","Lexical Decision Task","34","25351","40","yes","1024"
"2.728085817","10.02","9","bike","word","85.3658536585","85.3658536585","632.048780488","632.048780488","black","no","legacy","legacy","legacy","0","uniform","1","undefined","undefined","undefined","1","j","0","0","0","0","40","0","0","0","40","NA","36","40","36","0","36","3","40","0","40","Thu Feb 18 11:51:37 2021","The main experiment item","yes","Lexical_Decision_Task.osexp","/Users/darcycostelloe273","no","Andale Mono","no","18","no","white","no","yes","576","legacy","36","36","3","/Users/darcycostelloe273/subject-5215946.csv","legacy","Kafkaesque Koffka","3.2.8","yes","yes","600bd7cfb6416f0113b04181","602110864497cf011d9c0822","0","j","NA","space","space","space","NA","j","563","NA","5461","9598","6092","NA","563","2","legacy","1024","2","48000","-16","task","5215946","even","NA","25892","33363","27900","102708","3175","18880","12786","103219","NA","102700","103219","102610","33363","103783","24326","102110","3168","86431","Lexical Decision Task","35","25914","41","yes","1024"
"2.838639236","0","4","furg","non-word","85.7142857143","85.7142857143","631.880952381","631.880952381","black","no","legacy","legacy","legacy","0","uniform","1","undefined","undefined","undefined","1","f","0","0","0","0","41","0","0","0","41","NA","37","41","37","0","37","3","41","0","41","Thu Feb 18 11:51:37 2021","The main experiment item","yes","Lexical_Decision_Task.osexp","/Users/darcycostelloe273","no","Andale Mono","no","18","no","white","no","yes","576","legacy","37","37","3","/Users/darcycostelloe273/subject-5215946.csv","legacy","Kafkaesque Koffka","3.2.8","yes","yes","600bd7cfb6416f0113b04181","602110864497cf011d9c0822","0","f","NA","space","space","space","NA","f","625","NA","5461","9598","6092","NA","625","2","legacy","1024","2","48000","-16","task","5215946","even","NA","25892","33363","27900","104389","3175","18880","12786","104898","NA","104383","104898","104297","33363","105524","24326","103797","3168","86431","Lexical Decision Task","36","26539","42","yes","1024"
"3.2757719","0","5","slea","non-word","86.0465116279","86.0465116279","631.139534884","631.139534884","black","no","legacy","legacy","legacy","0","uniform","1","undefined","undefined","undefined","1","f","0","0","0","0","42","0","0","0","42","NA","38","42","38","0","38","3","42","0","42","Thu Feb 18 11:51:37 2021","The main experiment item","yes","Lexical_Decision_Task.osexp","/Users/darcycostelloe273","no","Andale Mono","no","18","no","white","no","yes","576","legacy","38","38","3","/Users/darcycostelloe273/subject-5215946.csv","legacy","Kafkaesque Koffka","3.2.8","yes","yes","600bd7cfb6416f0113b04181","602110864497cf011d9c0822","0","f","NA","space","space","space","NA","f","600","NA","5461","9598","6092","NA","600","2","legacy","1024","2","48000","-16","task","5215946","even","NA","25892","33363","27900","106136","3175","18880","12786","106647","NA","106130","106647","106039","33363","107248","24326","105539","3168","86431","Lexical Decision Task","37","27139","43","yes","1024"
"2.996511672","0","7","hoil","non-word","86.3636363636","86.3636363636","630.090909091","630.090909091","black","no","legacy","legacy","legacy","0","uniform","1","undefined","undefined","undefined","1","f","0","0","0","0","43","0","0","0","43","NA","39","43","39","0","39","3","43","0","43","Thu Feb 18 11:51:37 2021","The main experiment item","yes","Lexical_Decision_Task.osexp","/Users/darcycostelloe273","no","Andale Mono","no","18","no","white","no","yes","576","legacy","39","39","3","/Users/darcycostelloe273/subject-5215946.csv","legacy","Kafkaesque Koffka","3.2.8","yes","yes","600bd7cfb6416f0113b04181","602110864497cf011d9c0822","0","f","NA","space","space","space","NA","f","585","NA","5461","9598","6092","NA","585","2","legacy","1024","2","48000","-16","task","5215946","even","NA","25892","33363","27900","107852","3175","18880","12786","108362","NA","107846","108362","107759","33363","108948","24326","107259","3168","86431","Lexical Decision Task","38","27724","44","yes","1024"
"3.081107167","0","6","chot","non-word","86.6666666667","86.6666666667","656.733333333","656.733333333","black","no","legacy","legacy","legacy","0","uniform","1","undefined","undefined","undefined","1","f","0","0","0","0","44","0","0","0","44","NA","40","44","40","0","40","3","44","0","44","Thu Feb 18 11:51:37 2021","The main experiment item","yes","Lexical_Decision_Task.osexp","/Users/darcycostelloe273","no","Andale Mono","no","18","no","white","no","yes","576","legacy","40","40","3","/Users/darcycostelloe273/subject-5215946.csv","legacy","Kafkaesque Koffka","3.2.8","yes","yes","600bd7cfb6416f0113b04181","602110864497cf011d9c0822","0","f","NA","space","space","space","NA","f","1829","NA","5461","9598","6092","NA","1829","2","legacy","1024","2","48000","-16","task","5215946","even","NA","25892","33363","27900","109561","3175","18880","12786","110072","NA","109554","110072","109459","33363","111903","24326","108958","3168","86431","Lexical Decision Task","39","29553","45","yes","1024"
"3.132473155","0","4","glim","non-word","84.7826086957","84.7826086957","666.195652174","666.195652174","black","no","legacy","legacy","legacy","0","uniform","0","undefined","undefined","undefined","0","f","0","0","0","0","45","0","0","0","45","NA","41","45","41","0","41","3","45","0","45","Thu Feb 18 11:51:37 2021","The main experiment item","yes","Lexical_Decision_Task.osexp","/Users/darcycostelloe273","no","Andale Mono","no","18","no","white","no","yes","576","legacy","41","41","3","/Users/darcycostelloe273/subject-5215946.csv","legacy","Kafkaesque Koffka","3.2.8","yes","yes","600bd7cfb6416f0113b04181","602110864497cf011d9c0822","0","j","NA","space","space","space","NA","j","1092","NA","5461","9598","6092","NA","1092","2","legacy","1024","2","48000","-16","task","5215946","even","NA","25892","33363","27900","112509","3175","18880","12786","113018","NA","112503","113018","112414","33363","114112","24326","111914","3168","86431","Lexical Decision Task","39","30645","46","yes","1024"
"3.076883066","0","8","mout","non-word","85.1063829787","85.1063829787","666","666","black","no","legacy","legacy","legacy","0","uniform","1","undefined","undefined","undefined","1","f","0","0","0","0","46","0","0","0","46","NA","42","46","42","0","42","3","46","0","46","Thu Feb 18 11:51:37 2021","The main experiment item","yes","Lexical_Decision_Task.osexp","/Users/darcycostelloe273","no","Andale Mono","no","18","no","white","no","yes","576","legacy","42","42","3","/Users/darcycostelloe273/subject-5215946.csv","legacy","Kafkaesque Koffka","3.2.8","yes","yes","600bd7cfb6416f0113b04181","602110864497cf011d9c0822","0","f","NA","space","space","space","NA","f","657","NA","5461","9598","6092","NA","657","2","legacy","1024","2","48000","-16","task","5215946","even","NA","25892","33363","27900","115724","3175","18880","12786","116231","NA","115716","116231","115623","33363","116890","24326","111914","3168","114123","Lexical Decision Task","40","31302","47","yes","1024"
"3.091901331","0","9","nipe","non-word","85.4166666667","85.4166666667","669","669","black","no","legacy","legacy","legacy","0","uniform","1","undefined","undefined","undefined","1","f","0","0","0","0","47","0","0","0","47","NA","43","47","43","0","43","3","47","0","47","Thu Feb 18 11:51:37 2021","The main experiment item","yes","Lexical_Decision_Task.osexp","/Users/darcycostelloe273","no","Andale Mono","no","18","no","white","no","yes","576","legacy","43","43","3","/Users/darcycostelloe273/subject-5215946.csv","legacy","Kafkaesque Koffka","3.2.8","yes","yes","600bd7cfb6416f0113b04181","602110864497cf011d9c0822","0","f","NA","space","space","space","NA","f","810","NA","5461","9598","6092","NA","810","2","legacy","1024","2","48000","-16","task","5215946","even","NA","25892","33363","27900","117497","3175","18880","12786","118005","NA","117490","118005","117400","33363","118817","24326","116900","3168","114123","Lexical Decision Task","41","32112","48","yes","1024"
"2.983324025","9.56","2","debt","word","85.7142857143","85.7142857143","668.530612245","668.530612245","black","no","legacy","legacy","legacy","0","uniform","1","undefined","undefined","undefined","1","j","0","0","0","0","48","0","0","0","48","NA","44","48","44","0","44","3","48","0","48","Thu Feb 18 11:51:37 2021","The main experiment item","yes","Lexical_Decision_Task.osexp","/Users/darcycostelloe273","no","Andale Mono","no","18","no","white","no","yes","576","legacy","44","44","3","/Users/darcycostelloe273/subject-5215946.csv","legacy","Kafkaesque Koffka","3.2.8","yes","yes","600bd7cfb6416f0113b04181","602110864497cf011d9c0822","0","j","NA","space","space","space","NA","j","646","NA","5461","9598","6092","NA","646","2","legacy","1024","2","48000","-16","task","5215946","even","NA","25892","33363","27900","119423","3175","18880","12786","119933","NA","119417","119933","119327","33363","120581","24326","118827","3168","114123","Lexical Decision Task","42","32758","49","yes","1024"
"3.263399331","0","8","cour","non-word","86","86","667.36","667.36","black","no","legacy","legacy","legacy","0","uniform","1","undefined","undefined","undefined","1","f","0","0","0","0","49","0","0","0","49","NA","45","49","45","0","45","3","49","0","49","Thu Feb 18 11:51:37 2021","The main experiment item","yes","Lexical_Decision_Task.osexp","/Users/darcycostelloe273","no","Andale Mono","no","18","no","white","no","yes","576","legacy","45","45","3","/Users/darcycostelloe273/subject-5215946.csv","legacy","Kafkaesque Koffka","3.2.8","yes","yes","600bd7cfb6416f0113b04181","602110864497cf011d9c0822","0","f","NA","space","space","space","NA","f","610","NA","5461","9598","6092","NA","610","2","legacy","1024","2","48000","-16","task","5215946","even","NA","25892","33363","27900","121186","3175","18880","12786","121694","NA","121179","121694","121092","33363","122306","24326","120591","3168","114123","Lexical Decision Task","43","33368","50","yes","1024"
"3.134602053","0","8","jart","non-word","86.2745098039","86.2745098039","665.941176471","665.941176471","black","no","legacy","legacy","legacy","0","uniform","1","undefined","undefined","undefined","1","f","0","0","0","0","50","0","0","0","50","NA","46","50","46","0","46","3","50","0","50","Thu Feb 18 11:51:37 2021","The main experiment item","yes","Lexical_Decision_Task.osexp","/Users/darcycostelloe273","no","Andale Mono","no","18","no","white","no","yes","576","legacy","46","46","3","/Users/darcycostelloe273/subject-5215946.csv","legacy","Kafkaesque Koffka","3.2.8","yes","yes","600bd7cfb6416f0113b04181","602110864497cf011d9c0822","0","f","NA","space","space","space","NA","f","595","NA","5461","9598","6092","NA","595","2","legacy","1024","2","48000","-16","task","5215946","even","NA","25892","33363","27900","122909","3175","18880","12786","123418","NA","122903","123418","122817","33363","124015","24326","122317","3168","114123","Lexical Decision Task","44","33963","51","yes","1024"
"3.495914186","0","4","peng","non-word","84.6153846154","84.6153846154","666.557692308","666.557692308","black","no","legacy","legacy","legacy","0","uniform","0","undefined","undefined","undefined","0","f","0","0","0","0","51","0","0","0","51","NA","47","51","47","0","47","3","51","0","51","Thu Feb 18 11:51:37 2021","The main experiment item","yes","Lexical_Decision_Task.osexp","/Users/darcycostelloe273","no","Andale Mono","no","18","no","white","no","yes","576","legacy","47","47","3","/Users/darcycostelloe273/subject-5215946.csv","legacy","Kafkaesque Koffka","3.2.8","yes","yes","600bd7cfb6416f0113b04181","602110864497cf011d9c0822","0","j","NA","space","space","space","NA","j","698","NA","5461","9598","6092","NA","698","2","legacy","1024","2","48000","-16","task","5215946","even","NA","25892","33363","27900","124624","3175","18880","12786","125131","NA","124616","125131","124526","33363","125831","24326","124025","3168","114123","Lexical Decision Task","44","34661","52","yes","1024"
"3.105055783","0","2","norp","non-word","84.9056603774","84.9056603774","662.735849057","662.735849057","black","no","legacy","legacy","legacy","0","uniform","1","undefined","undefined","undefined","1","f","0","0","0","0","52","0","0","0","52","NA","48","52","48","0","48","3","52","0","52","Thu Feb 18 11:51:37 2021","The main experiment item","yes","Lexical_Decision_Task.osexp","/Users/darcycostelloe273","no","Andale Mono","no","18","no","white","no","yes","576","legacy","48","48","3","/Users/darcycostelloe273/subject-5215946.csv","legacy","Kafkaesque Koffka","3.2.8","yes","yes","600bd7cfb6416f0113b04181","602110864497cf011d9c0822","0","f","NA","space","space","space","NA","f","464","NA","5461","9598","6092","NA","464","2","legacy","1024","2","48000","-16","task","5215946","even","NA","25892","33363","27900","127442","3175","18880","12786","127949","NA","127435","127949","127342","33363","128415","24326","124025","3168","125842","Lexical Decision Task","45","35125","53","yes","1024"
"2.966923697","5.4","2","fume","word","85.1851851852","85.1851851852","662.925925926","662.925925926","black","no","legacy","legacy","legacy","0","uniform","1","undefined","undefined","undefined","1","j","0","0","0","0","53","0","0","0","53","NA","49","53","49","0","49","3","53","0","53","Thu Feb 18 11:51:37 2021","The main experiment item","yes","Lexical_Decision_Task.osexp","/Users/darcycostelloe273","no","Andale Mono","no","18","no","white","no","yes","576","legacy","49","49","3","/Users/darcycostelloe273/subject-5215946.csv","legacy","Kafkaesque Koffka","3.2.8","yes","yes","600bd7cfb6416f0113b04181","602110864497cf011d9c0822","0","j","NA","space","space","space","NA","j","673","NA","5461","9598","6092","NA","673","2","legacy","1024","2","48000","-16","task","5215946","even","NA","25892","33363","27900","129020","3175","18880","12786","129528","NA","129013","129528","128926","33363","130203","24326","128425","3168","125842","Lexical Decision Task","46","35798","54","yes","1024"
"3.209246849","0","7","slem","non-word","85.4545454545","85.4545454545","659.4","659.4","black","no","legacy","legacy","legacy","0","uniform","1","undefined","undefined","undefined","1","f","0","0","0","0","54","0","0","0","54","0","50","54","50","0","50","3","54","0","54","Thu Feb 18 11:51:37 2021","The main experiment item","yes","Lexical_Decision_Task.osexp","/Users/darcycostelloe273","no","Andale Mono","no","18","no","white","no","yes","576","legacy","50","50","3","/Users/darcycostelloe273/subject-5215946.csv","legacy","Kafkaesque Koffka","3.2.8","yes","yes","600bd7cfb6416f0113b04181","602110864497cf011d9c0822","0","f","NA","space","space","space","space","f","469","NA","5461","9598","6092","5075","469","2","legacy","1024","2","48000","-16","task","5215946","even","NA","25892","33363","27900","135978","3175","18880","12786","136486","130798","135971","136487","130715","33363","136957","24326","130215","3168","125842","Lexical Decision Task","47","36267","55","yes","1024"
"2.971428938","9.86","7","spot","word","85.7142857143","85.7142857143","656.571428571","656.571428571","black","no","legacy","legacy","legacy","0","uniform","1","undefined","undefined","undefined","1","j","0","0","0","0","55","0","0","0","55","0","51","55","51","0","51","3","55","0","55","Thu Feb 18 11:51:37 2021","The main experiment item","yes","Lexical_Decision_Task.osexp","/Users/darcycostelloe273","no","Andale Mono","no","18","no","white","no","yes","576","legacy","51","51","3","/Users/darcycostelloe273/subject-5215946.csv","legacy","Kafkaesque Koffka","3.2.8","yes","yes","600bd7cfb6416f0113b04181","602110864497cf011d9c0822","0","j","NA","space","space","space","space","j","501","NA","5461","9598","6092","5075","501","2","legacy","1024","2","48000","-16","task","5215946","even","NA","25892","33363","27900","137579","3175","18880","12786","138087","130798","137573","138087","137475","33363","138589","24326","136975","3168","125842","Lexical Decision Task","48","36768","56","yes","1024"
"3.120135028","0","3","vals","non-word","85.9649122807","85.9649122807","656.122807018","656.122807018","black","no","legacy","legacy","legacy","0","uniform","1","undefined","undefined","undefined","1","f","0","0","0","0","56","0","0","0","56","0","52","56","52","0","52","3","56","0","56","Thu Feb 18 11:51:37 2021","The main experiment item","yes","Lexical_Decision_Task.osexp","/Users/darcycostelloe273","no","Andale Mono","no","18","no","white","no","yes","576","legacy","52","52","3","/Users/darcycostelloe273/subject-5215946.csv","legacy","Kafkaesque Koffka","3.2.8","yes","yes","600bd7cfb6416f0113b04181","602110864497cf011d9c0822","0","f","NA","space","space","space","space","f","631","NA","5461","9598","6092","5075","631","2","legacy","1024","2","48000","-16","task","5215946","even","NA","25892","33363","27900","139200","3175","18880","12786","139707","130798","139193","139708","139100","33363","140340","24326","138600","3168","125842","Lexical Decision Task","49","37399","57","yes","1024"
"2.907588697","8.91","9","mood","word","86.2068965517","86.2068965517","653.844827586","653.844827586","black","no","legacy","legacy","legacy","0","uniform","1","undefined","undefined","undefined","1","j","0","0","0","0","57","0","0","0","57","0","53","57","53","0","53","3","57","0","57","Thu Feb 18 11:51:37 2021","The main experiment item","yes","Lexical_Decision_Task.osexp","/Users/darcycostelloe273","no","Andale Mono","no","18","no","white","no","yes","576","legacy","53","53","3","/Users/darcycostelloe273/subject-5215946.csv","legacy","Kafkaesque Koffka","3.2.8","yes","yes","600bd7cfb6416f0113b04181","602110864497cf011d9c0822","0","j","NA","space","space","space","space","j","524","NA","5461","9598","6092","5075","524","2","legacy","1024","2","48000","-16","task","5215946","even","NA","25892","33363","27900","140946","3175","18880","12786","141454","130798","140939","141454","140850","33363","141980","24326","140350","3168","125842","Lexical Decision Task","50","37923","58","yes","1024"
"3.440331212","7.35","6","stew","word","86.4406779661","86.4406779661","651.084745763","651.084745763","black","no","legacy","legacy","legacy","0","uniform","1","undefined","undefined","undefined","1","j","0","0","0","0","58","0","0","0","58","0","54","58","54","0","54","3","58","0","58","Thu Feb 18 11:51:37 2021","The main experiment item","yes","Lexical_Decision_Task.osexp","/Users/darcycostelloe273","no","Andale Mono","no","18","no","white","no","yes","576","legacy","54","54","3","/Users/darcycostelloe273/subject-5215946.csv","legacy","Kafkaesque Koffka","3.2.8","yes","yes","600bd7cfb6416f0113b04181","602110864497cf011d9c0822","0","j","NA","space","space","space","space","j","491","NA","5461","9598","6092","5075","491","2","legacy","1024","2","48000","-16","task","5215946","even","NA","25892","33363","27900","142595","3175","18880","12786","143106","130798","142588","143106","142496","33363","143598","24326","141996","3168","125842","Lexical Decision Task","51","38414","59","yes","1024"
"2.696644658","5.78","2","yolk","word","86.6666666667","86.6666666667","649.45","649.45","black","no","legacy","legacy","legacy","0","uniform","1","undefined","undefined","undefined","1","j","0","0","0","0","59","0","0","0","59","0","55","59","55","0","55","3","59","0","59","Thu Feb 18 11:51:37 2021","The main experiment item","yes","Lexical_Decision_Task.osexp","/Users/darcycostelloe273","no","Andale Mono","no","18","no","white","no","yes","576","legacy","55","55","3","/Users/darcycostelloe273/subject-5215946.csv","legacy","Kafkaesque Koffka","3.2.8","yes","yes","600bd7cfb6416f0113b04181","602110864497cf011d9c0822","0","j","NA","space","space","space","space","j","553","NA","5461","9598","6092","5075","553","2","legacy","1024","2","48000","-16","task","5215946","even","NA","25892","33363","27900","144211","3175","18880","12786","144722","130798","144204","144722","144112","33363","145277","24326","143612","3168","125842","Lexical Decision Task","52","38967","60","yes","1024"
"2.980306438","0","7","slun","non-word","86.8852459016","86.8852459016","646.770491803","646.770491803","black","no","legacy","legacy","legacy","0","uniform","1","undefined","undefined","undefined","1","f","0","0","0","0","60","0","0","0","60","0","56","60","56","0","56","3","60","0","60","Thu Feb 18 11:51:37 2021","The main experiment item","yes","Lexical_Decision_Task.osexp","/Users/darcycostelloe273","no","Andale Mono","no","18","no","white","no","yes","576","legacy","56","56","3","/Users/darcycostelloe273/subject-5215946.csv","legacy","Kafkaesque Koffka","3.2.8","yes","yes","600bd7cfb6416f0113b04181","602110864497cf011d9c0822","0","f","NA","space","space","space","space","f","486","NA","5461","9598","6092","5075","486","2","legacy","1024","2","48000","-16","task","5215946","even","NA","25892","33363","27900","145887","3175","18880","12786","146397","130798","145879","146397","145787","33363","146885","24326","145287","3168","125842","Lexical Decision Task","53","39453","61","yes","1024"
"3.094121596","0","8","fode","non-word","87.0967741935","87.0967741935","645.629032258","645.629032258","black","no","legacy","legacy","legacy","0","uniform","1","undefined","undefined","undefined","1","f","0","0","0","0","61","0","0","0","61","0","57","61","57","0","57","3","61","0","61","Thu Feb 18 11:51:37 2021","The main experiment item","yes","Lexical_Decision_Task.osexp","/Users/darcycostelloe273","no","Andale Mono","no","18","no","white","no","yes","576","legacy","57","57","3","/Users/darcycostelloe273/subject-5215946.csv","legacy","Kafkaesque Koffka","3.2.8","yes","yes","600bd7cfb6416f0113b04181","602110864497cf011d9c0822","0","f","NA","space","space","space","space","f","576","NA","5461","9598","6092","5075","576","2","legacy","1024","2","48000","-16","task","5215946","even","NA","25892","33363","27900","147500","3175","18880","12786","148009","130798","147493","148009","147397","33363","148586","24326","146897","3168","125842","Lexical Decision Task","54","40029","62","yes","1024"
"3.488597715","0","9","nain","non-word","87.3015873016","87.3015873016","644.968253968","644.968253968","black","no","legacy","legacy","legacy","0","uniform","1","undefined","undefined","undefined","1","f","0","0","0","0","62","0","0","0","62","0","58","62","58","0","58","3","62","0","62","Thu Feb 18 11:51:37 2021","The main experiment item","yes","Lexical_Decision_Task.osexp","/Users/darcycostelloe273","no","Andale Mono","no","18","no","white","no","yes","576","legacy","58","58","3","/Users/darcycostelloe273/subject-5215946.csv","legacy","Kafkaesque Koffka","3.2.8","yes","yes","600bd7cfb6416f0113b04181","602110864497cf011d9c0822","0","f","NA","space","space","space","space","f","604","NA","5461","9598","6092","5075","604","2","legacy","1024","2","48000","-16","task","5215946","even","NA","25892","33363","27900","149193","3175","18880","12786","149701","130798","149186","149701","149098","33363","150307","24326","148598","3168","125842","Lexical Decision Task","55","40633","63","yes","1024"
"2.594027722","9.08","8","skip","word","87.5","87.5","643.421875","643.421875","black","no","legacy","legacy","legacy","0","uniform","1","undefined","undefined","undefined","1","j","0","0","0","0","63","0","0","0","63","0","59","63","59","0","59","3","63","0","63","Thu Feb 18 11:51:37 2021","The main experiment item","yes","Lexical_Decision_Task.osexp","/Users/darcycostelloe273","no","Andale Mono","no","18","no","white","no","yes","576","legacy","59","59","3","/Users/darcycostelloe273/subject-5215946.csv","legacy","Kafkaesque Koffka","3.2.8","yes","yes","600bd7cfb6416f0113b04181","602110864497cf011d9c0822","0","j","NA","space","space","space","space","j","546","NA","5461","9598","6092","5075","546","2","legacy","1024","2","48000","-16","task","5215946","even","NA","25892","33363","27900","150914","3175","18880","12786","151424","130798","150907","151425","150818","33363","151973","24326","150318","3168","125842","Lexical Decision Task","56","41179","64","yes","1024"
"3.216517684","10.87","3","film","word","87.6923076923","87.6923076923","642.6","642.6","black","no","legacy","legacy","legacy","0","uniform","1","undefined","undefined","undefined","1","j","0","0","0","0","64","0","0","0","64","0","60","64","60","0","60","3","64","0","64","Thu Feb 18 11:51:37 2021","The main experiment item","yes","Lexical_Decision_Task.osexp","/Users/darcycostelloe273","no","Andale Mono","no","18","no","white","no","yes","576","legacy","60","60","3","/Users/darcycostelloe273/subject-5215946.csv","legacy","Kafkaesque Koffka","3.2.8","yes","yes","600bd7cfb6416f0113b04181","602110864497cf011d9c0822","0","j","NA","space","space","space","space","j","590","NA","5461","9598","6092","5075","590","2","legacy","1024","2","48000","-16","task","5215946","even","NA","25892","33363","27900","152588","3175","18880","12786","153097","130798","152581","153098","152483","33363","153690","24326","151983","3168","125842","Lexical Decision Task","57","41769","65","yes","1024"
"2.698387659","6.66","7","skid","word","87.8787878788","87.8787878788","644.272727273","644.272727273","black","no","legacy","legacy","legacy","0","uniform","1","undefined","undefined","undefined","1","j","0","0","0","0","65","0","0","0","65","0","61","65","61","0","61","3","65","0","65","Thu Feb 18 11:51:37 2021","The main experiment item","yes","Lexical_Decision_Task.osexp","/Users/darcycostelloe273","no","Andale Mono","no","18","no","white","no","yes","576","legacy","61","61","3","/Users/darcycostelloe273/subject-5215946.csv","legacy","Kafkaesque Koffka","3.2.8","yes","yes","600bd7cfb6416f0113b04181","602110864497cf011d9c0822","0","j","NA","space","space","space","space","j","753","NA","5461","9598","6092","5075","753","2","legacy","1024","2","48000","-16","task","5215946","even","NA","25892","33363","27900","154299","3175","18880","12786","154808","130798","154292","154808","154200","33363","155563","24326","153700","3168","125842","Lexical Decision Task","58","42522","66","yes","1024"
"2.892836167","10.01","5","soft","word","88.0597014925","88.0597014925","641.880597015","641.880597015","black","no","legacy","legacy","legacy","0","uniform","1","undefined","undefined","undefined","1","j","0","0","0","0","66","0","0","0","66","0","62","66","62","0","62","3","66","0","66","Thu Feb 18 11:51:37 2021","The main experiment item","yes","Lexical_Decision_Task.osexp","/Users/darcycostelloe273","no","Andale Mono","no","18","no","white","no","yes","576","legacy","62","62","3","/Users/darcycostelloe273/subject-5215946.csv","legacy","Kafkaesque Koffka","3.2.8","yes","yes","600bd7cfb6416f0113b04181","602110864497cf011d9c0822","0","j","NA","space","space","space","space","j","484","NA","5461","9598","6092","5075","484","2","legacy","1024","2","48000","-16","task","5215946","even","NA","25892","33363","27900","156168","3175","18880","12786","156677","130798","156162","156677","156073","33363","157163","24326","155573","3168","125842","Lexical Decision Task","59","43006","67","yes","1024"
"3.120025233","0","2","nyst","non-word","88.2352941176","88.2352941176","639.117647059","639.117647059","black","no","legacy","legacy","legacy","0","uniform","1","undefined","undefined","undefined","1","f","0","0","0","0","67","0","0","0","67","0","63","67","63","0","63","3","67","0","67","Thu Feb 18 11:51:37 2021","The main experiment item","yes","Lexical_Decision_Task.osexp","/Users/darcycostelloe273","no","Andale Mono","no","18","no","white","no","yes","576","legacy","63","63","3","/Users/darcycostelloe273/subject-5215946.csv","legacy","Kafkaesque Koffka","3.2.8","yes","yes","600bd7cfb6416f0113b04181","602110864497cf011d9c0822","0","f","NA","space","space","space","space","f","454","NA","5461","9598","6092","5075","454","2","legacy","1024","2","48000","-16","task","5215946","even","NA","25892","33363","27900","157771","3175","18880","12786","158278","130798","157765","158278","157674","33363","158734","24326","157174","3168","125842","Lexical Decision Task","60","43460","68","yes","1024"
"3.15462682","0","6","noal","non-word","88.4057971014","88.4057971014","639.391304348","639.391304348","black","no","legacy","legacy","legacy","0","uniform","1","undefined","undefined","undefined","1","f","0","0","0","0","68","0","0","0","68","0","64","68","64","0","64","3","68","0","68","Thu Feb 18 11:51:37 2021","The main experiment item","yes","Lexical_Decision_Task.osexp","/Users/darcycostelloe273","no","Andale Mono","no","18","no","white","no","yes","576","legacy","64","64","3","/Users/darcycostelloe273/subject-5215946.csv","legacy","Kafkaesque Koffka","3.2.8","yes","yes","600bd7cfb6416f0113b04181","602110864497cf011d9c0822","0","f","NA","space","space","space","space","f","658","NA","5461","9598","6092","5075","658","2","legacy","1024","2","48000","-16","task","5215946","even","NA","25892","33363","27900","159338","3175","18880","12786","159848","130798","159331","159848","159245","33363","160508","24326","158745","3168","125842","Lexical Decision Task","61","44118","69","yes","1024"
"2.67699827","0","6","hulf","non-word","88.5714285714","88.5714285714","639.671428571","639.671428571","black","no","legacy","legacy","legacy","0","uniform","1","undefined","undefined","undefined","1","f","0","0","0","0","69","0","0","0","69","0","65","69","65","0","65","3","69","0","69","Thu Feb 18 11:51:37 2021","The main experiment item","yes","Lexical_Decision_Task.osexp","/Users/darcycostelloe273","no","Andale Mono","no","18","no","white","no","yes","576","legacy","65","65","3","/Users/darcycostelloe273/subject-5215946.csv","legacy","Kafkaesque Koffka","3.2.8","yes","yes","600bd7cfb6416f0113b04181","602110864497cf011d9c0822","0","f","NA","space","space","space","space","f","659","NA","5461","9598","6092","5075","659","2","legacy","1024","2","48000","-16","task","5215946","even","NA","25892","33363","27900","161113","3175","18880","12786","161620","130798","161107","161621","161018","33363","162282","24326","160518","3168","125842","Lexical Decision Task","62","44777","70","yes","1024"
"2.746890964","9.67","3","plug","word","88.7323943662","88.7323943662","638.366197183","638.366197183","black","no","legacy","legacy","legacy","0","uniform","1","undefined","undefined","undefined","1","j","0","0","0","0","70","0","0","0","70","0","66","70","66","0","66","3","70","0","70","Thu Feb 18 11:51:37 2021","The main experiment item","yes","Lexical_Decision_Task.osexp","/Users/darcycostelloe273","no","Andale Mono","no","18","no","white","no","yes","576","legacy","66","66","3","/Users/darcycostelloe273/subject-5215946.csv","legacy","Kafkaesque Koffka","3.2.8","yes","yes","600bd7cfb6416f0113b04181","602110864497cf011d9c0822","0","j","NA","space","space","space","space","j","547","NA","5461","9598","6092","5075","547","2","legacy","1024","2","48000","-16","task","5215946","even","NA","25892","33363","27900","162893","3175","18880","12786","163400","130798","162886","163401","162794","33363","163950","24326","162294","3168","125842","Lexical Decision Task","63","45324","71","yes","1024"
"3.261341392","5.08","8","reek","word","88.8888888889","88.8888888889","643.541666667","643.541666667","black","no","legacy","legacy","legacy","0","uniform","1","undefined","undefined","undefined","1","j","0","0","0","0","71","0","0","0","71","0","67","71","67","0","67","3","71","0","71","Thu Feb 18 11:51:37 2021","The main experiment item","yes","Lexical_Decision_Task.osexp","/Users/darcycostelloe273","no","Andale Mono","no","18","no","white","no","yes","576","legacy","67","67","3","/Users/darcycostelloe273/subject-5215946.csv","legacy","Kafkaesque Koffka","3.2.8","yes","yes","600bd7cfb6416f0113b04181","602110864497cf011d9c0822","0","j","NA","space","space","space","space","j","1011","NA","5461","9598","6092","5075","1011","2","legacy","1024","2","48000","-16","task","5215946","even","NA","25892","33363","27900","164560","3175","18880","12786","165067","130798","164553","165067","164461","33363","166080","24326","163960","3168","125842","Lexical Decision Task","64","46335","72","yes","1024"
"2.842815106","7.86","8","lump","word","89.0410958904","89.0410958904","641.876712329","641.876712329","black","no","legacy","legacy","legacy","0","uniform","1","undefined","undefined","undefined","1","j","0","0","0","0","72","0","0","0","72","0","68","72","68","0","68","3","72","0","72","Thu Feb 18 11:51:37 2021","The main experiment item","yes","Lexical_Decision_Task.osexp","/Users/darcycostelloe273","no","Andale Mono","no","18","no","white","no","yes","576","legacy","68","68","3","/Users/darcycostelloe273/subject-5215946.csv","legacy","Kafkaesque Koffka","3.2.8","yes","yes","600bd7cfb6416f0113b04181","602110864497cf011d9c0822","0","j","NA","space","space","space","space","j","522","NA","5461","9598","6092","5075","522","2","legacy","1024","2","48000","-16","task","5215946","even","NA","25892","33363","27900","166687","3175","18880","12786","167198","130798","166681","167198","166594","33363","167722","24326","166094","3168","125842","Lexical Decision Task","65","46857","73","yes","1024"
"2.981215883","10.66","5","hair","word","89.1891891892","89.1891891892","639.824324324","639.824324324","black","no","legacy","legacy","legacy","0","uniform","1","undefined","undefined","undefined","1","j","0","0","0","0","73","0","0","0","73","0","69","73","69","0","69","3","73","0","73","Thu Feb 18 11:51:37 2021","The main experiment item","yes","Lexical_Decision_Task.osexp","/Users/darcycostelloe273","no","Andale Mono","no","18","no","white","no","yes","576","legacy","69","69","3","/Users/darcycostelloe273/subject-5215946.csv","legacy","Kafkaesque Koffka","3.2.8","yes","yes","600bd7cfb6416f0113b04181","602110864497cf011d9c0822","0","j","NA","space","space","space","space","j","490","NA","5461","9598","6092","5075","490","2","legacy","1024","2","48000","-16","task","5215946","even","NA","25892","33363","27900","168329","3175","18880","12786","168837","130798","168322","168837","168235","33363","169329","24326","167735","3168","125842","Lexical Decision Task","66","47347","74","yes","1024"
"3.248054965","7.86","5","glow","word","89.3333333333","89.3333333333","638.106666667","638.106666667","black","no","legacy","legacy","legacy","0","uniform","1","undefined","undefined","undefined","1","j","0","0","0","0","74","0","0","0","74","0","70","74","70","0","70","3","74","0","74","Thu Feb 18 11:51:37 2021","The main experiment item","yes","Lexical_Decision_Task.osexp","/Users/darcycostelloe273","no","Andale Mono","no","18","no","white","no","yes","576","legacy","70","70","3","/Users/darcycostelloe273/subject-5215946.csv","legacy","Kafkaesque Koffka","3.2.8","yes","yes","600bd7cfb6416f0113b04181","602110864497cf011d9c0822","0","j","NA","space","space","space","space","j","511","NA","5461","9598","6092","5075","511","2","legacy","1024","2","48000","-16","task","5215946","even","NA","25892","33363","27900","169933","3175","18880","12786","170440","130798","169926","170440","169840","33363","170953","24326","169340","3168","125842","Lexical Decision Task","67","47858","75","yes","1024"
"3.366547468","0","6","plat","non-word","89.4736842105","89.4736842105","638.828947368","638.828947368","black","no","legacy","legacy","legacy","0","uniform","1","undefined","undefined","undefined","1","f","0","0","0","0","75","0","0","0","75","0","71","75","71","0","71","3","75","0","75","Thu Feb 18 11:51:37 2021","The main experiment item","yes","Lexical_Decision_Task.osexp","/Users/darcycostelloe273","no","Andale Mono","no","18","no","white","no","yes","576","legacy","71","71","3","/Users/darcycostelloe273/subject-5215946.csv","legacy","Kafkaesque Koffka","3.2.8","yes","yes","600bd7cfb6416f0113b04181","602110864497cf011d9c0822","0","f","NA","space","space","space","space","f","693","NA","5461","9598","6092","5075","693","2","legacy","1024","2","48000","-16","task","5215946","even","NA","25892","33363","27900","171564","3175","18880","12786","172071","130798","171557","172071","171463","33363","172766","24326","170963","3168","125842","Lexical Decision Task","68","48551","76","yes","1024"
"2.809559715","8.44","4","volt","word","89.6103896104","89.6103896104","640.753246753","640.753246753","black","no","legacy","legacy","legacy","0","uniform","1","undefined","undefined","undefined","1","j","0","0","0","0","76","0","0","0","76","0","72","76","72","0","72","3","76","0","76","Thu Feb 18 11:51:37 2021","The main experiment item","yes","Lexical_Decision_Task.osexp","/Users/darcycostelloe273","no","Andale Mono","no","18","no","white","no","yes","576","legacy","72","72","3","/Users/darcycostelloe273/subject-5215946.csv","legacy","Kafkaesque Koffka","3.2.8","yes","yes","600bd7cfb6416f0113b04181","602110864497cf011d9c0822","0","j","NA","space","space","space","space","j","787","NA","5461","9598","6092","5075","787","2","legacy","1024","2","48000","-16","task","5215946","even","NA","25892","33363","27900","173375","3175","18880","12786","173883","130798","173368","173883","173280","33363","174671","24326","172780","3168","125842","Lexical Decision Task","69","49338","77","yes","1024"
"2.744553742","0","2","nawk","non-word","89.7435897436","89.7435897436","640.384615385","640.384615385","black","no","legacy","legacy","legacy","0","uniform","1","undefined","undefined","undefined","1","f","0","0","0","0","77","0","0","0","77","0","73","77","73","0","73","3","77","0","77","Thu Feb 18 11:51:37 2021","The main experiment item","yes","Lexical_Decision_Task.osexp","/Users/darcycostelloe273","no","Andale Mono","no","18","no","white","no","yes","576","legacy","73","73","3","/Users/darcycostelloe273/subject-5215946.csv","legacy","Kafkaesque Koffka","3.2.8","yes","yes","600bd7cfb6416f0113b04181","602110864497cf011d9c0822","0","f","NA","space","space","space","space","f","612","NA","5461","9598","6092","5075","612","2","legacy","1024","2","48000","-16","task","5215946","even","NA","25892","33363","27900","175278","3175","18880","12786","175789","130798","175272","175789","175182","33363","176403","24326","174682","3168","125842","Lexical Decision Task","70","49950","78","yes","1024"
"3.460446784","0","5","dess","non-word","89.8734177215","89.8734177215","641.17721519","641.17721519","black","no","legacy","legacy","legacy","0","uniform","1","undefined","undefined","undefined","1","f","0","0","0","0","78","0","0","0","78","0","74","78","74","0","74","3","78","0","78","Thu Feb 18 11:51:37 2021","The main experiment item","yes","Lexical_Decision_Task.osexp","/Users/darcycostelloe273","no","Andale Mono","no","18","no","white","no","yes","576","legacy","74","74","3","/Users/darcycostelloe273/subject-5215946.csv","legacy","Kafkaesque Koffka","3.2.8","yes","yes","600bd7cfb6416f0113b04181","602110864497cf011d9c0822","0","f","NA","space","space","space","space","f","703","NA","5461","9598","6092","5075","703","2","legacy","1024","2","48000","-16","task","5215946","even","NA","25892","33363","27900","177010","3175","18880","12786","177519","130798","177004","177519","176914","33363","178224","24326","176414","3168","125842","Lexical Decision Task","71","50653","79","yes","1024"
"2.799799878","0","4","ciff","non-word","90","90","640.1625","640.1625","black","no","legacy","legacy","legacy","0","uniform","1","undefined","undefined","undefined","1","f","0","0","0","0","79","0","0","0","79","0","75","79","75","0","75","3","79","0","79","Thu Feb 18 11:51:37 2021","The main experiment item","yes","Lexical_Decision_Task.osexp","/Users/darcycostelloe273","no","Andale Mono","no","18","no","white","no","yes","576","legacy","75","75","3","/Users/darcycostelloe273/subject-5215946.csv","legacy","Kafkaesque Koffka","3.2.8","yes","yes","600bd7cfb6416f0113b04181","602110864497cf011d9c0822","0","f","NA","space","space","space","space","f","560","NA","5461","9598","6092","5075","560","2","legacy","1024","2","48000","-16","task","5215946","even","NA","25892","33363","27900","178834","3175","18880","12786","179342","130798","178827","179342","178735","33363","179904","24326","178235","3168","125842","Lexical Decision Task","72","51213","80","yes","1024"
"2.843025032","0","9","pusk","non-word","90.1234567901","90.1234567901","642.691358025","642.691358025","black","no","legacy","legacy","legacy","0","uniform","1","undefined","undefined","undefined","1","f","0","0","0","0","80","0","0","0","80","0","76","80","76","0","76","3","80","0","80","Thu Feb 18 11:51:37 2021","The main experiment item","yes","Lexical_Decision_Task.osexp","/Users/darcycostelloe273","no","Andale Mono","no","18","no","white","no","yes","576","legacy","76","76","3","/Users/darcycostelloe273/subject-5215946.csv","legacy","Kafkaesque Koffka","3.2.8","yes","yes","600bd7cfb6416f0113b04181","602110864497cf011d9c0822","0","f","NA","space","space","space","space","f","845","NA","5461","9598","6092","5075","845","2","legacy","1024","2","48000","-16","task","5215946","even","NA","25892","33363","27900","180511","3175","18880","12786","181019","130798","180503","181019","180416","33363","181866","24326","179915","3168","125842","Lexical Decision Task","73","52058","81","yes","1024"
"2.880623071","0","9","curp","non-word","90.243902439","90.243902439","643.109756098","643.109756098","black","no","legacy","legacy","legacy","0","uniform","1","undefined","undefined","undefined","1","f","0","0","0","0","81","0","0","0","81","0","77","81","77","0","77","3","81","0","81","Thu Feb 18 11:51:37 2021","The main experiment item","yes","Lexical_Decision_Task.osexp","/Users/darcycostelloe273","no","Andale Mono","no","18","no","white","no","yes","576","legacy","77","77","3","/Users/darcycostelloe273/subject-5215946.csv","legacy","Kafkaesque Koffka","3.2.8","yes","yes","600bd7cfb6416f0113b04181","602110864497cf011d9c0822","0","f","NA","space","space","space","space","f","677","NA","5461","9598","6092","5075","677","2","legacy","1024","2","48000","-16","task","5215946","even","NA","25892","33363","27900","182475","3175","18880","12786","182984","130798","182469","182984","182376","33363","183663","24326","181875","3168","125842","Lexical Decision Task","74","52735","82","yes","1024"
"3.140404328","10.66","9","deep","word","90.3614457831","90.3614457831","642.879518072","642.879518072","black","no","legacy","legacy","legacy","0","uniform","1","undefined","undefined","undefined","1","j","0","0","0","0","82","0","0","0","82","0","78","82","78","0","78","3","82","0","82","Thu Feb 18 11:51:37 2021","The main experiment item","yes","Lexical_Decision_Task.osexp","/Users/darcycostelloe273","no","Andale Mono","no","18","no","white","no","yes","576","legacy","78","78","3","/Users/darcycostelloe273/subject-5215946.csv","legacy","Kafkaesque Koffka","3.2.8","yes","yes","600bd7cfb6416f0113b04181","602110864497cf011d9c0822","0","j","NA","space","space","space","space","j","624","NA","5461","9598","6092","5075","624","2","legacy","1024","2","48000","-16","task","5215946","even","NA","25892","33363","27900","184271","3175","18880","12786","184782","130798","184265","184782","184174","33363","185408","24326","183674","3168","125842","Lexical Decision Task","75","53359","83","yes","1024"
"2.705007959","6.01","4","wept","word","90.4761904762","90.4761904762","641.94047619","641.94047619","black","no","legacy","legacy","legacy","0","uniform","1","undefined","undefined","undefined","1","j","0","0","0","0","83","0","0","0","83","0","79","83","79","0","79","3","83","0","83","Thu Feb 18 11:51:37 2021","The main experiment item","yes","Lexical_Decision_Task.osexp","/Users/darcycostelloe273","no","Andale Mono","no","18","no","white","no","yes","576","legacy","79","79","3","/Users/darcycostelloe273/subject-5215946.csv","legacy","Kafkaesque Koffka","3.2.8","yes","yes","600bd7cfb6416f0113b04181","602110864497cf011d9c0822","0","j","NA","space","space","space","space","j","564","NA","5461","9598","6092","5075","564","2","legacy","1024","2","48000","-16","task","5215946","even","NA","25892","33363","27900","186030","3175","18880","12786","186541","130798","186024","186542","185919","33363","187108","24326","185419","3168","125842","Lexical Decision Task","76","53923","84","yes","1024"
"3.003891166","8.05","2","frog","word","90.5882352941","90.5882352941","640.729411765","640.729411765","black","no","legacy","legacy","legacy","0","uniform","1","undefined","undefined","undefined","1","j","0","0","0","0","84","0","0","0","84","0","80","84","80","0","80","3","84","0","84","Thu Feb 18 11:51:37 2021","The main experiment item","yes","Lexical_Decision_Task.osexp","/Users/darcycostelloe273","no","Andale Mono","no","18","no","white","no","yes","576","legacy","80","80","3","/Users/darcycostelloe273/subject-5215946.csv","legacy","Kafkaesque Koffka","3.2.8","yes","yes","600bd7cfb6416f0113b04181","602110864497cf011d9c0822","0","j","NA","space","space","space","space","j","539","NA","5461","9598","6092","5075","539","2","legacy","1024","2","48000","-16","task","5215946","even","NA","25892","33363","27900","187710","3175","18880","12786","188217","130798","187703","188218","187618","33363","188759","24326","187118","3168","125842","Lexical Decision Task","77","54462","85","yes","1024"
"2.845304797","0","6","buct","non-word","90.6976744186","90.6976744186","641.023255814","641.023255814","black","no","legacy","legacy","legacy","0","uniform","1","undefined","undefined","undefined","1","f","0","0","0","0","85","0","0","0","85","0","81","85","81","0","81","3","85","0","85","Thu Feb 18 11:51:37 2021","The main experiment item","yes","Lexical_Decision_Task.osexp","/Users/darcycostelloe273","no","Andale Mono","no","18","no","white","no","yes","576","legacy","81","81","3","/Users/darcycostelloe273/subject-5215946.csv","legacy","Kafkaesque Koffka","3.2.8","yes","yes","600bd7cfb6416f0113b04181","602110864497cf011d9c0822","0","f","NA","space","space","space","space","f","666","NA","5461","9598","6092","5075","666","2","legacy","1024","2","48000","-16","task","5215946","even","NA","25892","33363","27900","189370","3175","18880","12786","189877","130798","189362","189877","189270","33363","190545","24326","188770","3168","125842","Lexical Decision Task","78","55128","86","yes","1024"
"3.274157849","0","8","leet","non-word","90.8045977011","90.8045977011","642.75862069","642.75862069","black","no","legacy","legacy","legacy","0","uniform","1","undefined","undefined","undefined","1","f","0","0","0","0","86","0","0","0","86","0","82","86","82","0","82","3","86","0","86","Thu Feb 18 11:51:37 2021","The main experiment item","yes","Lexical_Decision_Task.osexp","/Users/darcycostelloe273","no","Andale Mono","no","18","no","white","no","yes","576","legacy","82","82","3","/Users/darcycostelloe273/subject-5215946.csv","legacy","Kafkaesque Koffka","3.2.8","yes","yes","600bd7cfb6416f0113b04181","602110864497cf011d9c0822","0","f","NA","space","space","space","space","f","792","NA","5461","9598","6092","5075","792","2","legacy","1024","2","48000","-16","task","5215946","even","NA","25892","33363","27900","191151","3175","18880","12786","191659","130798","191143","191659","191057","33363","192453","24326","190557","3168","125842","Lexical Decision Task","79","55920","87","yes","1024"
"2.839898939","8.99","6","soap","word","90.9090909091","90.9090909091","641.022727273","641.022727273","black","no","legacy","legacy","legacy","0","uniform","1","undefined","undefined","undefined","1","j","0","0","0","0","87","0","0","0","87","0","83","87","83","0","83","3","87","0","87","Thu Feb 18 11:51:37 2021","The main experiment item","yes","Lexical_Decision_Task.osexp","/Users/darcycostelloe273","no","Andale Mono","no","18","no","white","no","yes","576","legacy","83","83","3","/Users/darcycostelloe273/subject-5215946.csv","legacy","Kafkaesque Koffka","3.2.8","yes","yes","600bd7cfb6416f0113b04181","602110864497cf011d9c0822","0","j","NA","space","space","space","space","j","490","NA","5461","9598","6092","5075","490","2","legacy","1024","2","48000","-16","task","5215946","even","NA","25892","33363","27900","193067","3175","18880","12786","193575","130798","193061","193575","192966","33363","194068","24326","192465","3168","125842","Lexical Decision Task","80","56410","88","yes","1024"
"3.197740804","6.74","3","ache","word","91.0112359551","91.0112359551","640.247191011","640.247191011","black","no","legacy","legacy","legacy","0","uniform","1","undefined","undefined","undefined","1","j","0","0","0","0","88","0","0","0","88","0","84","88","84","0","84","3","88","0","88","Thu Feb 18 11:51:37 2021","The main experiment item","yes","Lexical_Decision_Task.osexp","/Users/darcycostelloe273","no","Andale Mono","no","18","no","white","no","yes","576","legacy","84","84","3","/Users/darcycostelloe273/subject-5215946.csv","legacy","Kafkaesque Koffka","3.2.8","yes","yes","600bd7cfb6416f0113b04181","602110864497cf011d9c0822","0","j","NA","space","space","space","space","j","572","NA","5461","9598","6092","5075","572","2","legacy","1024","2","48000","-16","task","5215946","even","NA","25892","33363","27900","194681","3175","18880","12786","195190","130798","194674","195191","194580","33363","195765","24326","194079","3168","125842","Lexical Decision Task","81","56982","89","yes","1024"
"2.696356389","0","1","pizz","non-word","91.1111111111","91.1111111111","640.555555556","640.555555556","black","no","legacy","legacy","legacy","0","uniform","1","undefined","undefined","undefined","1","f","0","0","0","0","89","0","0","0","89","0","85","89","85","0","85","3","89","0","89","Thu Feb 18 11:51:37 2021","The main experiment item","yes","Lexical_Decision_Task.osexp","/Users/darcycostelloe273","no","Andale Mono","no","18","no","white","no","yes","576","legacy","85","85","3","/Users/darcycostelloe273/subject-5215946.csv","legacy","Kafkaesque Koffka","3.2.8","yes","yes","600bd7cfb6416f0113b04181","602110864497cf011d9c0822","0","f","NA","space","space","space","space","f","668","NA","5461","9598","6092","5075","668","2","legacy","1024","2","48000","-16","task","5215946","even","NA","25892","33363","27900","196375","3175","18880","12786","196883","130798","196367","196883","196276","33363","197553","24326","195776","3168","125842","Lexical Decision Task","82","57650","90","yes","1024"
"2.899638141","0","3","hapt","non-word","91.2087912088","91.2087912088","639.67032967","639.67032967","black","no","legacy","legacy","legacy","0","uniform","1","undefined","undefined","undefined","1","f","0","0","0","0","90","0","0","0","90","0","86","90","86","0","86","3","90","0","90","Thu Feb 18 11:51:37 2021","The main experiment item","yes","Lexical_Decision_Task.osexp","/Users/darcycostelloe273","no","Andale Mono","no","18","no","white","no","yes","576","legacy","86","86","3","/Users/darcycostelloe273/subject-5215946.csv","legacy","Kafkaesque Koffka","3.2.8","yes","yes","600bd7cfb6416f0113b04181","602110864497cf011d9c0822","0","f","NA","space","space","space","space","f","560","NA","5461","9598","6092","5075","560","2","legacy","1024","2","48000","-16","task","5215946","even","NA","25892","33363","27900","198162","3175","18880","12786","198671","130798","198154","198671","198064","33363","199233","24326","197563","3168","125842","Lexical Decision Task","83","58210","91","yes","1024"
"3.303771854","0","9","dath","non-word","91.3043478261","91.3043478261","641.141304348","641.141304348","black","no","legacy","legacy","legacy","0","uniform","1","undefined","undefined","undefined","1","f","0","0","0","0","91","0","0","0","91","0","87","91","87","0","87","3","91","0","91","Thu Feb 18 11:51:37 2021","The main experiment item","yes","Lexical_Decision_Task.osexp","/Users/darcycostelloe273","no","Andale Mono","no","18","no","white","no","yes","576","legacy","87","87","3","/Users/darcycostelloe273/subject-5215946.csv","legacy","Kafkaesque Koffka","3.2.8","yes","yes","600bd7cfb6416f0113b04181","602110864497cf011d9c0822","0","f","NA","space","space","space","space","f","775","NA","5461","9598","6092","5075","775","2","legacy","1024","2","48000","-16","task","5215946","even","NA","25892","33363","27900","199843","3175","18880","12786","200354","130798","199835","200355","199745","33363","201132","24326","199245","3168","125842","Lexical Decision Task","84","58985","92","yes","1024"
"3.088136089","8.32","9","worm","word","91.3978494624","91.3978494624","639.88172043","639.88172043","black","no","legacy","legacy","legacy","0","uniform","1","undefined","undefined","undefined","1","j","0","0","0","0","92","0","0","0","92","0","88","92","88","0","88","3","92","0","92","Thu Feb 18 11:51:37 2021","The main experiment item","yes","Lexical_Decision_Task.osexp","/Users/darcycostelloe273","no","Andale Mono","no","18","no","white","no","yes","576","legacy","88","88","3","/Users/darcycostelloe273/subject-5215946.csv","legacy","Kafkaesque Koffka","3.2.8","yes","yes","600bd7cfb6416f0113b04181","602110864497cf011d9c0822","0","j","NA","space","space","space","space","j","524","NA","5461","9598","6092","5075","524","2","legacy","1024","2","48000","-16","task","5215946","even","NA","25892","33363","27900","201743","3175","18880","12786","202252","130798","201735","202252","201644","33363","202778","24326","201143","3168","125842","Lexical Decision Task","85","59509","93","yes","1024"
"2.668385917","5.48","4","twig","word","91.4893617021","91.4893617021","638.925531915","638.925531915","black","no","legacy","legacy","legacy","0","uniform","1","undefined","undefined","undefined","1","j","0","0","0","0","93","0","0","0","93","0","89","93","89","0","89","3","93","0","93","Thu Feb 18 11:51:37 2021","The main experiment item","yes","Lexical_Decision_Task.osexp","/Users/darcycostelloe273","no","Andale Mono","no","18","no","white","no","yes","576","legacy","89","89","3","/Users/darcycostelloe273/subject-5215946.csv","legacy","Kafkaesque Koffka","3.2.8","yes","yes","600bd7cfb6416f0113b04181","602110864497cf011d9c0822","0","j","NA","space","space","space","space","j","550","NA","5461","9598","6092","5075","550","2","legacy","1024","2","48000","-16","task","5215946","even","NA","25892","33363","27900","203384","3175","18880","12786","203895","130798","203377","203895","203289","33363","204448","24326","202789","3168","125842","Lexical Decision Task","86","60059","94","yes","1024"
"3.077974404","10.41","8","tool","word","91.5789473684","91.5789473684","638.305263158","638.305263158","black","no","legacy","legacy","legacy","0","uniform","1","undefined","undefined","undefined","1","j","0","0","0","0","94","0","0","0","94","0","90","94","90","0","90","3","94","0","94","Thu Feb 18 11:51:37 2021","The main experiment item","yes","Lexical_Decision_Task.osexp","/Users/darcycostelloe273","no","Andale Mono","no","18","no","white","no","yes","576","legacy","90","90","3","/Users/darcycostelloe273/subject-5215946.csv","legacy","Kafkaesque Koffka","3.2.8","yes","yes","600bd7cfb6416f0113b04181","602110864497cf011d9c0822","0","j","NA","space","space","space","space","j","580","NA","5461","9598","6092","5075","580","2","legacy","1024","2","48000","-16","task","5215946","even","NA","25892","33363","27900","205054","3175","18880","12786","205565","130798","205047","205565","204960","33363","206147","24326","204460","3168","125842","Lexical Decision Task","87","60639","95","yes","1024"
"2.68604012","0","4","pumb","non-word","91.6666666667","91.6666666667","641.333333333","641.333333333","black","no","legacy","legacy","legacy","0","uniform","1","undefined","undefined","undefined","1","f","0","0","0","0","95","0","0","0","95","0","91","95","91","0","91","3","95","0","95","Thu Feb 18 11:51:37 2021","The main experiment item","yes","Lexical_Decision_Task.osexp","/Users/darcycostelloe273","no","Andale Mono","no","18","no","white","no","yes","576","legacy","91","91","3","/Users/darcycostelloe273/subject-5215946.csv","legacy","Kafkaesque Koffka","3.2.8","yes","yes","600bd7cfb6416f0113b04181","602110864497cf011d9c0822","0","f","NA","space","space","space","space","f","929","NA","5461","9598","6092","5075","929","2","legacy","1024","2","48000","-16","task","5215946","even","NA","25892","33363","27900","206755","3175","18880","12786","207266","130798","206749","207266","206658","33363","208197","24326","206158","3168","125842","Lexical Decision Task","88","61568","96","yes","1024"
"3.1430148","7.92","8","bald","word","91.7525773196","91.7525773196","642.639175258","642.639175258","black","no","legacy","legacy","legacy","0","uniform","1","undefined","undefined","undefined","1","j","0","0","0","0","96","0","0","0","96","0","92","96","92","0","92","3","96","0","96","Thu Feb 18 11:51:37 2021","The main experiment item","yes","Lexical_Decision_Task.osexp","/Users/darcycostelloe273","no","Andale Mono","no","18","no","white","no","yes","576","legacy","92","92","3","/Users/darcycostelloe273/subject-5215946.csv","legacy","Kafkaesque Koffka","3.2.8","yes","yes","600bd7cfb6416f0113b04181","602110864497cf011d9c0822","0","j","NA","space","space","space","space","j","768","NA","5461","9598","6092","5075","768","2","legacy","1024","2","48000","-16","task","5215946","even","NA","25892","33363","27900","208802","3175","18880","12786","209312","130798","208795","209312","208708","33363","210082","24326","208208","3168","125842","Lexical Decision Task","89","62336","97","yes","1024"
"3.195807436","0","6","stup","non-word","91.8367346939","91.8367346939","643.43877551","643.43877551","black","no","legacy","legacy","legacy","0","uniform","1","undefined","undefined","undefined","1","f","0","0","0","0","97","0","0","0","97","0","93","97","93","0","93","3","97","0","97","Thu Feb 18 11:51:37 2021","The main experiment item","yes","Lexical_Decision_Task.osexp","/Users/darcycostelloe273","no","Andale Mono","no","18","no","white","no","yes","576","legacy","93","93","3","/Users/darcycostelloe273/subject-5215946.csv","legacy","Kafkaesque Koffka","3.2.8","yes","yes","600bd7cfb6416f0113b04181","602110864497cf011d9c0822","0","f","NA","space","space","space","space","f","721","NA","5461","9598","6092","5075","721","2","legacy","1024","2","48000","-16","task","5215946","even","NA","25892","33363","27900","210687","3175","18880","12786","211195","130798","210679","211195","210593","33363","211919","24326","210093","3168","125842","Lexical Decision Task","90","63057","98","yes","1024"
"3.208172527","10.27","7","deck","word","91.9191919192","91.9191919192","643.050505051","643.050505051","black","no","legacy","legacy","legacy","0","uniform","1","undefined","undefined","undefined","1","j","0","0","0","0","98","0","0","0","98","0","94","98","94","0","94","3","98","0","98","Thu Feb 18 11:51:37 2021","The main experiment item","yes","Lexical_Decision_Task.osexp","/Users/darcycostelloe273","no","Andale Mono","no","18","no","white","no","yes","576","legacy","94","94","3","/Users/darcycostelloe273/subject-5215946.csv","legacy","Kafkaesque Koffka","3.2.8","yes","yes","600bd7cfb6416f0113b04181","602110864497cf011d9c0822","0","j","NA","space","space","space","space","j","605","NA","5461","9598","6092","5075","605","2","legacy","1024","2","48000","-16","task","5215946","even","NA","25892","33363","27900","212529","3175","18880","12786","213036","130798","212523","213037","212429","33363","213645","24326","211929","3168","125842","Lexical Decision Task","91","63662","99","yes","1024"
"2.6599162","0","2","saff","non-word","92","92","643.91","643.91","black","no","legacy","legacy","legacy","0","uniform","1","undefined","undefined","undefined","1","f","0","0","0","0","99","0","0","0","99","0","95","99","95","0","95","3","99","0","99","Thu Feb 18 11:51:37 2021","The main experiment item","yes","Lexical_Decision_Task.osexp","/Users/darcycostelloe273","no","Andale Mono","no","18","no","white","no","yes","576","legacy","95","95","3","/Users/darcycostelloe273/subject-5215946.csv","legacy","Kafkaesque Koffka","3.2.8","yes","yes","600bd7cfb6416f0113b04181","602110864497cf011d9c0822","0","f","NA","space","space","space","space","f","729","NA","5461","9598","6092","5075","729","2","legacy","1024","2","48000","-16","task","5215946","even","NA","25892","33363","27900","214254","3175","18880","12786","214764","130798","214247","214765","214155","33363","215497","24326","213655","3168","125842","Lexical Decision Task","92","64391","100","yes","1024"
"3.274543461","7.46","7","scar","word","92.0792079208","92.0792079208","643.118811881","643.118811881","black","no","legacy","legacy","legacy","0","uniform","1","undefined","undefined","undefined","1","j","0","0","0","0","100","0","0","0","100","0","96","100","96","0","96","3","100","0","100","Thu Feb 18 11:51:37 2021","The main experiment item","yes","Lexical_Decision_Task.osexp","/Users/darcycostelloe273","no","Andale Mono","no","18","no","white","no","yes","576","legacy","96","96","3","/Users/darcycostelloe273/subject-5215946.csv","legacy","Kafkaesque Koffka","3.2.8","yes","yes","600bd7cfb6416f0113b04181","602110864497cf011d9c0822","0","j","NA","space","space","space","space","j","564","NA","5461","9598","6092","5075","564","2","legacy","1024","2","48000","-16","task","5215946","even","NA","25892","33363","27900","216119","3175","18880","12786","216626","130798","216112","216627","216007","33363","217193","24326","215507","3168","125842","Lexical Decision Task","93","64955","101","yes","1024"
"2.664328519","0","4","plux","non-word","92.1568627451","92.1568627451","642.264705882","642.264705882","black","no","legacy","legacy","legacy","0","uniform","1","undefined","undefined","undefined","1","f","0","0","0","0","101","0","0","0","101","0","97","101","97","0","97","3","101","0","101","Thu Feb 18 11:51:37 2021","The main experiment item","yes","Lexical_Decision_Task.osexp","/Users/darcycostelloe273","no","Andale Mono","no","18","no","white","no","yes","576","legacy","97","97","3","/Users/darcycostelloe273/subject-5215946.csv","legacy","Kafkaesque Koffka","3.2.8","yes","yes","600bd7cfb6416f0113b04181","602110864497cf011d9c0822","0","f","NA","space","space","space","space","f","556","NA","5461","9598","6092","5075","556","2","legacy","1024","2","48000","-16","task","5215946","even","NA","25892","33363","27900","217794","3175","18880","12786","218303","130798","217787","218303","217703","33363","218861","24326","217203","3168","125842","Lexical Decision Task","94","65511","102","yes","1024"
