"Log_BG","Log_Freq_HAL","Ortho_N","Stimulus","Type","acc","accuracy","average_response_time","avg_rt","background","bidi","canvas_backend","clock_backend","color_backend","compensation","coordinates","correct","correct_Experimental_intro","correct_Introduction","correct_Practice_intro","correct_experimenter_kb","correct_response","count_End_Of_Experiment","count_End_Of_Practice","count_Experimental_Loop","count_Experimental_intro","count_Fixation","count_Introduction","count_Practice_Loop","count_Practice_intro","count_Stimulus","count_block_break_feedback","count_experimental_sequence","count_experimenter_kb","count_increment_trial_count","count_init_trial_count","count_logger","count_practice_sequence","count_right","count_task","count_wrong","datetime","description","disable_garbage_collection","experiment_file","experiment_path","font_bold","font_family","font_italic","font_size","font_underline","foreground","form_clicks","fullscreen","height","keyboard_backend","live_row","live_row_Experimental_Loop","live_row_Practice_Loop","logfile","mouse_backend","opensesame_codename","opensesame_version","osf_always_upload_data","osf_always_upload_experiment","osf_datanode_id","osf_id","repeat_cycle","response","response_End_Of_Experiment","response_Experimental_intro","response_Introduction","response_Practice_intro","response_block_break_feedback","response_experimenter_kb","response_time","response_time_End_Of_Experiment","response_time_Experimental_intro","response_time_Introduction","response_time_Practice_intro","response_time_block_break_feedback","response_time_experimenter_kb","round_decimals","sampler_backend","sound_buf_size","sound_channels","sound_freq","sound_sample_size","start","subject_nr","subject_parity","time_End_Of_Experiment","time_End_Of_Practice","time_Experimental_Loop","time_Experimental_intro","time_Fixation","time_Introduction","time_Practice_Loop","time_Practice_intro","time_Stimulus","time_block_break_feedback","time_experimental_sequence","time_experimenter_kb","time_increment_trial_count","time_init_trial_count","time_logger","time_practice_sequence","time_right","time_task","time_wrong","title","total_correct","total_response_time","total_responses","uniform_coordinates","width"
"3.094121596","0","8","fode","non-word","60","60","886.8","886.8","black","no","legacy","legacy","legacy","0","uniform","1","undefined","undefined","undefined","1","f","0","0","0","0","4","0","0","0","4","NA","0","4","0","0","0","3","4","0","4","Tue Feb 16 15:38:20 2021","The main experiment item","yes","Lexical_Decision_Task.osexp","C:/Users/richardkasa/Desktop/Open sesame","no","Andale Mono","no","18","no","white","no","yes","576","legacy","0","0","3","C:/Users/richardkasa/Desktop/Open sesame/subject-5214110.csv","legacy","Lentiform Loewenfeld","3.3.7","yes","yes","600bd7cfb6416f0113b04181","602110864497cf011d9c0822","0","f","NA","space","space","space","NA","f","836","NA","1078","2272","1575","NA","836","2","legacy","1024","2","48000","-16","task","5214110","even","NA","16546","19626","18547","19665","2857","6706","5131","20166","NA","19664","20166","NA","19626","21003","14849","16027","2853","11556","Lexical Decision Task","3","4434","5","yes","1024"
"3.495914186","0","4","peng","non-word","66.66666666666667","66.66666666666667","893.8333333333334","893.8333333333334","black","no","legacy","legacy","legacy","0","uniform","1","undefined","undefined","undefined","1","f","0","0","0","0","5","0","0","0","5","NA","1","5","1","0","1","3","5","0","5","Tue Feb 16 15:38:20 2021","The main experiment item","yes","Lexical_Decision_Task.osexp","C:/Users/richardkasa/Desktop/Open sesame","no","Andale Mono","no","18","no","white","no","yes","576","legacy","1","1","3","C:/Users/richardkasa/Desktop/Open sesame/subject-5214110.csv","legacy","Lentiform Loewenfeld","3.3.7","yes","yes","600bd7cfb6416f0113b04181","602110864497cf011d9c0822","0","f","NA","space","space","space","NA","f","929","NA","1078","2272","1575","NA","929","2","legacy","1024","2","48000","-16","task","5214110","even","NA","16546","19626","18547","21563","2857","6706","5131","22064","NA","21561","22064","21509","19626","22994","14849","21009","2853","11556","Lexical Decision Task","4","5363","6","yes","1024"
"3.22685757","9.99","7","roll","word","71.42857142857143","71.42857142857143","866.5714285714286","866.5714285714286","black","no","legacy","legacy","legacy","0","uniform","1","undefined","undefined","undefined","1","j","0","0","0","0","6","0","0","0","6","NA","2","6","2","0","2","3","6","0","6","Tue Feb 16 15:38:20 2021","The main experiment item","yes","Lexical_Decision_Task.osexp","C:/Users/richardkasa/Desktop/Open sesame","no","Andale Mono","no","18","no","white","no","yes","576","legacy","2","2","3","C:/Users/richardkasa/Desktop/Open sesame/subject-5214110.csv","legacy","Lentiform Loewenfeld","3.3.7","yes","yes","600bd7cfb6416f0113b04181","602110864497cf011d9c0822","0","j","NA","space","space","space","NA","j","703","NA","1078","2272","1575","NA","703","2","legacy","1024","2","48000","-16","task","5214110","even","NA","16546","19626","18547","23550","2857","6706","5131","24051","NA","23549","24051","23498","19626","24754","14849","22998","2853","11556","Lexical Decision Task","5","6066","7","yes","1024"
"3.531734309","0","6","lerd","non-word","75","75","860","860","black","no","legacy","legacy","legacy","0","uniform","1","undefined","undefined","undefined","1","f","0","0","0","0","7","0","0","0","7","NA","3","7","3","0","3","3","7","0","7","Tue Feb 16 15:38:20 2021","The main experiment item","yes","Lexical_Decision_Task.osexp","C:/Users/richardkasa/Desktop/Open sesame","no","Andale Mono","no","18","no","white","no","yes","576","legacy","3","3","3","C:/Users/richardkasa/Desktop/Open sesame/subject-5214110.csv","legacy","Lentiform Loewenfeld","3.3.7","yes","yes","600bd7cfb6416f0113b04181","602110864497cf011d9c0822","0","f","NA","space","space","space","NA","f","814","NA","1078","2272","1575","NA","814","2","legacy","1024","2","48000","-16","task","5214110","even","NA","16546","19626","18547","25311","2857","6706","5131","25812","NA","25309","25812","25257","19626","26626","14849","24757","2853","11556","Lexical Decision Task","6","6880","8","yes","1024"
"3.195807436","0","6","stup","non-word","77.77777777777777","77.77777777777777","865.5555555555555","865.5555555555555","black","no","legacy","legacy","legacy","0","uniform","1","undefined","undefined","undefined","1","f","0","0","0","0","8","0","0","0","8","NA","4","8","4","0","4","3","8","0","8","Tue Feb 16 15:38:20 2021","The main experiment item","yes","Lexical_Decision_Task.osexp","C:/Users/richardkasa/Desktop/Open sesame","no","Andale Mono","no","18","no","white","no","yes","576","legacy","4","4","3","C:/Users/richardkasa/Desktop/Open sesame/subject-5214110.csv","legacy","Lentiform Loewenfeld","3.3.7","yes","yes","600bd7cfb6416f0113b04181","602110864497cf011d9c0822","0","f","NA","space","space","space","NA","f","910","NA","1078","2272","1575","NA","910","2","legacy","1024","2","48000","-16","task","5214110","even","NA","16546","19626","18547","27183","2857","6706","5131","27684","NA","27182","27684","27129","19626","28594","14849","26629","2853","11556","Lexical Decision Task","7","7790","9","yes","1024"
"2.784379519","0","2","snaf","non-word","70","70","874","874","black","no","legacy","legacy","legacy","0","uniform","0","undefined","undefined","undefined","0","f","0","0","0","0","9","0","0","0","9","NA","5","9","5","0","5","3","9","0","9","Tue Feb 16 15:38:20 2021","The main experiment item","yes","Lexical_Decision_Task.osexp","C:/Users/richardkasa/Desktop/Open sesame","no","Andale Mono","no","18","no","white","no","yes","576","legacy","5","5","3","C:/Users/richardkasa/Desktop/Open sesame/subject-5214110.csv","legacy","Lentiform Loewenfeld","3.3.7","yes","yes","600bd7cfb6416f0113b04181","602110864497cf011d9c0822","0","j","NA","space","space","space","NA","j","950","NA","1078","2272","1575","NA","950","2","legacy","1024","2","48000","-16","task","5214110","even","NA","16546","19626","18547","29151","2857","6706","5131","29652","NA","29149","29652","29097","19626","30602","14849","28597","2853","11556","Lexical Decision Task","7","8740","10","yes","1024"
"2.799799878","0","4","ciff","non-word","63.63636363636363","63.63636363636363","869.8181818181819","869.8181818181819","black","no","legacy","legacy","legacy","0","uniform","0","undefined","undefined","undefined","0","f","0","0","0","0","10","0","0","0","10","NA","6","10","6","0","6","3","10","0","10","Tue Feb 16 15:38:20 2021","The main experiment item","yes","Lexical_Decision_Task.osexp","C:/Users/richardkasa/Desktop/Open sesame","no","Andale Mono","no","18","no","white","no","yes","576","legacy","6","6","3","C:/Users/richardkasa/Desktop/Open sesame/subject-5214110.csv","legacy","Lentiform Loewenfeld","3.3.7","yes","yes","600bd7cfb6416f0113b04181","602110864497cf011d9c0822","0","j","NA","space","space","space","NA","j","828","NA","1078","2272","1575","NA","828","2","legacy","1024","2","48000","-16","task","5214110","even","NA","16546","19626","18547","32161","2857","6706","5131","32662","NA","32159","32662","32106","19626","33491","14849","28597","2853","30606","Lexical Decision Task","7","9568","11","yes","1024"
"2.708989954","9.28","9","bowl","word","66.66666666666667","66.66666666666667","911.1666666666666","911.1666666666666","black","no","legacy","legacy","legacy","0","uniform","1","undefined","undefined","undefined","1","j","0","0","0","0","11","0","0","0","11","NA","7","11","7","0","7","3","11","0","11","Tue Feb 16 15:38:20 2021","The main experiment item","yes","Lexical_Decision_Task.osexp","C:/Users/richardkasa/Desktop/Open sesame","no","Andale Mono","no","18","no","white","no","yes","576","legacy","7","7","3","C:/Users/richardkasa/Desktop/Open sesame/subject-5214110.csv","legacy","Lentiform Loewenfeld","3.3.7","yes","yes","600bd7cfb6416f0113b04181","602110864497cf011d9c0822","0","j","NA","space","space","space","NA","j","1366","NA","1078","2272","1575","NA","1366","2","legacy","1024","2","48000","-16","task","5214110","even","NA","16546","19626","18547","35047","2857","6706","5131","35548","NA","35046","35548","34994","19626","36915","14849","28597","2853","33494","Lexical Decision Task","8","10934","12","yes","1024"
"3.156347201","0","8","lasp","non-word","69.23076923076923","69.23076923076923","941.9230769230769","941.9230769230769","black","no","legacy","legacy","legacy","0","uniform","1","undefined","undefined","undefined","1","f","0","0","0","0","12","0","0","0","12","NA","8","12","8","0","8","3","12","0","12","Tue Feb 16 15:38:20 2021","The main experiment item","yes","Lexical_Decision_Task.osexp","C:/Users/richardkasa/Desktop/Open sesame","no","Andale Mono","no","18","no","white","no","yes","576","legacy","8","8","3","C:/Users/richardkasa/Desktop/Open sesame/subject-5214110.csv","legacy","Lentiform Loewenfeld","3.3.7","yes","yes","600bd7cfb6416f0113b04181","602110864497cf011d9c0822","0","f","NA","space","space","space","NA","f","1311","NA","1078","2272","1575","NA","1311","2","legacy","1024","2","48000","-16","task","5214110","even","NA","16546","19626","18547","37469","2857","6706","5131","37971","NA","37468","37971","37418","19626","39282","14849","36918","2853","33494","Lexical Decision Task","9","12245","13","yes","1024"
"3.488597715","0","9","nain","non-word","71.42857142857143","71.42857142857143","940.7142857142857","940.7142857142857","black","no","legacy","legacy","legacy","0","uniform","1","undefined","undefined","undefined","1","f","0","0","0","0","13","0","0","0","13","NA","9","13","9","0","9","3","13","0","13","Tue Feb 16 15:38:20 2021","The main experiment item","yes","Lexical_Decision_Task.osexp","C:/Users/richardkasa/Desktop/Open sesame","no","Andale Mono","no","18","no","white","no","yes","576","legacy","9","9","3","C:/Users/richardkasa/Desktop/Open sesame/subject-5214110.csv","legacy","Lentiform Loewenfeld","3.3.7","yes","yes","600bd7cfb6416f0113b04181","602110864497cf011d9c0822","0","f","NA","space","space","space","NA","f","925","NA","1078","2272","1575","NA","925","2","legacy","1024","2","48000","-16","task","5214110","even","NA","16546","19626","18547","39839","2857","6706","5131","40340","NA","39838","40340","39786","19626","41266","14849","39286","2853","33494","Lexical Decision Task","10","13170","14","yes","1024"
"2.996511672","0","7","hoil","non-word","73.33333333333333","73.33333333333333","951.0666666666667","951.0666666666667","black","no","legacy","legacy","legacy","0","uniform","1","undefined","undefined","undefined","1","f","0","0","0","0","14","0","0","0","14","NA","10","14","10","0","10","3","14","0","14","Tue Feb 16 15:38:20 2021","The main experiment item","yes","Lexical_Decision_Task.osexp","C:/Users/richardkasa/Desktop/Open sesame","no","Andale Mono","no","18","no","white","no","yes","576","legacy","10","10","3","C:/Users/richardkasa/Desktop/Open sesame/subject-5214110.csv","legacy","Lentiform Loewenfeld","3.3.7","yes","yes","600bd7cfb6416f0113b04181","602110864497cf011d9c0822","0","f","NA","space","space","space","NA","f","1096","NA","1078","2272","1575","NA","1096","2","legacy","1024","2","48000","-16","task","5214110","even","NA","16546","19626","18547","41821","2857","6706","5131","42322","NA","41820","42322","41769","19626","43419","14849","41269","2853","33494","Lexical Decision Task","11","14266","15","yes","1024"
"2.868644438","10.52","4","town","word","75","75","932.0625","932.0625","black","no","legacy","legacy","legacy","0","uniform","1","undefined","undefined","undefined","1","j","0","0","0","0","15","0","0","0","15","NA","11","15","11","0","11","3","15","0","15","Tue Feb 16 15:38:20 2021","The main experiment item","yes","Lexical_Decision_Task.osexp","C:/Users/richardkasa/Desktop/Open sesame","no","Andale Mono","no","18","no","white","no","yes","576","legacy","11","11","3","C:/Users/richardkasa/Desktop/Open sesame/subject-5214110.csv","legacy","Lentiform Loewenfeld","3.3.7","yes","yes","600bd7cfb6416f0113b04181","602110864497cf011d9c0822","0","j","NA","space","space","space","NA","j","647","NA","1078","2272","1575","NA","647","2","legacy","1024","2","48000","-16","task","5214110","even","NA","16546","19626","18547","43973","2857","6706","5131","44474","NA","43972","44474","43921","19626","45122","14849","43421","2853","33494","Lexical Decision Task","12","14913","16","yes","1024"
"3.230789326","5.38","5","prim","word","70.58823529411765","70.58823529411765","948.3529411764706","948.3529411764706","black","no","legacy","legacy","legacy","0","uniform","0","undefined","undefined","undefined","0","j","0","0","0","0","16","0","0","0","16","NA","12","16","12","0","12","3","16","0","16","Tue Feb 16 15:38:20 2021","The main experiment item","yes","Lexical_Decision_Task.osexp","C:/Users/richardkasa/Desktop/Open sesame","no","Andale Mono","no","18","no","white","no","yes","576","legacy","12","12","3","C:/Users/richardkasa/Desktop/Open sesame/subject-5214110.csv","legacy","Lentiform Loewenfeld","3.3.7","yes","yes","600bd7cfb6416f0113b04181","602110864497cf011d9c0822","0","f","NA","space","space","space","NA","f","1209","NA","1078","2272","1575","NA","1209","2","legacy","1024","2","48000","-16","task","5214110","even","NA","16546","19626","18547","45676","2857","6706","5131","46177","NA","45674","46177","45625","19626","47386","14849","45125","2853","33494","Lexical Decision Task","12","16122","17","yes","1024"
"3.091901331","0","9","nipe","non-word","72.22222222222223","72.22222222222223","953.3888888888889","953.3888888888889","black","no","legacy","legacy","legacy","0","uniform","1","undefined","undefined","undefined","1","f","0","0","0","0","17","0","0","0","17","NA","13","17","13","0","13","3","17","0","17","Tue Feb 16 15:38:20 2021","The main experiment item","yes","Lexical_Decision_Task.osexp","C:/Users/richardkasa/Desktop/Open sesame","no","Andale Mono","no","18","no","white","no","yes","576","legacy","13","13","3","C:/Users/richardkasa/Desktop/Open sesame/subject-5214110.csv","legacy","Lentiform Loewenfeld","3.3.7","yes","yes","600bd7cfb6416f0113b04181","602110864497cf011d9c0822","0","f","NA","space","space","space","NA","f","1039","NA","1078","2272","1575","NA","1039","2","legacy","1024","2","48000","-16","task","5214110","even","NA","16546","19626","18547","48942","2857","6706","5131","49443","NA","48940","49443","48890","19626","50483","14849","45125","2853","47390","Lexical Decision Task","13","17161","18","yes","1024"
"3.064581521","5.51","6","cask","word","73.6842105263158","73.6842105263158","944.3684210526316","944.3684210526316","black","no","legacy","legacy","legacy","0","uniform","1","undefined","undefined","undefined","1","j","0","0","0","0","18","0","0","0","18","NA","14","18","14","0","14","3","18","0","18","Tue Feb 16 15:38:20 2021","The main experiment item","yes","Lexical_Decision_Task.osexp","C:/Users/richardkasa/Desktop/Open sesame","no","Andale Mono","no","18","no","white","no","yes","576","legacy","14","14","3","C:/Users/richardkasa/Desktop/Open sesame/subject-5214110.csv","legacy","Lentiform Loewenfeld","3.3.7","yes","yes","600bd7cfb6416f0113b04181","602110864497cf011d9c0822","0","j","NA","space","space","space","NA","j","782","NA","1078","2272","1575","NA","782","2","legacy","1024","2","48000","-16","task","5214110","even","NA","16546","19626","18547","51038","2857","6706","5131","51539","NA","51036","51539","50986","19626","52322","14849","50486","2853","47390","Lexical Decision Task","14","17943","19","yes","1024"
"2.576725172","0","8","gowl","non-word","75","75","942","942","black","no","legacy","legacy","legacy","0","uniform","1","undefined","undefined","undefined","1","f","0","0","0","0","19","0","0","0","19","NA","15","19","15","0","15","3","19","0","19","Tue Feb 16 15:38:20 2021","The main experiment item","yes","Lexical_Decision_Task.osexp","C:/Users/richardkasa/Desktop/Open sesame","no","Andale Mono","no","18","no","white","no","yes","576","legacy","15","15","3","C:/Users/richardkasa/Desktop/Open sesame/subject-5214110.csv","legacy","Lentiform Loewenfeld","3.3.7","yes","yes","600bd7cfb6416f0113b04181","602110864497cf011d9c0822","0","f","NA","space","space","space","NA","f","897","NA","1078","2272","1575","NA","897","2","legacy","1024","2","48000","-16","task","5214110","even","NA","16546","19626","18547","52876","2857","6706","5131","53377","NA","52875","53377","52825","19626","54274","14849","52325","2853","47390","Lexical Decision Task","15","18840","20","yes","1024"
"2.924968096","0","4","phim","non-word","76.19047619047619","76.19047619047619","945.1428571428571","945.1428571428571","black","no","legacy","legacy","legacy","0","uniform","1","undefined","undefined","undefined","1","f","0","0","0","0","20","0","0","0","20","NA","16","20","16","0","16","3","20","0","20","Tue Feb 16 15:38:20 2021","The main experiment item","yes","Lexical_Decision_Task.osexp","C:/Users/richardkasa/Desktop/Open sesame","no","Andale Mono","no","18","no","white","no","yes","576","legacy","16","16","3","C:/Users/richardkasa/Desktop/Open sesame/subject-5214110.csv","legacy","Lentiform Loewenfeld","3.3.7","yes","yes","600bd7cfb6416f0113b04181","602110864497cf011d9c0822","0","f","NA","space","space","space","NA","f","1008","NA","1078","2272","1575","NA","1008","2","legacy","1024","2","48000","-16","task","5214110","even","NA","16546","19626","18547","54829","2857","6706","5131","55330","NA","54828","55330","54778","19626","56338","14849","54278","2853","47390","Lexical Decision Task","16","19848","21","yes","1024"
"2.843025032","0","9","pusk","non-word","77.27272727272727","77.27272727272727","944.6363636363636","944.6363636363636","black","no","legacy","legacy","legacy","0","uniform","1","undefined","undefined","undefined","1","f","0","0","0","0","21","0","0","0","21","NA","17","21","17","0","17","3","21","0","21","Tue Feb 16 15:38:20 2021","The main experiment item","yes","Lexical_Decision_Task.osexp","C:/Users/richardkasa/Desktop/Open sesame","no","Andale Mono","no","18","no","white","no","yes","576","legacy","17","17","3","C:/Users/richardkasa/Desktop/Open sesame/subject-5214110.csv","legacy","Lentiform Loewenfeld","3.3.7","yes","yes","600bd7cfb6416f0113b04181","602110864497cf011d9c0822","0","f","NA","space","space","space","NA","f","934","NA","1078","2272","1575","NA","934","2","legacy","1024","2","48000","-16","task","5214110","even","NA","16546","19626","18547","56894","2857","6706","5131","57395","NA","56893","57395","56842","19626","58330","14849","56341","2853","47390","Lexical Decision Task","17","20782","22","yes","1024"
"2.819763221","0","2","durp","non-word","78.26086956521739","78.26086956521739","954.695652173913","954.695652173913","black","no","legacy","legacy","legacy","0","uniform","1","undefined","undefined","undefined","1","f","0","0","0","0","22","0","0","0","22","NA","18","22","18","0","18","3","22","0","22","Tue Feb 16 15:38:20 2021","The main experiment item","yes","Lexical_Decision_Task.osexp","C:/Users/richardkasa/Desktop/Open sesame","no","Andale Mono","no","18","no","white","no","yes","576","legacy","18","18","3","C:/Users/richardkasa/Desktop/Open sesame/subject-5214110.csv","legacy","Lentiform Loewenfeld","3.3.7","yes","yes","600bd7cfb6416f0113b04181","602110864497cf011d9c0822","0","f","NA","space","space","space","NA","f","1176","NA","1078","2272","1575","NA","1176","2","legacy","1024","2","48000","-16","task","5214110","even","NA","16546","19626","18547","58885","2857","6706","5131","59386","NA","58884","59386","58833","19626","60563","14849","58333","2853","47390","Lexical Decision Task","18","21958","23","yes","1024"
"3.140404328","10.66","9","deep","word","79.16666666666667","79.16666666666667","954.5416666666666","954.5416666666666","black","no","legacy","legacy","legacy","0","uniform","1","undefined","undefined","undefined","1","j","0","0","0","0","23","0","0","0","23","NA","19","23","19","0","19","3","23","0","23","Tue Feb 16 15:38:20 2021","The main experiment item","yes","Lexical_Decision_Task.osexp","C:/Users/richardkasa/Desktop/Open sesame","no","Andale Mono","no","18","no","white","no","yes","576","legacy","19","19","3","C:/Users/richardkasa/Desktop/Open sesame/subject-5214110.csv","legacy","Lentiform Loewenfeld","3.3.7","yes","yes","600bd7cfb6416f0113b04181","602110864497cf011d9c0822","0","j","NA","space","space","space","NA","j","951","NA","1078","2272","1575","NA","951","2","legacy","1024","2","48000","-16","task","5214110","even","NA","16546","19626","18547","61118","2857","6706","5131","61619","NA","61117","61619","61066","19626","62570","14849","60566","2853","47390","Lexical Decision Task","19","22909","24","yes","1024"
"2.696356389","0","1","pizz","non-word","80","80","950.24","950.24","black","no","legacy","legacy","legacy","0","uniform","1","undefined","undefined","undefined","1","f","0","0","0","0","24","0","0","0","24","NA","20","24","20","0","20","3","24","0","24","Tue Feb 16 15:38:20 2021","The main experiment item","yes","Lexical_Decision_Task.osexp","C:/Users/richardkasa/Desktop/Open sesame","no","Andale Mono","no","18","no","white","no","yes","576","legacy","20","20","3","C:/Users/richardkasa/Desktop/Open sesame/subject-5214110.csv","legacy","Lentiform Loewenfeld","3.3.7","yes","yes","600bd7cfb6416f0113b04181","602110864497cf011d9c0822","0","f","NA","space","space","space","NA","f","847","NA","1078","2272","1575","NA","847","2","legacy","1024","2","48000","-16","task","5214110","even","NA","16546","19626","18547","63126","2857","6706","5131","63627","NA","63125","63627","63074","19626","64475","14849","62574","2853","47390","Lexical Decision Task","20","23756","25","yes","1024"
"3.14849993","10.75","7","hour","word","80.76923076923077","80.76923076923077","942.9230769230769","942.9230769230769","black","no","legacy","legacy","legacy","0","uniform","1","undefined","undefined","undefined","1","j","0","0","0","0","25","0","0","0","25","NA","21","25","21","0","21","3","25","0","25","Tue Feb 16 15:38:20 2021","The main experiment item","yes","Lexical_Decision_Task.osexp","C:/Users/richardkasa/Desktop/Open sesame","no","Andale Mono","no","18","no","white","no","yes","576","legacy","21","21","3","C:/Users/richardkasa/Desktop/Open sesame/subject-5214110.csv","legacy","Lentiform Loewenfeld","3.3.7","yes","yes","600bd7cfb6416f0113b04181","602110864497cf011d9c0822","0","j","NA","space","space","space","NA","j","760","NA","1078","2272","1575","NA","760","2","legacy","1024","2","48000","-16","task","5214110","even","NA","16546","19626","18547","65028","2857","6706","5131","65529","NA","65027","65529","64977","19626","66290","14849","64477","2853","47390","Lexical Decision Task","21","24516","26","yes","1024"
"2.698100546","0","9","mulk","non-word","81.48148148148148","81.48148148148148","935.5555555555555","935.5555555555555","black","no","legacy","legacy","legacy","0","uniform","1","undefined","undefined","undefined","1","f","0","0","0","0","26","0","0","0","26","NA","22","26","22","0","22","3","26","0","26","Tue Feb 16 15:38:20 2021","The main experiment item","yes","Lexical_Decision_Task.osexp","C:/Users/richardkasa/Desktop/Open sesame","no","Andale Mono","no","18","no","white","no","yes","576","legacy","22","22","3","C:/Users/richardkasa/Desktop/Open sesame/subject-5214110.csv","legacy","Lentiform Loewenfeld","3.3.7","yes","yes","600bd7cfb6416f0113b04181","602110864497cf011d9c0822","0","f","NA","space","space","space","NA","f","744","NA","1078","2272","1575","NA","744","2","legacy","1024","2","48000","-16","task","5214110","even","NA","16546","19626","18547","66845","2857","6706","5131","67346","NA","66844","67346","66793","19626","68090","14849","66293","2853","47390","Lexical Decision Task","22","25260","27","yes","1024"
"2.706148589","0","4","hube","non-word","82.14285714285714","82.14285714285714","943.5714285714286","943.5714285714286","black","no","legacy","legacy","legacy","0","uniform","1","undefined","undefined","undefined","1","f","0","0","0","0","27","0","0","0","27","NA","23","27","23","0","23","3","27","0","27","Tue Feb 16 15:38:20 2021","The main experiment item","yes","Lexical_Decision_Task.osexp","C:/Users/richardkasa/Desktop/Open sesame","no","Andale Mono","no","18","no","white","no","yes","576","legacy","23","23","3","C:/Users/richardkasa/Desktop/Open sesame/subject-5214110.csv","legacy","Lentiform Loewenfeld","3.3.7","yes","yes","600bd7cfb6416f0113b04181","602110864497cf011d9c0822","0","f","NA","space","space","space","NA","f","1160","NA","1078","2272","1575","NA","1160","2","legacy","1024","2","48000","-16","task","5214110","even","NA","16546","19626","18547","68645","2857","6706","5131","69146","NA","68644","69146","68594","19626","70307","14849","68094","2853","47390","Lexical Decision Task","23","26420","28","yes","1024"
"2.873320602","0","4","lurg","non-word","82.75862068965517","82.75862068965517","951.0689655172414","951.0689655172414","black","no","legacy","legacy","legacy","0","uniform","1","undefined","undefined","undefined","1","f","0","0","0","0","28","0","0","0","28","NA","24","28","24","0","24","3","28","0","28","Tue Feb 16 15:38:20 2021","The main experiment item","yes","Lexical_Decision_Task.osexp","C:/Users/richardkasa/Desktop/Open sesame","no","Andale Mono","no","18","no","white","no","yes","576","legacy","24","24","3","C:/Users/richardkasa/Desktop/Open sesame/subject-5214110.csv","legacy","Lentiform Loewenfeld","3.3.7","yes","yes","600bd7cfb6416f0113b04181","602110864497cf011d9c0822","0","f","NA","space","space","space","NA","f","1161","NA","1078","2272","1575","NA","1161","2","legacy","1024","2","48000","-16","task","5214110","even","NA","16546","19626","18547","70868","2857","6706","5131","71369","NA","70867","71369","70811","19626","72531","14849","70310","2853","47390","Lexical Decision Task","24","27581","29","yes","1024"
"3.274543461","7.46","7","scar","word","83.33333333333333","83.33333333333333","941.2","941.2","black","no","legacy","legacy","legacy","0","uniform","1","undefined","undefined","undefined","1","j","0","0","0","0","29","0","0","0","29","NA","25","29","25","0","25","3","29","0","29","Tue Feb 16 15:38:20 2021","The main experiment item","yes","Lexical_Decision_Task.osexp","C:/Users/richardkasa/Desktop/Open sesame","no","Andale Mono","no","18","no","white","no","yes","576","legacy","25","25","3","C:/Users/richardkasa/Desktop/Open sesame/subject-5214110.csv","legacy","Lentiform Loewenfeld","3.3.7","yes","yes","600bd7cfb6416f0113b04181","602110864497cf011d9c0822","0","j","NA","space","space","space","NA","j","655","NA","1078","2272","1575","NA","655","2","legacy","1024","2","48000","-16","task","5214110","even","NA","16546","19626","18547","73085","2857","6706","5131","73586","NA","73084","73586","73034","19626","74242","14849","72534","2853","47390","Lexical Decision Task","25","28236","30","yes","1024"
"3.378276681","6.39","8","bran","word","80.64516129032258","80.64516129032258","941.0322580645161","941.0322580645161","black","no","legacy","legacy","legacy","0","uniform","0","undefined","undefined","undefined","0","j","0","0","0","0","30","0","0","0","30","NA","26","30","26","0","26","3","30","0","30","Tue Feb 16 15:38:20 2021","The main experiment item","yes","Lexical_Decision_Task.osexp","C:/Users/richardkasa/Desktop/Open sesame","no","Andale Mono","no","18","no","white","no","yes","576","legacy","26","26","3","C:/Users/richardkasa/Desktop/Open sesame/subject-5214110.csv","legacy","Lentiform Loewenfeld","3.3.7","yes","yes","600bd7cfb6416f0113b04181","602110864497cf011d9c0822","0","f","NA","space","space","space","NA","f","936","NA","1078","2272","1575","NA","936","2","legacy","1024","2","48000","-16","task","5214110","even","NA","16546","19626","18547","74796","2857","6706","5131","75297","NA","74794","75297","74745","19626","76234","14849","74245","2853","47390","Lexical Decision Task","25","29172","31","yes","1024"
"3.168890155","0","6","thet","non-word","81.25","81.25","941.875","941.875","black","no","legacy","legacy","legacy","0","uniform","1","undefined","undefined","undefined","1","f","0","0","0","0","31","0","0","0","31","NA","27","31","27","0","27","3","31","0","31","Tue Feb 16 15:38:20 2021","The main experiment item","yes","Lexical_Decision_Task.osexp","C:/Users/richardkasa/Desktop/Open sesame","no","Andale Mono","no","18","no","white","no","yes","576","legacy","27","27","3","C:/Users/richardkasa/Desktop/Open sesame/subject-5214110.csv","legacy","Lentiform Loewenfeld","3.3.7","yes","yes","600bd7cfb6416f0113b04181","602110864497cf011d9c0822","0","f","NA","space","space","space","NA","f","968","NA","1078","2272","1575","NA","968","2","legacy","1024","2","48000","-16","task","5214110","even","NA","16546","19626","18547","77788","2857","6706","5131","78289","NA","77787","78289","77737","19626","79258","14849","74245","2853","76237","Lexical Decision Task","26","30140","32","yes","1024"
"2.809559715","8.44","4","volt","word","81.81818181818181","81.81818181818181","932.939393939394","932.939393939394","black","no","legacy","legacy","legacy","0","uniform","1","undefined","undefined","undefined","1","j","0","0","0","0","32","0","0","0","32","NA","28","32","28","0","28","3","32","0","32","Tue Feb 16 15:38:20 2021","The main experiment item","yes","Lexical_Decision_Task.osexp","C:/Users/richardkasa/Desktop/Open sesame","no","Andale Mono","no","18","no","white","no","yes","576","legacy","28","28","3","C:/Users/richardkasa/Desktop/Open sesame/subject-5214110.csv","legacy","Lentiform Loewenfeld","3.3.7","yes","yes","600bd7cfb6416f0113b04181","602110864497cf011d9c0822","0","j","NA","space","space","space","NA","j","647","NA","1078","2272","1575","NA","647","2","legacy","1024","2","48000","-16","task","5214110","even","NA","16546","19626","18547","79814","2857","6706","5131","80315","NA","79812","80315","79762","19626","80963","14849","79261","2853","76237","Lexical Decision Task","27","30787","33","yes","1024"
"2.7084209","0","8","vump","non-word","82.3529411764706","82.3529411764706","931.5882352941177","931.5882352941177","black","no","legacy","legacy","legacy","0","uniform","1","undefined","undefined","undefined","1","f","0","0","0","0","33","0","0","0","33","NA","29","33","29","0","29","3","33","0","33","Tue Feb 16 15:38:20 2021","The main experiment item","yes","Lexical_Decision_Task.osexp","C:/Users/richardkasa/Desktop/Open sesame","no","Andale Mono","no","18","no","white","no","yes","576","legacy","29","29","3","C:/Users/richardkasa/Desktop/Open sesame/subject-5214110.csv","legacy","Lentiform Loewenfeld","3.3.7","yes","yes","600bd7cfb6416f0113b04181","602110864497cf011d9c0822","0","f","NA","space","space","space","NA","f","887","NA","1078","2272","1575","NA","887","2","legacy","1024","2","48000","-16","task","5214110","even","NA","16546","19626","18547","81518","2857","6706","5131","82019","NA","81516","82019","81466","19626","82906","14849","80966","2853","76237","Lexical Decision Task","28","31674","34","yes","1024"
"2.6599162","0","2","saff","non-word","82.85714285714286","82.85714285714286","929.4285714285714","929.4285714285714","black","no","legacy","legacy","legacy","0","uniform","1","undefined","undefined","undefined","1","f","0","0","0","0","34","0","0","0","34","NA","30","34","30","0","30","3","34","0","34","Tue Feb 16 15:38:20 2021","The main experiment item","yes","Lexical_Decision_Task.osexp","C:/Users/richardkasa/Desktop/Open sesame","no","Andale Mono","no","18","no","white","no","yes","576","legacy","30","30","3","C:/Users/richardkasa/Desktop/Open sesame/subject-5214110.csv","legacy","Lentiform Loewenfeld","3.3.7","yes","yes","600bd7cfb6416f0113b04181","602110864497cf011d9c0822","0","f","NA","space","space","space","NA","f","856","NA","1078","2272","1575","NA","856","2","legacy","1024","2","48000","-16","task","5214110","even","NA","16546","19626","18547","83461","2857","6706","5131","83962","NA","83459","83962","83410","19626","84818","14849","82910","2853","76237","Lexical Decision Task","29","32530","35","yes","1024"
"3.443783828","7.65","3","verb","word","83.33333333333333","83.33333333333333","924.9444444444445","924.9444444444445","black","no","legacy","legacy","legacy","0","uniform","1","undefined","undefined","undefined","1","j","0","0","0","0","35","0","0","0","35","NA","31","35","31","0","31","3","35","0","35","Tue Feb 16 15:38:20 2021","The main experiment item","yes","Lexical_Decision_Task.osexp","C:/Users/richardkasa/Desktop/Open sesame","no","Andale Mono","no","18","no","white","no","yes","576","legacy","31","31","3","C:/Users/richardkasa/Desktop/Open sesame/subject-5214110.csv","legacy","Lentiform Loewenfeld","3.3.7","yes","yes","600bd7cfb6416f0113b04181","602110864497cf011d9c0822","0","j","NA","space","space","space","NA","j","768","NA","1078","2272","1575","NA","768","2","legacy","1024","2","48000","-16","task","5214110","even","NA","16546","19626","18547","85372","2857","6706","5131","85873","NA","85371","85873","85322","19626","86643","14849","84822","2853","76237","Lexical Decision Task","30","33298","36","yes","1024"
"2.616654026","9.37","5","gift","word","83.78378378378379","83.78378378378379","918.6756756756756","918.6756756756756","black","no","legacy","legacy","legacy","0","uniform","1","undefined","undefined","undefined","1","j","0","0","0","0","36","0","0","0","36","NA","32","36","32","0","32","3","36","0","36","Tue Feb 16 15:38:20 2021","The main experiment item","yes","Lexical_Decision_Task.osexp","C:/Users/richardkasa/Desktop/Open sesame","no","Andale Mono","no","18","no","white","no","yes","576","legacy","32","32","3","C:/Users/richardkasa/Desktop/Open sesame/subject-5214110.csv","legacy","Lentiform Loewenfeld","3.3.7","yes","yes","600bd7cfb6416f0113b04181","602110864497cf011d9c0822","0","j","NA","space","space","space","NA","j","693","NA","1078","2272","1575","NA","693","2","legacy","1024","2","48000","-16","task","5214110","even","NA","16546","19626","18547","87199","2857","6706","5131","87700","NA","87197","87701","87146","19626","88395","14849","86646","2853","76237","Lexical Decision Task","31","33991","37","yes","1024"
"3.529815197","0","3","lerm","non-word","84.21052631578948","84.21052631578948","922.2368421052631","922.2368421052631","black","no","legacy","legacy","legacy","0","uniform","1","undefined","undefined","undefined","1","f","0","0","0","0","37","0","0","0","37","NA","33","37","33","0","33","3","37","0","37","Tue Feb 16 15:38:20 2021","The main experiment item","yes","Lexical_Decision_Task.osexp","C:/Users/richardkasa/Desktop/Open sesame","no","Andale Mono","no","18","no","white","no","yes","576","legacy","33","33","3","C:/Users/richardkasa/Desktop/Open sesame/subject-5214110.csv","legacy","Lentiform Loewenfeld","3.3.7","yes","yes","600bd7cfb6416f0113b04181","602110864497cf011d9c0822","0","f","NA","space","space","space","NA","f","1054","NA","1078","2272","1575","NA","1054","2","legacy","1024","2","48000","-16","task","5214110","even","NA","16546","19626","18547","88951","2857","6706","5131","89452","NA","88950","89452","88898","19626","90507","14849","88398","2853","76237","Lexical Decision Task","32","35045","38","yes","1024"
"3.307211407","6.07","7","honk","word","84.61538461538461","84.61538461538461","920.0769230769231","920.0769230769231","black","no","legacy","legacy","legacy","0","uniform","1","undefined","undefined","undefined","1","j","0","0","0","0","38","0","0","0","38","NA","34","38","34","0","34","3","38","0","38","Tue Feb 16 15:38:20 2021","The main experiment item","yes","Lexical_Decision_Task.osexp","C:/Users/richardkasa/Desktop/Open sesame","no","Andale Mono","no","18","no","white","no","yes","576","legacy","34","34","3","C:/Users/richardkasa/Desktop/Open sesame/subject-5214110.csv","legacy","Lentiform Loewenfeld","3.3.7","yes","yes","600bd7cfb6416f0113b04181","602110864497cf011d9c0822","0","j","NA","space","space","space","NA","j","838","NA","1078","2272","1575","NA","838","2","legacy","1024","2","48000","-16","task","5214110","even","NA","16546","19626","18547","91063","2857","6706","5131","91564","NA","91062","91564","91010","19626","92402","14849","90510","2853","76237","Lexical Decision Task","33","35883","39","yes","1024"
"3.068433376","8.09","2","bulb","word","85","85","913.35","913.35","black","no","legacy","legacy","legacy","0","uniform","1","undefined","undefined","undefined","1","j","0","0","0","0","39","0","0","0","39","NA","35","39","35","0","35","3","39","0","39","Tue Feb 16 15:38:20 2021","The main experiment item","yes","Lexical_Decision_Task.osexp","C:/Users/richardkasa/Desktop/Open sesame","no","Andale Mono","no","18","no","white","no","yes","576","legacy","35","35","3","C:/Users/richardkasa/Desktop/Open sesame/subject-5214110.csv","legacy","Lentiform Loewenfeld","3.3.7","yes","yes","600bd7cfb6416f0113b04181","602110864497cf011d9c0822","0","j","NA","space","space","space","NA","j","651","NA","1078","2272","1575","NA","651","2","legacy","1024","2","48000","-16","task","5214110","even","NA","16546","19626","18547","92962","2857","6706","5131","93463","NA","92961","93463","92905","19626","94114","14849","92405","2853","76237","Lexical Decision Task","34","36534","40","yes","1024"
"3.031408464","0","7","drow","non-word","82.92682926829268","82.92682926829268","908.0487804878048","908.0487804878048","black","no","legacy","legacy","legacy","0","uniform","0","undefined","undefined","undefined","0","f","0","0","0","0","40","0","0","0","40","NA","36","40","36","0","36","3","40","0","40","Tue Feb 16 15:38:20 2021","The main experiment item","yes","Lexical_Decision_Task.osexp","C:/Users/richardkasa/Desktop/Open sesame","no","Andale Mono","no","18","no","white","no","yes","576","legacy","36","36","3","C:/Users/richardkasa/Desktop/Open sesame/subject-5214110.csv","legacy","Lentiform Loewenfeld","3.3.7","yes","yes","600bd7cfb6416f0113b04181","602110864497cf011d9c0822","0","j","NA","space","space","space","NA","j","696","NA","1078","2272","1575","NA","696","2","legacy","1024","2","48000","-16","task","5214110","even","NA","16546","19626","18547","94669","2857","6706","5131","95170","NA","94667","95170","94618","19626","95867","14849","94118","2853","76237","Lexical Decision Task","34","37230","41","yes","1024"
"3.481012421","8.34","5","teen","word","83.33333333333333","83.33333333333333","905.8095238095239","905.8095238095239","black","no","legacy","legacy","legacy","0","uniform","1","undefined","undefined","undefined","1","j","0","0","0","0","41","0","0","0","41","NA","37","41","37","0","37","3","41","0","41","Tue Feb 16 15:38:20 2021","The main experiment item","yes","Lexical_Decision_Task.osexp","C:/Users/richardkasa/Desktop/Open sesame","no","Andale Mono","no","18","no","white","no","yes","576","legacy","37","37","3","C:/Users/richardkasa/Desktop/Open sesame/subject-5214110.csv","legacy","Lentiform Loewenfeld","3.3.7","yes","yes","600bd7cfb6416f0113b04181","602110864497cf011d9c0822","0","j","NA","space","space","space","NA","j","814","NA","1078","2272","1575","NA","814","2","legacy","1024","2","48000","-16","task","5214110","even","NA","16546","19626","18547","97422","2857","6706","5131","97923","NA","97421","97923","97370","19626","98738","14849","94118","2853","95870","Lexical Decision Task","35","38044","42","yes","1024"
"3.168400243","9.12","6","horn","word","83.72093023255815","83.72093023255815","900.3720930232558","900.3720930232558","black","no","legacy","legacy","legacy","0","uniform","1","undefined","undefined","undefined","1","j","0","0","0","0","42","0","0","0","42","NA","38","42","38","0","38","3","42","0","42","Tue Feb 16 15:38:20 2021","The main experiment item","yes","Lexical_Decision_Task.osexp","C:/Users/richardkasa/Desktop/Open sesame","no","Andale Mono","no","18","no","white","no","yes","576","legacy","38","38","3","C:/Users/richardkasa/Desktop/Open sesame/subject-5214110.csv","legacy","Lentiform Loewenfeld","3.3.7","yes","yes","600bd7cfb6416f0113b04181","602110864497cf011d9c0822","0","j","NA","space","space","space","NA","j","672","NA","1078","2272","1575","NA","672","2","legacy","1024","2","48000","-16","task","5214110","even","NA","16546","19626","18547","99293","2857","6706","5131","99794","NA","99292","99794","99242","19626","100466","14849","98741","2853","95870","Lexical Decision Task","36","38716","43","yes","1024"
"3.132473155","0","4","glim","non-word","84.0909090909091","84.0909090909091","901.2045454545455","901.2045454545455","black","no","legacy","legacy","legacy","0","uniform","1","undefined","undefined","undefined","1","f","0","0","0","0","43","0","0","0","43","NA","39","43","39","0","39","3","43","0","43","Tue Feb 16 15:38:20 2021","The main experiment item","yes","Lexical_Decision_Task.osexp","C:/Users/richardkasa/Desktop/Open sesame","no","Andale Mono","no","18","no","white","no","yes","576","legacy","39","39","3","C:/Users/richardkasa/Desktop/Open sesame/subject-5214110.csv","legacy","Lentiform Loewenfeld","3.3.7","yes","yes","600bd7cfb6416f0113b04181","602110864497cf011d9c0822","0","f","NA","space","space","space","NA","f","937","NA","1078","2272","1575","NA","937","2","legacy","1024","2","48000","-16","task","5214110","even","NA","16546","19626","18547","101020","2857","6706","5131","101521","NA","101018","101521","100970","19626","102458","14849","100470","2853","95870","Lexical Decision Task","37","39653","44","yes","1024"
"3.081107167","0","6","chot","non-word","84.44444444444444","84.44444444444444","896.9333333333333","896.9333333333333","black","no","legacy","legacy","legacy","0","uniform","1","undefined","undefined","undefined","1","f","0","0","0","0","44","0","0","0","44","NA","40","44","40","0","40","3","44","0","44","Tue Feb 16 15:38:20 2021","The main experiment item","yes","Lexical_Decision_Task.osexp","C:/Users/richardkasa/Desktop/Open sesame","no","Andale Mono","no","18","no","white","no","yes","576","legacy","40","40","3","C:/Users/richardkasa/Desktop/Open sesame/subject-5214110.csv","legacy","Lentiform Loewenfeld","3.3.7","yes","yes","600bd7cfb6416f0113b04181","602110864497cf011d9c0822","0","f","NA","space","space","space","NA","f","709","NA","1078","2272","1575","NA","709","2","legacy","1024","2","48000","-16","task","5214110","even","NA","16546","19626","18547","103015","2857","6706","5131","103516","NA","103013","103516","102963","19626","104227","14849","102462","2853","95870","Lexical Decision Task","38","40362","45","yes","1024"
"3.145920145","8.51","8","flew","word","84.78260869565217","84.78260869565217","895.8695652173913","895.8695652173913","black","no","legacy","legacy","legacy","0","uniform","1","undefined","undefined","undefined","1","j","0","0","0","0","45","0","0","0","45","NA","41","45","41","0","41","3","45","0","45","Tue Feb 16 15:38:20 2021","The main experiment item","yes","Lexical_Decision_Task.osexp","C:/Users/richardkasa/Desktop/Open sesame","no","Andale Mono","no","18","no","white","no","yes","576","legacy","41","41","3","C:/Users/richardkasa/Desktop/Open sesame/subject-5214110.csv","legacy","Lentiform Loewenfeld","3.3.7","yes","yes","600bd7cfb6416f0113b04181","602110864497cf011d9c0822","0","j","NA","space","space","space","NA","j","848","NA","1078","2272","1575","NA","848","2","legacy","1024","2","48000","-16","task","5214110","even","NA","16546","19626","18547","104781","2857","6706","5131","105282","NA","104780","105282","104730","19626","106130","14849","104230","2853","95870","Lexical Decision Task","39","41210","46","yes","1024"
"2.705007959","6.01","4","wept","word","85.1063829787234","85.1063829787234","893","893","black","no","legacy","legacy","legacy","0","uniform","1","undefined","undefined","undefined","1","j","0","0","0","0","46","0","0","0","46","NA","42","46","42","0","42","3","46","0","46","Tue Feb 16 15:38:20 2021","The main experiment item","yes","Lexical_Decision_Task.osexp","C:/Users/richardkasa/Desktop/Open sesame","no","Andale Mono","no","18","no","white","no","yes","576","legacy","42","42","3","C:/Users/richardkasa/Desktop/Open sesame/subject-5214110.csv","legacy","Lentiform Loewenfeld","3.3.7","yes","yes","600bd7cfb6416f0113b04181","602110864497cf011d9c0822","0","j","NA","space","space","space","NA","j","761","NA","1078","2272","1575","NA","761","2","legacy","1024","2","48000","-16","task","5214110","even","NA","16546","19626","18547","106684","2857","6706","5131","107185","NA","106683","107185","106633","19626","107947","14849","106133","2853","95870","Lexical Decision Task","40","41971","47","yes","1024"
"3.316948329","0","1","besc","non-word","85.41666666666667","85.41666666666667","888.5208333333334","888.5208333333334","black","no","legacy","legacy","legacy","0","uniform","1","undefined","undefined","undefined","1","f","0","0","0","0","47","0","0","0","47","NA","43","47","43","0","43","3","47","0","47","Tue Feb 16 15:38:20 2021","The main experiment item","yes","Lexical_Decision_Task.osexp","C:/Users/richardkasa/Desktop/Open sesame","no","Andale Mono","no","18","no","white","no","yes","576","legacy","43","43","3","C:/Users/richardkasa/Desktop/Open sesame/subject-5214110.csv","legacy","Lentiform Loewenfeld","3.3.7","yes","yes","600bd7cfb6416f0113b04181","602110864497cf011d9c0822","0","f","NA","space","space","space","NA","f","678","NA","1078","2272","1575","NA","678","2","legacy","1024","2","48000","-16","task","5214110","even","NA","16546","19626","18547","108503","2857","6706","5131","109004","NA","108502","109004","108451","19626","109683","14849","107951","2853","95870","Lexical Decision Task","41","42649","48","yes","1024"
"2.744553742","0","2","nawk","non-word","85.71428571428571","85.71428571428571","889.7755102040817","889.7755102040817","black","no","legacy","legacy","legacy","0","uniform","1","undefined","undefined","undefined","1","f","0","0","0","0","48","0","0","0","48","NA","44","48","44","0","44","3","48","0","48","Tue Feb 16 15:38:20 2021","The main experiment item","yes","Lexical_Decision_Task.osexp","C:/Users/richardkasa/Desktop/Open sesame","no","Andale Mono","no","18","no","white","no","yes","576","legacy","44","44","3","C:/Users/richardkasa/Desktop/Open sesame/subject-5214110.csv","legacy","Lentiform Loewenfeld","3.3.7","yes","yes","600bd7cfb6416f0113b04181","602110864497cf011d9c0822","0","f","NA","space","space","space","NA","f","950","NA","1078","2272","1575","NA","950","2","legacy","1024","2","48000","-16","task","5214110","even","NA","16546","19626","18547","110238","2857","6706","5131","110740","NA","110237","110740","110186","19626","111690","14849","109686","2853","95870","Lexical Decision Task","42","43599","49","yes","1024"
"2.771097306","0","9","jold","non-word","86","86","886.82","886.82","black","no","legacy","legacy","legacy","0","uniform","1","undefined","undefined","undefined","1","f","0","0","0","0","49","0","0","0","49","NA","45","49","45","0","45","3","49","0","49","Tue Feb 16 15:38:20 2021","The main experiment item","yes","Lexical_Decision_Task.osexp","C:/Users/richardkasa/Desktop/Open sesame","no","Andale Mono","no","18","no","white","no","yes","576","legacy","45","45","3","C:/Users/richardkasa/Desktop/Open sesame/subject-5214110.csv","legacy","Lentiform Loewenfeld","3.3.7","yes","yes","600bd7cfb6416f0113b04181","602110864497cf011d9c0822","0","f","NA","space","space","space","NA","f","742","NA","1078","2272","1575","NA","742","2","legacy","1024","2","48000","-16","task","5214110","even","NA","16546","19626","18547","112247","2857","6706","5131","112748","NA","112245","112748","112194","19626","113491","14849","111694","2853","95870","Lexical Decision Task","43","44341","50","yes","1024"
"2.703007489","8.37","3","pulp","word","86.27450980392157","86.27450980392157","883.9803921568628","883.9803921568628","black","no","legacy","legacy","legacy","0","uniform","1","undefined","undefined","undefined","1","j","0","0","0","0","50","0","0","0","50","NA","46","50","46","0","46","3","50","0","50","Tue Feb 16 15:38:20 2021","The main experiment item","yes","Lexical_Decision_Task.osexp","C:/Users/richardkasa/Desktop/Open sesame","no","Andale Mono","no","18","no","white","no","yes","576","legacy","46","46","3","C:/Users/richardkasa/Desktop/Open sesame/subject-5214110.csv","legacy","Lentiform Loewenfeld","3.3.7","yes","yes","600bd7cfb6416f0113b04181","602110864497cf011d9c0822","0","j","NA","space","space","space","NA","j","742","NA","1078","2272","1575","NA","742","2","legacy","1024","2","48000","-16","task","5214110","even","NA","16546","19626","18547","114045","2857","6706","5131","114547","NA","114044","114547","113994","19626","115290","14849","113494","2853","95870","Lexical Decision Task","44","45083","51","yes","1024"
"3.062080345","0","6","tomp","non-word","86.53846153846153","86.53846153846153","880.6923076923077","880.6923076923077","black","no","legacy","legacy","legacy","0","uniform","1","undefined","undefined","undefined","1","f","0","0","0","0","51","0","0","0","51","NA","47","51","47","0","47","3","51","0","51","Tue Feb 16 15:38:20 2021","The main experiment item","yes","Lexical_Decision_Task.osexp","C:/Users/richardkasa/Desktop/Open sesame","no","Andale Mono","no","18","no","white","no","yes","576","legacy","47","47","3","C:/Users/richardkasa/Desktop/Open sesame/subject-5214110.csv","legacy","Lentiform Loewenfeld","3.3.7","yes","yes","600bd7cfb6416f0113b04181","602110864497cf011d9c0822","0","f","NA","space","space","space","NA","f","713","NA","1078","2272","1575","NA","713","2","legacy","1024","2","48000","-16","task","5214110","even","NA","16546","19626","18547","115844","2857","6706","5131","116345","NA","115842","116345","115793","19626","117059","14849","115293","2853","95870","Lexical Decision Task","45","45796","52","yes","1024"
"2.899092422","7.27","6","snag","word","86.79245283018868","86.79245283018868","881.5849056603773","881.5849056603773","black","no","legacy","legacy","legacy","0","uniform","1","undefined","undefined","undefined","1","j","0","0","0","0","52","0","0","0","52","NA","48","52","48","0","48","3","52","0","52","Tue Feb 16 15:38:20 2021","The main experiment item","yes","Lexical_Decision_Task.osexp","C:/Users/richardkasa/Desktop/Open sesame","no","Andale Mono","no","18","no","white","no","yes","576","legacy","48","48","3","C:/Users/richardkasa/Desktop/Open sesame/subject-5214110.csv","legacy","Lentiform Loewenfeld","3.3.7","yes","yes","600bd7cfb6416f0113b04181","602110864497cf011d9c0822","0","j","NA","space","space","space","NA","j","928","NA","1078","2272","1575","NA","928","2","legacy","1024","2","48000","-16","task","5214110","even","NA","16546","19626","18547","117612","2857","6706","5131","118113","NA","117611","118113","117562","19626","119042","14849","117062","2853","95870","Lexical Decision Task","46","46724","53","yes","1024"
"2.664328519","0","4","plux","non-word","87.03703703703704","87.03703703703704","882.1481481481482","882.1481481481482","black","no","legacy","legacy","legacy","0","uniform","1","undefined","undefined","undefined","1","f","0","0","0","0","53","0","0","0","53","NA","49","53","49","0","49","3","53","0","53","Tue Feb 16 15:38:20 2021","The main experiment item","yes","Lexical_Decision_Task.osexp","C:/Users/richardkasa/Desktop/Open sesame","no","Andale Mono","no","18","no","white","no","yes","576","legacy","49","49","3","C:/Users/richardkasa/Desktop/Open sesame/subject-5214110.csv","legacy","Lentiform Loewenfeld","3.3.7","yes","yes","600bd7cfb6416f0113b04181","602110864497cf011d9c0822","0","f","NA","space","space","space","NA","f","912","NA","1078","2272","1575","NA","912","2","legacy","1024","2","48000","-16","task","5214110","even","NA","16546","19626","18547","119596","2857","6706","5131","120098","NA","119595","120098","119545","19626","121010","14849","119045","2853","95870","Lexical Decision Task","47","47636","54","yes","1024"
"3.282244367","0","6","fute","non-word","87.27272727272727","87.27272727272727","882.0727272727273","882.0727272727273","black","no","legacy","legacy","legacy","0","uniform","1","undefined","undefined","undefined","1","f","0","0","0","0","54","0","0","0","54","0","50","54","50","0","50","3","54","0","54","Tue Feb 16 15:38:20 2021","The main experiment item","yes","Lexical_Decision_Task.osexp","C:/Users/richardkasa/Desktop/Open sesame","no","Andale Mono","no","18","no","white","no","yes","576","legacy","50","50","3","C:/Users/richardkasa/Desktop/Open sesame/subject-5214110.csv","legacy","Lentiform Loewenfeld","3.3.7","yes","yes","600bd7cfb6416f0113b04181","602110864497cf011d9c0822","0","f","NA","space","space","space","space","f","878","NA","1078","2272","1575","2911","878","2","legacy","1024","2","48000","-16","task","5214110","even","NA","16546","19626","18547","124511","2857","6706","5131","125012","121547","124510","125012","121513","19626","125891","14849","121013","2853","95870","Lexical Decision Task","48","48514","55","yes","1024"
"3.374198258","0","8","vist","non-word","85.71428571428571","85.71428571428571","877.3214285714286","877.3214285714286","black","no","legacy","legacy","legacy","0","uniform","0","undefined","undefined","undefined","0","f","0","0","0","0","55","0","0","0","55","0","51","55","51","0","51","3","55","0","55","Tue Feb 16 15:38:20 2021","The main experiment item","yes","Lexical_Decision_Task.osexp","C:/Users/richardkasa/Desktop/Open sesame","no","Andale Mono","no","18","no","white","no","yes","576","legacy","51","51","3","C:/Users/richardkasa/Desktop/Open sesame/subject-5214110.csv","legacy","Lentiform Loewenfeld","3.3.7","yes","yes","600bd7cfb6416f0113b04181","602110864497cf011d9c0822","0","j","NA","space","space","space","space","j","616","NA","1078","2272","1575","2911","616","2","legacy","1024","2","48000","-16","task","5214110","even","NA","16546","19626","18547","126445","2857","6706","5131","126946","121547","126444","126946","126394","19626","127562","14849","125894","2853","95870","Lexical Decision Task","48","49130","56","yes","1024"
"3.067193647","6.73","6","raft","word","85.96491228070175","85.96491228070175","875.1228070175439","875.1228070175439","black","no","legacy","legacy","legacy","0","uniform","1","undefined","undefined","undefined","1","j","0","0","0","0","56","0","0","0","56","0","52","56","52","0","52","3","56","0","56","Tue Feb 16 15:38:20 2021","The main experiment item","yes","Lexical_Decision_Task.osexp","C:/Users/richardkasa/Desktop/Open sesame","no","Andale Mono","no","18","no","white","no","yes","576","legacy","52","52","3","C:/Users/richardkasa/Desktop/Open sesame/subject-5214110.csv","legacy","Lentiform Loewenfeld","3.3.7","yes","yes","600bd7cfb6416f0113b04181","602110864497cf011d9c0822","0","j","NA","space","space","space","space","j","752","NA","1078","2272","1575","2911","752","2","legacy","1024","2","48000","-16","task","5214110","even","NA","16546","19626","18547","129117","2857","6706","5131","129618","121547","129116","129618","129066","19626","130371","14849","125894","2853","127566","Lexical Decision Task","49","49882","57","yes","1024"
"3.197740804","6.74","3","ache","word","86.20689655172414","86.20689655172414","876.6724137931035","876.6724137931035","black","no","legacy","legacy","legacy","0","uniform","1","undefined","undefined","undefined","1","j","0","0","0","0","57","0","0","0","57","0","53","57","53","0","53","3","57","0","57","Tue Feb 16 15:38:20 2021","The main experiment item","yes","Lexical_Decision_Task.osexp","C:/Users/richardkasa/Desktop/Open sesame","no","Andale Mono","no","18","no","white","no","yes","576","legacy","53","53","3","C:/Users/richardkasa/Desktop/Open sesame/subject-5214110.csv","legacy","Lentiform Loewenfeld","3.3.7","yes","yes","600bd7cfb6416f0113b04181","602110864497cf011d9c0822","0","j","NA","space","space","space","space","j","965","NA","1078","2272","1575","2911","965","2","legacy","1024","2","48000","-16","task","5214110","even","NA","16546","19626","18547","130927","2857","6706","5131","131428","121547","130926","131429","130874","19626","132395","14849","130374","2853","127566","Lexical Decision Task","50","50847","58","yes","1024"
"2.709837904","6.85","8","skim","word","84.7457627118644","84.7457627118644","878.3559322033898","878.3559322033898","black","no","legacy","legacy","legacy","0","uniform","0","undefined","undefined","undefined","0","j","0","0","0","0","58","0","0","0","58","0","54","58","54","0","54","3","58","0","58","Tue Feb 16 15:38:20 2021","The main experiment item","yes","Lexical_Decision_Task.osexp","C:/Users/richardkasa/Desktop/Open sesame","no","Andale Mono","no","18","no","white","no","yes","576","legacy","54","54","3","C:/Users/richardkasa/Desktop/Open sesame/subject-5214110.csv","legacy","Lentiform Loewenfeld","3.3.7","yes","yes","600bd7cfb6416f0113b04181","602110864497cf011d9c0822","0","f","NA","space","space","space","space","f","976","NA","1078","2272","1575","2911","976","2","legacy","1024","2","48000","-16","task","5214110","even","NA","16546","19626","18547","132949","2857","6706","5131","133450","121547","132948","133450","132898","19626","134426","14849","132398","2853","127566","Lexical Decision Task","50","51823","59","yes","1024"
"2.812467698","0","7","hafe","non-word","85","85","876.7666666666667","876.7666666666667","black","no","legacy","legacy","legacy","0","uniform","1","undefined","undefined","undefined","1","f","0","0","0","0","59","0","0","0","59","0","55","59","55","0","55","3","59","0","59","Tue Feb 16 15:38:20 2021","The main experiment item","yes","Lexical_Decision_Task.osexp","C:/Users/richardkasa/Desktop/Open sesame","no","Andale Mono","no","18","no","white","no","yes","576","legacy","55","55","3","C:/Users/richardkasa/Desktop/Open sesame/subject-5214110.csv","legacy","Lentiform Loewenfeld","3.3.7","yes","yes","600bd7cfb6416f0113b04181","602110864497cf011d9c0822","0","f","NA","space","space","space","space","f","783","NA","1078","2272","1575","2911","783","2","legacy","1024","2","48000","-16","task","5214110","even","NA","16546","19626","18547","135982","2857","6706","5131","136483","121547","135981","136483","135930","19626","137267","14849","132398","2853","134430","Lexical Decision Task","51","52606","60","yes","1024"
"3.134602053","0","8","jart","non-word","85.24590163934427","85.24590163934427","878.4754098360655","878.4754098360655","black","no","legacy","legacy","legacy","0","uniform","1","undefined","undefined","undefined","1","f","0","0","0","0","60","0","0","0","60","0","56","60","56","0","56","3","60","0","60","Tue Feb 16 15:38:20 2021","The main experiment item","yes","Lexical_Decision_Task.osexp","C:/Users/richardkasa/Desktop/Open sesame","no","Andale Mono","no","18","no","white","no","yes","576","legacy","56","56","3","C:/Users/richardkasa/Desktop/Open sesame/subject-5214110.csv","legacy","Lentiform Loewenfeld","3.3.7","yes","yes","600bd7cfb6416f0113b04181","602110864497cf011d9c0822","0","f","NA","space","space","space","space","f","981","NA","1078","2272","1575","2911","981","2","legacy","1024","2","48000","-16","task","5214110","even","NA","16546","19626","18547","137823","2857","6706","5131","138324","121547","137821","138324","137771","19626","139306","14849","137271","2853","134430","Lexical Decision Task","52","53587","61","yes","1024"
"2.839268497","0","8","maft","non-word","85.48387096774194","85.48387096774194","880.4032258064516","880.4032258064516","black","no","legacy","legacy","legacy","0","uniform","1","undefined","undefined","undefined","1","f","0","0","0","0","61","0","0","0","61","0","57","61","57","0","57","3","61","0","61","Tue Feb 16 15:38:20 2021","The main experiment item","yes","Lexical_Decision_Task.osexp","C:/Users/richardkasa/Desktop/Open sesame","no","Andale Mono","no","18","no","white","no","yes","576","legacy","57","57","3","C:/Users/richardkasa/Desktop/Open sesame/subject-5214110.csv","legacy","Lentiform Loewenfeld","3.3.7","yes","yes","600bd7cfb6416f0113b04181","602110864497cf011d9c0822","0","f","NA","space","space","space","space","f","998","NA","1078","2272","1575","2911","998","2","legacy","1024","2","48000","-16","task","5214110","even","NA","16546","19626","18547","139862","2857","6706","5131","140363","121547","139861","140363","139809","19626","141363","14849","139309","2853","134430","Lexical Decision Task","53","54585","62","yes","1024"
"2.845304797","0","6","buct","non-word","85.71428571428571","85.71428571428571","878.2380952380952","878.2380952380952","black","no","legacy","legacy","legacy","0","uniform","1","undefined","undefined","undefined","1","f","0","0","0","0","62","0","0","0","62","0","58","62","58","0","58","3","62","0","62","Tue Feb 16 15:38:20 2021","The main experiment item","yes","Lexical_Decision_Task.osexp","C:/Users/richardkasa/Desktop/Open sesame","no","Andale Mono","no","18","no","white","no","yes","576","legacy","58","58","3","C:/Users/richardkasa/Desktop/Open sesame/subject-5214110.csv","legacy","Lentiform Loewenfeld","3.3.7","yes","yes","600bd7cfb6416f0113b04181","602110864497cf011d9c0822","0","f","NA","space","space","space","space","f","744","NA","1078","2272","1575","2911","744","2","legacy","1024","2","48000","-16","task","5214110","even","NA","16546","19626","18547","141917","2857","6706","5131","142418","121547","141915","142418","141866","19626","143162","14849","141366","2853","134430","Lexical Decision Task","54","55329","63","yes","1024"
"3.216517684","10.87","3","film","word","85.9375","85.9375","874.359375","874.359375","black","no","legacy","legacy","legacy","0","uniform","1","undefined","undefined","undefined","1","j","0","0","0","0","63","0","0","0","63","0","59","63","59","0","59","3","63","0","63","Tue Feb 16 15:38:20 2021","The main experiment item","yes","Lexical_Decision_Task.osexp","C:/Users/richardkasa/Desktop/Open sesame","no","Andale Mono","no","18","no","white","no","yes","576","legacy","59","59","3","C:/Users/richardkasa/Desktop/Open sesame/subject-5214110.csv","legacy","Lentiform Loewenfeld","3.3.7","yes","yes","600bd7cfb6416f0113b04181","602110864497cf011d9c0822","0","j","NA","space","space","space","space","j","630","NA","1078","2272","1575","2911","630","2","legacy","1024","2","48000","-16","task","5214110","even","NA","16546","19626","18547","143719","2857","6706","5131","144220","121547","143717","144220","143666","19626","144851","14849","143166","2853","134430","Lexical Decision Task","55","55959","64","yes","1024"
"3.276537627","9.15","5","trap","word","86.15384615384616","86.15384615384616","869.6307692307693","869.6307692307693","black","no","legacy","legacy","legacy","0","uniform","1","undefined","undefined","undefined","1","j","0","0","0","0","64","0","0","0","64","0","60","64","60","0","60","3","64","0","64","Tue Feb 16 15:38:20 2021","The main experiment item","yes","Lexical_Decision_Task.osexp","C:/Users/richardkasa/Desktop/Open sesame","no","Andale Mono","no","18","no","white","no","yes","576","legacy","60","60","3","C:/Users/richardkasa/Desktop/Open sesame/subject-5214110.csv","legacy","Lentiform Loewenfeld","3.3.7","yes","yes","600bd7cfb6416f0113b04181","602110864497cf011d9c0822","0","j","NA","space","space","space","space","j","567","NA","1078","2272","1575","2911","567","2","legacy","1024","2","48000","-16","task","5214110","even","NA","16546","19626","18547","145406","2857","6706","5131","145907","121547","145405","145907","145354","19626","146475","14849","144854","2853","134430","Lexical Decision Task","56","56526","65","yes","1024"
"2.713490543","0","3","feps","non-word","86.36363636363636","86.36363636363636","866.3787878787879","866.3787878787879","black","no","legacy","legacy","legacy","0","uniform","1","undefined","undefined","undefined","1","f","0","0","0","0","65","0","0","0","65","0","61","65","61","0","61","3","65","0","65","Tue Feb 16 15:38:20 2021","The main experiment item","yes","Lexical_Decision_Task.osexp","C:/Users/richardkasa/Desktop/Open sesame","no","Andale Mono","no","18","no","white","no","yes","576","legacy","61","61","3","C:/Users/richardkasa/Desktop/Open sesame/subject-5214110.csv","legacy","Lentiform Loewenfeld","3.3.7","yes","yes","600bd7cfb6416f0113b04181","602110864497cf011d9c0822","0","f","NA","space","space","space","space","f","655","NA","1078","2272","1575","2911","655","2","legacy","1024","2","48000","-16","task","5214110","even","NA","16546","19626","18547","147030","2857","6706","5131","147531","121547","147029","147531","146978","19626","148187","14849","146478","2853","134430","Lexical Decision Task","57","57181","66","yes","1024"
"3.067070856","9.39","3","loud","word","86.56716417910448","86.56716417910448","862.7462686567164","862.7462686567164","black","no","legacy","legacy","legacy","0","uniform","1","undefined","undefined","undefined","1","j","0","0","0","0","66","0","0","0","66","0","62","66","62","0","62","3","66","0","66","Tue Feb 16 15:38:20 2021","The main experiment item","yes","Lexical_Decision_Task.osexp","C:/Users/richardkasa/Desktop/Open sesame","no","Andale Mono","no","18","no","white","no","yes","576","legacy","62","62","3","C:/Users/richardkasa/Desktop/Open sesame/subject-5214110.csv","legacy","Lentiform Loewenfeld","3.3.7","yes","yes","600bd7cfb6416f0113b04181","602110864497cf011d9c0822","0","j","NA","space","space","space","space","j","623","NA","1078","2272","1575","2911","623","2","legacy","1024","2","48000","-16","task","5214110","even","NA","16546","19626","18547","148741","2857","6706","5131","149243","121547","148740","149243","148690","19626","149866","14849","148190","2853","134430","Lexical Decision Task","58","57804","67","yes","1024"
"3.037294994","8.64","7","roof","word","86.76470588235294","86.76470588235294","858.1323529411765","858.1323529411765","black","no","legacy","legacy","legacy","0","uniform","1","undefined","undefined","undefined","1","j","0","0","0","0","67","0","0","0","67","0","63","67","63","0","63","3","67","0","67","Tue Feb 16 15:38:20 2021","The main experiment item","yes","Lexical_Decision_Task.osexp","C:/Users/richardkasa/Desktop/Open sesame","no","Andale Mono","no","18","no","white","no","yes","576","legacy","63","63","3","C:/Users/richardkasa/Desktop/Open sesame/subject-5214110.csv","legacy","Lentiform Loewenfeld","3.3.7","yes","yes","600bd7cfb6416f0113b04181","602110864497cf011d9c0822","0","j","NA","space","space","space","space","j","549","NA","1078","2272","1575","2911","549","2","legacy","1024","2","48000","-16","task","5214110","even","NA","16546","19626","18547","150424","2857","6706","5131","150925","121547","150422","150925","150369","19626","151475","14849","149869","2853","134430","Lexical Decision Task","59","58353","68","yes","1024"
"2.755364069","7.72","2","hoax","word","86.95652173913044","86.95652173913044","854.9710144927536","854.9710144927536","black","no","legacy","legacy","legacy","0","uniform","1","undefined","undefined","undefined","1","j","0","0","0","0","68","0","0","0","68","0","64","68","64","0","64","3","68","0","68","Tue Feb 16 15:38:20 2021","The main experiment item","yes","Lexical_Decision_Task.osexp","C:/Users/richardkasa/Desktop/Open sesame","no","Andale Mono","no","18","no","white","no","yes","576","legacy","64","64","3","C:/Users/richardkasa/Desktop/Open sesame/subject-5214110.csv","legacy","Lentiform Loewenfeld","3.3.7","yes","yes","600bd7cfb6416f0113b04181","602110864497cf011d9c0822","0","j","NA","space","space","space","space","j","640","NA","1078","2272","1575","2911","640","2","legacy","1024","2","48000","-16","task","5214110","even","NA","16546","19626","18547","152029","2857","6706","5131","152530","121547","152028","152530","151978","19626","153171","14849","151478","2853","134430","Lexical Decision Task","60","58993","69","yes","1024"
"2.594027722","9.08","8","skip","word","87.14285714285714","87.14285714285714","850.6","850.6","black","no","legacy","legacy","legacy","0","uniform","1","undefined","undefined","undefined","1","j","0","0","0","0","69","0","0","0","69","0","65","69","65","0","65","3","69","0","69","Tue Feb 16 15:38:20 2021","The main experiment item","yes","Lexical_Decision_Task.osexp","C:/Users/richardkasa/Desktop/Open sesame","no","Andale Mono","no","18","no","white","no","yes","576","legacy","65","65","3","C:/Users/richardkasa/Desktop/Open sesame/subject-5214110.csv","legacy","Lentiform Loewenfeld","3.3.7","yes","yes","600bd7cfb6416f0113b04181","602110864497cf011d9c0822","0","j","NA","space","space","space","space","j","549","NA","1078","2272","1575","2911","549","2","legacy","1024","2","48000","-16","task","5214110","even","NA","16546","19626","18547","153728","2857","6706","5131","154229","121547","153727","154229","153674","19626","154779","14849","153174","2853","134430","Lexical Decision Task","61","59542","70","yes","1024"
"2.9737419","7.69","7","claw","word","87.32394366197182","87.32394366197182","845.8169014084507","845.8169014084507","black","no","legacy","legacy","legacy","0","uniform","1","undefined","undefined","undefined","1","j","0","0","0","0","70","0","0","0","70","0","66","70","66","0","66","3","70","0","70","Tue Feb 16 15:38:20 2021","The main experiment item","yes","Lexical_Decision_Task.osexp","C:/Users/richardkasa/Desktop/Open sesame","no","Andale Mono","no","18","no","white","no","yes","576","legacy","66","66","3","C:/Users/richardkasa/Desktop/Open sesame/subject-5214110.csv","legacy","Lentiform Loewenfeld","3.3.7","yes","yes","600bd7cfb6416f0113b04181","602110864497cf011d9c0822","0","j","NA","space","space","space","space","j","511","NA","1078","2272","1575","2911","511","2","legacy","1024","2","48000","-16","task","5214110","even","NA","16546","19626","18547","155334","2857","6706","5131","155835","121547","155333","155835","155282","19626","156346","14849","154782","2853","134430","Lexical Decision Task","62","60053","71","yes","1024"
"2.668385917","5.48","4","twig","word","86.11111111111111","86.11111111111111","843.3888888888889","843.3888888888889","black","no","legacy","legacy","legacy","0","uniform","0","undefined","undefined","undefined","0","j","0","0","0","0","71","0","0","0","71","0","67","71","67","0","67","3","71","0","71","Tue Feb 16 15:38:20 2021","The main experiment item","yes","Lexical_Decision_Task.osexp","C:/Users/richardkasa/Desktop/Open sesame","no","Andale Mono","no","18","no","white","no","yes","576","legacy","67","67","3","C:/Users/richardkasa/Desktop/Open sesame/subject-5214110.csv","legacy","Lentiform Loewenfeld","3.3.7","yes","yes","600bd7cfb6416f0113b04181","602110864497cf011d9c0822","0","f","NA","space","space","space","space","f","671","NA","1078","2272","1575","2911","671","2","legacy","1024","2","48000","-16","task","5214110","even","NA","16546","19626","18547","156901","2857","6706","5131","157403","121547","156900","157403","156850","19626","158075","14849","156350","2853","134430","Lexical Decision Task","62","60724","72","yes","1024"
"2.80048796","0","8","pife","non-word","86.3013698630137","86.3013698630137","839.082191780822","839.082191780822","black","no","legacy","legacy","legacy","0","uniform","1","undefined","undefined","undefined","1","f","0","0","0","0","72","0","0","0","72","0","68","72","68","0","68","3","72","0","72","Tue Feb 16 15:38:20 2021","The main experiment item","yes","Lexical_Decision_Task.osexp","C:/Users/richardkasa/Desktop/Open sesame","no","Andale Mono","no","18","no","white","no","yes","576","legacy","68","68","3","C:/Users/richardkasa/Desktop/Open sesame/subject-5214110.csv","legacy","Lentiform Loewenfeld","3.3.7","yes","yes","600bd7cfb6416f0113b04181","602110864497cf011d9c0822","0","f","NA","space","space","space","space","f","529","NA","1078","2272","1575","2911","529","2","legacy","1024","2","48000","-16","task","5214110","even","NA","16546","19626","18547","159628","2857","6706","5131","160129","121547","159627","160129","159578","19626","160659","14849","156350","2853","158078","Lexical Decision Task","63","61253","73","yes","1024"
"2.794720352","0","9","koot","non-word","86.48648648648648","86.48648648648648","837.4594594594595","837.4594594594595","black","no","legacy","legacy","legacy","0","uniform","1","undefined","undefined","undefined","1","f","0","0","0","0","73","0","0","0","73","0","69","73","69","0","69","3","73","0","73","Tue Feb 16 15:38:20 2021","The main experiment item","yes","Lexical_Decision_Task.osexp","C:/Users/richardkasa/Desktop/Open sesame","no","Andale Mono","no","18","no","white","no","yes","576","legacy","69","69","3","C:/Users/richardkasa/Desktop/Open sesame/subject-5214110.csv","legacy","Lentiform Loewenfeld","3.3.7","yes","yes","600bd7cfb6416f0113b04181","602110864497cf011d9c0822","0","f","NA","space","space","space","space","f","719","NA","1078","2272","1575","2911","719","2","legacy","1024","2","48000","-16","task","5214110","even","NA","16546","19626","18547","161214","2857","6706","5131","161715","121547","161212","161715","161162","19626","162435","14849","160662","2853","158078","Lexical Decision Task","64","61972","74","yes","1024"
"3.15462682","0","6","noal","non-word","85.33333333333333","85.33333333333333","833.4133333333333","833.4133333333333","black","no","legacy","legacy","legacy","0","uniform","0","undefined","undefined","undefined","0","f","0","0","0","0","74","0","0","0","74","0","70","74","70","0","70","3","74","0","74","Tue Feb 16 15:38:20 2021","The main experiment item","yes","Lexical_Decision_Task.osexp","C:/Users/richardkasa/Desktop/Open sesame","no","Andale Mono","no","18","no","white","no","yes","576","legacy","70","70","3","C:/Users/richardkasa/Desktop/Open sesame/subject-5214110.csv","legacy","Lentiform Loewenfeld","3.3.7","yes","yes","600bd7cfb6416f0113b04181","602110864497cf011d9c0822","0","j","NA","space","space","space","space","j","534","NA","1078","2272","1575","2911","534","2","legacy","1024","2","48000","-16","task","5214110","even","NA","16546","19626","18547","162990","2857","6706","5131","163491","121547","162989","163491","162938","19626","164027","14849","162438","2853","158078","Lexical Decision Task","64","62506","75","yes","1024"
"3.269668578","0","7","trag","non-word","85.52631578947368","85.52631578947368","833.9078947368421","833.9078947368421","black","no","legacy","legacy","legacy","0","uniform","1","undefined","undefined","undefined","1","f","0","0","0","0","75","0","0","0","75","0","71","75","71","0","71","3","75","0","75","Tue Feb 16 15:38:20 2021","The main experiment item","yes","Lexical_Decision_Task.osexp","C:/Users/richardkasa/Desktop/Open sesame","no","Andale Mono","no","18","no","white","no","yes","576","legacy","71","71","3","C:/Users/richardkasa/Desktop/Open sesame/subject-5214110.csv","legacy","Lentiform Loewenfeld","3.3.7","yes","yes","600bd7cfb6416f0113b04181","602110864497cf011d9c0822","0","f","NA","space","space","space","space","f","871","NA","1078","2272","1575","2911","871","2","legacy","1024","2","48000","-16","task","5214110","even","NA","16546","19626","18547","165581","2857","6706","5131","166082","121547","165580","166082","165530","19626","166954","14849","162438","2853","164030","Lexical Decision Task","65","63377","76","yes","1024"
"2.983324025","9.56","2","debt","word","85.71428571428571","85.71428571428571","832.6233766233767","832.6233766233767","black","no","legacy","legacy","legacy","0","uniform","1","undefined","undefined","undefined","1","j","0","0","0","0","76","0","0","0","76","0","72","76","72","0","72","3","76","0","76","Tue Feb 16 15:38:20 2021","The main experiment item","yes","Lexical_Decision_Task.osexp","C:/Users/richardkasa/Desktop/Open sesame","no","Andale Mono","no","18","no","white","no","yes","576","legacy","72","72","3","C:/Users/richardkasa/Desktop/Open sesame/subject-5214110.csv","legacy","Lentiform Loewenfeld","3.3.7","yes","yes","600bd7cfb6416f0113b04181","602110864497cf011d9c0822","0","j","NA","space","space","space","space","j","735","NA","1078","2272","1575","2911","735","2","legacy","1024","2","48000","-16","task","5214110","even","NA","16546","19626","18547","167509","2857","6706","5131","168010","121547","167508","168010","167458","19626","168746","14849","166958","2853","164030","Lexical Decision Task","66","64112","77","yes","1024"
"2.75025376","10.2","6","jump","word","85.8974358974359","85.8974358974359","829.2948717948718","829.2948717948718","black","no","legacy","legacy","legacy","0","uniform","1","undefined","undefined","undefined","1","j","0","0","0","0","77","0","0","0","77","0","73","77","73","0","73","3","77","0","77","Tue Feb 16 15:38:20 2021","The main experiment item","yes","Lexical_Decision_Task.osexp","C:/Users/richardkasa/Desktop/Open sesame","no","Andale Mono","no","18","no","white","no","yes","576","legacy","73","73","3","C:/Users/richardkasa/Desktop/Open sesame/subject-5214110.csv","legacy","Lentiform Loewenfeld","3.3.7","yes","yes","600bd7cfb6416f0113b04181","602110864497cf011d9c0822","0","j","NA","space","space","space","space","j","573","NA","1078","2272","1575","2911","573","2","legacy","1024","2","48000","-16","task","5214110","even","NA","16546","19626","18547","169304","2857","6706","5131","169805","121547","169302","169805","169250","19626","170379","14849","168750","2853","164030","Lexical Decision Task","67","64685","78","yes","1024"
"2.895974732","6.65","5","sift","word","84.81012658227849","84.81012658227849","826.7721518987341","826.7721518987341","black","no","legacy","legacy","legacy","0","uniform","0","undefined","undefined","undefined","0","j","0","0","0","0","78","0","0","0","78","0","74","78","74","0","74","3","78","0","78","Tue Feb 16 15:38:20 2021","The main experiment item","yes","Lexical_Decision_Task.osexp","C:/Users/richardkasa/Desktop/Open sesame","no","Andale Mono","no","18","no","white","no","yes","576","legacy","74","74","3","C:/Users/richardkasa/Desktop/Open sesame/subject-5214110.csv","legacy","Lentiform Loewenfeld","3.3.7","yes","yes","600bd7cfb6416f0113b04181","602110864497cf011d9c0822","0","f","NA","space","space","space","space","f","630","NA","1078","2272","1575","2911","630","2","legacy","1024","2","48000","-16","task","5214110","even","NA","16546","19626","18547","170935","2857","6706","5131","171436","121547","170934","171436","170882","19626","172067","14849","170382","2853","164030","Lexical Decision Task","67","65315","79","yes","1024"
"2.898725182","0","7","turl","non-word","83.75","83.75","827.3125","827.3125","black","no","legacy","legacy","legacy","0","uniform","0","undefined","undefined","undefined","0","f","0","0","0","0","79","0","0","0","79","0","75","79","75","0","75","3","79","0","79","Tue Feb 16 15:38:20 2021","The main experiment item","yes","Lexical_Decision_Task.osexp","C:/Users/richardkasa/Desktop/Open sesame","no","Andale Mono","no","18","no","white","no","yes","576","legacy","75","75","3","C:/Users/richardkasa/Desktop/Open sesame/subject-5214110.csv","legacy","Lentiform Loewenfeld","3.3.7","yes","yes","600bd7cfb6416f0113b04181","602110864497cf011d9c0822","0","j","NA","space","space","space","space","j","870","NA","1078","2272","1575","2911","870","2","legacy","1024","2","48000","-16","task","5214110","even","NA","16546","19626","18547","173623","2857","6706","5131","174124","121547","173622","174124","173570","19626","174994","14849","170382","2853","172070","Lexical Decision Task","67","66185","80","yes","1024"
"2.8162413","0","5","nusk","non-word","83.95061728395062","83.95061728395062","827.8518518518518","827.8518518518518","black","no","legacy","legacy","legacy","0","uniform","1","undefined","undefined","undefined","1","f","0","0","0","0","80","0","0","0","80","0","76","80","76","0","76","3","80","0","80","Tue Feb 16 15:38:20 2021","The main experiment item","yes","Lexical_Decision_Task.osexp","C:/Users/richardkasa/Desktop/Open sesame","no","Andale Mono","no","18","no","white","no","yes","576","legacy","76","76","3","C:/Users/richardkasa/Desktop/Open sesame/subject-5214110.csv","legacy","Lentiform Loewenfeld","3.3.7","yes","yes","600bd7cfb6416f0113b04181","602110864497cf011d9c0822","0","f","NA","space","space","space","space","f","871","NA","1078","2272","1575","2911","871","2","legacy","1024","2","48000","-16","task","5214110","even","NA","16546","19626","18547","176549","2857","6706","5131","177050","121547","176548","177050","176498","19626","177922","14849","170382","2853","174998","Lexical Decision Task","68","67056","81","yes","1024"
"3.165936429","0","7","leps","non-word","84.14634146341463","84.14634146341463","827.609756097561","827.609756097561","black","no","legacy","legacy","legacy","0","uniform","1","undefined","undefined","undefined","1","f","0","0","0","0","81","0","0","0","81","0","77","81","77","0","77","3","81","0","81","Tue Feb 16 15:38:20 2021","The main experiment item","yes","Lexical_Decision_Task.osexp","C:/Users/richardkasa/Desktop/Open sesame","no","Andale Mono","no","18","no","white","no","yes","576","legacy","77","77","3","C:/Users/richardkasa/Desktop/Open sesame/subject-5214110.csv","legacy","Lentiform Loewenfeld","3.3.7","yes","yes","600bd7cfb6416f0113b04181","602110864497cf011d9c0822","0","f","NA","space","space","space","space","f","808","NA","1078","2272","1575","2911","808","2","legacy","1024","2","48000","-16","task","5214110","even","NA","16546","19626","18547","178477","2857","6706","5131","178978","121547","178476","178978","178426","19626","179787","14849","177926","2853","174998","Lexical Decision Task","69","67864","82","yes","1024"
"3.137775856","7.39","5","comb","word","84.33734939759036","84.33734939759036","827.7590361445783","827.7590361445783","black","no","legacy","legacy","legacy","0","uniform","1","undefined","undefined","undefined","1","j","0","0","0","0","82","0","0","0","82","0","78","82","78","0","78","3","82","0","82","Tue Feb 16 15:38:20 2021","The main experiment item","yes","Lexical_Decision_Task.osexp","C:/Users/richardkasa/Desktop/Open sesame","no","Andale Mono","no","18","no","white","no","yes","576","legacy","78","78","3","C:/Users/richardkasa/Desktop/Open sesame/subject-5214110.csv","legacy","Lentiform Loewenfeld","3.3.7","yes","yes","600bd7cfb6416f0113b04181","602110864497cf011d9c0822","0","j","NA","space","space","space","space","j","840","NA","1078","2272","1575","2911","840","2","legacy","1024","2","48000","-16","task","5214110","even","NA","16546","19626","18547","180341","2857","6706","5131","180842","121547","180340","180842","180290","19626","181683","14849","179790","2853","174998","Lexical Decision Task","70","68704","83","yes","1024"
"2.695770526","7.34","6","pawn","word","84.52380952380952","84.52380952380952","829.7738095238095","829.7738095238095","black","no","legacy","legacy","legacy","0","uniform","1","undefined","undefined","undefined","1","j","0","0","0","0","83","0","0","0","83","0","79","83","79","0","79","3","83","0","83","Tue Feb 16 15:38:20 2021","The main experiment item","yes","Lexical_Decision_Task.osexp","C:/Users/richardkasa/Desktop/Open sesame","no","Andale Mono","no","18","no","white","no","yes","576","legacy","79","79","3","C:/Users/richardkasa/Desktop/Open sesame/subject-5214110.csv","legacy","Lentiform Loewenfeld","3.3.7","yes","yes","600bd7cfb6416f0113b04181","602110864497cf011d9c0822","0","j","NA","space","space","space","space","j","997","NA","1078","2272","1575","2911","997","2","legacy","1024","2","48000","-16","task","5214110","even","NA","16546","19626","18547","182240","2857","6706","5131","182741","121547","182239","182741","182186","19626","183739","14849","181686","2853","174998","Lexical Decision Task","71","69701","84","yes","1024"
"2.893578687","8.69","3","surf","word","84.70588235294117","84.70588235294117","826.5176470588235","826.5176470588235","black","no","legacy","legacy","legacy","0","uniform","1","undefined","undefined","undefined","1","j","0","0","0","0","84","0","0","0","84","0","80","84","80","0","80","3","84","0","84","Tue Feb 16 15:38:20 2021","The main experiment item","yes","Lexical_Decision_Task.osexp","C:/Users/richardkasa/Desktop/Open sesame","no","Andale Mono","no","18","no","white","no","yes","576","legacy","80","80","3","C:/Users/richardkasa/Desktop/Open sesame/subject-5214110.csv","legacy","Lentiform Loewenfeld","3.3.7","yes","yes","600bd7cfb6416f0113b04181","602110864497cf011d9c0822","0","j","NA","space","space","space","space","j","553","NA","1078","2272","1575","2911","553","2","legacy","1024","2","48000","-16","task","5214110","even","NA","16546","19626","18547","184292","2857","6706","5131","184793","121547","184291","184793","184242","19626","185346","14849","183742","2853","174998","Lexical Decision Task","72","70254","85","yes","1024"
"3.259832699","0","9","flar","non-word","84.88372093023256","84.88372093023256","828.2441860465116","828.2441860465116","black","no","legacy","legacy","legacy","0","uniform","1","undefined","undefined","undefined","1","f","0","0","0","0","85","0","0","0","85","0","81","85","81","0","81","3","85","0","85","Tue Feb 16 15:38:20 2021","The main experiment item","yes","Lexical_Decision_Task.osexp","C:/Users/richardkasa/Desktop/Open sesame","no","Andale Mono","no","18","no","white","no","yes","576","legacy","81","81","3","C:/Users/richardkasa/Desktop/Open sesame/subject-5214110.csv","legacy","Lentiform Loewenfeld","3.3.7","yes","yes","600bd7cfb6416f0113b04181","602110864497cf011d9c0822","0","f","NA","space","space","space","space","f","975","NA","1078","2272","1575","2911","975","2","legacy","1024","2","48000","-16","task","5214110","even","NA","16546","19626","18547","185902","2857","6706","5131","186403","121547","185901","186403","185850","19626","187379","14849","185350","2853","174998","Lexical Decision Task","73","71229","86","yes","1024"
"3.16326079","0","5","parg","non-word","85.05747126436782","85.05747126436782","826.7126436781609","826.7126436781609","black","no","legacy","legacy","legacy","0","uniform","1","undefined","undefined","undefined","1","f","0","0","0","0","86","0","0","0","86","0","82","86","82","0","82","3","86","0","86","Tue Feb 16 15:38:20 2021","The main experiment item","yes","Lexical_Decision_Task.osexp","C:/Users/richardkasa/Desktop/Open sesame","no","Andale Mono","no","18","no","white","no","yes","576","legacy","82","82","3","C:/Users/richardkasa/Desktop/Open sesame/subject-5214110.csv","legacy","Lentiform Loewenfeld","3.3.7","yes","yes","600bd7cfb6416f0113b04181","602110864497cf011d9c0822","0","f","NA","space","space","space","space","f","695","NA","1078","2272","1575","2911","695","2","legacy","1024","2","48000","-16","task","5214110","even","NA","16546","19626","18547","187934","2857","6706","5131","188435","121547","187933","188435","187883","19626","189131","14849","187383","2853","174998","Lexical Decision Task","74","71924","87","yes","1024"
"3.225825991","0","7","talm","non-word","85.22727272727273","85.22727272727273","824.9431818181819","824.9431818181819","black","no","legacy","legacy","legacy","0","uniform","1","undefined","undefined","undefined","1","f","0","0","0","0","87","0","0","0","87","0","83","87","83","0","83","3","87","0","87","Tue Feb 16 15:38:20 2021","The main experiment item","yes","Lexical_Decision_Task.osexp","C:/Users/richardkasa/Desktop/Open sesame","no","Andale Mono","no","18","no","white","no","yes","576","legacy","83","83","3","C:/Users/richardkasa/Desktop/Open sesame/subject-5214110.csv","legacy","Lentiform Loewenfeld","3.3.7","yes","yes","600bd7cfb6416f0113b04181","602110864497cf011d9c0822","0","f","NA","space","space","space","space","f","671","NA","1078","2272","1575","2911","671","2","legacy","1024","2","48000","-16","task","5214110","even","NA","16546","19626","18547","189686","2857","6706","5131","190187","121547","189685","190187","189634","19626","190859","14849","189134","2853","174998","Lexical Decision Task","75","72595","88","yes","1024"
"3.1430148","7.92","8","bald","word","85.3932584269663","85.3932584269663","823.4943820224719","823.4943820224719","black","no","legacy","legacy","legacy","0","uniform","1","undefined","undefined","undefined","1","j","0","0","0","0","88","0","0","0","88","0","84","88","84","0","84","3","88","0","88","Tue Feb 16 15:38:20 2021","The main experiment item","yes","Lexical_Decision_Task.osexp","C:/Users/richardkasa/Desktop/Open sesame","no","Andale Mono","no","18","no","white","no","yes","576","legacy","84","84","3","C:/Users/richardkasa/Desktop/Open sesame/subject-5214110.csv","legacy","Lentiform Loewenfeld","3.3.7","yes","yes","600bd7cfb6416f0113b04181","602110864497cf011d9c0822","0","j","NA","space","space","space","space","j","696","NA","1078","2272","1575","2911","696","2","legacy","1024","2","48000","-16","task","5214110","even","NA","16546","19626","18547","191413","2857","6706","5131","191914","121547","191412","191914","191362","19626","192610","14849","190861","2853","174998","Lexical Decision Task","76","73291","89","yes","1024"
"3.194328374","9.42","6","harm","word","85.55555555555556","85.55555555555556","820.9","820.9","black","no","legacy","legacy","legacy","0","uniform","1","undefined","undefined","undefined","1","j","0","0","0","0","89","0","0","0","89","0","85","89","85","0","85","3","89","0","89","Tue Feb 16 15:38:20 2021","The main experiment item","yes","Lexical_Decision_Task.osexp","C:/Users/richardkasa/Desktop/Open sesame","no","Andale Mono","no","18","no","white","no","yes","576","legacy","85","85","3","C:/Users/richardkasa/Desktop/Open sesame/subject-5214110.csv","legacy","Lentiform Loewenfeld","3.3.7","yes","yes","600bd7cfb6416f0113b04181","602110864497cf011d9c0822","0","j","NA","space","space","space","space","j","590","NA","1078","2272","1575","2911","590","2","legacy","1024","2","48000","-16","task","5214110","even","NA","16546","19626","18547","193167","2857","6706","5131","193668","121547","193166","193668","193113","19626","194259","14849","192613","2853","174998","Lexical Decision Task","77","73881","90","yes","1024"
"3.353210739","0","9","reet","non-word","85.71428571428571","85.71428571428571","820.8351648351648","820.8351648351648","black","no","legacy","legacy","legacy","0","uniform","1","undefined","undefined","undefined","1","f","0","0","0","0","90","0","0","0","90","0","86","90","86","0","86","3","90","0","90","Tue Feb 16 15:38:20 2021","The main experiment item","yes","Lexical_Decision_Task.osexp","C:/Users/richardkasa/Desktop/Open sesame","no","Andale Mono","no","18","no","white","no","yes","576","legacy","86","86","3","C:/Users/richardkasa/Desktop/Open sesame/subject-5214110.csv","legacy","Lentiform Loewenfeld","3.3.7","yes","yes","600bd7cfb6416f0113b04181","602110864497cf011d9c0822","0","f","NA","space","space","space","space","f","815","NA","1078","2272","1575","2911","815","2","legacy","1024","2","48000","-16","task","5214110","even","NA","16546","19626","18547","194812","2857","6706","5131","195314","121547","194811","195314","194762","19626","196130","14849","194262","2853","174998","Lexical Decision Task","78","74696","91","yes","1024"
"2.979548375","8.71","4","soup","word","85.8695652173913","85.8695652173913","818.1739130434783","818.1739130434783","black","no","legacy","legacy","legacy","0","uniform","1","undefined","undefined","undefined","1","j","0","0","0","0","91","0","0","0","91","0","87","91","87","0","87","3","91","0","91","Tue Feb 16 15:38:20 2021","The main experiment item","yes","Lexical_Decision_Task.osexp","C:/Users/richardkasa/Desktop/Open sesame","no","Andale Mono","no","18","no","white","no","yes","576","legacy","87","87","3","C:/Users/richardkasa/Desktop/Open sesame/subject-5214110.csv","legacy","Lentiform Loewenfeld","3.3.7","yes","yes","600bd7cfb6416f0113b04181","602110864497cf011d9c0822","0","j","NA","space","space","space","space","j","576","NA","1078","2272","1575","2911","576","2","legacy","1024","2","48000","-16","task","5214110","even","NA","16546","19626","18547","196685","2857","6706","5131","197186","121547","196684","197186","196634","19626","197763","14849","196134","2853","174998","Lexical Decision Task","79","75272","92","yes","1024"
"3.261341392","5.08","8","reek","word","86.02150537634408","86.02150537634408","816.1290322580645","816.1290322580645","black","no","legacy","legacy","legacy","0","uniform","1","undefined","undefined","undefined","1","j","0","0","0","0","92","0","0","0","92","0","88","92","88","0","88","3","92","0","92","Tue Feb 16 15:38:20 2021","The main experiment item","yes","Lexical_Decision_Task.osexp","C:/Users/richardkasa/Desktop/Open sesame","no","Andale Mono","no","18","no","white","no","yes","576","legacy","88","88","3","C:/Users/richardkasa/Desktop/Open sesame/subject-5214110.csv","legacy","Lentiform Loewenfeld","3.3.7","yes","yes","600bd7cfb6416f0113b04181","602110864497cf011d9c0822","0","j","NA","space","space","space","space","j","628","NA","1078","2272","1575","2911","628","2","legacy","1024","2","48000","-16","task","5214110","even","NA","16546","19626","18547","198321","2857","6706","5131","198822","121547","198320","198822","198267","19626","199451","14849","197767","2853","174998","Lexical Decision Task","80","75900","93","yes","1024"
"3.102203805","7.21","3","drip","word","86.17021276595744","86.17021276595744","813.9148936170212","813.9148936170212","black","no","legacy","legacy","legacy","0","uniform","1","undefined","undefined","undefined","1","j","0","0","0","0","93","0","0","0","93","0","89","93","89","0","89","3","93","0","93","Tue Feb 16 15:38:20 2021","The main experiment item","yes","Lexical_Decision_Task.osexp","C:/Users/richardkasa/Desktop/Open sesame","no","Andale Mono","no","18","no","white","no","yes","576","legacy","89","89","3","C:/Users/richardkasa/Desktop/Open sesame/subject-5214110.csv","legacy","Lentiform Loewenfeld","3.3.7","yes","yes","600bd7cfb6416f0113b04181","602110864497cf011d9c0822","0","j","NA","space","space","space","space","j","608","NA","1078","2272","1575","2911","608","2","legacy","1024","2","48000","-16","task","5214110","even","NA","16546","19626","18547","200005","2857","6706","5131","200506","121547","200004","200506","199954","19626","201115","14849","199454","2853","174998","Lexical Decision Task","81","76508","94","yes","1024"
"3.043885998","0","9","gome","non-word","86.3157894736842","86.3157894736842","813.5052631578948","813.5052631578948","black","no","legacy","legacy","legacy","0","uniform","1","undefined","undefined","undefined","1","f","0","0","0","0","94","0","0","0","94","0","90","94","90","0","90","3","94","0","94","Tue Feb 16 15:38:20 2021","The main experiment item","yes","Lexical_Decision_Task.osexp","C:/Users/richardkasa/Desktop/Open sesame","no","Andale Mono","no","18","no","white","no","yes","576","legacy","90","90","3","C:/Users/richardkasa/Desktop/Open sesame/subject-5214110.csv","legacy","Lentiform Loewenfeld","3.3.7","yes","yes","600bd7cfb6416f0113b04181","602110864497cf011d9c0822","0","f","NA","space","space","space","space","f","775","NA","1078","2272","1575","2911","775","2","legacy","1024","2","48000","-16","task","5214110","even","NA","16546","19626","18547","201670","2857","6706","5131","202171","121547","201668","202171","201618","19626","202947","14849","201118","2853","174998","Lexical Decision Task","82","77283","95","yes","1024"
"2.69019608","9.01","2","myth","word","86.45833333333333","86.45833333333333","811.1041666666666","811.1041666666666","black","no","legacy","legacy","legacy","0","uniform","1","undefined","undefined","undefined","1","j","0","0","0","0","95","0","0","0","95","0","91","95","91","0","91","3","95","0","95","Tue Feb 16 15:38:20 2021","The main experiment item","yes","Lexical_Decision_Task.osexp","C:/Users/richardkasa/Desktop/Open sesame","no","Andale Mono","no","18","no","white","no","yes","576","legacy","91","91","3","C:/Users/richardkasa/Desktop/Open sesame/subject-5214110.csv","legacy","Lentiform Loewenfeld","3.3.7","yes","yes","600bd7cfb6416f0113b04181","602110864497cf011d9c0822","0","j","NA","space","space","space","space","j","583","NA","1078","2272","1575","2911","583","2","legacy","1024","2","48000","-16","task","5214110","even","NA","16546","19626","18547","203502","2857","6706","5131","204003","121547","203501","204003","203450","19626","204587","14849","202950","2853","174998","Lexical Decision Task","83","77866","96","yes","1024"
"2.778633532","0","3","jurp","non-word","86.5979381443299","86.5979381443299","809.2371134020618","809.2371134020618","black","no","legacy","legacy","legacy","0","uniform","1","undefined","undefined","undefined","1","f","0","0","0","0","96","0","0","0","96","0","92","96","92","0","92","3","96","0","96","Tue Feb 16 15:38:20 2021","The main experiment item","yes","Lexical_Decision_Task.osexp","C:/Users/richardkasa/Desktop/Open sesame","no","Andale Mono","no","18","no","white","no","yes","576","legacy","92","92","3","C:/Users/richardkasa/Desktop/Open sesame/subject-5214110.csv","legacy","Lentiform Loewenfeld","3.3.7","yes","yes","600bd7cfb6416f0113b04181","602110864497cf011d9c0822","0","f","NA","space","space","space","space","f","630","NA","1078","2272","1575","2911","630","2","legacy","1024","2","48000","-16","task","5214110","even","NA","16546","19626","18547","205143","2857","6706","5131","205644","121547","205142","205644","205091","19626","206275","14849","204591","2853","174998","Lexical Decision Task","84","78496","97","yes","1024"
"2.782472624","10.55","2","huge","word","86.73469387755102","86.73469387755102","806.7755102040817","806.7755102040817","black","no","legacy","legacy","legacy","0","uniform","1","undefined","undefined","undefined","1","j","0","0","0","0","97","0","0","0","97","0","93","97","93","0","93","3","97","0","97","Tue Feb 16 15:38:20 2021","The main experiment item","yes","Lexical_Decision_Task.osexp","C:/Users/richardkasa/Desktop/Open sesame","no","Andale Mono","no","18","no","white","no","yes","576","legacy","93","93","3","C:/Users/richardkasa/Desktop/Open sesame/subject-5214110.csv","legacy","Lentiform Loewenfeld","3.3.7","yes","yes","600bd7cfb6416f0113b04181","602110864497cf011d9c0822","0","j","NA","space","space","space","space","j","568","NA","1078","2272","1575","2911","568","2","legacy","1024","2","48000","-16","task","5214110","even","NA","16546","19626","18547","206829","2857","6706","5131","207330","121547","206828","207330","206778","19626","207899","14849","206278","2853","174998","Lexical Decision Task","85","79064","98","yes","1024"
