"Log_BG","Log_Freq_HAL","Ortho_N","Stimulus","Type","acc","accuracy","average_response_time","avg_rt","background","bidi","canvas_backend","clock_backend","color_backend","compensation","coordinates","correct","correct_Experimental_intro","correct_Introduction","correct_Practice_intro","correct_experimenter_kb","correct_response","count_End_Of_Experiment","count_End_Of_Practice","count_Experimental_Loop","count_Experimental_intro","count_Fixation","count_Introduction","count_Practice_Loop","count_Practice_intro","count_Stimulus","count_block_break_feedback","count_experimental_sequence","count_experimenter_kb","count_increment_trial_count","count_init_trial_count","count_logger","count_practice_sequence","count_right","count_task","count_wrong","datetime","description","disable_garbage_collection","experiment_file","experiment_path","font_bold","font_family","font_italic","font_size","font_underline","foreground","form_clicks","fullscreen","height","keyboard_backend","live_row","live_row_Experimental_Loop","live_row_Practice_Loop","logfile","mouse_backend","opensesame_codename","opensesame_version","osf_always_upload_data","osf_always_upload_experiment","osf_datanode_id","osf_id","repeat_cycle","response","response_End_Of_Experiment","response_Experimental_intro","response_Introduction","response_Practice_intro","response_block_break_feedback","response_experimenter_kb","response_time","response_time_End_Of_Experiment","response_time_Experimental_intro","response_time_Introduction","response_time_Practice_intro","response_time_block_break_feedback","response_time_experimenter_kb","round_decimals","sampler_backend","sound_buf_size","sound_channels","sound_freq","sound_sample_size","start","subject_nr","subject_parity","time_End_Of_Experiment","time_End_Of_Practice","time_Experimental_Loop","time_Experimental_intro","time_Fixation","time_Introduction","time_Practice_Loop","time_Practice_intro","time_Stimulus","time_block_break_feedback","time_experimental_sequence","time_experimenter_kb","time_increment_trial_count","time_init_trial_count","time_logger","time_practice_sequence","time_right","time_task","time_wrong","title","total_correct","total_response_time","total_responses","uniform_coordinates","width"
"3.252447662","9.67","9","boat","word","80","80","1805","1805","black","no","legacy","legacy","legacy","0","uniform","1","undefined","undefined","undefined","1","j","0","0","0","0","4","0","0","0","4","NA","0","4","0","0","0","3","4","0","4","Sun Feb 21 20:33:11 2021","The main experiment item","yes","Lexical_Decision_Task.osexp","C:/Users/Lydia/Documents/COG + LANG/COG + LANG ASSIGNMENTS","no","Andale Mono","no","18","no","white","no","yes","576","legacy","0","0","3","C:/Users/Lydia/Documents/COG + LANG/COG + LANG ASSIGNMENTS/subject-5062896.csv","legacy","Lentiform Loewenfeld","3.3.8","yes","yes","600bd7cfb6416f0113b04181","602110864497cf011d9c0822","0","j","NA","return","return","return","NA","j","1983","NA","24872","29663","14262","NA","1983","2","legacy","1024","2","48000","-16","task","5062896","even","NA","58694","85568","60696","85626","2325","46253","31991","86127","NA","85624","86128","NA","85568","88111","56510","58170","2322","49877","Lexical Decision Task","4","9025","5","yes","1024"
"2.821076612","0","4","lult","non-word","83.33333333333333","83.33333333333333","1737.3333333333333","1737.3333333333333","black","no","legacy","legacy","legacy","0","uniform","1","undefined","undefined","undefined","1","f","0","0","0","0","5","0","0","0","5","NA","1","5","1","0","1","3","5","0","5","Sun Feb 21 20:33:11 2021","The main experiment item","yes","Lexical_Decision_Task.osexp","C:/Users/Lydia/Documents/COG + LANG/COG + LANG ASSIGNMENTS","no","Andale Mono","no","18","no","white","no","yes","576","legacy","1","1","3","C:/Users/Lydia/Documents/COG + LANG/COG + LANG ASSIGNMENTS/subject-5062896.csv","legacy","Lentiform Loewenfeld","3.3.8","yes","yes","600bd7cfb6416f0113b04181","602110864497cf011d9c0822","0","f","NA","return","return","return","NA","f","1399","NA","24872","29663","14262","NA","1399","2","legacy","1024","2","48000","-16","task","5062896","even","NA","58694","85568","60696","88709","2325","46253","31991","89211","NA","88707","89211","88625","85568","90611","56510","88125","2322","49877","Lexical Decision Task","5","10424","6","yes","1024"
"3.066077331","0","7","vorn","non-word","85.71428571428571","85.71428571428571","1695.857142857143","1695.857142857143","black","no","legacy","legacy","legacy","0","uniform","1","undefined","undefined","undefined","1","f","0","0","0","0","6","0","0","0","6","NA","2","6","2","0","2","3","6","0","6","Sun Feb 21 20:33:11 2021","The main experiment item","yes","Lexical_Decision_Task.osexp","C:/Users/Lydia/Documents/COG + LANG/COG + LANG ASSIGNMENTS","no","Andale Mono","no","18","no","white","no","yes","576","legacy","2","2","3","C:/Users/Lydia/Documents/COG + LANG/COG + LANG ASSIGNMENTS/subject-5062896.csv","legacy","Lentiform Loewenfeld","3.3.8","yes","yes","600bd7cfb6416f0113b04181","602110864497cf011d9c0822","0","f","NA","return","return","return","NA","f","1447","NA","24872","29663","14262","NA","1447","2","legacy","1024","2","48000","-16","task","5062896","even","NA","58694","85568","60696","91197","2325","46253","31991","91699","NA","91195","91699","91120","85568","93146","56510","90620","2322","49877","Lexical Decision Task","6","11871","7","yes","1024"
"3.397302518","7.01","2","knit","word","87.5","87.5","1637","1637","black","no","legacy","legacy","legacy","0","uniform","1","undefined","undefined","undefined","1","j","0","0","0","0","7","0","0","0","7","NA","3","7","3","0","3","3","7","0","7","Sun Feb 21 20:33:11 2021","The main experiment item","yes","Lexical_Decision_Task.osexp","C:/Users/Lydia/Documents/COG + LANG/COG + LANG ASSIGNMENTS","no","Andale Mono","no","18","no","white","no","yes","576","legacy","3","3","3","C:/Users/Lydia/Documents/COG + LANG/COG + LANG ASSIGNMENTS/subject-5062896.csv","legacy","Lentiform Loewenfeld","3.3.8","yes","yes","600bd7cfb6416f0113b04181","602110864497cf011d9c0822","0","j","NA","return","return","return","NA","j","1225","NA","24872","29663","14262","NA","1225","2","legacy","1024","2","48000","-16","task","5062896","even","NA","58694","85568","60696","93730","2325","46253","31991","94232","NA","93729","94232","93656","85568","95458","56510","93156","2322","49877","Lexical Decision Task","7","13096","8","yes","1024"
"3.481012421","8.34","5","teen","word","88.88888888888889","88.88888888888889","1579.888888888889","1579.888888888889","black","no","legacy","legacy","legacy","0","uniform","1","undefined","undefined","undefined","1","j","0","0","0","0","8","0","0","0","8","NA","4","8","4","0","4","3","8","0","8","Sun Feb 21 20:33:11 2021","The main experiment item","yes","Lexical_Decision_Task.osexp","C:/Users/Lydia/Documents/COG + LANG/COG + LANG ASSIGNMENTS","no","Andale Mono","no","18","no","white","no","yes","576","legacy","4","4","3","C:/Users/Lydia/Documents/COG + LANG/COG + LANG ASSIGNMENTS/subject-5062896.csv","legacy","Lentiform Loewenfeld","3.3.8","yes","yes","600bd7cfb6416f0113b04181","602110864497cf011d9c0822","0","j","NA","return","return","return","NA","j","1123","NA","24872","29663","14262","NA","1123","2","legacy","1024","2","48000","-16","task","5062896","even","NA","58694","85568","60696","96041","2325","46253","31991","96542","NA","96039","96543","95967","85568","97667","56510","95466","2322","49877","Lexical Decision Task","8","14219","9","yes","1024"
"3.082307743","9.68","8","camp","word","90","90","1535.9","1535.9","black","no","legacy","legacy","legacy","0","uniform","1","undefined","undefined","undefined","1","j","0","0","0","0","9","0","0","0","9","NA","5","9","5","0","5","3","9","0","9","Sun Feb 21 20:33:11 2021","The main experiment item","yes","Lexical_Decision_Task.osexp","C:/Users/Lydia/Documents/COG + LANG/COG + LANG ASSIGNMENTS","no","Andale Mono","no","18","no","white","no","yes","576","legacy","5","5","3","C:/Users/Lydia/Documents/COG + LANG/COG + LANG ASSIGNMENTS/subject-5062896.csv","legacy","Lentiform Loewenfeld","3.3.8","yes","yes","600bd7cfb6416f0113b04181","602110864497cf011d9c0822","0","j","NA","return","return","return","NA","j","1140","NA","24872","29663","14262","NA","1140","2","legacy","1024","2","48000","-16","task","5062896","even","NA","58694","85568","60696","98253","2325","46253","31991","98755","NA","98252","98756","98176","85568","99896","56510","97675","2322","49877","Lexical Decision Task","9","15359","10","yes","1024"
"3.133964479","0","8","graw","non-word","90.9090909090909","90.9090909090909","1498.4545454545455","1498.4545454545455","black","no","legacy","legacy","legacy","0","uniform","1","undefined","undefined","undefined","1","f","0","0","0","0","10","0","0","0","10","NA","6","10","6","0","6","3","10","0","10","Sun Feb 21 20:33:11 2021","The main experiment item","yes","Lexical_Decision_Task.osexp","C:/Users/Lydia/Documents/COG + LANG/COG + LANG ASSIGNMENTS","no","Andale Mono","no","18","no","white","no","yes","576","legacy","6","6","3","C:/Users/Lydia/Documents/COG + LANG/COG + LANG ASSIGNMENTS/subject-5062896.csv","legacy","Lentiform Loewenfeld","3.3.8","yes","yes","600bd7cfb6416f0113b04181","602110864497cf011d9c0822","0","f","NA","return","return","return","NA","f","1124","NA","24872","29663","14262","NA","1124","2","legacy","1024","2","48000","-16","task","5062896","even","NA","58694","85568","60696","100473","2325","46253","31991","100975","NA","100471","100975","100400","85568","102100","56510","99900","2322","49877","Lexical Decision Task","10","16483","11","yes","1024"
"3.460446784","0","5","dess","non-word","91.66666666666667","91.66666666666667","1476.5","1476.5","black","no","legacy","legacy","legacy","0","uniform","1","undefined","undefined","undefined","1","f","0","0","0","0","11","0","0","0","11","NA","7","11","7","0","7","3","11","0","11","Sun Feb 21 20:33:11 2021","The main experiment item","yes","Lexical_Decision_Task.osexp","C:/Users/Lydia/Documents/COG + LANG/COG + LANG ASSIGNMENTS","no","Andale Mono","no","18","no","white","no","yes","576","legacy","7","7","3","C:/Users/Lydia/Documents/COG + LANG/COG + LANG ASSIGNMENTS/subject-5062896.csv","legacy","Lentiform Loewenfeld","3.3.8","yes","yes","600bd7cfb6416f0113b04181","602110864497cf011d9c0822","0","f","NA","return","return","return","NA","f","1235","NA","24872","29663","14262","NA","1235","2","legacy","1024","2","48000","-16","task","5062896","even","NA","58694","85568","60696","102683","2325","46253","31991","103185","NA","102681","103185","102608","85568","104420","56510","102108","2322","49877","Lexical Decision Task","11","17718","12","yes","1024"
"3.120025233","0","2","nyst","non-word","92.3076923076923","92.3076923076923","1449.1538461538462","1449.1538461538462","black","no","legacy","legacy","legacy","0","uniform","1","undefined","undefined","undefined","1","f","0","0","0","0","12","0","0","0","12","NA","8","12","8","0","8","3","12","0","12","Sun Feb 21 20:33:11 2021","The main experiment item","yes","Lexical_Decision_Task.osexp","C:/Users/Lydia/Documents/COG + LANG/COG + LANG ASSIGNMENTS","no","Andale Mono","no","18","no","white","no","yes","576","legacy","8","8","3","C:/Users/Lydia/Documents/COG + LANG/COG + LANG ASSIGNMENTS/subject-5062896.csv","legacy","Lentiform Loewenfeld","3.3.8","yes","yes","600bd7cfb6416f0113b04181","602110864497cf011d9c0822","0","f","NA","return","return","return","NA","f","1121","NA","24872","29663","14262","NA","1121","2","legacy","1024","2","48000","-16","task","5062896","even","NA","58694","85568","60696","105002","2325","46253","31991","105504","NA","105000","105504","104930","85568","106625","56510","104430","2322","49877","Lexical Decision Task","12","18839","13","yes","1024"
"3.131833513","7.66","4","limb","word","92.85714285714286","92.85714285714286","1436.0714285714287","1436.0714285714287","black","no","legacy","legacy","legacy","0","uniform","1","undefined","undefined","undefined","1","j","0","0","0","0","13","0","0","0","13","NA","9","13","9","0","9","3","13","0","13","Sun Feb 21 20:33:11 2021","The main experiment item","yes","Lexical_Decision_Task.osexp","C:/Users/Lydia/Documents/COG + LANG/COG + LANG ASSIGNMENTS","no","Andale Mono","no","18","no","white","no","yes","576","legacy","9","9","3","C:/Users/Lydia/Documents/COG + LANG/COG + LANG ASSIGNMENTS/subject-5062896.csv","legacy","Lentiform Loewenfeld","3.3.8","yes","yes","600bd7cfb6416f0113b04181","602110864497cf011d9c0822","0","j","NA","return","return","return","NA","j","1266","NA","24872","29663","14262","NA","1266","2","legacy","1024","2","48000","-16","task","5062896","even","NA","58694","85568","60696","107216","2325","46253","31991","107718","NA","107214","107718","107134","85568","108984","56510","106634","2322","49877","Lexical Decision Task","13","20105","14","yes","1024"
"2.884795364","0","6","flob","non-word","93.33333333333333","93.33333333333333","1413.9333333333334","1413.9333333333334","black","no","legacy","legacy","legacy","0","uniform","1","undefined","undefined","undefined","1","f","0","0","0","0","14","0","0","0","14","NA","10","14","10","0","10","3","14","0","14","Sun Feb 21 20:33:11 2021","The main experiment item","yes","Lexical_Decision_Task.osexp","C:/Users/Lydia/Documents/COG + LANG/COG + LANG ASSIGNMENTS","no","Andale Mono","no","18","no","white","no","yes","576","legacy","10","10","3","C:/Users/Lydia/Documents/COG + LANG/COG + LANG ASSIGNMENTS/subject-5062896.csv","legacy","Lentiform Loewenfeld","3.3.8","yes","yes","600bd7cfb6416f0113b04181","602110864497cf011d9c0822","0","f","NA","return","return","return","NA","f","1104","NA","24872","29663","14262","NA","1104","2","legacy","1024","2","48000","-16","task","5062896","even","NA","58694","85568","60696","109572","2325","46253","31991","110074","NA","109570","110074","109493","85568","111179","56510","108993","2322","49877","Lexical Decision Task","14","21209","15","yes","1024"
"2.839898939","8.99","6","soap","word","93.75","93.75","1392.4375","1392.4375","black","no","legacy","legacy","legacy","0","uniform","1","undefined","undefined","undefined","1","j","0","0","0","0","15","0","0","0","15","NA","11","15","11","0","11","3","15","0","15","Sun Feb 21 20:33:11 2021","The main experiment item","yes","Lexical_Decision_Task.osexp","C:/Users/Lydia/Documents/COG + LANG/COG + LANG ASSIGNMENTS","no","Andale Mono","no","18","no","white","no","yes","576","legacy","11","11","3","C:/Users/Lydia/Documents/COG + LANG/COG + LANG ASSIGNMENTS/subject-5062896.csv","legacy","Lentiform Loewenfeld","3.3.8","yes","yes","600bd7cfb6416f0113b04181","602110864497cf011d9c0822","0","j","NA","return","return","return","NA","j","1070","NA","24872","29663","14262","NA","1070","2","legacy","1024","2","48000","-16","task","5062896","even","NA","58694","85568","60696","111767","2325","46253","31991","112269","NA","111765","112269","111689","85568","113339","56510","111189","2322","49877","Lexical Decision Task","15","22279","16","yes","1024"
"2.728085817","10.02","9","bike","word","94.11764705882354","94.11764705882354","1377.5882352941176","1377.5882352941176","black","no","legacy","legacy","legacy","0","uniform","1","undefined","undefined","undefined","1","j","0","0","0","0","16","0","0","0","16","NA","12","16","12","0","12","3","16","0","16","Sun Feb 21 20:33:11 2021","The main experiment item","yes","Lexical_Decision_Task.osexp","C:/Users/Lydia/Documents/COG + LANG/COG + LANG ASSIGNMENTS","no","Andale Mono","no","18","no","white","no","yes","576","legacy","12","12","3","C:/Users/Lydia/Documents/COG + LANG/COG + LANG ASSIGNMENTS/subject-5062896.csv","legacy","Lentiform Loewenfeld","3.3.8","yes","yes","600bd7cfb6416f0113b04181","602110864497cf011d9c0822","0","j","NA","return","return","return","NA","j","1140","NA","24872","29663","14262","NA","1140","2","legacy","1024","2","48000","-16","task","5062896","even","NA","58694","85568","60696","113922","2325","46253","31991","114424","NA","113920","114425","113848","85568","115566","56510","113348","2322","49877","Lexical Decision Task","16","23419","17","yes","1024"
"2.983324025","9.56","2","debt","word","94.44444444444444","94.44444444444444","1352.2222222222222","1352.2222222222222","black","no","legacy","legacy","legacy","0","uniform","1","undefined","undefined","undefined","1","j","0","0","0","0","17","0","0","0","17","NA","13","17","13","0","13","3","17","0","17","Sun Feb 21 20:33:11 2021","The main experiment item","yes","Lexical_Decision_Task.osexp","C:/Users/Lydia/Documents/COG + LANG/COG + LANG ASSIGNMENTS","no","Andale Mono","no","18","no","white","no","yes","576","legacy","13","13","3","C:/Users/Lydia/Documents/COG + LANG/COG + LANG ASSIGNMENTS/subject-5062896.csv","legacy","Lentiform Loewenfeld","3.3.8","yes","yes","600bd7cfb6416f0113b04181","602110864497cf011d9c0822","0","j","NA","return","return","return","NA","j","921","NA","24872","29663","14262","NA","921","2","legacy","1024","2","48000","-16","task","5062896","even","NA","58694","85568","60696","116147","2325","46253","31991","116649","NA","116145","116649","116074","85568","117571","56510","115574","2322","49877","Lexical Decision Task","17","24340","18","yes","1024"
"3.043885998","0","9","gome","non-word","94.73684210526316","94.73684210526316","1369.6315789473683","1369.6315789473683","black","no","legacy","legacy","legacy","0","uniform","1","undefined","undefined","undefined","1","f","0","0","0","0","18","0","0","0","18","NA","14","18","14","0","14","3","18","0","18","Sun Feb 21 20:33:11 2021","The main experiment item","yes","Lexical_Decision_Task.osexp","C:/Users/Lydia/Documents/COG + LANG/COG + LANG ASSIGNMENTS","no","Andale Mono","no","18","no","white","no","yes","576","legacy","14","14","3","C:/Users/Lydia/Documents/COG + LANG/COG + LANG ASSIGNMENTS/subject-5062896.csv","legacy","Lentiform Loewenfeld","3.3.8","yes","yes","600bd7cfb6416f0113b04181","602110864497cf011d9c0822","0","f","NA","return","return","return","NA","f","1683","NA","24872","29663","14262","NA","1683","2","legacy","1024","2","48000","-16","task","5062896","even","NA","58694","85568","60696","118158","2325","46253","31991","118660","NA","118156","118660","118080","85568","120344","56510","117580","2322","49877","Lexical Decision Task","18","26023","19","yes","1024"
"3.20996159","0","4","clee","non-word","95","95","1360","1360","black","no","legacy","legacy","legacy","0","uniform","1","undefined","undefined","undefined","1","f","0","0","0","0","19","0","0","0","19","NA","15","19","15","0","15","3","19","0","19","Sun Feb 21 20:33:11 2021","The main experiment item","yes","Lexical_Decision_Task.osexp","C:/Users/Lydia/Documents/COG + LANG/COG + LANG ASSIGNMENTS","no","Andale Mono","no","18","no","white","no","yes","576","legacy","15","15","3","C:/Users/Lydia/Documents/COG + LANG/COG + LANG ASSIGNMENTS/subject-5062896.csv","legacy","Lentiform Loewenfeld","3.3.8","yes","yes","600bd7cfb6416f0113b04181","602110864497cf011d9c0822","0","f","NA","return","return","return","NA","f","1177","NA","24872","29663","14262","NA","1177","2","legacy","1024","2","48000","-16","task","5062896","even","NA","58694","85568","60696","120920","2325","46253","31991","121422","NA","120918","121422","120848","85568","122600","56510","120348","2322","49877","Lexical Decision Task","19","27200","20","yes","1024"
"2.842815106","7.86","8","lump","word","95.23809523809524","95.23809523809524","1350.142857142857","1350.142857142857","black","no","legacy","legacy","legacy","0","uniform","1","undefined","undefined","undefined","1","j","0","0","0","0","20","0","0","0","20","NA","16","20","16","0","16","3","20","0","20","Sun Feb 21 20:33:11 2021","The main experiment item","yes","Lexical_Decision_Task.osexp","C:/Users/Lydia/Documents/COG + LANG/COG + LANG ASSIGNMENTS","no","Andale Mono","no","18","no","white","no","yes","576","legacy","16","16","3","C:/Users/Lydia/Documents/COG + LANG/COG + LANG ASSIGNMENTS/subject-5062896.csv","legacy","Lentiform Loewenfeld","3.3.8","yes","yes","600bd7cfb6416f0113b04181","602110864497cf011d9c0822","0","j","NA","return","return","return","NA","j","1153","NA","24872","29663","14262","NA","1153","2","legacy","1024","2","48000","-16","task","5062896","even","NA","58694","85568","60696","123186","2325","46253","31991","123689","NA","123185","123689","123112","85568","124842","56510","122612","2322","49877","Lexical Decision Task","20","28353","21","yes","1024"
"2.664011697","8.19","4","hawk","word","95.45454545454545","95.45454545454545","1336.1363636363637","1336.1363636363637","black","no","legacy","legacy","legacy","0","uniform","1","undefined","undefined","undefined","1","j","0","0","0","0","21","0","0","0","21","NA","17","21","17","0","17","3","21","0","21","Sun Feb 21 20:33:11 2021","The main experiment item","yes","Lexical_Decision_Task.osexp","C:/Users/Lydia/Documents/COG + LANG/COG + LANG ASSIGNMENTS","no","Andale Mono","no","18","no","white","no","yes","576","legacy","17","17","3","C:/Users/Lydia/Documents/COG + LANG/COG + LANG ASSIGNMENTS/subject-5062896.csv","legacy","Lentiform Loewenfeld","3.3.8","yes","yes","600bd7cfb6416f0113b04181","602110864497cf011d9c0822","0","j","NA","return","return","return","NA","j","1042","NA","24872","29663","14262","NA","1042","2","legacy","1024","2","48000","-16","task","5062896","even","NA","58694","85568","60696","125427","2325","46253","31991","125928","NA","125425","125929","125353","85568","126972","56510","124853","2322","49877","Lexical Decision Task","21","29395","22","yes","1024"
"2.980911938","7.15","7","hoop","word","95.65217391304348","95.65217391304348","1323.1304347826087","1323.1304347826087","black","no","legacy","legacy","legacy","0","uniform","1","undefined","undefined","undefined","1","j","0","0","0","0","22","0","0","0","22","NA","18","22","18","0","18","3","22","0","22","Sun Feb 21 20:33:11 2021","The main experiment item","yes","Lexical_Decision_Task.osexp","C:/Users/Lydia/Documents/COG + LANG/COG + LANG ASSIGNMENTS","no","Andale Mono","no","18","no","white","no","yes","576","legacy","18","18","3","C:/Users/Lydia/Documents/COG + LANG/COG + LANG ASSIGNMENTS/subject-5062896.csv","legacy","Lentiform Loewenfeld","3.3.8","yes","yes","600bd7cfb6416f0113b04181","602110864497cf011d9c0822","0","j","NA","return","return","return","NA","j","1037","NA","24872","29663","14262","NA","1037","2","legacy","1024","2","48000","-16","task","5062896","even","NA","58694","85568","60696","127555","2325","46253","31991","128057","NA","127553","128057","127480","85568","129095","56510","126980","2322","49877","Lexical Decision Task","22","30432","23","yes","1024"
"2.695770526","7.34","6","pawn","word","95.83333333333333","95.83333333333333","1316.4583333333333","1316.4583333333333","black","no","legacy","legacy","legacy","0","uniform","1","undefined","undefined","undefined","1","j","0","0","0","0","23","0","0","0","23","NA","19","23","19","0","19","3","23","0","23","Sun Feb 21 20:33:11 2021","The main experiment item","yes","Lexical_Decision_Task.osexp","C:/Users/Lydia/Documents/COG + LANG/COG + LANG ASSIGNMENTS","no","Andale Mono","no","18","no","white","no","yes","576","legacy","19","19","3","C:/Users/Lydia/Documents/COG + LANG/COG + LANG ASSIGNMENTS/subject-5062896.csv","legacy","Lentiform Loewenfeld","3.3.8","yes","yes","600bd7cfb6416f0113b04181","602110864497cf011d9c0822","0","j","NA","return","return","return","NA","j","1163","NA","24872","29663","14262","NA","1163","2","legacy","1024","2","48000","-16","task","5062896","even","NA","58694","85568","60696","129682","2325","46253","31991","130184","NA","129680","130184","129608","85568","131348","56510","129108","2322","49877","Lexical Decision Task","23","31595","24","yes","1024"
"2.771097306","0","9","jold","non-word","96","96","1309.56","1309.56","black","no","legacy","legacy","legacy","0","uniform","1","undefined","undefined","undefined","1","f","0","0","0","0","24","0","0","0","24","NA","20","24","20","0","20","3","24","0","24","Sun Feb 21 20:33:11 2021","The main experiment item","yes","Lexical_Decision_Task.osexp","C:/Users/Lydia/Documents/COG + LANG/COG + LANG ASSIGNMENTS","no","Andale Mono","no","18","no","white","no","yes","576","legacy","20","20","3","C:/Users/Lydia/Documents/COG + LANG/COG + LANG ASSIGNMENTS/subject-5062896.csv","legacy","Lentiform Loewenfeld","3.3.8","yes","yes","600bd7cfb6416f0113b04181","602110864497cf011d9c0822","0","f","NA","return","return","return","NA","f","1144","NA","24872","29663","14262","NA","1144","2","legacy","1024","2","48000","-16","task","5062896","even","NA","58694","85568","60696","131930","2325","46253","31991","132432","NA","131928","132432","131857","85568","133576","56510","131357","2322","49877","Lexical Decision Task","24","32739","25","yes","1024"
"2.971428938","9.86","7","spot","word","96.15384615384616","96.15384615384616","1299.2692307692307","1299.2692307692307","black","no","legacy","legacy","legacy","0","uniform","1","undefined","undefined","undefined","1","j","0","0","0","0","25","0","0","0","25","NA","21","25","21","0","21","3","25","0","25","Sun Feb 21 20:33:11 2021","The main experiment item","yes","Lexical_Decision_Task.osexp","C:/Users/Lydia/Documents/COG + LANG/COG + LANG ASSIGNMENTS","no","Andale Mono","no","18","no","white","no","yes","576","legacy","21","21","3","C:/Users/Lydia/Documents/COG + LANG/COG + LANG ASSIGNMENTS/subject-5062896.csv","legacy","Lentiform Loewenfeld","3.3.8","yes","yes","600bd7cfb6416f0113b04181","602110864497cf011d9c0822","0","j","NA","return","return","return","NA","j","1042","NA","24872","29663","14262","NA","1042","2","legacy","1024","2","48000","-16","task","5062896","even","NA","58694","85568","60696","134158","2325","46253","31991","134659","NA","134157","134659","134085","85568","135702","56510","133585","2322","49877","Lexical Decision Task","25","33781","26","yes","1024"
"2.695481676","0","7","goke","non-word","96.29629629629629","96.29629629629629","1290.3333333333333","1290.3333333333333","black","no","legacy","legacy","legacy","0","uniform","1","undefined","undefined","undefined","1","f","0","0","0","0","26","0","0","0","26","NA","22","26","22","0","22","3","26","0","26","Sun Feb 21 20:33:11 2021","The main experiment item","yes","Lexical_Decision_Task.osexp","C:/Users/Lydia/Documents/COG + LANG/COG + LANG ASSIGNMENTS","no","Andale Mono","no","18","no","white","no","yes","576","legacy","22","22","3","C:/Users/Lydia/Documents/COG + LANG/COG + LANG ASSIGNMENTS/subject-5062896.csv","legacy","Lentiform Loewenfeld","3.3.8","yes","yes","600bd7cfb6416f0113b04181","602110864497cf011d9c0822","0","f","NA","return","return","return","NA","f","1058","NA","24872","29663","14262","NA","1058","2","legacy","1024","2","48000","-16","task","5062896","even","NA","58694","85568","60696","136289","2325","46253","31991","136790","NA","136287","136791","136211","85568","137850","56510","135711","2322","49877","Lexical Decision Task","26","34839","27","yes","1024"
"2.68604012","0","3","mulb","non-word","96.42857142857143","96.42857142857143","1288.857142857143","1288.857142857143","black","no","legacy","legacy","legacy","0","uniform","1","undefined","undefined","undefined","1","f","0","0","0","0","27","0","0","0","27","NA","23","27","23","0","23","3","27","0","27","Sun Feb 21 20:33:11 2021","The main experiment item","yes","Lexical_Decision_Task.osexp","C:/Users/Lydia/Documents/COG + LANG/COG + LANG ASSIGNMENTS","no","Andale Mono","no","18","no","white","no","yes","576","legacy","23","23","3","C:/Users/Lydia/Documents/COG + LANG/COG + LANG ASSIGNMENTS/subject-5062896.csv","legacy","Lentiform Loewenfeld","3.3.8","yes","yes","600bd7cfb6416f0113b04181","602110864497cf011d9c0822","0","f","NA","return","return","return","NA","f","1249","NA","24872","29663","14262","NA","1249","2","legacy","1024","2","48000","-16","task","5062896","even","NA","58694","85568","60696","138431","2325","46253","31991","138932","NA","138430","138932","138358","85568","140182","56510","137858","2322","49877","Lexical Decision Task","27","36088","28","yes","1024"
"3.230789326","5.38","5","prim","word","93.10344827586206","93.10344827586206","1288.9655172413793","1288.9655172413793","black","no","legacy","legacy","legacy","0","uniform","0","undefined","undefined","undefined","0","j","0","0","0","0","28","0","0","0","28","NA","24","28","24","0","24","3","28","0","28","Sun Feb 21 20:33:11 2021","The main experiment item","yes","Lexical_Decision_Task.osexp","C:/Users/Lydia/Documents/COG + LANG/COG + LANG ASSIGNMENTS","no","Andale Mono","no","18","no","white","no","yes","576","legacy","24","24","3","C:/Users/Lydia/Documents/COG + LANG/COG + LANG ASSIGNMENTS/subject-5062896.csv","legacy","Lentiform Loewenfeld","3.3.8","yes","yes","600bd7cfb6416f0113b04181","602110864497cf011d9c0822","0","f","NA","return","return","return","NA","f","1292","NA","24872","29663","14262","NA","1292","2","legacy","1024","2","48000","-16","task","5062896","even","NA","58694","85568","60696","140762","2325","46253","31991","141264","NA","140760","141264","140685","85568","142556","56510","140185","2322","49877","Lexical Decision Task","27","37380","29","yes","1024"
"3.145920145","8.51","8","flew","word","93.33333333333333","93.33333333333333","1276.9666666666667","1276.9666666666667","black","no","legacy","legacy","legacy","0","uniform","1","undefined","undefined","undefined","1","j","0","0","0","0","29","0","0","0","29","NA","25","29","25","0","25","3","29","0","29","Sun Feb 21 20:33:11 2021","The main experiment item","yes","Lexical_Decision_Task.osexp","C:/Users/Lydia/Documents/COG + LANG/COG + LANG ASSIGNMENTS","no","Andale Mono","no","18","no","white","no","yes","576","legacy","25","25","3","C:/Users/Lydia/Documents/COG + LANG/COG + LANG ASSIGNMENTS/subject-5062896.csv","legacy","Lentiform Loewenfeld","3.3.8","yes","yes","600bd7cfb6416f0113b04181","602110864497cf011d9c0822","0","j","NA","return","return","return","NA","j","929","NA","24872","29663","14262","NA","929","2","legacy","1024","2","48000","-16","task","5062896","even","NA","58694","85568","60696","144141","2325","46253","31991","144642","NA","144139","144642","144065","85568","145572","56510","140185","2322","142565","Lexical Decision Task","28","38309","30","yes","1024"
"3.299579929","0","2","flis","non-word","93.54838709677419","93.54838709677419","1273.0967741935483","1273.0967741935483","black","no","legacy","legacy","legacy","0","uniform","1","undefined","undefined","undefined","1","f","0","0","0","0","30","0","0","0","30","NA","26","30","26","0","26","3","30","0","30","Sun Feb 21 20:33:11 2021","The main experiment item","yes","Lexical_Decision_Task.osexp","C:/Users/Lydia/Documents/COG + LANG/COG + LANG ASSIGNMENTS","no","Andale Mono","no","18","no","white","no","yes","576","legacy","26","26","3","C:/Users/Lydia/Documents/COG + LANG/COG + LANG ASSIGNMENTS/subject-5062896.csv","legacy","Lentiform Loewenfeld","3.3.8","yes","yes","600bd7cfb6416f0113b04181","602110864497cf011d9c0822","0","f","NA","return","return","return","NA","f","1157","NA","24872","29663","14262","NA","1157","2","legacy","1024","2","48000","-16","task","5062896","even","NA","58694","85568","60696","146155","2325","46253","31991","146657","NA","146153","146657","146082","85568","147815","56510","145582","2322","142565","Lexical Decision Task","29","39466","31","yes","1024"
"3.037294994","8.64","7","roof","word","93.75","93.75","1263.53125","1263.53125","black","no","legacy","legacy","legacy","0","uniform","1","undefined","undefined","undefined","1","j","0","0","0","0","31","0","0","0","31","NA","27","31","27","0","27","3","31","0","31","Sun Feb 21 20:33:11 2021","The main experiment item","yes","Lexical_Decision_Task.osexp","C:/Users/Lydia/Documents/COG + LANG/COG + LANG ASSIGNMENTS","no","Andale Mono","no","18","no","white","no","yes","576","legacy","27","27","3","C:/Users/Lydia/Documents/COG + LANG/COG + LANG ASSIGNMENTS/subject-5062896.csv","legacy","Lentiform Loewenfeld","3.3.8","yes","yes","600bd7cfb6416f0113b04181","602110864497cf011d9c0822","0","j","NA","return","return","return","NA","j","967","NA","24872","29663","14262","NA","967","2","legacy","1024","2","48000","-16","task","5062896","even","NA","58694","85568","60696","148397","2325","46253","31991","148899","NA","148395","148899","148323","85568","149867","56510","147823","2322","142565","Lexical Decision Task","30","40433","32","yes","1024"
"3.067070856","9.39","3","loud","word","93.93939393939394","93.93939393939394","1250.909090909091","1250.909090909091","black","no","legacy","legacy","legacy","0","uniform","1","undefined","undefined","undefined","1","j","0","0","0","0","32","0","0","0","32","NA","28","32","28","0","28","3","32","0","32","Sun Feb 21 20:33:11 2021","The main experiment item","yes","Lexical_Decision_Task.osexp","C:/Users/Lydia/Documents/COG + LANG/COG + LANG ASSIGNMENTS","no","Andale Mono","no","18","no","white","no","yes","576","legacy","28","28","3","C:/Users/Lydia/Documents/COG + LANG/COG + LANG ASSIGNMENTS/subject-5062896.csv","legacy","Lentiform Loewenfeld","3.3.8","yes","yes","600bd7cfb6416f0113b04181","602110864497cf011d9c0822","0","j","NA","return","return","return","NA","j","847","NA","24872","29663","14262","NA","847","2","legacy","1024","2","48000","-16","task","5062896","even","NA","58694","85568","60696","150452","2325","46253","31991","150953","NA","150450","150953","150377","85568","151801","56510","149877","2322","142565","Lexical Decision Task","31","41280","33","yes","1024"
"3.282244367","0","6","fute","non-word","94.11764705882354","94.11764705882354","1243.5294117647059","1243.5294117647059","black","no","legacy","legacy","legacy","0","uniform","1","undefined","undefined","undefined","1","f","0","0","0","0","33","0","0","0","33","NA","29","33","29","0","29","3","33","0","33","Sun Feb 21 20:33:11 2021","The main experiment item","yes","Lexical_Decision_Task.osexp","C:/Users/Lydia/Documents/COG + LANG/COG + LANG ASSIGNMENTS","no","Andale Mono","no","18","no","white","no","yes","576","legacy","29","29","3","C:/Users/Lydia/Documents/COG + LANG/COG + LANG ASSIGNMENTS/subject-5062896.csv","legacy","Lentiform Loewenfeld","3.3.8","yes","yes","600bd7cfb6416f0113b04181","602110864497cf011d9c0822","0","f","NA","return","return","return","NA","f","1000","NA","24872","29663","14262","NA","1000","2","legacy","1024","2","48000","-16","task","5062896","even","NA","58694","85568","60696","152385","2325","46253","31991","152886","NA","152384","152886","152311","85568","153886","56510","151811","2322","142565","Lexical Decision Task","32","42280","34","yes","1024"
"3.263399331","0","8","cour","non-word","94.28571428571429","94.28571428571429","1236.6285714285714","1236.6285714285714","black","no","legacy","legacy","legacy","0","uniform","1","undefined","undefined","undefined","1","f","0","0","0","0","34","0","0","0","34","NA","30","34","30","0","30","3","34","0","34","Sun Feb 21 20:33:11 2021","The main experiment item","yes","Lexical_Decision_Task.osexp","C:/Users/Lydia/Documents/COG + LANG/COG + LANG ASSIGNMENTS","no","Andale Mono","no","18","no","white","no","yes","576","legacy","30","30","3","C:/Users/Lydia/Documents/COG + LANG/COG + LANG ASSIGNMENTS/subject-5062896.csv","legacy","Lentiform Loewenfeld","3.3.8","yes","yes","600bd7cfb6416f0113b04181","602110864497cf011d9c0822","0","f","NA","return","return","return","NA","f","1002","NA","24872","29663","14262","NA","1002","2","legacy","1024","2","48000","-16","task","5062896","even","NA","58694","85568","60696","154473","2325","46253","31991","154976","NA","154471","154977","154395","85568","155980","56510","153895","2322","142565","Lexical Decision Task","33","43282","35","yes","1024"
"2.803231716","5.26","3","kiln","word","94.44444444444444","94.44444444444444","1239.4444444444443","1239.4444444444443","black","no","legacy","legacy","legacy","0","uniform","1","undefined","undefined","undefined","1","j","0","0","0","0","35","0","0","0","35","NA","31","35","31","0","31","3","35","0","35","Sun Feb 21 20:33:11 2021","The main experiment item","yes","Lexical_Decision_Task.osexp","C:/Users/Lydia/Documents/COG + LANG/COG + LANG ASSIGNMENTS","no","Andale Mono","no","18","no","white","no","yes","576","legacy","31","31","3","C:/Users/Lydia/Documents/COG + LANG/COG + LANG ASSIGNMENTS/subject-5062896.csv","legacy","Lentiform Loewenfeld","3.3.8","yes","yes","600bd7cfb6416f0113b04181","602110864497cf011d9c0822","0","j","NA","return","return","return","NA","j","1338","NA","24872","29663","14262","NA","1338","2","legacy","1024","2","48000","-16","task","5062896","even","NA","58694","85568","60696","156561","2325","46253","31991","157062","NA","156559","157062","156488","85568","158401","56510","155988","2322","142565","Lexical Decision Task","34","44620","36","yes","1024"
"3.094121596","0","8","fode","non-word","94.5945945945946","94.5945945945946","1238.6216216216217","1238.6216216216217","black","no","legacy","legacy","legacy","0","uniform","1","undefined","undefined","undefined","1","f","0","0","0","0","36","0","0","0","36","NA","32","36","32","0","32","3","36","0","36","Sun Feb 21 20:33:11 2021","The main experiment item","yes","Lexical_Decision_Task.osexp","C:/Users/Lydia/Documents/COG + LANG/COG + LANG ASSIGNMENTS","no","Andale Mono","no","18","no","white","no","yes","576","legacy","32","32","3","C:/Users/Lydia/Documents/COG + LANG/COG + LANG ASSIGNMENTS/subject-5062896.csv","legacy","Lentiform Loewenfeld","3.3.8","yes","yes","600bd7cfb6416f0113b04181","602110864497cf011d9c0822","0","f","NA","return","return","return","NA","f","1209","NA","24872","29663","14262","NA","1209","2","legacy","1024","2","48000","-16","task","5062896","even","NA","58694","85568","60696","158981","2325","46253","31991","159483","NA","158980","159483","158911","85568","160692","56510","158411","2322","142565","Lexical Decision Task","35","45829","37","yes","1024"
"3.039414119","0","9","meep","non-word","94.73684210526316","94.73684210526316","1233.421052631579","1233.421052631579","black","no","legacy","legacy","legacy","0","uniform","1","undefined","undefined","undefined","1","f","0","0","0","0","37","0","0","0","37","NA","33","37","33","0","33","3","37","0","37","Sun Feb 21 20:33:11 2021","The main experiment item","yes","Lexical_Decision_Task.osexp","C:/Users/Lydia/Documents/COG + LANG/COG + LANG ASSIGNMENTS","no","Andale Mono","no","18","no","white","no","yes","576","legacy","33","33","3","C:/Users/Lydia/Documents/COG + LANG/COG + LANG ASSIGNMENTS/subject-5062896.csv","legacy","Lentiform Loewenfeld","3.3.8","yes","yes","600bd7cfb6416f0113b04181","602110864497cf011d9c0822","0","f","NA","return","return","return","NA","f","1041","NA","24872","29663","14262","NA","1041","2","legacy","1024","2","48000","-16","task","5062896","even","NA","58694","85568","60696","161275","2325","46253","31991","161779","NA","161274","161779","161202","85568","162821","56510","160702","2322","142565","Lexical Decision Task","36","46870","38","yes","1024"
"2.778633532","0","3","jurp","non-word","94.87179487179488","94.87179487179488","1230.025641025641","1230.025641025641","black","no","legacy","legacy","legacy","0","uniform","1","undefined","undefined","undefined","1","f","0","0","0","0","38","0","0","0","38","NA","34","38","34","0","34","3","38","0","38","Sun Feb 21 20:33:11 2021","The main experiment item","yes","Lexical_Decision_Task.osexp","C:/Users/Lydia/Documents/COG + LANG/COG + LANG ASSIGNMENTS","no","Andale Mono","no","18","no","white","no","yes","576","legacy","34","34","3","C:/Users/Lydia/Documents/COG + LANG/COG + LANG ASSIGNMENTS/subject-5062896.csv","legacy","Lentiform Loewenfeld","3.3.8","yes","yes","600bd7cfb6416f0113b04181","602110864497cf011d9c0822","0","f","NA","return","return","return","NA","f","1101","NA","24872","29663","14262","NA","1101","2","legacy","1024","2","48000","-16","task","5062896","even","NA","58694","85568","60696","163407","2325","46253","31991","163908","NA","163405","163908","163331","85568","165009","56510","162831","2322","142565","Lexical Decision Task","37","47971","39","yes","1024"
"3.209246849","0","7","slem","non-word","95","95","1225.9","1225.9","black","no","legacy","legacy","legacy","0","uniform","1","undefined","undefined","undefined","1","f","0","0","0","0","39","0","0","0","39","NA","35","39","35","0","35","3","39","0","39","Sun Feb 21 20:33:11 2021","The main experiment item","yes","Lexical_Decision_Task.osexp","C:/Users/Lydia/Documents/COG + LANG/COG + LANG ASSIGNMENTS","no","Andale Mono","no","18","no","white","no","yes","576","legacy","35","35","3","C:/Users/Lydia/Documents/COG + LANG/COG + LANG ASSIGNMENTS/subject-5062896.csv","legacy","Lentiform Loewenfeld","3.3.8","yes","yes","600bd7cfb6416f0113b04181","602110864497cf011d9c0822","0","f","NA","return","return","return","NA","f","1065","NA","24872","29663","14262","NA","1065","2","legacy","1024","2","48000","-16","task","5062896","even","NA","58694","85568","60696","165590","2325","46253","31991","166092","NA","165588","166092","165518","85568","167158","56510","165018","2322","142565","Lexical Decision Task","38","49036","40","yes","1024"
"3.049218023","7.4","9","robe","word","95.1219512195122","95.1219512195122","1221.0731707317073","1221.0731707317073","black","no","legacy","legacy","legacy","0","uniform","1","undefined","undefined","undefined","1","j","0","0","0","0","40","0","0","0","40","NA","36","40","36","0","36","3","40","0","40","Sun Feb 21 20:33:11 2021","The main experiment item","yes","Lexical_Decision_Task.osexp","C:/Users/Lydia/Documents/COG + LANG/COG + LANG ASSIGNMENTS","no","Andale Mono","no","18","no","white","no","yes","576","legacy","36","36","3","C:/Users/Lydia/Documents/COG + LANG/COG + LANG ASSIGNMENTS/subject-5062896.csv","legacy","Lentiform Loewenfeld","3.3.8","yes","yes","600bd7cfb6416f0113b04181","602110864497cf011d9c0822","0","j","NA","return","return","return","NA","j","1028","NA","24872","29663","14262","NA","1028","2","legacy","1024","2","48000","-16","task","5062896","even","NA","58694","85568","60696","167739","2325","46253","31991","168241","NA","167738","168241","167666","85568","169271","56510","167166","2322","142565","Lexical Decision Task","39","50064","41","yes","1024"
"2.594027722","9.08","8","skip","word","95.23809523809524","95.23809523809524","1211.7619047619048","1211.7619047619048","black","no","legacy","legacy","legacy","0","uniform","1","undefined","undefined","undefined","1","j","0","0","0","0","41","0","0","0","41","NA","37","41","37","0","37","3","41","0","41","Sun Feb 21 20:33:11 2021","The main experiment item","yes","Lexical_Decision_Task.osexp","C:/Users/Lydia/Documents/COG + LANG/COG + LANG ASSIGNMENTS","no","Andale Mono","no","18","no","white","no","yes","576","legacy","37","37","3","C:/Users/Lydia/Documents/COG + LANG/COG + LANG ASSIGNMENTS/subject-5062896.csv","legacy","Lentiform Loewenfeld","3.3.8","yes","yes","600bd7cfb6416f0113b04181","602110864497cf011d9c0822","0","j","NA","return","return","return","NA","j","830","NA","24872","29663","14262","NA","830","2","legacy","1024","2","48000","-16","task","5062896","even","NA","58694","85568","60696","169856","2325","46253","31991","170358","NA","169854","170358","169781","85568","171189","56510","169281","2322","142565","Lexical Decision Task","40","50894","42","yes","1024"
"3.168400243","9.12","6","horn","word","95.34883720930233","95.34883720930233","1204.9767441860465","1204.9767441860465","black","no","legacy","legacy","legacy","0","uniform","1","undefined","undefined","undefined","1","j","0","0","0","0","42","0","0","0","42","NA","38","42","38","0","38","3","42","0","42","Sun Feb 21 20:33:11 2021","The main experiment item","yes","Lexical_Decision_Task.osexp","C:/Users/Lydia/Documents/COG + LANG/COG + LANG ASSIGNMENTS","no","Andale Mono","no","18","no","white","no","yes","576","legacy","38","38","3","C:/Users/Lydia/Documents/COG + LANG/COG + LANG ASSIGNMENTS/subject-5062896.csv","legacy","Lentiform Loewenfeld","3.3.8","yes","yes","600bd7cfb6416f0113b04181","602110864497cf011d9c0822","0","j","NA","return","return","return","NA","j","920","NA","24872","29663","14262","NA","920","2","legacy","1024","2","48000","-16","task","5062896","even","NA","58694","85568","60696","171772","2325","46253","31991","172273","NA","171770","172273","171698","85568","173193","56510","171198","2322","142565","Lexical Decision Task","41","51814","43","yes","1024"
"3.174641193","0","3","ramb","non-word","93.18181818181819","93.18181818181819","1214.909090909091","1214.909090909091","black","no","legacy","legacy","legacy","0","uniform","0","undefined","undefined","undefined","0","f","0","0","0","0","43","0","0","0","43","NA","39","43","39","0","39","3","43","0","43","Sun Feb 21 20:33:11 2021","The main experiment item","yes","Lexical_Decision_Task.osexp","C:/Users/Lydia/Documents/COG + LANG/COG + LANG ASSIGNMENTS","no","Andale Mono","no","18","no","white","no","yes","576","legacy","39","39","3","C:/Users/Lydia/Documents/COG + LANG/COG + LANG ASSIGNMENTS/subject-5062896.csv","legacy","Lentiform Loewenfeld","3.3.8","yes","yes","600bd7cfb6416f0113b04181","602110864497cf011d9c0822","0","j","NA","return","return","return","NA","j","1642","NA","24872","29663","14262","NA","1642","2","legacy","1024","2","48000","-16","task","5062896","even","NA","58694","85568","60696","173771","2325","46253","31991","174273","NA","173770","174273","173698","85568","175916","56510","173197","2322","142565","Lexical Decision Task","41","53456","44","yes","1024"
"2.782472624","10.55","2","huge","word","93.33333333333333","93.33333333333333","1210.5555555555557","1210.5555555555557","black","no","legacy","legacy","legacy","0","uniform","1","undefined","undefined","undefined","1","j","0","0","0","0","44","0","0","0","44","NA","40","44","40","0","40","3","44","0","44","Sun Feb 21 20:33:11 2021","The main experiment item","yes","Lexical_Decision_Task.osexp","C:/Users/Lydia/Documents/COG + LANG/COG + LANG ASSIGNMENTS","no","Andale Mono","no","18","no","white","no","yes","576","legacy","40","40","3","C:/Users/Lydia/Documents/COG + LANG/COG + LANG ASSIGNMENTS/subject-5062896.csv","legacy","Lentiform Loewenfeld","3.3.8","yes","yes","600bd7cfb6416f0113b04181","602110864497cf011d9c0822","0","j","NA","return","return","return","NA","j","1019","NA","24872","29663","14262","NA","1019","2","legacy","1024","2","48000","-16","task","5062896","even","NA","58694","85568","60696","177500","2325","46253","31991","178002","NA","177498","178002","177425","85568","179021","56510","173197","2322","175925","Lexical Decision Task","42","54475","45","yes","1024"
"3.165936429","0","7","leps","non-word","93.47826086956522","93.47826086956522","1207.9130434782608","1207.9130434782608","black","no","legacy","legacy","legacy","0","uniform","1","undefined","undefined","undefined","1","f","0","0","0","0","45","0","0","0","45","NA","41","45","41","0","41","3","45","0","45","Sun Feb 21 20:33:11 2021","The main experiment item","yes","Lexical_Decision_Task.osexp","C:/Users/Lydia/Documents/COG + LANG/COG + LANG ASSIGNMENTS","no","Andale Mono","no","18","no","white","no","yes","576","legacy","41","41","3","C:/Users/Lydia/Documents/COG + LANG/COG + LANG ASSIGNMENTS/subject-5062896.csv","legacy","Lentiform Loewenfeld","3.3.8","yes","yes","600bd7cfb6416f0113b04181","602110864497cf011d9c0822","0","f","NA","return","return","return","NA","f","1089","NA","24872","29663","14262","NA","1089","2","legacy","1024","2","48000","-16","task","5062896","even","NA","58694","85568","60696","179599","2325","46253","31991","180101","NA","179597","180101","179526","85568","181191","56510","179025","2322","175925","Lexical Decision Task","43","55564","46","yes","1024"
"3.121778632","0","9","sark","non-word","93.61702127659575","93.61702127659575","1210.4893617021276","1210.4893617021276","black","no","legacy","legacy","legacy","0","uniform","1","undefined","undefined","undefined","1","f","0","0","0","0","46","0","0","0","46","NA","42","46","42","0","42","3","46","0","46","Sun Feb 21 20:33:11 2021","The main experiment item","yes","Lexical_Decision_Task.osexp","C:/Users/Lydia/Documents/COG + LANG/COG + LANG ASSIGNMENTS","no","Andale Mono","no","18","no","white","no","yes","576","legacy","42","42","3","C:/Users/Lydia/Documents/COG + LANG/COG + LANG ASSIGNMENTS/subject-5062896.csv","legacy","Lentiform Loewenfeld","3.3.8","yes","yes","600bd7cfb6416f0113b04181","602110864497cf011d9c0822","0","f","NA","return","return","return","NA","f","1329","NA","24872","29663","14262","NA","1329","2","legacy","1024","2","48000","-16","task","5062896","even","NA","58694","85568","60696","181775","2325","46253","31991","182277","NA","181773","182277","181701","85568","183607","56510","181200","2322","175925","Lexical Decision Task","44","56893","47","yes","1024"
"3.091901331","0","9","nipe","non-word","93.75","93.75","1209.0625","1209.0625","black","no","legacy","legacy","legacy","0","uniform","1","undefined","undefined","undefined","1","f","0","0","0","0","47","0","0","0","47","NA","43","47","43","0","43","3","47","0","47","Sun Feb 21 20:33:11 2021","The main experiment item","yes","Lexical_Decision_Task.osexp","C:/Users/Lydia/Documents/COG + LANG/COG + LANG ASSIGNMENTS","no","Andale Mono","no","18","no","white","no","yes","576","legacy","43","43","3","C:/Users/Lydia/Documents/COG + LANG/COG + LANG ASSIGNMENTS/subject-5062896.csv","legacy","Lentiform Loewenfeld","3.3.8","yes","yes","600bd7cfb6416f0113b04181","602110864497cf011d9c0822","0","f","NA","return","return","return","NA","f","1142","NA","24872","29663","14262","NA","1142","2","legacy","1024","2","48000","-16","task","5062896","even","NA","58694","85568","60696","184190","2325","46253","31991","184692","NA","184188","184692","184115","85568","185835","56510","183615","2322","175925","Lexical Decision Task","45","58035","48","yes","1024"
"2.616654026","9.37","5","gift","word","93.87755102040816","93.87755102040816","1203.591836734694","1203.591836734694","black","no","legacy","legacy","legacy","0","uniform","1","undefined","undefined","undefined","1","j","0","0","0","0","48","0","0","0","48","NA","44","48","44","0","44","3","48","0","48","Sun Feb 21 20:33:11 2021","The main experiment item","yes","Lexical_Decision_Task.osexp","C:/Users/Lydia/Documents/COG + LANG/COG + LANG ASSIGNMENTS","no","Andale Mono","no","18","no","white","no","yes","576","legacy","44","44","3","C:/Users/Lydia/Documents/COG + LANG/COG + LANG ASSIGNMENTS/subject-5062896.csv","legacy","Lentiform Loewenfeld","3.3.8","yes","yes","600bd7cfb6416f0113b04181","602110864497cf011d9c0822","0","j","NA","return","return","return","NA","j","941","NA","24872","29663","14262","NA","941","2","legacy","1024","2","48000","-16","task","5062896","even","NA","58694","85568","60696","186415","2325","46253","31991","186917","NA","186414","186917","186345","85568","187859","56510","185845","2322","175925","Lexical Decision Task","46","58976","49","yes","1024"
"3.269668578","0","7","trag","non-word","94","94","1198.6","1198.6","black","no","legacy","legacy","legacy","0","uniform","1","undefined","undefined","undefined","1","f","0","0","0","0","49","0","0","0","49","NA","45","49","45","0","45","3","49","0","49","Sun Feb 21 20:33:11 2021","The main experiment item","yes","Lexical_Decision_Task.osexp","C:/Users/Lydia/Documents/COG + LANG/COG + LANG ASSIGNMENTS","no","Andale Mono","no","18","no","white","no","yes","576","legacy","45","45","3","C:/Users/Lydia/Documents/COG + LANG/COG + LANG ASSIGNMENTS/subject-5062896.csv","legacy","Lentiform Loewenfeld","3.3.8","yes","yes","600bd7cfb6416f0113b04181","602110864497cf011d9c0822","0","f","NA","return","return","return","NA","f","954","NA","24872","29663","14262","NA","954","2","legacy","1024","2","48000","-16","task","5062896","even","NA","58694","85568","60696","188443","2325","46253","31991","188946","NA","188442","188946","188367","85568","189901","56510","187867","2322","175925","Lexical Decision Task","47","59930","50","yes","1024"
"3.081107167","0","6","chot","non-word","94.11764705882354","94.11764705882354","1195.3921568627452","1195.3921568627452","black","no","legacy","legacy","legacy","0","uniform","1","undefined","undefined","undefined","1","f","0","0","0","0","50","0","0","0","50","NA","46","50","46","0","46","3","50","0","50","Sun Feb 21 20:33:11 2021","The main experiment item","yes","Lexical_Decision_Task.osexp","C:/Users/Lydia/Documents/COG + LANG/COG + LANG ASSIGNMENTS","no","Andale Mono","no","18","no","white","no","yes","576","legacy","46","46","3","C:/Users/Lydia/Documents/COG + LANG/COG + LANG ASSIGNMENTS/subject-5062896.csv","legacy","Lentiform Loewenfeld","3.3.8","yes","yes","600bd7cfb6416f0113b04181","602110864497cf011d9c0822","0","f","NA","return","return","return","NA","f","1035","NA","24872","29663","14262","NA","1035","2","legacy","1024","2","48000","-16","task","5062896","even","NA","58694","85568","60696","190487","2325","46253","31991","190989","NA","190486","190989","190410","85568","192025","56510","189910","2322","175925","Lexical Decision Task","48","60965","51","yes","1024"
"2.979548375","8.71","4","soup","word","94.23076923076923","94.23076923076923","1189.6923076923076","1189.6923076923076","black","no","legacy","legacy","legacy","0","uniform","1","undefined","undefined","undefined","1","j","0","0","0","0","51","0","0","0","51","NA","47","51","47","0","47","3","51","0","51","Sun Feb 21 20:33:11 2021","The main experiment item","yes","Lexical_Decision_Task.osexp","C:/Users/Lydia/Documents/COG + LANG/COG + LANG ASSIGNMENTS","no","Andale Mono","no","18","no","white","no","yes","576","legacy","47","47","3","C:/Users/Lydia/Documents/COG + LANG/COG + LANG ASSIGNMENTS/subject-5062896.csv","legacy","Lentiform Loewenfeld","3.3.8","yes","yes","600bd7cfb6416f0113b04181","602110864497cf011d9c0822","0","j","NA","return","return","return","NA","j","899","NA","24872","29663","14262","NA","899","2","legacy","1024","2","48000","-16","task","5062896","even","NA","58694","85568","60696","192607","2325","46253","31991","193109","NA","192606","193109","192534","85568","194008","56510","192034","2322","175925","Lexical Decision Task","49","61864","52","yes","1024"
"3.276537627","9.15","5","trap","word","94.33962264150944","94.33962264150944","1182.7358490566037","1182.7358490566037","black","no","legacy","legacy","legacy","0","uniform","1","undefined","undefined","undefined","1","j","0","0","0","0","52","0","0","0","52","NA","48","52","48","0","48","3","52","0","52","Sun Feb 21 20:33:11 2021","The main experiment item","yes","Lexical_Decision_Task.osexp","C:/Users/Lydia/Documents/COG + LANG/COG + LANG ASSIGNMENTS","no","Andale Mono","no","18","no","white","no","yes","576","legacy","48","48","3","C:/Users/Lydia/Documents/COG + LANG/COG + LANG ASSIGNMENTS/subject-5062896.csv","legacy","Lentiform Loewenfeld","3.3.8","yes","yes","600bd7cfb6416f0113b04181","602110864497cf011d9c0822","0","j","NA","return","return","return","NA","j","821","NA","24872","29663","14262","NA","821","2","legacy","1024","2","48000","-16","task","5062896","even","NA","58694","85568","60696","194590","2325","46253","31991","195092","NA","194588","195092","194517","85568","195914","56510","194017","2322","175925","Lexical Decision Task","50","62685","53","yes","1024"
"2.839268497","0","8","maft","non-word","92.5925925925926","92.5925925925926","1182.7592592592594","1182.7592592592594","black","no","legacy","legacy","legacy","0","uniform","0","undefined","undefined","undefined","0","f","0","0","0","0","53","0","0","0","53","NA","49","53","49","0","49","3","53","0","53","Sun Feb 21 20:33:11 2021","The main experiment item","yes","Lexical_Decision_Task.osexp","C:/Users/Lydia/Documents/COG + LANG/COG + LANG ASSIGNMENTS","no","Andale Mono","no","18","no","white","no","yes","576","legacy","49","49","3","C:/Users/Lydia/Documents/COG + LANG/COG + LANG ASSIGNMENTS/subject-5062896.csv","legacy","Lentiform Loewenfeld","3.3.8","yes","yes","600bd7cfb6416f0113b04181","602110864497cf011d9c0822","0","j","NA","return","return","return","NA","j","1184","NA","24872","29663","14262","NA","1184","2","legacy","1024","2","48000","-16","task","5062896","even","NA","58694","85568","60696","196499","2325","46253","31991","197000","NA","196497","197000","196424","85568","198185","56510","195924","2322","175925","Lexical Decision Task","50","63869","54","yes","1024"
"3.168890155","0","6","thet","non-word","92.72727272727273","92.72727272727273","1182.8181818181818","1182.8181818181818","black","no","legacy","legacy","legacy","0","uniform","1","undefined","undefined","undefined","1","f","0","0","0","0","54","0","0","0","54","0","50","54","50","0","50","3","54","0","54","Sun Feb 21 20:33:11 2021","The main experiment item","yes","Lexical_Decision_Task.osexp","C:/Users/Lydia/Documents/COG + LANG/COG + LANG ASSIGNMENTS","no","Andale Mono","no","18","no","white","no","yes","576","legacy","50","50","3","C:/Users/Lydia/Documents/COG + LANG/COG + LANG ASSIGNMENTS/subject-5062896.csv","legacy","Lentiform Loewenfeld","3.3.8","yes","yes","600bd7cfb6416f0113b04181","602110864497cf011d9c0822","0","f","NA","return","return","return","return","f","1186","NA","24872","29663","14262","13845","1186","2","legacy","1024","2","48000","-16","task","5062896","even","NA","58694","85568","60696","213662","2325","46253","31991","214164","199745","213660","214165","199695","85568","215352","56510","195924","2322","198194","Lexical Decision Task","51","65055","55","yes","1024"
"2.767650507","0","6","yolt","non-word","92.85714285714286","92.85714285714286","1185.107142857143","1185.107142857143","black","no","legacy","legacy","legacy","0","uniform","1","undefined","undefined","undefined","1","f","0","0","0","0","55","0","0","0","55","0","51","55","51","0","51","3","55","0","55","Sun Feb 21 20:33:11 2021","The main experiment item","yes","Lexical_Decision_Task.osexp","C:/Users/Lydia/Documents/COG + LANG/COG + LANG ASSIGNMENTS","no","Andale Mono","no","18","no","white","no","yes","576","legacy","51","51","3","C:/Users/Lydia/Documents/COG + LANG/COG + LANG ASSIGNMENTS/subject-5062896.csv","legacy","Lentiform Loewenfeld","3.3.8","yes","yes","600bd7cfb6416f0113b04181","602110864497cf011d9c0822","0","f","NA","return","return","return","return","f","1311","NA","24872","29663","14262","13845","1311","2","legacy","1024","2","48000","-16","task","5062896","even","NA","58694","85568","60696","215955","2325","46253","31991","216456","199745","215953","216456","215862","85568","217769","56510","215361","2322","198194","Lexical Decision Task","52","66366","56","yes","1024"
"3.028977705","0","7","frow","non-word","92.98245614035088","92.98245614035088","1181.9122807017543","1181.9122807017543","black","no","legacy","legacy","legacy","0","uniform","1","undefined","undefined","undefined","1","f","0","0","0","0","56","0","0","0","56","0","52","56","52","0","52","3","56","0","56","Sun Feb 21 20:33:11 2021","The main experiment item","yes","Lexical_Decision_Task.osexp","C:/Users/Lydia/Documents/COG + LANG/COG + LANG ASSIGNMENTS","no","Andale Mono","no","18","no","white","no","yes","576","legacy","52","52","3","C:/Users/Lydia/Documents/COG + LANG/COG + LANG ASSIGNMENTS/subject-5062896.csv","legacy","Lentiform Loewenfeld","3.3.8","yes","yes","600bd7cfb6416f0113b04181","602110864497cf011d9c0822","0","f","NA","return","return","return","return","f","1003","NA","24872","29663","14262","13845","1003","2","legacy","1024","2","48000","-16","task","5062896","even","NA","58694","85568","60696","218379","2325","46253","31991","218880","199745","218376","218881","218279","85568","219885","56510","217779","2322","198194","Lexical Decision Task","53","67369","57","yes","1024"
"2.696644658","5.78","2","yolk","word","93.10344827586206","93.10344827586206","1176.603448275862","1176.603448275862","black","no","legacy","legacy","legacy","0","uniform","1","undefined","undefined","undefined","1","j","0","0","0","0","57","0","0","0","57","0","53","57","53","0","53","3","57","0","57","Sun Feb 21 20:33:11 2021","The main experiment item","yes","Lexical_Decision_Task.osexp","C:/Users/Lydia/Documents/COG + LANG/COG + LANG ASSIGNMENTS","no","Andale Mono","no","18","no","white","no","yes","576","legacy","53","53","3","C:/Users/Lydia/Documents/COG + LANG/COG + LANG ASSIGNMENTS/subject-5062896.csv","legacy","Lentiform Loewenfeld","3.3.8","yes","yes","600bd7cfb6416f0113b04181","602110864497cf011d9c0822","0","j","NA","return","return","return","return","j","874","NA","24872","29663","14262","13845","874","2","legacy","1024","2","48000","-16","task","5062896","even","NA","58694","85568","60696","220466","2325","46253","31991","220967","199745","220464","220968","220393","85568","221843","56510","219893","2322","198194","Lexical Decision Task","54","68243","58","yes","1024"
"2.986323777","10.85","8","ship","word","93.22033898305085","93.22033898305085","1172.3728813559321","1172.3728813559321","black","no","legacy","legacy","legacy","0","uniform","1","undefined","undefined","undefined","1","j","0","0","0","0","58","0","0","0","58","0","54","58","54","0","54","3","58","0","58","Sun Feb 21 20:33:11 2021","The main experiment item","yes","Lexical_Decision_Task.osexp","C:/Users/Lydia/Documents/COG + LANG/COG + LANG ASSIGNMENTS","no","Andale Mono","no","18","no","white","no","yes","576","legacy","54","54","3","C:/Users/Lydia/Documents/COG + LANG/COG + LANG ASSIGNMENTS/subject-5062896.csv","legacy","Lentiform Loewenfeld","3.3.8","yes","yes","600bd7cfb6416f0113b04181","602110864497cf011d9c0822","0","j","NA","return","return","return","return","j","927","NA","24872","29663","14262","13845","927","2","legacy","1024","2","48000","-16","task","5062896","even","NA","58694","85568","60696","222426","2325","46253","31991","222929","199745","222424","222929","222352","85568","223857","56510","221852","2322","198194","Lexical Decision Task","55","69170","59","yes","1024"
"3.705778213","0","6","stin","non-word","93.33333333333333","93.33333333333333","1170.55","1170.55","black","no","legacy","legacy","legacy","0","uniform","1","undefined","undefined","undefined","1","f","0","0","0","0","59","0","0","0","59","0","55","59","55","0","55","3","59","0","59","Sun Feb 21 20:33:11 2021","The main experiment item","yes","Lexical_Decision_Task.osexp","C:/Users/Lydia/Documents/COG + LANG/COG + LANG ASSIGNMENTS","no","Andale Mono","no","18","no","white","no","yes","576","legacy","55","55","3","C:/Users/Lydia/Documents/COG + LANG/COG + LANG ASSIGNMENTS/subject-5062896.csv","legacy","Lentiform Loewenfeld","3.3.8","yes","yes","600bd7cfb6416f0113b04181","602110864497cf011d9c0822","0","f","NA","return","return","return","return","f","1063","NA","24872","29663","14262","13845","1063","2","legacy","1024","2","48000","-16","task","5062896","even","NA","58694","85568","60696","224440","2325","46253","31991","224942","199745","224438","224942","224367","85568","226006","56510","223867","2322","198194","Lexical Decision Task","56","70233","60","yes","1024"
"2.709837904","6.85","8","skim","word","93.44262295081967","93.44262295081967","1166.8852459016393","1166.8852459016393","black","no","legacy","legacy","legacy","0","uniform","1","undefined","undefined","undefined","1","j","0","0","0","0","60","0","0","0","60","0","56","60","56","0","56","3","60","0","60","Sun Feb 21 20:33:11 2021","The main experiment item","yes","Lexical_Decision_Task.osexp","C:/Users/Lydia/Documents/COG + LANG/COG + LANG ASSIGNMENTS","no","Andale Mono","no","18","no","white","no","yes","576","legacy","56","56","3","C:/Users/Lydia/Documents/COG + LANG/COG + LANG ASSIGNMENTS/subject-5062896.csv","legacy","Lentiform Loewenfeld","3.3.8","yes","yes","600bd7cfb6416f0113b04181","602110864497cf011d9c0822","0","j","NA","return","return","return","return","j","947","NA","24872","29663","14262","13845","947","2","legacy","1024","2","48000","-16","task","5062896","even","NA","58694","85568","60696","226587","2325","46253","31991","227089","199745","226585","227090","226514","85568","228037","56510","226014","2322","198194","Lexical Decision Task","57","71180","61","yes","1024"
"2.95456409","0","4","taud","non-word","93.54838709677419","93.54838709677419","1163.3387096774193","1163.3387096774193","black","no","legacy","legacy","legacy","0","uniform","1","undefined","undefined","undefined","1","f","0","0","0","0","61","0","0","0","61","0","57","61","57","0","57","3","61","0","61","Sun Feb 21 20:33:11 2021","The main experiment item","yes","Lexical_Decision_Task.osexp","C:/Users/Lydia/Documents/COG + LANG/COG + LANG ASSIGNMENTS","no","Andale Mono","no","18","no","white","no","yes","576","legacy","57","57","3","C:/Users/Lydia/Documents/COG + LANG/COG + LANG ASSIGNMENTS/subject-5062896.csv","legacy","Lentiform Loewenfeld","3.3.8","yes","yes","600bd7cfb6416f0113b04181","602110864497cf011d9c0822","0","f","NA","return","return","return","return","f","947","NA","24872","29663","14262","13845","947","2","legacy","1024","2","48000","-16","task","5062896","even","NA","58694","85568","60696","228613","2325","46253","31991","229116","199745","228612","229116","228542","85568","230064","56510","228042","2322","198194","Lexical Decision Task","58","72127","62","yes","1024"
"2.819763221","0","2","durp","non-word","93.65079365079364","93.65079365079364","1160.7936507936508","1160.7936507936508","black","no","legacy","legacy","legacy","0","uniform","1","undefined","undefined","undefined","1","f","0","0","0","0","62","0","0","0","62","0","58","62","58","0","58","3","62","0","62","Sun Feb 21 20:33:11 2021","The main experiment item","yes","Lexical_Decision_Task.osexp","C:/Users/Lydia/Documents/COG + LANG/COG + LANG ASSIGNMENTS","no","Andale Mono","no","18","no","white","no","yes","576","legacy","58","58","3","C:/Users/Lydia/Documents/COG + LANG/COG + LANG ASSIGNMENTS/subject-5062896.csv","legacy","Lentiform Loewenfeld","3.3.8","yes","yes","600bd7cfb6416f0113b04181","602110864497cf011d9c0822","0","f","NA","return","return","return","return","f","1003","NA","24872","29663","14262","13845","1003","2","legacy","1024","2","48000","-16","task","5062896","even","NA","58694","85568","60696","230648","2325","46253","31991","231151","199745","230646","231151","230574","85568","232155","56510","230074","2322","198194","Lexical Decision Task","59","73130","63","yes","1024"
"2.899638141","0","3","hapt","non-word","93.75","93.75","1157.03125","1157.03125","black","no","legacy","legacy","legacy","0","uniform","1","undefined","undefined","undefined","1","f","0","0","0","0","63","0","0","0","63","0","59","63","59","0","59","3","63","0","63","Sun Feb 21 20:33:11 2021","The main experiment item","yes","Lexical_Decision_Task.osexp","C:/Users/Lydia/Documents/COG + LANG/COG + LANG ASSIGNMENTS","no","Andale Mono","no","18","no","white","no","yes","576","legacy","59","59","3","C:/Users/Lydia/Documents/COG + LANG/COG + LANG ASSIGNMENTS/subject-5062896.csv","legacy","Lentiform Loewenfeld","3.3.8","yes","yes","600bd7cfb6416f0113b04181","602110864497cf011d9c0822","0","f","NA","return","return","return","return","f","920","NA","24872","29663","14262","13845","920","2","legacy","1024","2","48000","-16","task","5062896","even","NA","58694","85568","60696","232736","2325","46253","31991","233238","199745","232735","233238","232663","85568","234159","56510","232163","2322","198194","Lexical Decision Task","60","74050","64","yes","1024"
"2.838639236","0","4","furg","non-word","93.84615384615384","93.84615384615384","1152.3384615384616","1152.3384615384616","black","no","legacy","legacy","legacy","0","uniform","1","undefined","undefined","undefined","1","f","0","0","0","0","64","0","0","0","64","0","60","64","60","0","60","3","64","0","64","Sun Feb 21 20:33:11 2021","The main experiment item","yes","Lexical_Decision_Task.osexp","C:/Users/Lydia/Documents/COG + LANG/COG + LANG ASSIGNMENTS","no","Andale Mono","no","18","no","white","no","yes","576","legacy","60","60","3","C:/Users/Lydia/Documents/COG + LANG/COG + LANG ASSIGNMENTS/subject-5062896.csv","legacy","Lentiform Loewenfeld","3.3.8","yes","yes","600bd7cfb6416f0113b04181","602110864497cf011d9c0822","0","f","NA","return","return","return","return","f","852","NA","24872","29663","14262","13845","852","2","legacy","1024","2","48000","-16","task","5062896","even","NA","58694","85568","60696","234742","2325","46253","31991","235244","199745","234741","235245","234668","85568","236099","56510","234168","2322","198194","Lexical Decision Task","61","74902","65","yes","1024"
"2.784379519","0","2","snaf","non-word","93.93939393939394","93.93939393939394","1147.2272727272727","1147.2272727272727","black","no","legacy","legacy","legacy","0","uniform","1","undefined","undefined","undefined","1","f","0","0","0","0","65","0","0","0","65","0","61","65","61","0","61","3","65","0","65","Sun Feb 21 20:33:11 2021","The main experiment item","yes","Lexical_Decision_Task.osexp","C:/Users/Lydia/Documents/COG + LANG/COG + LANG ASSIGNMENTS","no","Andale Mono","no","18","no","white","no","yes","576","legacy","61","61","3","C:/Users/Lydia/Documents/COG + LANG/COG + LANG ASSIGNMENTS/subject-5062896.csv","legacy","Lentiform Loewenfeld","3.3.8","yes","yes","600bd7cfb6416f0113b04181","602110864497cf011d9c0822","0","f","NA","return","return","return","return","f","815","NA","24872","29663","14262","13845","815","2","legacy","1024","2","48000","-16","task","5062896","even","NA","58694","85568","60696","236682","2325","46253","31991","237184","199745","236680","237184","236608","85568","238001","56510","236107","2322","198194","Lexical Decision Task","62","75717","66","yes","1024"
"3.274157849","0","8","leet","non-word","94.02985074626865","94.02985074626865","1146.2835820895523","1146.2835820895523","black","no","legacy","legacy","legacy","0","uniform","1","undefined","undefined","undefined","1","f","0","0","0","0","66","0","0","0","66","0","62","66","62","0","62","3","66","0","66","Sun Feb 21 20:33:11 2021","The main experiment item","yes","Lexical_Decision_Task.osexp","C:/Users/Lydia/Documents/COG + LANG/COG + LANG ASSIGNMENTS","no","Andale Mono","no","18","no","white","no","yes","576","legacy","62","62","3","C:/Users/Lydia/Documents/COG + LANG/COG + LANG ASSIGNMENTS/subject-5062896.csv","legacy","Lentiform Loewenfeld","3.3.8","yes","yes","600bd7cfb6416f0113b04181","602110864497cf011d9c0822","0","f","NA","return","return","return","return","f","1084","NA","24872","29663","14262","13845","1084","2","legacy","1024","2","48000","-16","task","5062896","even","NA","58694","85568","60696","238584","2325","46253","31991","239086","199745","238582","239086","238511","85568","240171","56510","238011","2322","198194","Lexical Decision Task","63","76801","67","yes","1024"
"3.159867847","5.98","5","brim","word","94.11764705882354","94.11764705882354","1145.5882352941176","1145.5882352941176","black","no","legacy","legacy","legacy","0","uniform","1","undefined","undefined","undefined","1","j","0","0","0","0","67","0","0","0","67","0","63","67","63","0","63","3","67","0","67","Sun Feb 21 20:33:11 2021","The main experiment item","yes","Lexical_Decision_Task.osexp","C:/Users/Lydia/Documents/COG + LANG/COG + LANG ASSIGNMENTS","no","Andale Mono","no","18","no","white","no","yes","576","legacy","63","63","3","C:/Users/Lydia/Documents/COG + LANG/COG + LANG ASSIGNMENTS/subject-5062896.csv","legacy","Lentiform Loewenfeld","3.3.8","yes","yes","600bd7cfb6416f0113b04181","602110864497cf011d9c0822","0","j","NA","return","return","return","return","j","1099","NA","24872","29663","14262","13845","1099","2","legacy","1024","2","48000","-16","task","5062896","even","NA","58694","85568","60696","240752","2325","46253","31991","241255","199745","240751","241255","240680","85568","242355","56510","240180","2322","198194","Lexical Decision Task","64","77900","68","yes","1024"
"3.372543801","9.24","8","coat","word","94.20289855072464","94.20289855072464","1142.9420289855072","1142.9420289855072","black","no","legacy","legacy","legacy","0","uniform","1","undefined","undefined","undefined","1","j","0","0","0","0","68","0","0","0","68","0","64","68","64","0","64","3","68","0","68","Sun Feb 21 20:33:11 2021","The main experiment item","yes","Lexical_Decision_Task.osexp","C:/Users/Lydia/Documents/COG + LANG/COG + LANG ASSIGNMENTS","no","Andale Mono","no","18","no","white","no","yes","576","legacy","64","64","3","C:/Users/Lydia/Documents/COG + LANG/COG + LANG ASSIGNMENTS/subject-5062896.csv","legacy","Lentiform Loewenfeld","3.3.8","yes","yes","600bd7cfb6416f0113b04181","602110864497cf011d9c0822","0","j","NA","return","return","return","return","j","963","NA","24872","29663","14262","13845","963","2","legacy","1024","2","48000","-16","task","5062896","even","NA","58694","85568","60696","242936","2325","46253","31991","243437","199745","242934","243437","242865","85568","244402","56510","242365","2322","198194","Lexical Decision Task","65","78863","69","yes","1024"
"3.307211407","6.07","7","honk","word","94.28571428571429","94.28571428571429","1138.2714285714285","1138.2714285714285","black","no","legacy","legacy","legacy","0","uniform","1","undefined","undefined","undefined","1","j","0","0","0","0","69","0","0","0","69","0","65","69","65","0","65","3","69","0","69","Sun Feb 21 20:33:11 2021","The main experiment item","yes","Lexical_Decision_Task.osexp","C:/Users/Lydia/Documents/COG + LANG/COG + LANG ASSIGNMENTS","no","Andale Mono","no","18","no","white","no","yes","576","legacy","65","65","3","C:/Users/Lydia/Documents/COG + LANG/COG + LANG ASSIGNMENTS/subject-5062896.csv","legacy","Lentiform Loewenfeld","3.3.8","yes","yes","600bd7cfb6416f0113b04181","602110864497cf011d9c0822","0","j","NA","return","return","return","return","j","816","NA","24872","29663","14262","13845","816","2","legacy","1024","2","48000","-16","task","5062896","even","NA","58694","85568","60696","244983","2325","46253","31991","245485","199745","244981","245485","244911","85568","246302","56510","244411","2322","198194","Lexical Decision Task","66","79679","70","yes","1024"
"2.893578687","8.69","3","surf","word","94.36619718309859","94.36619718309859","1133.718309859155","1133.718309859155","black","no","legacy","legacy","legacy","0","uniform","1","undefined","undefined","undefined","1","j","0","0","0","0","70","0","0","0","70","0","66","70","66","0","66","3","70","0","70","Sun Feb 21 20:33:11 2021","The main experiment item","yes","Lexical_Decision_Task.osexp","C:/Users/Lydia/Documents/COG + LANG/COG + LANG ASSIGNMENTS","no","Andale Mono","no","18","no","white","no","yes","576","legacy","66","66","3","C:/Users/Lydia/Documents/COG + LANG/COG + LANG ASSIGNMENTS/subject-5062896.csv","legacy","Lentiform Loewenfeld","3.3.8","yes","yes","600bd7cfb6416f0113b04181","602110864497cf011d9c0822","0","j","NA","return","return","return","return","j","815","NA","24872","29663","14262","13845","815","2","legacy","1024","2","48000","-16","task","5062896","even","NA","58694","85568","60696","246883","2325","46253","31991","247385","199745","246882","247385","246811","85568","248201","56510","246311","2322","198194","Lexical Decision Task","67","80494","71","yes","1024"
"2.907588697","8.91","9","mood","word","94.44444444444444","94.44444444444444","1129.861111111111","1129.861111111111","black","no","legacy","legacy","legacy","0","uniform","1","undefined","undefined","undefined","1","j","0","0","0","0","71","0","0","0","71","0","67","71","67","0","67","3","71","0","71","Sun Feb 21 20:33:11 2021","The main experiment item","yes","Lexical_Decision_Task.osexp","C:/Users/Lydia/Documents/COG + LANG/COG + LANG ASSIGNMENTS","no","Andale Mono","no","18","no","white","no","yes","576","legacy","67","67","3","C:/Users/Lydia/Documents/COG + LANG/COG + LANG ASSIGNMENTS/subject-5062896.csv","legacy","Lentiform Loewenfeld","3.3.8","yes","yes","600bd7cfb6416f0113b04181","602110864497cf011d9c0822","0","j","NA","return","return","return","return","j","856","NA","24872","29663","14262","13845","856","2","legacy","1024","2","48000","-16","task","5062896","even","NA","58694","85568","60696","248782","2325","46253","31991","249284","199745","248780","249284","248710","85568","250141","56510","248210","2322","198194","Lexical Decision Task","68","81350","72","yes","1024"
"2.843025032","0","9","pusk","non-word","94.52054794520548","94.52054794520548","1127.3835616438357","1127.3835616438357","black","no","legacy","legacy","legacy","0","uniform","1","undefined","undefined","undefined","1","f","0","0","0","0","72","0","0","0","72","0","68","72","68","0","68","3","72","0","72","Sun Feb 21 20:33:11 2021","The main experiment item","yes","Lexical_Decision_Task.osexp","C:/Users/Lydia/Documents/COG + LANG/COG + LANG ASSIGNMENTS","no","Andale Mono","no","18","no","white","no","yes","576","legacy","68","68","3","C:/Users/Lydia/Documents/COG + LANG/COG + LANG ASSIGNMENTS/subject-5062896.csv","legacy","Lentiform Loewenfeld","3.3.8","yes","yes","600bd7cfb6416f0113b04181","602110864497cf011d9c0822","0","f","NA","return","return","return","return","f","949","NA","24872","29663","14262","13845","949","2","legacy","1024","2","48000","-16","task","5062896","even","NA","58694","85568","60696","250728","2325","46253","31991","251229","199745","250726","251229","250650","85568","252179","56510","250150","2322","198194","Lexical Decision Task","69","82299","73","yes","1024"
"3.495914186","0","4","peng","non-word","93.24324324324324","93.24324324324324","1126.4864864864865","1126.4864864864865","black","no","legacy","legacy","legacy","0","uniform","0","undefined","undefined","undefined","0","f","0","0","0","0","73","0","0","0","73","0","69","73","69","0","69","3","73","0","73","Sun Feb 21 20:33:11 2021","The main experiment item","yes","Lexical_Decision_Task.osexp","C:/Users/Lydia/Documents/COG + LANG/COG + LANG ASSIGNMENTS","no","Andale Mono","no","18","no","white","no","yes","576","legacy","69","69","3","C:/Users/Lydia/Documents/COG + LANG/COG + LANG ASSIGNMENTS/subject-5062896.csv","legacy","Lentiform Loewenfeld","3.3.8","yes","yes","600bd7cfb6416f0113b04181","602110864497cf011d9c0822","0","j","NA","return","return","return","return","j","1061","NA","24872","29663","14262","13845","1061","2","legacy","1024","2","48000","-16","task","5062896","even","NA","58694","85568","60696","252767","2325","46253","31991","253268","199745","252765","253268","252687","85568","254330","56510","252187","2322","198194","Lexical Decision Task","69","83360","74","yes","1024"
"2.80048796","0","8","pife","non-word","93.33333333333333","93.33333333333333","1122.8","1122.8","black","no","legacy","legacy","legacy","0","uniform","1","undefined","undefined","undefined","1","f","0","0","0","0","74","0","0","0","74","0","70","74","70","0","70","3","74","0","74","Sun Feb 21 20:33:11 2021","The main experiment item","yes","Lexical_Decision_Task.osexp","C:/Users/Lydia/Documents/COG + LANG/COG + LANG ASSIGNMENTS","no","Andale Mono","no","18","no","white","no","yes","576","legacy","70","70","3","C:/Users/Lydia/Documents/COG + LANG/COG + LANG ASSIGNMENTS/subject-5062896.csv","legacy","Lentiform Loewenfeld","3.3.8","yes","yes","600bd7cfb6416f0113b04181","602110864497cf011d9c0822","0","f","NA","return","return","return","return","f","850","NA","24872","29663","14262","13845","850","2","legacy","1024","2","48000","-16","task","5062896","even","NA","58694","85568","60696","255910","2325","46253","31991","256412","199745","255908","256412","255839","85568","257263","56510","252187","2322","254339","Lexical Decision Task","70","84210","75","yes","1024"
"2.981215883","10.66","5","hair","word","93.42105263157895","93.42105263157895","1123.5","1123.5","black","no","legacy","legacy","legacy","0","uniform","1","undefined","undefined","undefined","1","j","0","0","0","0","75","0","0","0","75","0","71","75","71","0","71","3","75","0","75","Sun Feb 21 20:33:11 2021","The main experiment item","yes","Lexical_Decision_Task.osexp","C:/Users/Lydia/Documents/COG + LANG/COG + LANG ASSIGNMENTS","no","Andale Mono","no","18","no","white","no","yes","576","legacy","71","71","3","C:/Users/Lydia/Documents/COG + LANG/COG + LANG ASSIGNMENTS/subject-5062896.csv","legacy","Lentiform Loewenfeld","3.3.8","yes","yes","600bd7cfb6416f0113b04181","602110864497cf011d9c0822","0","j","NA","return","return","return","return","j","1176","NA","24872","29663","14262","13845","1176","2","legacy","1024","2","48000","-16","task","5062896","even","NA","58694","85568","60696","257851","2325","46253","31991","258353","199745","257850","258353","257774","85568","259530","56510","257274","2322","254339","Lexical Decision Task","71","85386","76","yes","1024"
"3.102203805","7.21","3","drip","word","93.50649350649351","93.50649350649351","1122.155844155844","1122.155844155844","black","no","legacy","legacy","legacy","0","uniform","1","undefined","undefined","undefined","1","j","0","0","0","0","76","0","0","0","76","0","72","76","72","0","72","3","76","0","76","Sun Feb 21 20:33:11 2021","The main experiment item","yes","Lexical_Decision_Task.osexp","C:/Users/Lydia/Documents/COG + LANG/COG + LANG ASSIGNMENTS","no","Andale Mono","no","18","no","white","no","yes","576","legacy","72","72","3","C:/Users/Lydia/Documents/COG + LANG/COG + LANG ASSIGNMENTS/subject-5062896.csv","legacy","Lentiform Loewenfeld","3.3.8","yes","yes","600bd7cfb6416f0113b04181","602110864497cf011d9c0822","0","j","NA","return","return","return","return","j","1020","NA","24872","29663","14262","13845","1020","2","legacy","1024","2","48000","-16","task","5062896","even","NA","58694","85568","60696","260113","2325","46253","31991","260615","199745","260111","260615","260039","85568","261636","56510","259539","2322","254339","Lexical Decision Task","72","86406","77","yes","1024"
"2.719886232","7.98","2","quiz","word","93.58974358974359","93.58974358974359","1119.7435897435898","1119.7435897435898","black","no","legacy","legacy","legacy","0","uniform","1","undefined","undefined","undefined","1","j","0","0","0","0","77","0","0","0","77","0","73","77","73","0","73","3","77","0","77","Sun Feb 21 20:33:11 2021","The main experiment item","yes","Lexical_Decision_Task.osexp","C:/Users/Lydia/Documents/COG + LANG/COG + LANG ASSIGNMENTS","no","Andale Mono","no","18","no","white","no","yes","576","legacy","73","73","3","C:/Users/Lydia/Documents/COG + LANG/COG + LANG ASSIGNMENTS/subject-5062896.csv","legacy","Lentiform Loewenfeld","3.3.8","yes","yes","600bd7cfb6416f0113b04181","602110864497cf011d9c0822","0","j","NA","return","return","return","return","j","934","NA","24872","29663","14262","13845","934","2","legacy","1024","2","48000","-16","task","5062896","even","NA","58694","85568","60696","262225","2325","46253","31991","262727","199745","262223","262727","262144","85568","263662","56510","261644","2322","254339","Lexical Decision Task","73","87340","78","yes","1024"
"3.064581521","5.51","6","cask","word","93.67088607594937","93.67088607594937","1117.886075949367","1117.886075949367","black","no","legacy","legacy","legacy","0","uniform","1","undefined","undefined","undefined","1","j","0","0","0","0","78","0","0","0","78","0","74","78","74","0","74","3","78","0","78","Sun Feb 21 20:33:11 2021","The main experiment item","yes","Lexical_Decision_Task.osexp","C:/Users/Lydia/Documents/COG + LANG/COG + LANG ASSIGNMENTS","no","Andale Mono","no","18","no","white","no","yes","576","legacy","74","74","3","C:/Users/Lydia/Documents/COG + LANG/COG + LANG ASSIGNMENTS/subject-5062896.csv","legacy","Lentiform Loewenfeld","3.3.8","yes","yes","600bd7cfb6416f0113b04181","602110864497cf011d9c0822","0","j","NA","return","return","return","return","j","973","NA","24872","29663","14262","13845","973","2","legacy","1024","2","48000","-16","task","5062896","even","NA","58694","85568","60696","264247","2325","46253","31991","264749","199745","264246","264749","264172","85568","265723","56510","263671","2322","254339","Lexical Decision Task","74","88313","79","yes","1024"
"2.698387659","6.66","7","skid","word","93.75","93.75","1117.175","1117.175","black","no","legacy","legacy","legacy","0","uniform","1","undefined","undefined","undefined","1","j","0","0","0","0","79","0","0","0","79","0","75","79","75","0","75","3","79","0","79","Sun Feb 21 20:33:11 2021","The main experiment item","yes","Lexical_Decision_Task.osexp","C:/Users/Lydia/Documents/COG + LANG/COG + LANG ASSIGNMENTS","no","Andale Mono","no","18","no","white","no","yes","576","legacy","75","75","3","C:/Users/Lydia/Documents/COG + LANG/COG + LANG ASSIGNMENTS/subject-5062896.csv","legacy","Lentiform Loewenfeld","3.3.8","yes","yes","600bd7cfb6416f0113b04181","602110864497cf011d9c0822","0","j","NA","return","return","return","return","j","1061","NA","24872","29663","14262","13845","1061","2","legacy","1024","2","48000","-16","task","5062896","even","NA","58694","85568","60696","266310","2325","46253","31991","266812","199745","266308","266812","266231","85568","267874","56510","265731","2322","254339","Lexical Decision Task","75","89374","80","yes","1024"
"3.010582609","0","2","drod","non-word","93.82716049382717","93.82716049382717","1117.148148148148","1117.148148148148","black","no","legacy","legacy","legacy","0","uniform","1","undefined","undefined","undefined","1","f","0","0","0","0","80","0","0","0","80","0","76","80","76","0","76","3","80","0","80","Sun Feb 21 20:33:11 2021","The main experiment item","yes","Lexical_Decision_Task.osexp","C:/Users/Lydia/Documents/COG + LANG/COG + LANG ASSIGNMENTS","no","Andale Mono","no","18","no","white","no","yes","576","legacy","76","76","3","C:/Users/Lydia/Documents/COG + LANG/COG + LANG ASSIGNMENTS/subject-5062896.csv","legacy","Lentiform Loewenfeld","3.3.8","yes","yes","600bd7cfb6416f0113b04181","602110864497cf011d9c0822","0","f","NA","return","return","return","return","f","1115","NA","24872","29663","14262","13845","1115","2","legacy","1024","2","48000","-16","task","5062896","even","NA","58694","85568","60696","268458","2325","46253","31991","268959","199745","268456","268959","268382","85568","270075","56510","267882","2322","254339","Lexical Decision Task","76","90489","81","yes","1024"
"2.703007489","8.37","3","pulp","word","93.90243902439025","93.90243902439025","1116.9634146341464","1116.9634146341464","black","no","legacy","legacy","legacy","0","uniform","1","undefined","undefined","undefined","1","j","0","0","0","0","81","0","0","0","81","0","77","81","77","0","77","3","81","0","81","Sun Feb 21 20:33:11 2021","The main experiment item","yes","Lexical_Decision_Task.osexp","C:/Users/Lydia/Documents/COG + LANG/COG + LANG ASSIGNMENTS","no","Andale Mono","no","18","no","white","no","yes","576","legacy","77","77","3","C:/Users/Lydia/Documents/COG + LANG/COG + LANG ASSIGNMENTS/subject-5062896.csv","legacy","Lentiform Loewenfeld","3.3.8","yes","yes","600bd7cfb6416f0113b04181","602110864497cf011d9c0822","0","j","NA","return","return","return","return","j","1102","NA","24872","29663","14262","13845","1102","2","legacy","1024","2","48000","-16","task","5062896","even","NA","58694","85568","60696","270658","2325","46253","31991","271160","199745","270656","271160","270583","85568","272264","56510","270083","2322","254339","Lexical Decision Task","77","91591","82","yes","1024"
"3.156347201","0","8","lasp","non-word","93.97590361445783","93.97590361445783","1115.0722891566265","1115.0722891566265","black","no","legacy","legacy","legacy","0","uniform","1","undefined","undefined","undefined","1","f","0","0","0","0","82","0","0","0","82","0","78","82","78","0","78","3","82","0","82","Sun Feb 21 20:33:11 2021","The main experiment item","yes","Lexical_Decision_Task.osexp","C:/Users/Lydia/Documents/COG + LANG/COG + LANG ASSIGNMENTS","no","Andale Mono","no","18","no","white","no","yes","576","legacy","78","78","3","C:/Users/Lydia/Documents/COG + LANG/COG + LANG ASSIGNMENTS/subject-5062896.csv","legacy","Lentiform Loewenfeld","3.3.8","yes","yes","600bd7cfb6416f0113b04181","602110864497cf011d9c0822","0","f","NA","return","return","return","return","f","960","NA","24872","29663","14262","13845","960","2","legacy","1024","2","48000","-16","task","5062896","even","NA","58694","85568","60696","272848","2325","46253","31991","273350","199745","272846","273350","272772","85568","274312","56510","272272","2322","254339","Lexical Decision Task","78","92551","83","yes","1024"
"3.120135028","0","3","vals","non-word","94.04761904761905","94.04761904761905","1114.2380952380952","1114.2380952380952","black","no","legacy","legacy","legacy","0","uniform","1","undefined","undefined","undefined","1","f","0","0","0","0","83","0","0","0","83","0","79","83","79","0","79","3","83","0","83","Sun Feb 21 20:33:11 2021","The main experiment item","yes","Lexical_Decision_Task.osexp","C:/Users/Lydia/Documents/COG + LANG/COG + LANG ASSIGNMENTS","no","Andale Mono","no","18","no","white","no","yes","576","legacy","79","79","3","C:/Users/Lydia/Documents/COG + LANG/COG + LANG ASSIGNMENTS/subject-5062896.csv","legacy","Lentiform Loewenfeld","3.3.8","yes","yes","600bd7cfb6416f0113b04181","602110864497cf011d9c0822","0","f","NA","return","return","return","return","f","1045","NA","24872","29663","14262","13845","1045","2","legacy","1024","2","48000","-16","task","5062896","even","NA","58694","85568","60696","274894","2325","46253","31991","275396","199745","274892","275396","274821","85568","276442","56510","274321","2322","254339","Lexical Decision Task","79","93596","84","yes","1024"
"3.474361976","5.24","6","veer","word","94.11764705882354","94.11764705882354","1115.0235294117647","1115.0235294117647","black","no","legacy","legacy","legacy","0","uniform","1","undefined","undefined","undefined","1","j","0","0","0","0","84","0","0","0","84","0","80","84","80","0","80","3","84","0","84","Sun Feb 21 20:33:11 2021","The main experiment item","yes","Lexical_Decision_Task.osexp","C:/Users/Lydia/Documents/COG + LANG/COG + LANG ASSIGNMENTS","no","Andale Mono","no","18","no","white","no","yes","576","legacy","80","80","3","C:/Users/Lydia/Documents/COG + LANG/COG + LANG ASSIGNMENTS/subject-5062896.csv","legacy","Lentiform Loewenfeld","3.3.8","yes","yes","600bd7cfb6416f0113b04181","602110864497cf011d9c0822","0","j","NA","return","return","return","return","j","1181","NA","24872","29663","14262","13845","1181","2","legacy","1024","2","48000","-16","task","5062896","even","NA","58694","85568","60696","277028","2325","46253","31991","277530","199745","277026","277530","276952","85568","278712","56510","276452","2322","254339","Lexical Decision Task","80","94777","85","yes","1024"
"3.140404328","10.66","9","deep","word","94.18604651162791","94.18604651162791","1112.2674418604652","1112.2674418604652","black","no","legacy","legacy","legacy","0","uniform","1","undefined","undefined","undefined","1","j","0","0","0","0","85","0","0","0","85","0","81","85","81","0","81","3","85","0","85","Sun Feb 21 20:33:11 2021","The main experiment item","yes","Lexical_Decision_Task.osexp","C:/Users/Lydia/Documents/COG + LANG/COG + LANG ASSIGNMENTS","no","Andale Mono","no","18","no","white","no","yes","576","legacy","81","81","3","C:/Users/Lydia/Documents/COG + LANG/COG + LANG ASSIGNMENTS/subject-5062896.csv","legacy","Lentiform Loewenfeld","3.3.8","yes","yes","600bd7cfb6416f0113b04181","602110864497cf011d9c0822","0","j","NA","return","return","return","return","j","878","NA","24872","29663","14262","13845","878","2","legacy","1024","2","48000","-16","task","5062896","even","NA","58694","85568","60696","279295","2325","46253","31991","279797","199745","279293","279798","279221","85568","280677","56510","278721","2322","254339","Lexical Decision Task","81","95655","86","yes","1024"
"2.706148589","0","4","hube","non-word","94.25287356321839","94.25287356321839","1110.448275862069","1110.448275862069","black","no","legacy","legacy","legacy","0","uniform","1","undefined","undefined","undefined","1","f","0","0","0","0","86","0","0","0","86","0","82","86","82","0","82","3","86","0","86","Sun Feb 21 20:33:11 2021","The main experiment item","yes","Lexical_Decision_Task.osexp","C:/Users/Lydia/Documents/COG + LANG/COG + LANG ASSIGNMENTS","no","Andale Mono","no","18","no","white","no","yes","576","legacy","82","82","3","C:/Users/Lydia/Documents/COG + LANG/COG + LANG ASSIGNMENTS/subject-5062896.csv","legacy","Lentiform Loewenfeld","3.3.8","yes","yes","600bd7cfb6416f0113b04181","602110864497cf011d9c0822","0","f","NA","return","return","return","return","f","954","NA","24872","29663","14262","13845","954","2","legacy","1024","2","48000","-16","task","5062896","even","NA","58694","85568","60696","281260","2325","46253","31991","281763","199745","281258","281763","281186","85568","282719","56510","280686","2322","254339","Lexical Decision Task","82","96609","87","yes","1024"
"3.090140555","5.81","8","pout","word","94.31818181818181","94.31818181818181","1109.9204545454545","1109.9204545454545","black","no","legacy","legacy","legacy","0","uniform","1","undefined","undefined","undefined","1","j","0","0","0","0","87","0","0","0","87","0","83","87","83","0","83","3","87","0","87","Sun Feb 21 20:33:11 2021","The main experiment item","yes","Lexical_Decision_Task.osexp","C:/Users/Lydia/Documents/COG + LANG/COG + LANG ASSIGNMENTS","no","Andale Mono","no","18","no","white","no","yes","576","legacy","83","83","3","C:/Users/Lydia/Documents/COG + LANG/COG + LANG ASSIGNMENTS/subject-5062896.csv","legacy","Lentiform Loewenfeld","3.3.8","yes","yes","600bd7cfb6416f0113b04181","602110864497cf011d9c0822","0","j","NA","return","return","return","return","j","1064","NA","24872","29663","14262","13845","1064","2","legacy","1024","2","48000","-16","task","5062896","even","NA","58694","85568","60696","283302","2325","46253","31991","283803","199745","283301","283803","283228","85568","284868","56510","282728","2322","254339","Lexical Decision Task","83","97673","88","yes","1024"
"3.492014979","0","9","yine","non-word","93.25842696629213","93.25842696629213","1109.3483146067415","1109.3483146067415","black","no","legacy","legacy","legacy","0","uniform","0","undefined","undefined","undefined","0","f","0","0","0","0","88","0","0","0","88","0","84","88","84","0","84","3","88","0","88","Sun Feb 21 20:33:11 2021","The main experiment item","yes","Lexical_Decision_Task.osexp","C:/Users/Lydia/Documents/COG + LANG/COG + LANG ASSIGNMENTS","no","Andale Mono","no","18","no","white","no","yes","576","legacy","84","84","3","C:/Users/Lydia/Documents/COG + LANG/COG + LANG ASSIGNMENTS/subject-5062896.csv","legacy","Lentiform Loewenfeld","3.3.8","yes","yes","600bd7cfb6416f0113b04181","602110864497cf011d9c0822","0","j","NA","return","return","return","return","j","1059","NA","24872","29663","14262","13845","1059","2","legacy","1024","2","48000","-16","task","5062896","even","NA","58694","85568","60696","285449","2325","46253","31991","285951","199745","285447","285951","285376","85568","287011","56510","284876","2322","254339","Lexical Decision Task","83","98732","89","yes","1024"
"2.845304797","0","6","buct","non-word","93.33333333333333","93.33333333333333","1106.5666666666666","1106.5666666666666","black","no","legacy","legacy","legacy","0","uniform","1","undefined","undefined","undefined","1","f","0","0","0","0","89","0","0","0","89","0","85","89","85","0","85","3","89","0","89","Sun Feb 21 20:33:11 2021","The main experiment item","yes","Lexical_Decision_Task.osexp","C:/Users/Lydia/Documents/COG + LANG/COG + LANG ASSIGNMENTS","no","Andale Mono","no","18","no","white","no","yes","576","legacy","85","85","3","C:/Users/Lydia/Documents/COG + LANG/COG + LANG ASSIGNMENTS/subject-5062896.csv","legacy","Lentiform Loewenfeld","3.3.8","yes","yes","600bd7cfb6416f0113b04181","602110864497cf011d9c0822","0","f","NA","return","return","return","return","f","859","NA","24872","29663","14262","13845","859","2","legacy","1024","2","48000","-16","task","5062896","even","NA","58694","85568","60696","288596","2325","46253","31991","289097","199745","288594","289097","288520","85568","289957","56510","284876","2322","287020","Lexical Decision Task","84","99591","90","yes","1024"
"3.15462682","0","6","noal","non-word","93.4065934065934","93.4065934065934","1105.4725274725274","1105.4725274725274","black","no","legacy","legacy","legacy","0","uniform","1","undefined","undefined","undefined","1","f","0","0","0","0","90","0","0","0","90","0","86","90","86","0","86","3","90","0","90","Sun Feb 21 20:33:11 2021","The main experiment item","yes","Lexical_Decision_Task.osexp","C:/Users/Lydia/Documents/COG + LANG/COG + LANG ASSIGNMENTS","no","Andale Mono","no","18","no","white","no","yes","576","legacy","86","86","3","C:/Users/Lydia/Documents/COG + LANG/COG + LANG ASSIGNMENTS/subject-5062896.csv","legacy","Lentiform Loewenfeld","3.3.8","yes","yes","600bd7cfb6416f0113b04181","602110864497cf011d9c0822","0","f","NA","return","return","return","return","f","1007","NA","24872","29663","14262","13845","1007","2","legacy","1024","2","48000","-16","task","5062896","even","NA","58694","85568","60696","290537","2325","46253","31991","291039","199745","290535","291040","290465","85568","292048","56510","289965","2322","287020","Lexical Decision Task","85","100598","91","yes","1024"
"3.316948329","0","1","besc","non-word","93.47826086956522","93.47826086956522","1102.7717391304348","1102.7717391304348","black","no","legacy","legacy","legacy","0","uniform","1","undefined","undefined","undefined","1","f","0","0","0","0","91","0","0","0","91","0","87","91","87","0","87","3","91","0","91","Sun Feb 21 20:33:11 2021","The main experiment item","yes","Lexical_Decision_Task.osexp","C:/Users/Lydia/Documents/COG + LANG/COG + LANG ASSIGNMENTS","no","Andale Mono","no","18","no","white","no","yes","576","legacy","87","87","3","C:/Users/Lydia/Documents/COG + LANG/COG + LANG ASSIGNMENTS/subject-5062896.csv","legacy","Lentiform Loewenfeld","3.3.8","yes","yes","600bd7cfb6416f0113b04181","602110864497cf011d9c0822","0","f","NA","return","return","return","return","f","857","NA","24872","29663","14262","13845","857","2","legacy","1024","2","48000","-16","task","5062896","even","NA","58694","85568","60696","292632","2325","46253","31991","293134","199745","292630","293134","292557","85568","293992","56510","292057","2322","287020","Lexical Decision Task","86","101455","92","yes","1024"
"2.858136002","0","4","phip","non-word","93.54838709677419","93.54838709677419","1101.0430107526881","1101.0430107526881","black","no","legacy","legacy","legacy","0","uniform","1","undefined","undefined","undefined","1","f","0","0","0","0","92","0","0","0","92","0","88","92","88","0","88","3","92","0","92","Sun Feb 21 20:33:11 2021","The main experiment item","yes","Lexical_Decision_Task.osexp","C:/Users/Lydia/Documents/COG + LANG/COG + LANG ASSIGNMENTS","no","Andale Mono","no","18","no","white","no","yes","576","legacy","88","88","3","C:/Users/Lydia/Documents/COG + LANG/COG + LANG ASSIGNMENTS/subject-5062896.csv","legacy","Lentiform Loewenfeld","3.3.8","yes","yes","600bd7cfb6416f0113b04181","602110864497cf011d9c0822","0","f","NA","return","return","return","return","f","942","NA","24872","29663","14262","13845","942","2","legacy","1024","2","48000","-16","task","5062896","even","NA","58694","85568","60696","294575","2325","46253","31991","295077","199745","294573","295078","294501","85568","296022","56510","294001","2322","287020","Lexical Decision Task","87","102397","93","yes","1024"
