"Log_BG","Log_Freq_HAL","Ortho_N","Stimulus","Type","acc","accuracy","average_response_time","avg_rt","background","bidi","canvas_backend","clock_backend","color_backend","compensation","coordinates","correct","correct_Experimental_intro","correct_Introduction","correct_Practice_intro","correct_experimenter_kb","correct_response","count_End_Of_Experiment","count_End_Of_Practice","count_Experimental_Loop","count_Experimental_intro","count_Fixation","count_Introduction","count_Practice_Loop","count_Practice_intro","count_Stimulus","count_block_break_feedback","count_experimental_sequence","count_experimenter_kb","count_increment_trial_count","count_init_trial_count","count_logger","count_practice_sequence","count_right","count_task","count_wrong","datetime","description","disable_garbage_collection","experiment_file","experiment_path","font_bold","font_family","font_italic","font_size","font_underline","foreground","form_clicks","fullscreen","height","keyboard_backend","live_row","live_row_Experimental_Loop","live_row_Practice_Loop","logfile","mouse_backend","opensesame_codename","opensesame_version","osf_always_upload_data","osf_always_upload_experiment","osf_datanode_id","osf_id","repeat_cycle","response","response_End_Of_Experiment","response_Experimental_intro","response_Introduction","response_Practice_intro","response_block_break_feedback","response_experimenter_kb","response_time","response_time_End_Of_Experiment","response_time_Experimental_intro","response_time_Introduction","response_time_Practice_intro","response_time_block_break_feedback","response_time_experimenter_kb","round_decimals","sampler_backend","sound_buf_size","sound_channels","sound_freq","sound_sample_size","start","subject_nr","subject_parity","time_End_Of_Experiment","time_End_Of_Practice","time_Experimental_Loop","time_Experimental_intro","time_Fixation","time_Introduction","time_Practice_Loop","time_Practice_intro","time_Stimulus","time_block_break_feedback","time_experimental_sequence","time_experimenter_kb","time_increment_trial_count","time_init_trial_count","time_logger","time_practice_sequence","time_right","time_task","time_wrong","title","total_correct","total_response_time","total_responses","uniform_coordinates","width"
"2.616654026","9.37","5","gift","word","80","80","1399.6","1399.6","black","no","legacy","legacy","legacy","0","uniform","1","undefined","undefined","undefined","1","j","0","0","0","0","4","0","0","0","4","NA","0","4","0","0","0","3","4","0","4","Thu Feb 18 13:28:56 2021","The main experiment item","yes","Lexical_Decision_Task.osexp","C:/Users/user/OneDrive/Documents/Uni/Year 2/cognitive and language","no","Andale Mono","no","18","no","white","no","yes","576","legacy","0","0","3","C:/Users/user/OneDrive/Documents/Uni/Year 2/cognitive and language/subject-5203120.csv","legacy","Lentiform Loewenfeld","3.3.7","yes","yes","600bd7cfb6416f0113b04181","602110864497cf011d9c0822","0","j","NA","space","space","space","NA","j","572","NA","4372","17151","6825","NA","572","2","legacy","1024","2","48000","-16","task","5203120","even","NA","41386","47763","43388","47844","5493","29475","22649","48346","NA","47842","48346","NA","47763","48920","39749","40856","5477","33108","Lexical Decision Task","4","6998","5","yes","1024"
"2.839268497","0","8","maft","non-word","83.33333333333333","83.33333333333333","1288.5","1288.5","black","no","legacy","legacy","legacy","0","uniform","1","undefined","undefined","undefined","1","f","0","0","0","0","5","0","0","0","5","NA","1","5","1","0","1","3","5","0","5","Thu Feb 18 13:28:56 2021","The main experiment item","yes","Lexical_Decision_Task.osexp","C:/Users/user/OneDrive/Documents/Uni/Year 2/cognitive and language","no","Andale Mono","no","18","no","white","no","yes","576","legacy","1","1","3","C:/Users/user/OneDrive/Documents/Uni/Year 2/cognitive and language/subject-5203120.csv","legacy","Lentiform Loewenfeld","3.3.7","yes","yes","600bd7cfb6416f0113b04181","602110864497cf011d9c0822","0","f","NA","space","space","space","NA","f","733","NA","4372","17151","6825","NA","733","2","legacy","1024","2","48000","-16","task","5203120","even","NA","41386","47763","43388","49550","5493","29475","22649","50053","NA","49548","50053","49434","47763","50787","39749","48934","5477","33108","Lexical Decision Task","5","7731","6","yes","1024"
"2.744553742","0","2","nawk","non-word","85.71428571428571","85.71428571428571","1199.142857142857","1199.142857142857","black","no","legacy","legacy","legacy","0","uniform","1","undefined","undefined","undefined","1","f","0","0","0","0","6","0","0","0","6","NA","2","6","2","0","2","3","6","0","6","Thu Feb 18 13:28:56 2021","The main experiment item","yes","Lexical_Decision_Task.osexp","C:/Users/user/OneDrive/Documents/Uni/Year 2/cognitive and language","no","Andale Mono","no","18","no","white","no","yes","576","legacy","2","2","3","C:/Users/user/OneDrive/Documents/Uni/Year 2/cognitive and language/subject-5203120.csv","legacy","Lentiform Loewenfeld","3.3.7","yes","yes","600bd7cfb6416f0113b04181","602110864497cf011d9c0822","0","f","NA","space","space","space","NA","f","663","NA","4372","17151","6825","NA","663","2","legacy","1024","2","48000","-16","task","5203120","even","NA","41386","47763","43388","51396","5493","29475","22649","51898","NA","51393","51898","51294","47763","52562","39749","50794","5477","33108","Lexical Decision Task","6","8394","7","yes","1024"
"3.156347201","0","8","lasp","non-word","87.5","87.5","1153","1153","black","no","legacy","legacy","legacy","0","uniform","1","undefined","undefined","undefined","1","f","0","0","0","0","7","0","0","0","7","NA","3","7","3","0","3","3","7","0","7","Thu Feb 18 13:28:56 2021","The main experiment item","yes","Lexical_Decision_Task.osexp","C:/Users/user/OneDrive/Documents/Uni/Year 2/cognitive and language","no","Andale Mono","no","18","no","white","no","yes","576","legacy","3","3","3","C:/Users/user/OneDrive/Documents/Uni/Year 2/cognitive and language/subject-5203120.csv","legacy","Lentiform Loewenfeld","3.3.7","yes","yes","600bd7cfb6416f0113b04181","602110864497cf011d9c0822","0","f","NA","space","space","space","NA","f","830","NA","4372","17151","6825","NA","830","2","legacy","1024","2","48000","-16","task","5203120","even","NA","41386","47763","43388","53174","5493","29475","22649","53676","NA","53172","53676","53069","47763","54507","39749","52569","5477","33108","Lexical Decision Task","7","9224","8","yes","1024"
"3.460446784","0","5","dess","non-word","88.88888888888889","88.88888888888889","1188","1188","black","no","legacy","legacy","legacy","0","uniform","1","undefined","undefined","undefined","1","f","0","0","0","0","8","0","0","0","8","NA","4","8","4","0","4","3","8","0","8","Thu Feb 18 13:28:56 2021","The main experiment item","yes","Lexical_Decision_Task.osexp","C:/Users/user/OneDrive/Documents/Uni/Year 2/cognitive and language","no","Andale Mono","no","18","no","white","no","yes","576","legacy","4","4","3","C:/Users/user/OneDrive/Documents/Uni/Year 2/cognitive and language/subject-5203120.csv","legacy","Lentiform Loewenfeld","3.3.7","yes","yes","600bd7cfb6416f0113b04181","602110864497cf011d9c0822","0","f","NA","space","space","space","NA","f","1468","NA","4372","17151","6825","NA","1468","2","legacy","1024","2","48000","-16","task","5203120","even","NA","41386","47763","43388","55115","5493","29475","22649","55617","NA","55113","55617","55014","47763","57086","39749","54513","5477","33108","Lexical Decision Task","8","10692","9","yes","1024"
"2.784379519","0","2","snaf","non-word","80","80","1149.2","1149.2","black","no","legacy","legacy","legacy","0","uniform","0","undefined","undefined","undefined","0","f","0","0","0","0","9","0","0","0","9","NA","5","9","5","0","5","3","9","0","9","Thu Feb 18 13:28:56 2021","The main experiment item","yes","Lexical_Decision_Task.osexp","C:/Users/user/OneDrive/Documents/Uni/Year 2/cognitive and language","no","Andale Mono","no","18","no","white","no","yes","576","legacy","5","5","3","C:/Users/user/OneDrive/Documents/Uni/Year 2/cognitive and language/subject-5203120.csv","legacy","Lentiform Loewenfeld","3.3.7","yes","yes","600bd7cfb6416f0113b04181","602110864497cf011d9c0822","0","j","NA","space","space","space","NA","j","800","NA","4372","17151","6825","NA","800","2","legacy","1024","2","48000","-16","task","5203120","even","NA","41386","47763","43388","57695","5493","29475","22649","58198","NA","57693","58198","57593","47763","59000","39749","57093","5477","33108","Lexical Decision Task","8","11492","10","yes","1024"
"2.82129731","6.72","5","plum","word","72.72727272727273","72.72727272727273","1086.3636363636363","1086.3636363636363","black","no","legacy","legacy","legacy","0","uniform","0","undefined","undefined","undefined","0","j","0","0","0","0","10","0","0","0","10","NA","6","10","6","0","6","3","10","0","10","Thu Feb 18 13:28:56 2021","The main experiment item","yes","Lexical_Decision_Task.osexp","C:/Users/user/OneDrive/Documents/Uni/Year 2/cognitive and language","no","Andale Mono","no","18","no","white","no","yes","576","legacy","6","6","3","C:/Users/user/OneDrive/Documents/Uni/Year 2/cognitive and language/subject-5203120.csv","legacy","Lentiform Loewenfeld","3.3.7","yes","yes","600bd7cfb6416f0113b04181","602110864497cf011d9c0822","0","f","NA","space","space","space","NA","f","458","NA","4372","17151","6825","NA","458","2","legacy","1024","2","48000","-16","task","5203120","even","NA","41386","47763","43388","60604","5493","29475","22649","61106","NA","60601","61106","60505","47763","61565","39749","57093","5477","59005","Lexical Decision Task","8","11950","11","yes","1024"
"3.208172527","10.27","7","deck","word","75","75","1118.8333333333333","1118.8333333333333","black","no","legacy","legacy","legacy","0","uniform","1","undefined","undefined","undefined","1","j","0","0","0","0","11","0","0","0","11","NA","7","11","7","0","7","3","11","0","11","Thu Feb 18 13:28:56 2021","The main experiment item","yes","Lexical_Decision_Task.osexp","C:/Users/user/OneDrive/Documents/Uni/Year 2/cognitive and language","no","Andale Mono","no","18","no","white","no","yes","576","legacy","7","7","3","C:/Users/user/OneDrive/Documents/Uni/Year 2/cognitive and language/subject-5203120.csv","legacy","Lentiform Loewenfeld","3.3.7","yes","yes","600bd7cfb6416f0113b04181","602110864497cf011d9c0822","0","j","NA","space","space","space","NA","j","1476","NA","4372","17151","6825","NA","1476","2","legacy","1024","2","48000","-16","task","5203120","even","NA","41386","47763","43388","63172","5493","29475","22649","63674","NA","63169","63674","63072","47763","65151","39749","57093","5477","61572","Lexical Decision Task","9","13426","12","yes","1024"
"2.899638141","0","3","hapt","non-word","76.92307692307692","76.92307692307692","1079.6923076923076","1079.6923076923076","black","no","legacy","legacy","legacy","0","uniform","1","undefined","undefined","undefined","1","f","0","0","0","0","12","0","0","0","12","NA","8","12","8","0","8","3","12","0","12","Thu Feb 18 13:28:56 2021","The main experiment item","yes","Lexical_Decision_Task.osexp","C:/Users/user/OneDrive/Documents/Uni/Year 2/cognitive and language","no","Andale Mono","no","18","no","white","no","yes","576","legacy","8","8","3","C:/Users/user/OneDrive/Documents/Uni/Year 2/cognitive and language/subject-5203120.csv","legacy","Lentiform Loewenfeld","3.3.7","yes","yes","600bd7cfb6416f0113b04181","602110864497cf011d9c0822","0","f","NA","space","space","space","NA","f","610","NA","4372","17151","6825","NA","610","2","legacy","1024","2","48000","-16","task","5203120","even","NA","41386","47763","43388","65760","5493","29475","22649","66262","NA","65758","66262","65659","47763","66874","39749","65159","5477","61572","Lexical Decision Task","10","14036","13","yes","1024"
"3.067193647","6.73","6","raft","word","78.57142857142857","78.57142857142857","1043","1043","black","no","legacy","legacy","legacy","0","uniform","1","undefined","undefined","undefined","1","j","0","0","0","0","13","0","0","0","13","NA","9","13","9","0","9","3","13","0","13","Thu Feb 18 13:28:56 2021","The main experiment item","yes","Lexical_Decision_Task.osexp","C:/Users/user/OneDrive/Documents/Uni/Year 2/cognitive and language","no","Andale Mono","no","18","no","white","no","yes","576","legacy","9","9","3","C:/Users/user/OneDrive/Documents/Uni/Year 2/cognitive and language/subject-5203120.csv","legacy","Lentiform Loewenfeld","3.3.7","yes","yes","600bd7cfb6416f0113b04181","602110864497cf011d9c0822","0","j","NA","space","space","space","NA","j","566","NA","4372","17151","6825","NA","566","2","legacy","1024","2","48000","-16","task","5203120","even","NA","41386","47763","43388","67478","5493","29475","22649","67980","NA","67476","67980","67380","47763","68547","39749","66880","5477","61572","Lexical Decision Task","11","14602","14","yes","1024"
"2.971428938","9.86","7","spot","word","80","80","1006.6","1006.6","black","no","legacy","legacy","legacy","0","uniform","1","undefined","undefined","undefined","1","j","0","0","0","0","14","0","0","0","14","NA","10","14","10","0","10","3","14","0","14","Thu Feb 18 13:28:56 2021","The main experiment item","yes","Lexical_Decision_Task.osexp","C:/Users/user/OneDrive/Documents/Uni/Year 2/cognitive and language","no","Andale Mono","no","18","no","white","no","yes","576","legacy","10","10","3","C:/Users/user/OneDrive/Documents/Uni/Year 2/cognitive and language/subject-5203120.csv","legacy","Lentiform Loewenfeld","3.3.7","yes","yes","600bd7cfb6416f0113b04181","602110864497cf011d9c0822","0","j","NA","space","space","space","NA","j","497","NA","4372","17151","6825","NA","497","2","legacy","1024","2","48000","-16","task","5203120","even","NA","41386","47763","43388","69155","5493","29475","22649","69657","NA","69152","69657","69053","47763","70156","39749","68553","5477","61572","Lexical Decision Task","12","15099","15","yes","1024"
"3.010582609","0","2","drod","non-word","81.25","81.25","982.375","982.375","black","no","legacy","legacy","legacy","0","uniform","1","undefined","undefined","undefined","1","f","0","0","0","0","15","0","0","0","15","NA","11","15","11","0","11","3","15","0","15","Thu Feb 18 13:28:56 2021","The main experiment item","yes","Lexical_Decision_Task.osexp","C:/Users/user/OneDrive/Documents/Uni/Year 2/cognitive and language","no","Andale Mono","no","18","no","white","no","yes","576","legacy","11","11","3","C:/Users/user/OneDrive/Documents/Uni/Year 2/cognitive and language/subject-5203120.csv","legacy","Lentiform Loewenfeld","3.3.7","yes","yes","600bd7cfb6416f0113b04181","602110864497cf011d9c0822","0","f","NA","space","space","space","NA","f","619","NA","4372","17151","6825","NA","619","2","legacy","1024","2","48000","-16","task","5203120","even","NA","41386","47763","43388","70762","5493","29475","22649","71264","NA","70758","71264","70662","47763","71885","39749","70162","5477","61572","Lexical Decision Task","13","15718","16","yes","1024"
"2.668385917","5.48","4","twig","word","82.3529411764706","82.3529411764706","960.4705882352941","960.4705882352941","black","no","legacy","legacy","legacy","0","uniform","1","undefined","undefined","undefined","1","j","0","0","0","0","16","0","0","0","16","NA","12","16","12","0","12","3","16","0","16","Thu Feb 18 13:28:56 2021","The main experiment item","yes","Lexical_Decision_Task.osexp","C:/Users/user/OneDrive/Documents/Uni/Year 2/cognitive and language","no","Andale Mono","no","18","no","white","no","yes","576","legacy","12","12","3","C:/Users/user/OneDrive/Documents/Uni/Year 2/cognitive and language/subject-5203120.csv","legacy","Lentiform Loewenfeld","3.3.7","yes","yes","600bd7cfb6416f0113b04181","602110864497cf011d9c0822","0","j","NA","space","space","space","NA","j","610","NA","4372","17151","6825","NA","610","2","legacy","1024","2","48000","-16","task","5203120","even","NA","41386","47763","43388","72492","5493","29475","22649","72994","NA","72490","72994","72392","47763","73606","39749","71892","5477","61572","Lexical Decision Task","14","16328","17","yes","1024"
"2.86332286","6.71","2","feud","word","77.77777777777777","77.77777777777777","951.2777777777778","951.2777777777778","black","no","legacy","legacy","legacy","0","uniform","0","undefined","undefined","undefined","0","j","0","0","0","0","17","0","0","0","17","NA","13","17","13","0","13","3","17","0","17","Thu Feb 18 13:28:56 2021","The main experiment item","yes","Lexical_Decision_Task.osexp","C:/Users/user/OneDrive/Documents/Uni/Year 2/cognitive and language","no","Andale Mono","no","18","no","white","no","yes","576","legacy","13","13","3","C:/Users/user/OneDrive/Documents/Uni/Year 2/cognitive and language/subject-5203120.csv","legacy","Lentiform Loewenfeld","3.3.7","yes","yes","600bd7cfb6416f0113b04181","602110864497cf011d9c0822","0","f","NA","space","space","space","NA","f","795","NA","4372","17151","6825","NA","795","2","legacy","1024","2","48000","-16","task","5203120","even","NA","41386","47763","43388","74216","5493","29475","22649","74718","NA","74213","74718","74115","47763","75515","39749","73615","5477","61572","Lexical Decision Task","14","17123","18","yes","1024"
"2.767650507","0","6","yolt","non-word","73.6842105263158","73.6842105263158","932.9473684210526","932.9473684210526","black","no","legacy","legacy","legacy","0","uniform","0","undefined","undefined","undefined","0","f","0","0","0","0","18","0","0","0","18","NA","14","18","14","0","14","3","18","0","18","Thu Feb 18 13:28:56 2021","The main experiment item","yes","Lexical_Decision_Task.osexp","C:/Users/user/OneDrive/Documents/Uni/Year 2/cognitive and language","no","Andale Mono","no","18","no","white","no","yes","576","legacy","14","14","3","C:/Users/user/OneDrive/Documents/Uni/Year 2/cognitive and language/subject-5203120.csv","legacy","Lentiform Loewenfeld","3.3.7","yes","yes","600bd7cfb6416f0113b04181","602110864497cf011d9c0822","0","j","NA","space","space","space","NA","j","603","NA","4372","17151","6825","NA","603","2","legacy","1024","2","48000","-16","task","5203120","even","NA","41386","47763","43388","77121","5493","29475","22649","77623","NA","77119","77623","77021","47763","78228","39749","73615","5477","75521","Lexical Decision Task","14","17726","19","yes","1024"
"2.6599162","0","2","saff","non-word","75","75","920.6","920.6","black","no","legacy","legacy","legacy","0","uniform","1","undefined","undefined","undefined","1","f","0","0","0","0","19","0","0","0","19","NA","15","19","15","0","15","3","19","0","19","Thu Feb 18 13:28:56 2021","The main experiment item","yes","Lexical_Decision_Task.osexp","C:/Users/user/OneDrive/Documents/Uni/Year 2/cognitive and language","no","Andale Mono","no","18","no","white","no","yes","576","legacy","15","15","3","C:/Users/user/OneDrive/Documents/Uni/Year 2/cognitive and language/subject-5203120.csv","legacy","Lentiform Loewenfeld","3.3.7","yes","yes","600bd7cfb6416f0113b04181","602110864497cf011d9c0822","0","f","NA","space","space","space","NA","f","686","NA","4372","17151","6825","NA","686","2","legacy","1024","2","48000","-16","task","5203120","even","NA","41386","47763","43388","79833","5493","29475","22649","80335","NA","79831","80335","79735","47763","81023","39749","73615","5477","78234","Lexical Decision Task","15","18412","20","yes","1024"
"2.9737419","7.69","7","claw","word","76.19047619047619","76.19047619047619","905.4761904761905","905.4761904761905","black","no","legacy","legacy","legacy","0","uniform","1","undefined","undefined","undefined","1","j","0","0","0","0","20","0","0","0","20","NA","16","20","16","0","16","3","20","0","20","Thu Feb 18 13:28:56 2021","The main experiment item","yes","Lexical_Decision_Task.osexp","C:/Users/user/OneDrive/Documents/Uni/Year 2/cognitive and language","no","Andale Mono","no","18","no","white","no","yes","576","legacy","16","16","3","C:/Users/user/OneDrive/Documents/Uni/Year 2/cognitive and language/subject-5203120.csv","legacy","Lentiform Loewenfeld","3.3.7","yes","yes","600bd7cfb6416f0113b04181","602110864497cf011d9c0822","0","j","NA","space","space","space","NA","j","603","NA","4372","17151","6825","NA","603","2","legacy","1024","2","48000","-16","task","5203120","even","NA","41386","47763","43388","81630","5493","29475","22649","82132","NA","81627","82132","81530","47763","82737","39749","81030","5477","78234","Lexical Decision Task","16","19015","21","yes","1024"
"3.153104174","10.89","6","door","word","77.27272727272727","77.27272727272727","888.5","888.5","black","no","legacy","legacy","legacy","0","uniform","1","undefined","undefined","undefined","1","j","0","0","0","0","21","0","0","0","21","NA","17","21","17","0","17","3","21","0","21","Thu Feb 18 13:28:56 2021","The main experiment item","yes","Lexical_Decision_Task.osexp","C:/Users/user/OneDrive/Documents/Uni/Year 2/cognitive and language","no","Andale Mono","no","18","no","white","no","yes","576","legacy","17","17","3","C:/Users/user/OneDrive/Documents/Uni/Year 2/cognitive and language/subject-5203120.csv","legacy","Lentiform Loewenfeld","3.3.7","yes","yes","600bd7cfb6416f0113b04181","602110864497cf011d9c0822","0","j","NA","space","space","space","NA","j","532","NA","4372","17151","6825","NA","532","2","legacy","1024","2","48000","-16","task","5203120","even","NA","41386","47763","43388","83343","5493","29475","22649","83845","NA","83340","83845","83244","47763","84379","39749","82743","5477","78234","Lexical Decision Task","17","19547","22","yes","1024"
"3.374198258","0","8","vist","non-word","73.91304347826087","73.91304347826087","874.8695652173913","874.8695652173913","black","no","legacy","legacy","legacy","0","uniform","0","undefined","undefined","undefined","0","f","0","0","0","0","22","0","0","0","22","NA","18","22","18","0","18","3","22","0","22","Thu Feb 18 13:28:56 2021","The main experiment item","yes","Lexical_Decision_Task.osexp","C:/Users/user/OneDrive/Documents/Uni/Year 2/cognitive and language","no","Andale Mono","no","18","no","white","no","yes","576","legacy","18","18","3","C:/Users/user/OneDrive/Documents/Uni/Year 2/cognitive and language/subject-5203120.csv","legacy","Lentiform Loewenfeld","3.3.7","yes","yes","600bd7cfb6416f0113b04181","602110864497cf011d9c0822","0","j","NA","space","space","space","NA","j","575","NA","4372","17151","6825","NA","575","2","legacy","1024","2","48000","-16","task","5203120","even","NA","41386","47763","43388","84988","5493","29475","22649","85490","NA","84985","85490","84886","47763","86067","39749","84386","5477","78234","Lexical Decision Task","17","20122","23","yes","1024"
"2.771097306","0","9","jold","non-word","75","75","885.375","885.375","black","no","legacy","legacy","legacy","0","uniform","1","undefined","undefined","undefined","1","f","0","0","0","0","23","0","0","0","23","NA","19","23","19","0","19","3","23","0","23","Thu Feb 18 13:28:56 2021","The main experiment item","yes","Lexical_Decision_Task.osexp","C:/Users/user/OneDrive/Documents/Uni/Year 2/cognitive and language","no","Andale Mono","no","18","no","white","no","yes","576","legacy","19","19","3","C:/Users/user/OneDrive/Documents/Uni/Year 2/cognitive and language/subject-5203120.csv","legacy","Lentiform Loewenfeld","3.3.7","yes","yes","600bd7cfb6416f0113b04181","602110864497cf011d9c0822","0","f","NA","space","space","space","NA","f","1127","NA","4372","17151","6825","NA","1127","2","legacy","1024","2","48000","-16","task","5203120","even","NA","41386","47763","43388","87675","5493","29475","22649","88177","NA","87672","88177","87574","47763","89306","39749","84386","5477","86074","Lexical Decision Task","18","21249","24","yes","1024"
"3.049218023","7.4","9","robe","word","76","76","877.64","877.64","black","no","legacy","legacy","legacy","0","uniform","1","undefined","undefined","undefined","1","j","0","0","0","0","24","0","0","0","24","NA","20","24","20","0","20","3","24","0","24","Thu Feb 18 13:28:56 2021","The main experiment item","yes","Lexical_Decision_Task.osexp","C:/Users/user/OneDrive/Documents/Uni/Year 2/cognitive and language","no","Andale Mono","no","18","no","white","no","yes","576","legacy","20","20","3","C:/Users/user/OneDrive/Documents/Uni/Year 2/cognitive and language/subject-5203120.csv","legacy","Lentiform Loewenfeld","3.3.7","yes","yes","600bd7cfb6416f0113b04181","602110864497cf011d9c0822","0","j","NA","space","space","space","NA","j","692","NA","4372","17151","6825","NA","692","2","legacy","1024","2","48000","-16","task","5203120","even","NA","41386","47763","43388","89914","5493","29475","22649","90416","NA","89911","90416","89814","47763","91109","39749","89313","5477","86074","Lexical Decision Task","19","21941","25","yes","1024"
"2.924968096","0","4","phim","non-word","76.92307692307692","76.92307692307692","863.6153846153846","863.6153846153846","black","no","legacy","legacy","legacy","0","uniform","1","undefined","undefined","undefined","1","f","0","0","0","0","25","0","0","0","25","NA","21","25","21","0","21","3","25","0","25","Thu Feb 18 13:28:56 2021","The main experiment item","yes","Lexical_Decision_Task.osexp","C:/Users/user/OneDrive/Documents/Uni/Year 2/cognitive and language","no","Andale Mono","no","18","no","white","no","yes","576","legacy","21","21","3","C:/Users/user/OneDrive/Documents/Uni/Year 2/cognitive and language/subject-5203120.csv","legacy","Lentiform Loewenfeld","3.3.7","yes","yes","600bd7cfb6416f0113b04181","602110864497cf011d9c0822","0","f","NA","space","space","space","NA","f","513","NA","4372","17151","6825","NA","513","2","legacy","1024","2","48000","-16","task","5203120","even","NA","41386","47763","43388","91716","5493","29475","22649","92218","NA","91714","92218","91616","47763","92733","39749","91116","5477","86074","Lexical Decision Task","20","22454","26","yes","1024"
"2.843025032","0","9","pusk","non-word","77.77777777777777","77.77777777777777","856.5185185185185","856.5185185185185","black","no","legacy","legacy","legacy","0","uniform","1","undefined","undefined","undefined","1","f","0","0","0","0","26","0","0","0","26","NA","22","26","22","0","22","3","26","0","26","Thu Feb 18 13:28:56 2021","The main experiment item","yes","Lexical_Decision_Task.osexp","C:/Users/user/OneDrive/Documents/Uni/Year 2/cognitive and language","no","Andale Mono","no","18","no","white","no","yes","576","legacy","22","22","3","C:/Users/user/OneDrive/Documents/Uni/Year 2/cognitive and language/subject-5203120.csv","legacy","Lentiform Loewenfeld","3.3.7","yes","yes","600bd7cfb6416f0113b04181","602110864497cf011d9c0822","0","f","NA","space","space","space","NA","f","672","NA","4372","17151","6825","NA","672","2","legacy","1024","2","48000","-16","task","5203120","even","NA","41386","47763","43388","93339","5493","29475","22649","93841","NA","93337","93841","93239","47763","94514","39749","92739","5477","86074","Lexical Decision Task","21","23126","27","yes","1024"
"2.698387659","6.66","7","skid","word","78.57142857142857","78.57142857142857","847.5","847.5","black","no","legacy","legacy","legacy","0","uniform","1","undefined","undefined","undefined","1","j","0","0","0","0","27","0","0","0","27","NA","23","27","23","0","23","3","27","0","27","Thu Feb 18 13:28:56 2021","The main experiment item","yes","Lexical_Decision_Task.osexp","C:/Users/user/OneDrive/Documents/Uni/Year 2/cognitive and language","no","Andale Mono","no","18","no","white","no","yes","576","legacy","23","23","3","C:/Users/user/OneDrive/Documents/Uni/Year 2/cognitive and language/subject-5203120.csv","legacy","Lentiform Loewenfeld","3.3.7","yes","yes","600bd7cfb6416f0113b04181","602110864497cf011d9c0822","0","j","NA","space","space","space","NA","j","604","NA","4372","17151","6825","NA","604","2","legacy","1024","2","48000","-16","task","5203120","even","NA","41386","47763","43388","95121","5493","29475","22649","95624","NA","95119","95624","95021","47763","96229","39749","94521","5477","86074","Lexical Decision Task","22","23730","28","yes","1024"
"3.481012421","8.34","5","teen","word","79.3103448275862","79.3103448275862","835.3448275862069","835.3448275862069","black","no","legacy","legacy","legacy","0","uniform","1","undefined","undefined","undefined","1","j","0","0","0","0","28","0","0","0","28","NA","24","28","24","0","24","3","28","0","28","Thu Feb 18 13:28:56 2021","The main experiment item","yes","Lexical_Decision_Task.osexp","C:/Users/user/OneDrive/Documents/Uni/Year 2/cognitive and language","no","Andale Mono","no","18","no","white","no","yes","576","legacy","24","24","3","C:/Users/user/OneDrive/Documents/Uni/Year 2/cognitive and language/subject-5203120.csv","legacy","Lentiform Loewenfeld","3.3.7","yes","yes","600bd7cfb6416f0113b04181","602110864497cf011d9c0822","0","j","NA","space","space","space","NA","j","495","NA","4372","17151","6825","NA","495","2","legacy","1024","2","48000","-16","task","5203120","even","NA","41386","47763","43388","96837","5493","29475","22649","97339","NA","96835","97339","96737","47763","97836","39749","96236","5477","86074","Lexical Decision Task","23","24225","29","yes","1024"
"3.043885998","0","9","gome","non-word","80","80","828.7333333333333","828.7333333333333","black","no","legacy","legacy","legacy","0","uniform","1","undefined","undefined","undefined","1","f","0","0","0","0","29","0","0","0","29","NA","25","29","25","0","25","3","29","0","29","Thu Feb 18 13:28:56 2021","The main experiment item","yes","Lexical_Decision_Task.osexp","C:/Users/user/OneDrive/Documents/Uni/Year 2/cognitive and language","no","Andale Mono","no","18","no","white","no","yes","576","legacy","25","25","3","C:/Users/user/OneDrive/Documents/Uni/Year 2/cognitive and language/subject-5203120.csv","legacy","Lentiform Loewenfeld","3.3.7","yes","yes","600bd7cfb6416f0113b04181","602110864497cf011d9c0822","0","f","NA","space","space","space","NA","f","637","NA","4372","17151","6825","NA","637","2","legacy","1024","2","48000","-16","task","5203120","even","NA","41386","47763","43388","98444","5493","29475","22649","98946","NA","98441","98946","98342","47763","99585","39749","97842","5477","86074","Lexical Decision Task","24","24862","30","yes","1024"
"2.972819734","0","4","scew","non-word","77.41935483870968","77.41935483870968","819.6129032258065","819.6129032258065","black","no","legacy","legacy","legacy","0","uniform","0","undefined","undefined","undefined","0","f","0","0","0","0","30","0","0","0","30","NA","26","30","26","0","26","3","30","0","30","Thu Feb 18 13:28:56 2021","The main experiment item","yes","Lexical_Decision_Task.osexp","C:/Users/user/OneDrive/Documents/Uni/Year 2/cognitive and language","no","Andale Mono","no","18","no","white","no","yes","576","legacy","26","26","3","C:/Users/user/OneDrive/Documents/Uni/Year 2/cognitive and language/subject-5203120.csv","legacy","Lentiform Loewenfeld","3.3.7","yes","yes","600bd7cfb6416f0113b04181","602110864497cf011d9c0822","0","j","NA","space","space","space","NA","j","546","NA","4372","17151","6825","NA","546","2","legacy","1024","2","48000","-16","task","5203120","even","NA","41386","47763","43388","100192","5493","29475","22649","100694","NA","100190","100694","100092","47763","101242","39749","99592","5477","86074","Lexical Decision Task","24","25408","31","yes","1024"
"2.821076612","0","4","lult","non-word","78.125","78.125","819","819","black","no","legacy","legacy","legacy","0","uniform","1","undefined","undefined","undefined","1","f","0","0","0","0","31","0","0","0","31","NA","27","31","27","0","27","3","31","0","31","Thu Feb 18 13:28:56 2021","The main experiment item","yes","Lexical_Decision_Task.osexp","C:/Users/user/OneDrive/Documents/Uni/Year 2/cognitive and language","no","Andale Mono","no","18","no","white","no","yes","576","legacy","27","27","3","C:/Users/user/OneDrive/Documents/Uni/Year 2/cognitive and language/subject-5203120.csv","legacy","Lentiform Loewenfeld","3.3.7","yes","yes","600bd7cfb6416f0113b04181","602110864497cf011d9c0822","0","f","NA","space","space","space","NA","f","800","NA","4372","17151","6825","NA","800","2","legacy","1024","2","48000","-16","task","5203120","even","NA","41386","47763","43388","102846","5493","29475","22649","103348","NA","102843","103348","102747","47763","104149","39749","99592","5477","101247","Lexical Decision Task","25","26208","32","yes","1024"
"3.2757719","0","5","slea","non-word","78.78787878787878","78.78787878787878","818.969696969697","818.969696969697","black","no","legacy","legacy","legacy","0","uniform","1","undefined","undefined","undefined","1","f","0","0","0","0","32","0","0","0","32","NA","28","32","28","0","28","3","32","0","32","Thu Feb 18 13:28:56 2021","The main experiment item","yes","Lexical_Decision_Task.osexp","C:/Users/user/OneDrive/Documents/Uni/Year 2/cognitive and language","no","Andale Mono","no","18","no","white","no","yes","576","legacy","28","28","3","C:/Users/user/OneDrive/Documents/Uni/Year 2/cognitive and language/subject-5203120.csv","legacy","Lentiform Loewenfeld","3.3.7","yes","yes","600bd7cfb6416f0113b04181","602110864497cf011d9c0822","0","f","NA","space","space","space","NA","f","818","NA","4372","17151","6825","NA","818","2","legacy","1024","2","48000","-16","task","5203120","even","NA","41386","47763","43388","104757","5493","29475","22649","105259","NA","104754","105259","104656","47763","106078","39749","104156","5477","101247","Lexical Decision Task","26","27026","33","yes","1024"
"3.120025233","0","2","nyst","non-word","79.41176470588235","79.41176470588235","811.7647058823529","811.7647058823529","black","no","legacy","legacy","legacy","0","uniform","1","undefined","undefined","undefined","1","f","0","0","0","0","33","0","0","0","33","NA","29","33","29","0","29","3","33","0","33","Thu Feb 18 13:28:56 2021","The main experiment item","yes","Lexical_Decision_Task.osexp","C:/Users/user/OneDrive/Documents/Uni/Year 2/cognitive and language","no","Andale Mono","no","18","no","white","no","yes","576","legacy","29","29","3","C:/Users/user/OneDrive/Documents/Uni/Year 2/cognitive and language/subject-5203120.csv","legacy","Lentiform Loewenfeld","3.3.7","yes","yes","600bd7cfb6416f0113b04181","602110864497cf011d9c0822","0","f","NA","space","space","space","NA","f","574","NA","4372","17151","6825","NA","574","2","legacy","1024","2","48000","-16","task","5203120","even","NA","41386","47763","43388","106685","5493","29475","22649","107188","NA","106683","107188","106585","47763","107764","39749","106085","5477","101247","Lexical Decision Task","27","27600","34","yes","1024"
"3.066077331","0","7","vorn","non-word","80","80","808.8","808.8","black","no","legacy","legacy","legacy","0","uniform","1","undefined","undefined","undefined","1","f","0","0","0","0","34","0","0","0","34","NA","30","34","30","0","30","3","34","0","34","Thu Feb 18 13:28:56 2021","The main experiment item","yes","Lexical_Decision_Task.osexp","C:/Users/user/OneDrive/Documents/Uni/Year 2/cognitive and language","no","Andale Mono","no","18","no","white","no","yes","576","legacy","30","30","3","C:/Users/user/OneDrive/Documents/Uni/Year 2/cognitive and language/subject-5203120.csv","legacy","Lentiform Loewenfeld","3.3.7","yes","yes","600bd7cfb6416f0113b04181","602110864497cf011d9c0822","0","f","NA","space","space","space","NA","f","708","NA","4372","17151","6825","NA","708","2","legacy","1024","2","48000","-16","task","5203120","even","NA","41386","47763","43388","108372","5493","29475","22649","108874","NA","108369","108874","108271","47763","109583","39749","107770","5477","101247","Lexical Decision Task","28","28308","35","yes","1024"
"3.149629599","0","2","cleb","non-word","80.55555555555556","80.55555555555556","801.7222222222222","801.7222222222222","black","no","legacy","legacy","legacy","0","uniform","1","undefined","undefined","undefined","1","f","0","0","0","0","35","0","0","0","35","NA","31","35","31","0","31","3","35","0","35","Thu Feb 18 13:28:56 2021","The main experiment item","yes","Lexical_Decision_Task.osexp","C:/Users/user/OneDrive/Documents/Uni/Year 2/cognitive and language","no","Andale Mono","no","18","no","white","no","yes","576","legacy","31","31","3","C:/Users/user/OneDrive/Documents/Uni/Year 2/cognitive and language/subject-5203120.csv","legacy","Lentiform Loewenfeld","3.3.7","yes","yes","600bd7cfb6416f0113b04181","602110864497cf011d9c0822","0","f","NA","space","space","space","NA","f","554","NA","4372","17151","6825","NA","554","2","legacy","1024","2","48000","-16","task","5203120","even","NA","41386","47763","43388","110191","5493","29475","22649","110693","NA","110189","110693","110090","47763","111249","39749","109590","5477","101247","Lexical Decision Task","29","28862","36","yes","1024"
"3.261341392","5.08","8","reek","word","81.08108108108108","81.08108108108108","798.2702702702703","798.2702702702703","black","no","legacy","legacy","legacy","0","uniform","1","undefined","undefined","undefined","1","j","0","0","0","0","36","0","0","0","36","NA","32","36","32","0","32","3","36","0","36","Thu Feb 18 13:28:56 2021","The main experiment item","yes","Lexical_Decision_Task.osexp","C:/Users/user/OneDrive/Documents/Uni/Year 2/cognitive and language","no","Andale Mono","no","18","no","white","no","yes","576","legacy","32","32","3","C:/Users/user/OneDrive/Documents/Uni/Year 2/cognitive and language/subject-5203120.csv","legacy","Lentiform Loewenfeld","3.3.7","yes","yes","600bd7cfb6416f0113b04181","602110864497cf011d9c0822","0","j","NA","space","space","space","NA","j","674","NA","4372","17151","6825","NA","674","2","legacy","1024","2","48000","-16","task","5203120","even","NA","41386","47763","43388","111857","5493","29475","22649","112359","NA","111854","112359","111757","47763","113034","39749","111256","5477","101247","Lexical Decision Task","30","29536","37","yes","1024"
"2.952953801","0","8","clax","non-word","81.57894736842105","81.57894736842105","792.2105263157895","792.2105263157895","black","no","legacy","legacy","legacy","0","uniform","1","undefined","undefined","undefined","1","f","0","0","0","0","37","0","0","0","37","NA","33","37","33","0","33","3","37","0","37","Thu Feb 18 13:28:56 2021","The main experiment item","yes","Lexical_Decision_Task.osexp","C:/Users/user/OneDrive/Documents/Uni/Year 2/cognitive and language","no","Andale Mono","no","18","no","white","no","yes","576","legacy","33","33","3","C:/Users/user/OneDrive/Documents/Uni/Year 2/cognitive and language/subject-5203120.csv","legacy","Lentiform Loewenfeld","3.3.7","yes","yes","600bd7cfb6416f0113b04181","602110864497cf011d9c0822","0","f","NA","space","space","space","NA","f","568","NA","4372","17151","6825","NA","568","2","legacy","1024","2","48000","-16","task","5203120","even","NA","41386","47763","43388","113642","5493","29475","22649","114144","NA","113640","114144","113541","47763","114713","39749","113041","5477","101247","Lexical Decision Task","31","30104","38","yes","1024"
"3.307211407","6.07","7","honk","word","82.05128205128206","82.05128205128206","787.2307692307693","787.2307692307693","black","no","legacy","legacy","legacy","0","uniform","1","undefined","undefined","undefined","1","j","0","0","0","0","38","0","0","0","38","NA","34","38","34","0","34","3","38","0","38","Thu Feb 18 13:28:56 2021","The main experiment item","yes","Lexical_Decision_Task.osexp","C:/Users/user/OneDrive/Documents/Uni/Year 2/cognitive and language","no","Andale Mono","no","18","no","white","no","yes","576","legacy","34","34","3","C:/Users/user/OneDrive/Documents/Uni/Year 2/cognitive and language/subject-5203120.csv","legacy","Lentiform Loewenfeld","3.3.7","yes","yes","600bd7cfb6416f0113b04181","602110864497cf011d9c0822","0","j","NA","space","space","space","NA","j","598","NA","4372","17151","6825","NA","598","2","legacy","1024","2","48000","-16","task","5203120","even","NA","41386","47763","43388","115319","5493","29475","22649","115821","NA","115316","115821","115220","47763","116421","39749","114720","5477","101247","Lexical Decision Task","32","30702","39","yes","1024"
"3.068433376","8.09","2","bulb","word","82.5","82.5","780.95","780.95","black","no","legacy","legacy","legacy","0","uniform","1","undefined","undefined","undefined","1","j","0","0","0","0","39","0","0","0","39","NA","35","39","35","0","35","3","39","0","39","Thu Feb 18 13:28:56 2021","The main experiment item","yes","Lexical_Decision_Task.osexp","C:/Users/user/OneDrive/Documents/Uni/Year 2/cognitive and language","no","Andale Mono","no","18","no","white","no","yes","576","legacy","35","35","3","C:/Users/user/OneDrive/Documents/Uni/Year 2/cognitive and language/subject-5203120.csv","legacy","Lentiform Loewenfeld","3.3.7","yes","yes","600bd7cfb6416f0113b04181","602110864497cf011d9c0822","0","j","NA","space","space","space","NA","j","536","NA","4372","17151","6825","NA","536","2","legacy","1024","2","48000","-16","task","5203120","even","NA","41386","47763","43388","117028","5493","29475","22649","117530","NA","117026","117530","116928","47763","118067","39749","116428","5477","101247","Lexical Decision Task","33","31238","40","yes","1024"
"2.67699827","0","6","hulf","non-word","82.92682926829268","82.92682926829268","776.4634146341464","776.4634146341464","black","no","legacy","legacy","legacy","0","uniform","1","undefined","undefined","undefined","1","f","0","0","0","0","40","0","0","0","40","NA","36","40","36","0","36","3","40","0","40","Thu Feb 18 13:28:56 2021","The main experiment item","yes","Lexical_Decision_Task.osexp","C:/Users/user/OneDrive/Documents/Uni/Year 2/cognitive and language","no","Andale Mono","no","18","no","white","no","yes","576","legacy","36","36","3","C:/Users/user/OneDrive/Documents/Uni/Year 2/cognitive and language/subject-5203120.csv","legacy","Lentiform Loewenfeld","3.3.7","yes","yes","600bd7cfb6416f0113b04181","602110864497cf011d9c0822","0","f","NA","space","space","space","NA","f","597","NA","4372","17151","6825","NA","597","2","legacy","1024","2","48000","-16","task","5203120","even","NA","41386","47763","43388","118673","5493","29475","22649","119175","NA","118670","119175","118574","47763","119773","39749","118074","5477","101247","Lexical Decision Task","34","31835","41","yes","1024"
"2.868644438","10.52","4","town","word","83.33333333333333","83.33333333333333","769.4047619047619","769.4047619047619","black","no","legacy","legacy","legacy","0","uniform","1","undefined","undefined","undefined","1","j","0","0","0","0","41","0","0","0","41","NA","37","41","37","0","37","3","41","0","41","Thu Feb 18 13:28:56 2021","The main experiment item","yes","Lexical_Decision_Task.osexp","C:/Users/user/OneDrive/Documents/Uni/Year 2/cognitive and language","no","Andale Mono","no","18","no","white","no","yes","576","legacy","37","37","3","C:/Users/user/OneDrive/Documents/Uni/Year 2/cognitive and language/subject-5203120.csv","legacy","Lentiform Loewenfeld","3.3.7","yes","yes","600bd7cfb6416f0113b04181","602110864497cf011d9c0822","0","j","NA","space","space","space","NA","j","480","NA","4372","17151","6825","NA","480","2","legacy","1024","2","48000","-16","task","5203120","even","NA","41386","47763","43388","120379","5493","29475","22649","120881","NA","120377","120881","120280","47763","121362","39749","119780","5477","101247","Lexical Decision Task","35","32315","42","yes","1024"
"2.95456409","0","4","taud","non-word","83.72093023255815","83.72093023255815","766.1627906976744","766.1627906976744","black","no","legacy","legacy","legacy","0","uniform","1","undefined","undefined","undefined","1","f","0","0","0","0","42","0","0","0","42","NA","38","42","38","0","38","3","42","0","42","Thu Feb 18 13:28:56 2021","The main experiment item","yes","Lexical_Decision_Task.osexp","C:/Users/user/OneDrive/Documents/Uni/Year 2/cognitive and language","no","Andale Mono","no","18","no","white","no","yes","576","legacy","38","38","3","C:/Users/user/OneDrive/Documents/Uni/Year 2/cognitive and language/subject-5203120.csv","legacy","Lentiform Loewenfeld","3.3.7","yes","yes","600bd7cfb6416f0113b04181","602110864497cf011d9c0822","0","f","NA","space","space","space","NA","f","630","NA","4372","17151","6825","NA","630","2","legacy","1024","2","48000","-16","task","5203120","even","NA","41386","47763","43388","121973","5493","29475","22649","122475","NA","121971","122475","121870","47763","123106","39749","121369","5477","101247","Lexical Decision Task","36","32945","43","yes","1024"
"2.664328519","0","4","plux","non-word","84.0909090909091","84.0909090909091","762.3636363636364","762.3636363636364","black","no","legacy","legacy","legacy","0","uniform","1","undefined","undefined","undefined","1","f","0","0","0","0","43","0","0","0","43","NA","39","43","39","0","39","3","43","0","43","Thu Feb 18 13:28:56 2021","The main experiment item","yes","Lexical_Decision_Task.osexp","C:/Users/user/OneDrive/Documents/Uni/Year 2/cognitive and language","no","Andale Mono","no","18","no","white","no","yes","576","legacy","39","39","3","C:/Users/user/OneDrive/Documents/Uni/Year 2/cognitive and language/subject-5203120.csv","legacy","Lentiform Loewenfeld","3.3.7","yes","yes","600bd7cfb6416f0113b04181","602110864497cf011d9c0822","0","f","NA","space","space","space","NA","f","599","NA","4372","17151","6825","NA","599","2","legacy","1024","2","48000","-16","task","5203120","even","NA","41386","47763","43388","123711","5493","29475","22649","124213","NA","123709","124213","123613","47763","124813","39749","123113","5477","101247","Lexical Decision Task","37","33544","44","yes","1024"
"3.039414119","0","9","meep","non-word","82.22222222222223","82.22222222222223","766.4","766.4","black","no","legacy","legacy","legacy","0","uniform","0","undefined","undefined","undefined","0","f","0","0","0","0","44","0","0","0","44","NA","40","44","40","0","40","3","44","0","44","Thu Feb 18 13:28:56 2021","The main experiment item","yes","Lexical_Decision_Task.osexp","C:/Users/user/OneDrive/Documents/Uni/Year 2/cognitive and language","no","Andale Mono","no","18","no","white","no","yes","576","legacy","40","40","3","C:/Users/user/OneDrive/Documents/Uni/Year 2/cognitive and language/subject-5203120.csv","legacy","Lentiform Loewenfeld","3.3.7","yes","yes","600bd7cfb6416f0113b04181","602110864497cf011d9c0822","0","j","NA","space","space","space","NA","j","944","NA","4372","17151","6825","NA","944","2","legacy","1024","2","48000","-16","task","5203120","even","NA","41386","47763","43388","125419","5493","29475","22649","125921","NA","125417","125921","125320","47763","126868","39749","124820","5477","101247","Lexical Decision Task","37","34488","45","yes","1024"
"3.090140555","5.81","8","pout","word","82.6086956521739","82.6086956521739","764.2391304347826","764.2391304347826","black","no","legacy","legacy","legacy","0","uniform","1","undefined","undefined","undefined","1","j","0","0","0","0","45","0","0","0","45","NA","41","45","41","0","41","3","45","0","45","Thu Feb 18 13:28:56 2021","The main experiment item","yes","Lexical_Decision_Task.osexp","C:/Users/user/OneDrive/Documents/Uni/Year 2/cognitive and language","no","Andale Mono","no","18","no","white","no","yes","576","legacy","41","41","3","C:/Users/user/OneDrive/Documents/Uni/Year 2/cognitive and language/subject-5203120.csv","legacy","Lentiform Loewenfeld","3.3.7","yes","yes","600bd7cfb6416f0113b04181","602110864497cf011d9c0822","0","j","NA","space","space","space","NA","j","667","NA","4372","17151","6825","NA","667","2","legacy","1024","2","48000","-16","task","5203120","even","NA","41386","47763","43388","128474","5493","29475","22649","128976","NA","128472","128976","128375","47763","129645","39749","124820","5477","126875","Lexical Decision Task","38","35155","46","yes","1024"
"3.29439347","8.6","9","wand","word","82.97872340425532","82.97872340425532","759.5531914893617","759.5531914893617","black","no","legacy","legacy","legacy","0","uniform","1","undefined","undefined","undefined","1","j","0","0","0","0","46","0","0","0","46","NA","42","46","42","0","42","3","46","0","46","Thu Feb 18 13:28:56 2021","The main experiment item","yes","Lexical_Decision_Task.osexp","C:/Users/user/OneDrive/Documents/Uni/Year 2/cognitive and language","no","Andale Mono","no","18","no","white","no","yes","576","legacy","42","42","3","C:/Users/user/OneDrive/Documents/Uni/Year 2/cognitive and language/subject-5203120.csv","legacy","Lentiform Loewenfeld","3.3.7","yes","yes","600bd7cfb6416f0113b04181","602110864497cf011d9c0822","0","j","NA","space","space","space","NA","j","544","NA","4372","17151","6825","NA","544","2","legacy","1024","2","48000","-16","task","5203120","even","NA","41386","47763","43388","130251","5493","29475","22649","130753","NA","130248","130753","130151","47763","131299","39749","129651","5477","126875","Lexical Decision Task","39","35699","47","yes","1024"
"2.920123326","7.43","4","duel","word","83.33333333333333","83.33333333333333","759.6041666666666","759.6041666666666","black","no","legacy","legacy","legacy","0","uniform","1","undefined","undefined","undefined","1","j","0","0","0","0","47","0","0","0","47","NA","43","47","43","0","43","3","47","0","47","Thu Feb 18 13:28:56 2021","The main experiment item","yes","Lexical_Decision_Task.osexp","C:/Users/user/OneDrive/Documents/Uni/Year 2/cognitive and language","no","Andale Mono","no","18","no","white","no","yes","576","legacy","43","43","3","C:/Users/user/OneDrive/Documents/Uni/Year 2/cognitive and language/subject-5203120.csv","legacy","Lentiform Loewenfeld","3.3.7","yes","yes","600bd7cfb6416f0113b04181","602110864497cf011d9c0822","0","j","NA","space","space","space","NA","j","762","NA","4372","17151","6825","NA","762","2","legacy","1024","2","48000","-16","task","5203120","even","NA","41386","47763","43388","131905","5493","29475","22649","132407","NA","131903","132407","131806","47763","133170","39749","131306","5477","126875","Lexical Decision Task","40","36461","48","yes","1024"
"2.693726949","5.08","3","swig","word","83.6734693877551","83.6734693877551","755.2448979591836","755.2448979591836","black","no","legacy","legacy","legacy","0","uniform","1","undefined","undefined","undefined","1","j","0","0","0","0","48","0","0","0","48","NA","44","48","44","0","44","3","48","0","48","Thu Feb 18 13:28:56 2021","The main experiment item","yes","Lexical_Decision_Task.osexp","C:/Users/user/OneDrive/Documents/Uni/Year 2/cognitive and language","no","Andale Mono","no","18","no","white","no","yes","576","legacy","44","44","3","C:/Users/user/OneDrive/Documents/Uni/Year 2/cognitive and language/subject-5203120.csv","legacy","Lentiform Loewenfeld","3.3.7","yes","yes","600bd7cfb6416f0113b04181","602110864497cf011d9c0822","0","j","NA","space","space","space","NA","j","546","NA","4372","17151","6825","NA","546","2","legacy","1024","2","48000","-16","task","5203120","even","NA","41386","47763","43388","133778","5493","29475","22649","134279","NA","133775","134279","133677","47763","134826","39749","133176","5477","126875","Lexical Decision Task","41","37007","49","yes","1024"
"3.474361976","5.24","6","veer","word","84","84","752.2","752.2","black","no","legacy","legacy","legacy","0","uniform","1","undefined","undefined","undefined","1","j","0","0","0","0","49","0","0","0","49","NA","45","49","45","0","45","3","49","0","49","Thu Feb 18 13:28:56 2021","The main experiment item","yes","Lexical_Decision_Task.osexp","C:/Users/user/OneDrive/Documents/Uni/Year 2/cognitive and language","no","Andale Mono","no","18","no","white","no","yes","576","legacy","45","45","3","C:/Users/user/OneDrive/Documents/Uni/Year 2/cognitive and language/subject-5203120.csv","legacy","Lentiform Loewenfeld","3.3.7","yes","yes","600bd7cfb6416f0113b04181","602110864497cf011d9c0822","0","j","NA","space","space","space","NA","j","603","NA","4372","17151","6825","NA","603","2","legacy","1024","2","48000","-16","task","5203120","even","NA","41386","47763","43388","135434","5493","29475","22649","135936","NA","135431","135936","135333","47763","136541","39749","134833","5477","126875","Lexical Decision Task","42","37610","50","yes","1024"
"2.793790385","5.67","9","swab","word","84.31372549019608","84.31372549019608","748.2941176470588","748.2941176470588","black","no","legacy","legacy","legacy","0","uniform","1","undefined","undefined","undefined","1","j","0","0","0","0","50","0","0","0","50","NA","46","50","46","0","46","3","50","0","50","Thu Feb 18 13:28:56 2021","The main experiment item","yes","Lexical_Decision_Task.osexp","C:/Users/user/OneDrive/Documents/Uni/Year 2/cognitive and language","no","Andale Mono","no","18","no","white","no","yes","576","legacy","46","46","3","C:/Users/user/OneDrive/Documents/Uni/Year 2/cognitive and language/subject-5203120.csv","legacy","Lentiform Loewenfeld","3.3.7","yes","yes","600bd7cfb6416f0113b04181","602110864497cf011d9c0822","0","j","NA","space","space","space","NA","j","553","NA","4372","17151","6825","NA","553","2","legacy","1024","2","48000","-16","task","5203120","even","NA","41386","47763","43388","137149","5493","29475","22649","137651","NA","137147","137651","137049","47763","138205","39749","136548","5477","126875","Lexical Decision Task","43","38163","51","yes","1024"
"2.892836167","10.01","5","soft","word","84.61538461538461","84.61538461538461","743.75","743.75","black","no","legacy","legacy","legacy","0","uniform","1","undefined","undefined","undefined","1","j","0","0","0","0","51","0","0","0","51","NA","47","51","47","0","47","3","51","0","51","Thu Feb 18 13:28:56 2021","The main experiment item","yes","Lexical_Decision_Task.osexp","C:/Users/user/OneDrive/Documents/Uni/Year 2/cognitive and language","no","Andale Mono","no","18","no","white","no","yes","576","legacy","47","47","3","C:/Users/user/OneDrive/Documents/Uni/Year 2/cognitive and language/subject-5203120.csv","legacy","Lentiform Loewenfeld","3.3.7","yes","yes","600bd7cfb6416f0113b04181","602110864497cf011d9c0822","0","j","NA","space","space","space","NA","j","512","NA","4372","17151","6825","NA","512","2","legacy","1024","2","48000","-16","task","5203120","even","NA","41386","47763","43388","138811","5493","29475","22649","139313","NA","138808","139313","138711","47763","139829","39749","138211","5477","126875","Lexical Decision Task","44","38675","52","yes","1024"
"3.378276681","6.39","8","bran","word","83.01886792452831","83.01886792452831","744.622641509434","744.622641509434","black","no","legacy","legacy","legacy","0","uniform","0","undefined","undefined","undefined","0","j","0","0","0","0","52","0","0","0","52","NA","48","52","48","0","48","3","52","0","52","Thu Feb 18 13:28:56 2021","The main experiment item","yes","Lexical_Decision_Task.osexp","C:/Users/user/OneDrive/Documents/Uni/Year 2/cognitive and language","no","Andale Mono","no","18","no","white","no","yes","576","legacy","48","48","3","C:/Users/user/OneDrive/Documents/Uni/Year 2/cognitive and language/subject-5203120.csv","legacy","Lentiform Loewenfeld","3.3.7","yes","yes","600bd7cfb6416f0113b04181","602110864497cf011d9c0822","0","f","NA","space","space","space","NA","f","790","NA","4372","17151","6825","NA","790","2","legacy","1024","2","48000","-16","task","5203120","even","NA","41386","47763","43388","140440","5493","29475","22649","140942","NA","140437","140942","140338","47763","141734","39749","139837","5477","126875","Lexical Decision Task","44","39465","53","yes","1024"
"2.884795364","0","6","flob","non-word","81.48148148148148","81.48148148148148","743.7037037037037","743.7037037037037","black","no","legacy","legacy","legacy","0","uniform","0","undefined","undefined","undefined","0","f","0","0","0","0","53","0","0","0","53","NA","49","53","49","0","49","3","53","0","53","Thu Feb 18 13:28:56 2021","The main experiment item","yes","Lexical_Decision_Task.osexp","C:/Users/user/OneDrive/Documents/Uni/Year 2/cognitive and language","no","Andale Mono","no","18","no","white","no","yes","576","legacy","49","49","3","C:/Users/user/OneDrive/Documents/Uni/Year 2/cognitive and language/subject-5203120.csv","legacy","Lentiform Loewenfeld","3.3.7","yes","yes","600bd7cfb6416f0113b04181","602110864497cf011d9c0822","0","j","NA","space","space","space","NA","j","695","NA","4372","17151","6825","NA","695","2","legacy","1024","2","48000","-16","task","5203120","even","NA","41386","47763","43388","143340","5493","29475","22649","143842","NA","143338","143842","143241","47763","144539","39749","139837","5477","141741","Lexical Decision Task","44","40160","54","yes","1024"
"2.799799878","0","4","ciff","non-word","81.81818181818181","81.81818181818181","746.0909090909091","746.0909090909091","black","no","legacy","legacy","legacy","0","uniform","1","undefined","undefined","undefined","1","f","0","0","0","0","54","0","0","0","54","0","50","54","50","0","50","3","54","0","54","Thu Feb 18 13:28:56 2021","The main experiment item","yes","Lexical_Decision_Task.osexp","C:/Users/user/OneDrive/Documents/Uni/Year 2/cognitive and language","no","Andale Mono","no","18","no","white","no","yes","576","legacy","50","50","3","C:/Users/user/OneDrive/Documents/Uni/Year 2/cognitive and language/subject-5203120.csv","legacy","Lentiform Loewenfeld","3.3.7","yes","yes","600bd7cfb6416f0113b04181","602110864497cf011d9c0822","0","f","NA","space","space","space","space","f","875","NA","4372","17151","6825","6519","875","2","legacy","1024","2","48000","-16","task","5203120","even","NA","41386","47763","43388","152731","5493","29475","22649","153233","146110","152729","153233","146046","47763","154110","39749","139837","5477","144546","Lexical Decision Task","45","41035","55","yes","1024"
"2.728085817","10.02","9","bike","word","82.14285714285714","82.14285714285714","744.4107142857143","744.4107142857143","black","no","legacy","legacy","legacy","0","uniform","1","undefined","undefined","undefined","1","j","0","0","0","0","55","0","0","0","55","0","51","55","51","0","51","3","55","0","55","Thu Feb 18 13:28:56 2021","The main experiment item","yes","Lexical_Decision_Task.osexp","C:/Users/user/OneDrive/Documents/Uni/Year 2/cognitive and language","no","Andale Mono","no","18","no","white","no","yes","576","legacy","51","51","3","C:/Users/user/OneDrive/Documents/Uni/Year 2/cognitive and language/subject-5203120.csv","legacy","Lentiform Loewenfeld","3.3.7","yes","yes","600bd7cfb6416f0113b04181","602110864497cf011d9c0822","0","j","NA","space","space","space","space","j","652","NA","4372","17151","6825","6519","652","2","legacy","1024","2","48000","-16","task","5203120","even","NA","41386","47763","43388","154717","5493","29475","22649","155219","146110","154715","155219","154617","47763","155874","39749","154117","5477","144546","Lexical Decision Task","46","41687","56","yes","1024"
"3.174641193","0","3","ramb","non-word","80.70175438596492","80.70175438596492","743.0175438596491","743.0175438596491","black","no","legacy","legacy","legacy","0","uniform","0","undefined","undefined","undefined","0","f","0","0","0","0","56","0","0","0","56","0","52","56","52","0","52","3","56","0","56","Thu Feb 18 13:28:56 2021","The main experiment item","yes","Lexical_Decision_Task.osexp","C:/Users/user/OneDrive/Documents/Uni/Year 2/cognitive and language","no","Andale Mono","no","18","no","white","no","yes","576","legacy","52","52","3","C:/Users/user/OneDrive/Documents/Uni/Year 2/cognitive and language/subject-5203120.csv","legacy","Lentiform Loewenfeld","3.3.7","yes","yes","600bd7cfb6416f0113b04181","602110864497cf011d9c0822","0","j","NA","space","space","space","space","j","665","NA","4372","17151","6825","6519","665","2","legacy","1024","2","48000","-16","task","5203120","even","NA","41386","47763","43388","156479","5493","29475","22649","156981","146110","156477","156981","156380","47763","157647","39749","155880","5477","144546","Lexical Decision Task","46","42352","57","yes","1024"
"3.218535505","7.85","7","goat","word","81.03448275862068","81.03448275862068","739.2586206896551","739.2586206896551","black","no","legacy","legacy","legacy","0","uniform","1","undefined","undefined","undefined","1","j","0","0","0","0","57","0","0","0","57","0","53","57","53","0","53","3","57","0","57","Thu Feb 18 13:28:56 2021","The main experiment item","yes","Lexical_Decision_Task.osexp","C:/Users/user/OneDrive/Documents/Uni/Year 2/cognitive and language","no","Andale Mono","no","18","no","white","no","yes","576","legacy","53","53","3","C:/Users/user/OneDrive/Documents/Uni/Year 2/cognitive and language/subject-5203120.csv","legacy","Lentiform Loewenfeld","3.3.7","yes","yes","600bd7cfb6416f0113b04181","602110864497cf011d9c0822","0","j","NA","space","space","space","space","j","525","NA","4372","17151","6825","6519","525","2","legacy","1024","2","48000","-16","task","5203120","even","NA","41386","47763","43388","159253","5493","29475","22649","159755","146110","159250","159755","159153","47763","160282","39749","155880","5477","157653","Lexical Decision Task","47","42877","58","yes","1024"
"3.209246849","0","7","slem","non-word","79.66101694915254","79.66101694915254","737.3389830508474","737.3389830508474","black","no","legacy","legacy","legacy","0","uniform","0","undefined","undefined","undefined","0","f","0","0","0","0","58","0","0","0","58","0","54","58","54","0","54","3","58","0","58","Thu Feb 18 13:28:56 2021","The main experiment item","yes","Lexical_Decision_Task.osexp","C:/Users/user/OneDrive/Documents/Uni/Year 2/cognitive and language","no","Andale Mono","no","18","no","white","no","yes","576","legacy","54","54","3","C:/Users/user/OneDrive/Documents/Uni/Year 2/cognitive and language/subject-5203120.csv","legacy","Lentiform Loewenfeld","3.3.7","yes","yes","600bd7cfb6416f0113b04181","602110864497cf011d9c0822","0","j","NA","space","space","space","space","j","626","NA","4372","17151","6825","6519","626","2","legacy","1024","2","48000","-16","task","5203120","even","NA","41386","47763","43388","160889","5493","29475","22649","161391","146110","160886","161391","160789","47763","162019","39749","160289","5477","157653","Lexical Decision Task","47","43503","59","yes","1024"
"2.68604012","0","3","mulb","non-word","80","80","737.3","737.3","black","no","legacy","legacy","legacy","0","uniform","1","undefined","undefined","undefined","1","f","0","0","0","0","59","0","0","0","59","0","55","59","55","0","55","3","59","0","59","Thu Feb 18 13:28:56 2021","The main experiment item","yes","Lexical_Decision_Task.osexp","C:/Users/user/OneDrive/Documents/Uni/Year 2/cognitive and language","no","Andale Mono","no","18","no","white","no","yes","576","legacy","55","55","3","C:/Users/user/OneDrive/Documents/Uni/Year 2/cognitive and language/subject-5203120.csv","legacy","Lentiform Loewenfeld","3.3.7","yes","yes","600bd7cfb6416f0113b04181","602110864497cf011d9c0822","0","f","NA","space","space","space","space","f","735","NA","4372","17151","6825","6519","735","2","legacy","1024","2","48000","-16","task","5203120","even","NA","41386","47763","43388","163626","5493","29475","22649","164128","146110","163623","164128","163525","47763","164865","39749","160289","5477","162025","Lexical Decision Task","48","44238","60","yes","1024"
"2.875447132","0","9","jelt","non-word","80.32786885245902","80.32786885245902","737.6065573770492","737.6065573770492","black","no","legacy","legacy","legacy","0","uniform","1","undefined","undefined","undefined","1","f","0","0","0","0","60","0","0","0","60","0","56","60","56","0","56","3","60","0","60","Thu Feb 18 13:28:56 2021","The main experiment item","yes","Lexical_Decision_Task.osexp","C:/Users/user/OneDrive/Documents/Uni/Year 2/cognitive and language","no","Andale Mono","no","18","no","white","no","yes","576","legacy","56","56","3","C:/Users/user/OneDrive/Documents/Uni/Year 2/cognitive and language/subject-5203120.csv","legacy","Lentiform Loewenfeld","3.3.7","yes","yes","600bd7cfb6416f0113b04181","602110864497cf011d9c0822","0","f","NA","space","space","space","space","f","756","NA","4372","17151","6825","6519","756","2","legacy","1024","2","48000","-16","task","5203120","even","NA","41386","47763","43388","165472","5493","29475","22649","165974","146110","165469","165974","165372","47763","166733","39749","164872","5477","162025","Lexical Decision Task","49","44994","61","yes","1024"
"3.366547468","0","6","plat","non-word","80.64516129032258","80.64516129032258","735.6290322580645","735.6290322580645","black","no","legacy","legacy","legacy","0","uniform","1","undefined","undefined","undefined","1","f","0","0","0","0","61","0","0","0","61","0","57","61","57","0","57","3","61","0","61","Thu Feb 18 13:28:56 2021","The main experiment item","yes","Lexical_Decision_Task.osexp","C:/Users/user/OneDrive/Documents/Uni/Year 2/cognitive and language","no","Andale Mono","no","18","no","white","no","yes","576","legacy","57","57","3","C:/Users/user/OneDrive/Documents/Uni/Year 2/cognitive and language/subject-5203120.csv","legacy","Lentiform Loewenfeld","3.3.7","yes","yes","600bd7cfb6416f0113b04181","602110864497cf011d9c0822","0","f","NA","space","space","space","space","f","615","NA","4372","17151","6825","6519","615","2","legacy","1024","2","48000","-16","task","5203120","even","NA","41386","47763","43388","167339","5493","29475","22649","167841","146110","167337","167841","167239","47763","168458","39749","166739","5477","162025","Lexical Decision Task","50","45609","62","yes","1024"
"2.719886232","7.98","2","quiz","word","80.95238095238095","80.95238095238095","732.8888888888889","732.8888888888889","black","no","legacy","legacy","legacy","0","uniform","1","undefined","undefined","undefined","1","j","0","0","0","0","62","0","0","0","62","0","58","62","58","0","58","3","62","0","62","Thu Feb 18 13:28:56 2021","The main experiment item","yes","Lexical_Decision_Task.osexp","C:/Users/user/OneDrive/Documents/Uni/Year 2/cognitive and language","no","Andale Mono","no","18","no","white","no","yes","576","legacy","58","58","3","C:/Users/user/OneDrive/Documents/Uni/Year 2/cognitive and language/subject-5203120.csv","legacy","Lentiform Loewenfeld","3.3.7","yes","yes","600bd7cfb6416f0113b04181","602110864497cf011d9c0822","0","j","NA","space","space","space","space","j","563","NA","4372","17151","6825","6519","563","2","legacy","1024","2","48000","-16","task","5203120","even","NA","41386","47763","43388","169068","5493","29475","22649","169570","146110","169065","169571","168965","47763","170136","39749","168465","5477","162025","Lexical Decision Task","51","46172","63","yes","1024"
"2.703007489","8.37","3","pulp","word","81.25","81.25","736.5","736.5","black","no","legacy","legacy","legacy","0","uniform","1","undefined","undefined","undefined","1","j","0","0","0","0","63","0","0","0","63","0","59","63","59","0","59","3","63","0","63","Thu Feb 18 13:28:56 2021","The main experiment item","yes","Lexical_Decision_Task.osexp","C:/Users/user/OneDrive/Documents/Uni/Year 2/cognitive and language","no","Andale Mono","no","18","no","white","no","yes","576","legacy","59","59","3","C:/Users/user/OneDrive/Documents/Uni/Year 2/cognitive and language/subject-5203120.csv","legacy","Lentiform Loewenfeld","3.3.7","yes","yes","600bd7cfb6416f0113b04181","602110864497cf011d9c0822","0","j","NA","space","space","space","space","j","964","NA","4372","17151","6825","6519","964","2","legacy","1024","2","48000","-16","task","5203120","even","NA","41386","47763","43388","170741","5493","29475","22649","171243","146110","170738","171243","170643","47763","172209","39749","170143","5477","162025","Lexical Decision Task","52","47136","64","yes","1024"
"3.269668578","0","7","trag","non-word","81.53846153846153","81.53846153846153","735.6307692307693","735.6307692307693","black","no","legacy","legacy","legacy","0","uniform","1","undefined","undefined","undefined","1","f","0","0","0","0","64","0","0","0","64","0","60","64","60","0","60","3","64","0","64","Thu Feb 18 13:28:56 2021","The main experiment item","yes","Lexical_Decision_Task.osexp","C:/Users/user/OneDrive/Documents/Uni/Year 2/cognitive and language","no","Andale Mono","no","18","no","white","no","yes","576","legacy","60","60","3","C:/Users/user/OneDrive/Documents/Uni/Year 2/cognitive and language/subject-5203120.csv","legacy","Lentiform Loewenfeld","3.3.7","yes","yes","600bd7cfb6416f0113b04181","602110864497cf011d9c0822","0","f","NA","space","space","space","space","f","680","NA","4372","17151","6825","6519","680","2","legacy","1024","2","48000","-16","task","5203120","even","NA","41386","47763","43388","172816","5493","29475","22649","173318","146110","172813","173318","172715","47763","174001","39749","172215","5477","162025","Lexical Decision Task","53","47816","65","yes","1024"
"3.397302518","7.01","2","knit","word","81.81818181818181","81.81818181818181","735.7575757575758","735.7575757575758","black","no","legacy","legacy","legacy","0","uniform","1","undefined","undefined","undefined","1","j","0","0","0","0","65","0","0","0","65","0","61","65","61","0","61","3","65","0","65","Thu Feb 18 13:28:56 2021","The main experiment item","yes","Lexical_Decision_Task.osexp","C:/Users/user/OneDrive/Documents/Uni/Year 2/cognitive and language","no","Andale Mono","no","18","no","white","no","yes","576","legacy","61","61","3","C:/Users/user/OneDrive/Documents/Uni/Year 2/cognitive and language/subject-5203120.csv","legacy","Lentiform Loewenfeld","3.3.7","yes","yes","600bd7cfb6416f0113b04181","602110864497cf011d9c0822","0","j","NA","space","space","space","space","j","744","NA","4372","17151","6825","6519","744","2","legacy","1024","2","48000","-16","task","5203120","even","NA","41386","47763","43388","174614","5493","29475","22649","175117","146110","174612","175117","174507","47763","175864","39749","174007","5477","162025","Lexical Decision Task","54","48560","66","yes","1024"
"2.996511672","0","7","hoil","non-word","82.08955223880596","82.08955223880596","735.044776119403","735.044776119403","black","no","legacy","legacy","legacy","0","uniform","1","undefined","undefined","undefined","1","f","0","0","0","0","66","0","0","0","66","0","62","66","62","0","62","3","66","0","66","Thu Feb 18 13:28:56 2021","The main experiment item","yes","Lexical_Decision_Task.osexp","C:/Users/user/OneDrive/Documents/Uni/Year 2/cognitive and language","no","Andale Mono","no","18","no","white","no","yes","576","legacy","62","62","3","C:/Users/user/OneDrive/Documents/Uni/Year 2/cognitive and language/subject-5203120.csv","legacy","Lentiform Loewenfeld","3.3.7","yes","yes","600bd7cfb6416f0113b04181","602110864497cf011d9c0822","0","f","NA","space","space","space","space","f","688","NA","4372","17151","6825","6519","688","2","legacy","1024","2","48000","-16","task","5203120","even","NA","41386","47763","43388","176470","5493","29475","22649","176973","146110","176468","176973","176371","47763","177663","39749","175871","5477","162025","Lexical Decision Task","55","49248","67","yes","1024"
"3.15462682","0","6","noal","non-word","82.3529411764706","82.3529411764706","738.5588235294117","738.5588235294117","black","no","legacy","legacy","legacy","0","uniform","1","undefined","undefined","undefined","1","f","0","0","0","0","67","0","0","0","67","0","63","67","63","0","63","3","67","0","67","Thu Feb 18 13:28:56 2021","The main experiment item","yes","Lexical_Decision_Task.osexp","C:/Users/user/OneDrive/Documents/Uni/Year 2/cognitive and language","no","Andale Mono","no","18","no","white","no","yes","576","legacy","63","63","3","C:/Users/user/OneDrive/Documents/Uni/Year 2/cognitive and language/subject-5203120.csv","legacy","Lentiform Loewenfeld","3.3.7","yes","yes","600bd7cfb6416f0113b04181","602110864497cf011d9c0822","0","f","NA","space","space","space","space","f","974","NA","4372","17151","6825","6519","974","2","legacy","1024","2","48000","-16","task","5203120","even","NA","41386","47763","43388","178269","5493","29475","22649","178771","146110","178267","178771","178169","47763","179748","39749","177669","5477","162025","Lexical Decision Task","56","50222","68","yes","1024"
"2.895974732","6.65","5","sift","word","81.15942028985508","81.15942028985508","737.4057971014493","737.4057971014493","black","no","legacy","legacy","legacy","0","uniform","0","undefined","undefined","undefined","0","j","0","0","0","0","68","0","0","0","68","0","64","68","64","0","64","3","68","0","68","Thu Feb 18 13:28:56 2021","The main experiment item","yes","Lexical_Decision_Task.osexp","C:/Users/user/OneDrive/Documents/Uni/Year 2/cognitive and language","no","Andale Mono","no","18","no","white","no","yes","576","legacy","64","64","3","C:/Users/user/OneDrive/Documents/Uni/Year 2/cognitive and language/subject-5203120.csv","legacy","Lentiform Loewenfeld","3.3.7","yes","yes","600bd7cfb6416f0113b04181","602110864497cf011d9c0822","0","f","NA","space","space","space","space","f","659","NA","4372","17151","6825","6519","659","2","legacy","1024","2","48000","-16","task","5203120","even","NA","41386","47763","43388","180354","5493","29475","22649","180856","146110","180352","180856","180255","47763","181518","39749","179755","5477","162025","Lexical Decision Task","56","50881","69","yes","1024"
"3.368162872","0","4","ferk","non-word","81.42857142857143","81.42857142857143","736.5142857142857","736.5142857142857","black","no","legacy","legacy","legacy","0","uniform","1","undefined","undefined","undefined","1","f","0","0","0","0","69","0","0","0","69","0","65","69","65","0","65","3","69","0","69","Thu Feb 18 13:28:56 2021","The main experiment item","yes","Lexical_Decision_Task.osexp","C:/Users/user/OneDrive/Documents/Uni/Year 2/cognitive and language","no","Andale Mono","no","18","no","white","no","yes","576","legacy","65","65","3","C:/Users/user/OneDrive/Documents/Uni/Year 2/cognitive and language/subject-5203120.csv","legacy","Lentiform Loewenfeld","3.3.7","yes","yes","600bd7cfb6416f0113b04181","602110864497cf011d9c0822","0","f","NA","space","space","space","space","f","675","NA","4372","17151","6825","6519","675","2","legacy","1024","2","48000","-16","task","5203120","even","NA","41386","47763","43388","183125","5493","29475","22649","183627","146110","183122","183627","183025","47763","184304","39749","179755","5477","181525","Lexical Decision Task","57","51556","70","yes","1024"
"3.495914186","0","4","peng","non-word","80.28169014084507","80.28169014084507","733.3098591549295","733.3098591549295","black","no","legacy","legacy","legacy","0","uniform","0","undefined","undefined","undefined","0","f","0","0","0","0","70","0","0","0","70","0","66","70","66","0","66","3","70","0","70","Thu Feb 18 13:28:56 2021","The main experiment item","yes","Lexical_Decision_Task.osexp","C:/Users/user/OneDrive/Documents/Uni/Year 2/cognitive and language","no","Andale Mono","no","18","no","white","no","yes","576","legacy","66","66","3","C:/Users/user/OneDrive/Documents/Uni/Year 2/cognitive and language/subject-5203120.csv","legacy","Lentiform Loewenfeld","3.3.7","yes","yes","600bd7cfb6416f0113b04181","602110864497cf011d9c0822","0","j","NA","space","space","space","space","j","509","NA","4372","17151","6825","6519","509","2","legacy","1024","2","48000","-16","task","5203120","even","NA","41386","47763","43388","184912","5493","29475","22649","185414","146110","184909","185414","184811","47763","185926","39749","184310","5477","181525","Lexical Decision Task","57","52065","71","yes","1024"
"3.119255889","6.63","2","itch","word","80.55555555555556","80.55555555555556","733.0694444444445","733.0694444444445","black","no","legacy","legacy","legacy","0","uniform","1","undefined","undefined","undefined","1","j","0","0","0","0","71","0","0","0","71","0","67","71","67","0","67","3","71","0","71","Thu Feb 18 13:28:56 2021","The main experiment item","yes","Lexical_Decision_Task.osexp","C:/Users/user/OneDrive/Documents/Uni/Year 2/cognitive and language","no","Andale Mono","no","18","no","white","no","yes","576","legacy","67","67","3","C:/Users/user/OneDrive/Documents/Uni/Year 2/cognitive and language/subject-5203120.csv","legacy","Lentiform Loewenfeld","3.3.7","yes","yes","600bd7cfb6416f0113b04181","602110864497cf011d9c0822","0","j","NA","space","space","space","space","j","716","NA","4372","17151","6825","6519","716","2","legacy","1024","2","48000","-16","task","5203120","even","NA","41386","47763","43388","187532","5493","29475","22649","188034","146110","187529","188034","187432","47763","188753","39749","184310","5477","185932","Lexical Decision Task","58","52781","72","yes","1024"
"3.22685757","9.99","7","roll","word","80.82191780821918","80.82191780821918","736.2739726027397","736.2739726027397","black","no","legacy","legacy","legacy","0","uniform","1","undefined","undefined","undefined","1","j","0","0","0","0","72","0","0","0","72","0","68","72","68","0","68","3","72","0","72","Thu Feb 18 13:28:56 2021","The main experiment item","yes","Lexical_Decision_Task.osexp","C:/Users/user/OneDrive/Documents/Uni/Year 2/cognitive and language","no","Andale Mono","no","18","no","white","no","yes","576","legacy","68","68","3","C:/Users/user/OneDrive/Documents/Uni/Year 2/cognitive and language/subject-5203120.csv","legacy","Lentiform Loewenfeld","3.3.7","yes","yes","600bd7cfb6416f0113b04181","602110864497cf011d9c0822","0","j","NA","space","space","space","space","j","967","NA","4372","17151","6825","6519","967","2","legacy","1024","2","48000","-16","task","5203120","even","NA","41386","47763","43388","189360","5493","29475","22649","189862","146110","189357","189862","189260","47763","190832","39749","188760","5477","185932","Lexical Decision Task","59","53748","73","yes","1024"
"2.7084209","0","8","vump","non-word","81.08108108108108","81.08108108108108","735.4459459459459","735.4459459459459","black","no","legacy","legacy","legacy","0","uniform","1","undefined","undefined","undefined","1","f","0","0","0","0","73","0","0","0","73","0","69","73","69","0","69","3","73","0","73","Thu Feb 18 13:28:56 2021","The main experiment item","yes","Lexical_Decision_Task.osexp","C:/Users/user/OneDrive/Documents/Uni/Year 2/cognitive and language","no","Andale Mono","no","18","no","white","no","yes","576","legacy","69","69","3","C:/Users/user/OneDrive/Documents/Uni/Year 2/cognitive and language/subject-5203120.csv","legacy","Lentiform Loewenfeld","3.3.7","yes","yes","600bd7cfb6416f0113b04181","602110864497cf011d9c0822","0","f","NA","space","space","space","space","f","675","NA","4372","17151","6825","6519","675","2","legacy","1024","2","48000","-16","task","5203120","even","NA","41386","47763","43388","191440","5493","29475","22649","191942","146110","191438","191942","191339","47763","192620","39749","190839","5477","185932","Lexical Decision Task","60","54423","74","yes","1024"
"2.6599162","0","6","flug","non-word","81.33333333333333","81.33333333333333","736.2933333333333","736.2933333333333","black","no","legacy","legacy","legacy","0","uniform","1","undefined","undefined","undefined","1","f","0","0","0","0","74","0","0","0","74","0","70","74","70","0","70","3","74","0","74","Thu Feb 18 13:28:56 2021","The main experiment item","yes","Lexical_Decision_Task.osexp","C:/Users/user/OneDrive/Documents/Uni/Year 2/cognitive and language","no","Andale Mono","no","18","no","white","no","yes","576","legacy","70","70","3","C:/Users/user/OneDrive/Documents/Uni/Year 2/cognitive and language/subject-5203120.csv","legacy","Lentiform Loewenfeld","3.3.7","yes","yes","600bd7cfb6416f0113b04181","602110864497cf011d9c0822","0","f","NA","space","space","space","space","f","799","NA","4372","17151","6825","6519","799","2","legacy","1024","2","48000","-16","task","5203120","even","NA","41386","47763","43388","193227","5493","29475","22649","193729","146110","193224","193729","193127","47763","194530","39749","192626","5477","185932","Lexical Decision Task","61","55222","75","yes","1024"
"3.302475237","0","7","leel","non-word","81.57894736842105","81.57894736842105","735.6052631578947","735.6052631578947","black","no","legacy","legacy","legacy","0","uniform","1","undefined","undefined","undefined","1","f","0","0","0","0","75","0","0","0","75","0","71","75","71","0","71","3","75","0","75","Thu Feb 18 13:28:56 2021","The main experiment item","yes","Lexical_Decision_Task.osexp","C:/Users/user/OneDrive/Documents/Uni/Year 2/cognitive and language","no","Andale Mono","no","18","no","white","no","yes","576","legacy","71","71","3","C:/Users/user/OneDrive/Documents/Uni/Year 2/cognitive and language/subject-5203120.csv","legacy","Lentiform Loewenfeld","3.3.7","yes","yes","600bd7cfb6416f0113b04181","602110864497cf011d9c0822","0","f","NA","space","space","space","space","f","684","NA","4372","17151","6825","6519","684","2","legacy","1024","2","48000","-16","task","5203120","even","NA","41386","47763","43388","195137","5493","29475","22649","195639","146110","195135","195639","195037","47763","196327","39749","194537","5477","185932","Lexical Decision Task","62","55906","76","yes","1024"
"2.880623071","0","9","curp","non-word","81.81818181818181","81.81818181818181","734.0909090909091","734.0909090909091","black","no","legacy","legacy","legacy","0","uniform","1","undefined","undefined","undefined","1","f","0","0","0","0","76","0","0","0","76","0","72","76","72","0","72","3","76","0","76","Thu Feb 18 13:28:56 2021","The main experiment item","yes","Lexical_Decision_Task.osexp","C:/Users/user/OneDrive/Documents/Uni/Year 2/cognitive and language","no","Andale Mono","no","18","no","white","no","yes","576","legacy","72","72","3","C:/Users/user/OneDrive/Documents/Uni/Year 2/cognitive and language/subject-5203120.csv","legacy","Lentiform Loewenfeld","3.3.7","yes","yes","600bd7cfb6416f0113b04181","602110864497cf011d9c0822","0","f","NA","space","space","space","space","f","619","NA","4372","17151","6825","6519","619","2","legacy","1024","2","48000","-16","task","5203120","even","NA","41386","47763","43388","196966","5493","29475","22649","197468","146110","196964","197468","196865","47763","198090","39749","196365","5477","185932","Lexical Decision Task","63","56525","77","yes","1024"
"2.966923697","5.4","2","fume","word","82.05128205128206","82.05128205128206","734.9230769230769","734.9230769230769","black","no","legacy","legacy","legacy","0","uniform","1","undefined","undefined","undefined","1","j","0","0","0","0","77","0","0","0","77","0","73","77","73","0","73","3","77","0","77","Thu Feb 18 13:28:56 2021","The main experiment item","yes","Lexical_Decision_Task.osexp","C:/Users/user/OneDrive/Documents/Uni/Year 2/cognitive and language","no","Andale Mono","no","18","no","white","no","yes","576","legacy","73","73","3","C:/Users/user/OneDrive/Documents/Uni/Year 2/cognitive and language/subject-5203120.csv","legacy","Lentiform Loewenfeld","3.3.7","yes","yes","600bd7cfb6416f0113b04181","602110864497cf011d9c0822","0","j","NA","space","space","space","space","j","799","NA","4372","17151","6825","6519","799","2","legacy","1024","2","48000","-16","task","5203120","even","NA","41386","47763","43388","198696","5493","29475","22649","199199","146110","198694","199199","198597","47763","200001","39749","198096","5477","185932","Lexical Decision Task","64","57324","78","yes","1024"
"3.194328374","9.42","6","harm","word","82.27848101265823","82.27848101265823","731.8607594936709","731.8607594936709","black","no","legacy","legacy","legacy","0","uniform","1","undefined","undefined","undefined","1","j","0","0","0","0","78","0","0","0","78","0","74","78","74","0","74","3","78","0","78","Thu Feb 18 13:28:56 2021","The main experiment item","yes","Lexical_Decision_Task.osexp","C:/Users/user/OneDrive/Documents/Uni/Year 2/cognitive and language","no","Andale Mono","no","18","no","white","no","yes","576","legacy","74","74","3","C:/Users/user/OneDrive/Documents/Uni/Year 2/cognitive and language/subject-5203120.csv","legacy","Lentiform Loewenfeld","3.3.7","yes","yes","600bd7cfb6416f0113b04181","602110864497cf011d9c0822","0","j","NA","space","space","space","space","j","493","NA","4372","17151","6825","6519","493","2","legacy","1024","2","48000","-16","task","5203120","even","NA","41386","47763","43388","200612","5493","29475","22649","201115","146110","200610","201115","200509","47763","201611","39749","200009","5477","185932","Lexical Decision Task","65","57817","79","yes","1024"
"3.257359335","8","6","brew","word","82.5","82.5","730.3625","730.3625","black","no","legacy","legacy","legacy","0","uniform","1","undefined","undefined","undefined","1","j","0","0","0","0","79","0","0","0","79","0","75","79","75","0","75","3","79","0","79","Thu Feb 18 13:28:56 2021","The main experiment item","yes","Lexical_Decision_Task.osexp","C:/Users/user/OneDrive/Documents/Uni/Year 2/cognitive and language","no","Andale Mono","no","18","no","white","no","yes","576","legacy","75","75","3","C:/Users/user/OneDrive/Documents/Uni/Year 2/cognitive and language/subject-5203120.csv","legacy","Lentiform Loewenfeld","3.3.7","yes","yes","600bd7cfb6416f0113b04181","602110864497cf011d9c0822","0","j","NA","space","space","space","space","j","612","NA","4372","17151","6825","6519","612","2","legacy","1024","2","48000","-16","task","5203120","even","NA","41386","47763","43388","202219","5493","29475","22649","202721","146110","202216","202721","202118","47763","203334","39749","201617","5477","185932","Lexical Decision Task","66","58429","80","yes","1024"
"2.675164031","8.57","6","glue","word","82.71604938271605","82.71604938271605","728.1358024691358","728.1358024691358","black","no","legacy","legacy","legacy","0","uniform","1","undefined","undefined","undefined","1","j","0","0","0","0","80","0","0","0","80","0","76","80","76","0","76","3","80","0","80","Thu Feb 18 13:28:56 2021","The main experiment item","yes","Lexical_Decision_Task.osexp","C:/Users/user/OneDrive/Documents/Uni/Year 2/cognitive and language","no","Andale Mono","no","18","no","white","no","yes","576","legacy","76","76","3","C:/Users/user/OneDrive/Documents/Uni/Year 2/cognitive and language/subject-5203120.csv","legacy","Lentiform Loewenfeld","3.3.7","yes","yes","600bd7cfb6416f0113b04181","602110864497cf011d9c0822","0","j","NA","space","space","space","space","j","550","NA","4372","17151","6825","6519","550","2","legacy","1024","2","48000","-16","task","5203120","even","NA","41386","47763","43388","203942","5493","29475","22649","204444","146110","203940","204444","203842","47763","204995","39749","203342","5477","185932","Lexical Decision Task","67","58979","81","yes","1024"
"2.899092422","7.27","6","snag","word","81.70731707317073","81.70731707317073","728.4634146341464","728.4634146341464","black","no","legacy","legacy","legacy","0","uniform","0","undefined","undefined","undefined","0","j","0","0","0","0","81","0","0","0","81","0","77","81","77","0","77","3","81","0","81","Thu Feb 18 13:28:56 2021","The main experiment item","yes","Lexical_Decision_Task.osexp","C:/Users/user/OneDrive/Documents/Uni/Year 2/cognitive and language","no","Andale Mono","no","18","no","white","no","yes","576","legacy","77","77","3","C:/Users/user/OneDrive/Documents/Uni/Year 2/cognitive and language/subject-5203120.csv","legacy","Lentiform Loewenfeld","3.3.7","yes","yes","600bd7cfb6416f0113b04181","602110864497cf011d9c0822","0","f","NA","space","space","space","space","f","755","NA","4372","17151","6825","6519","755","2","legacy","1024","2","48000","-16","task","5203120","even","NA","41386","47763","43388","205602","5493","29475","22649","206104","146110","205599","206104","205502","47763","206862","39749","205002","5477","185932","Lexical Decision Task","67","59734","82","yes","1024"
"2.803231716","5.26","3","kiln","word","80.72289156626506","80.72289156626506","726.1084337349398","726.1084337349398","black","no","legacy","legacy","legacy","0","uniform","0","undefined","undefined","undefined","0","j","0","0","0","0","82","0","0","0","82","0","78","82","78","0","78","3","82","0","82","Thu Feb 18 13:28:56 2021","The main experiment item","yes","Lexical_Decision_Task.osexp","C:/Users/user/OneDrive/Documents/Uni/Year 2/cognitive and language","no","Andale Mono","no","18","no","white","no","yes","576","legacy","78","78","3","C:/Users/user/OneDrive/Documents/Uni/Year 2/cognitive and language/subject-5203120.csv","legacy","Lentiform Loewenfeld","3.3.7","yes","yes","600bd7cfb6416f0113b04181","602110864497cf011d9c0822","0","f","NA","space","space","space","space","f","533","NA","4372","17151","6825","6519","533","2","legacy","1024","2","48000","-16","task","5203120","even","NA","41386","47763","43388","208468","5493","29475","22649","208970","146110","208466","208970","208369","47763","209506","39749","205002","5477","206869","Lexical Decision Task","67","60267","83","yes","1024"
"3.168890155","0","6","thet","non-word","80.95238095238095","80.95238095238095","728.2619047619048","728.2619047619048","black","no","legacy","legacy","legacy","0","uniform","1","undefined","undefined","undefined","1","f","0","0","0","0","83","0","0","0","83","0","79","83","79","0","79","3","83","0","83","Thu Feb 18 13:28:56 2021","The main experiment item","yes","Lexical_Decision_Task.osexp","C:/Users/user/OneDrive/Documents/Uni/Year 2/cognitive and language","no","Andale Mono","no","18","no","white","no","yes","576","legacy","79","79","3","C:/Users/user/OneDrive/Documents/Uni/Year 2/cognitive and language/subject-5203120.csv","legacy","Lentiform Loewenfeld","3.3.7","yes","yes","600bd7cfb6416f0113b04181","602110864497cf011d9c0822","0","f","NA","space","space","space","space","f","907","NA","4372","17151","6825","6519","907","2","legacy","1024","2","48000","-16","task","5203120","even","NA","41386","47763","43388","211114","5493","29475","22649","211616","146110","211111","211616","211014","47763","212525","39749","205002","5477","209514","Lexical Decision Task","68","61174","84","yes","1024"
"2.706148589","0","4","hube","non-word","80","80","729.3294117647059","729.3294117647059","black","no","legacy","legacy","legacy","0","uniform","0","undefined","undefined","undefined","0","f","0","0","0","0","84","0","0","0","84","0","80","84","80","0","80","3","84","0","84","Thu Feb 18 13:28:56 2021","The main experiment item","yes","Lexical_Decision_Task.osexp","C:/Users/user/OneDrive/Documents/Uni/Year 2/cognitive and language","no","Andale Mono","no","18","no","white","no","yes","576","legacy","80","80","3","C:/Users/user/OneDrive/Documents/Uni/Year 2/cognitive and language/subject-5203120.csv","legacy","Lentiform Loewenfeld","3.3.7","yes","yes","600bd7cfb6416f0113b04181","602110864497cf011d9c0822","0","j","NA","space","space","space","space","j","819","NA","4372","17151","6825","6519","819","2","legacy","1024","2","48000","-16","task","5203120","even","NA","41386","47763","43388","213132","5493","29475","22649","213634","146110","213130","213634","213032","47763","214456","39749","212532","5477","209514","Lexical Decision Task","68","61993","85","yes","1024"
"3.195807436","0","6","stup","non-word","80.23255813953489","80.23255813953489","731.4651162790698","731.4651162790698","black","no","legacy","legacy","legacy","0","uniform","1","undefined","undefined","undefined","1","f","0","0","0","0","85","0","0","0","85","0","81","85","81","0","81","3","85","0","85","Thu Feb 18 13:28:56 2021","The main experiment item","yes","Lexical_Decision_Task.osexp","C:/Users/user/OneDrive/Documents/Uni/Year 2/cognitive and language","no","Andale Mono","no","18","no","white","no","yes","576","legacy","81","81","3","C:/Users/user/OneDrive/Documents/Uni/Year 2/cognitive and language/subject-5203120.csv","legacy","Lentiform Loewenfeld","3.3.7","yes","yes","600bd7cfb6416f0113b04181","602110864497cf011d9c0822","0","f","NA","space","space","space","space","f","913","NA","4372","17151","6825","6519","913","2","legacy","1024","2","48000","-16","task","5203120","even","NA","41386","47763","43388","216060","5493","29475","22649","216562","146110","216057","216562","215962","47763","217478","39749","212532","5477","214462","Lexical Decision Task","69","62906","86","yes","1024"
"3.145920145","8.51","8","flew","word","80.45977011494253","80.45977011494253","733.7011494252873","733.7011494252873","black","no","legacy","legacy","legacy","0","uniform","1","undefined","undefined","undefined","1","j","0","0","0","0","86","0","0","0","86","0","82","86","82","0","82","3","86","0","86","Thu Feb 18 13:28:56 2021","The main experiment item","yes","Lexical_Decision_Task.osexp","C:/Users/user/OneDrive/Documents/Uni/Year 2/cognitive and language","no","Andale Mono","no","18","no","white","no","yes","576","legacy","82","82","3","C:/Users/user/OneDrive/Documents/Uni/Year 2/cognitive and language/subject-5203120.csv","legacy","Lentiform Loewenfeld","3.3.7","yes","yes","600bd7cfb6416f0113b04181","602110864497cf011d9c0822","0","j","NA","space","space","space","space","j","926","NA","4372","17151","6825","6519","926","2","legacy","1024","2","48000","-16","task","5203120","even","NA","41386","47763","43388","218086","5493","29475","22649","218588","146110","218084","218588","217986","47763","219516","39749","217486","5477","214462","Lexical Decision Task","70","63832","87","yes","1024"
"2.990042563","6.64","9","plow","word","80.68181818181819","80.68181818181819","734.7272727272727","734.7272727272727","black","no","legacy","legacy","legacy","0","uniform","1","undefined","undefined","undefined","1","j","0","0","0","0","87","0","0","0","87","0","83","87","83","0","83","3","87","0","87","Thu Feb 18 13:28:56 2021","The main experiment item","yes","Lexical_Decision_Task.osexp","C:/Users/user/OneDrive/Documents/Uni/Year 2/cognitive and language","no","Andale Mono","no","18","no","white","no","yes","576","legacy","83","83","3","C:/Users/user/OneDrive/Documents/Uni/Year 2/cognitive and language/subject-5203120.csv","legacy","Lentiform Loewenfeld","3.3.7","yes","yes","600bd7cfb6416f0113b04181","602110864497cf011d9c0822","0","j","NA","space","space","space","space","j","824","NA","4372","17151","6825","6519","824","2","legacy","1024","2","48000","-16","task","5203120","even","NA","41386","47763","43388","220125","5493","29475","22649","220627","146110","220123","220627","220023","47763","221454","39749","219523","5477","214462","Lexical Decision Task","71","64656","88","yes","1024"
"3.20871002","7.15","8","cram","word","80.89887640449439","80.89887640449439","733.1910112359551","733.1910112359551","black","no","legacy","legacy","legacy","0","uniform","1","undefined","undefined","undefined","1","j","0","0","0","0","88","0","0","0","88","0","84","88","84","0","84","3","88","0","88","Thu Feb 18 13:28:56 2021","The main experiment item","yes","Lexical_Decision_Task.osexp","C:/Users/user/OneDrive/Documents/Uni/Year 2/cognitive and language","no","Andale Mono","no","18","no","white","no","yes","576","legacy","84","84","3","C:/Users/user/OneDrive/Documents/Uni/Year 2/cognitive and language/subject-5203120.csv","legacy","Lentiform Loewenfeld","3.3.7","yes","yes","600bd7cfb6416f0113b04181","602110864497cf011d9c0822","0","j","NA","space","space","space","space","j","598","NA","4372","17151","6825","6519","598","2","legacy","1024","2","48000","-16","task","5203120","even","NA","41386","47763","43388","222061","5493","29475","22649","222563","146110","222058","222563","221961","47763","223163","39749","221461","5477","214462","Lexical Decision Task","72","65254","89","yes","1024"
"2.713490543","0","3","feps","non-word","81.11111111111111","81.11111111111111","731.9111111111112","731.9111111111112","black","no","legacy","legacy","legacy","0","uniform","1","undefined","undefined","undefined","1","f","0","0","0","0","89","0","0","0","89","0","85","89","85","0","85","3","89","0","89","Thu Feb 18 13:28:56 2021","The main experiment item","yes","Lexical_Decision_Task.osexp","C:/Users/user/OneDrive/Documents/Uni/Year 2/cognitive and language","no","Andale Mono","no","18","no","white","no","yes","576","legacy","85","85","3","C:/Users/user/OneDrive/Documents/Uni/Year 2/cognitive and language/subject-5203120.csv","legacy","Lentiform Loewenfeld","3.3.7","yes","yes","600bd7cfb6416f0113b04181","602110864497cf011d9c0822","0","f","NA","space","space","space","space","f","618","NA","4372","17151","6825","6519","618","2","legacy","1024","2","48000","-16","task","5203120","even","NA","41386","47763","43388","223769","5493","29475","22649","224271","146110","223766","224271","223669","47763","224891","39749","223169","5477","214462","Lexical Decision Task","73","65872","90","yes","1024"
"2.80048796","0","8","pife","non-word","81.31868131868131","81.31868131868131","731.2747252747253","731.2747252747253","black","no","legacy","legacy","legacy","0","uniform","1","undefined","undefined","undefined","1","f","0","0","0","0","90","0","0","0","90","0","86","90","86","0","86","3","90","0","90","Thu Feb 18 13:28:56 2021","The main experiment item","yes","Lexical_Decision_Task.osexp","C:/Users/user/OneDrive/Documents/Uni/Year 2/cognitive and language","no","Andale Mono","no","18","no","white","no","yes","576","legacy","86","86","3","C:/Users/user/OneDrive/Documents/Uni/Year 2/cognitive and language/subject-5203120.csv","legacy","Lentiform Loewenfeld","3.3.7","yes","yes","600bd7cfb6416f0113b04181","602110864497cf011d9c0822","0","f","NA","space","space","space","space","f","674","NA","4372","17151","6825","6519","674","2","legacy","1024","2","48000","-16","task","5203120","even","NA","41386","47763","43388","225497","5493","29475","22649","225999","146110","225495","225999","225398","47763","226675","39749","224898","5477","214462","Lexical Decision Task","74","66546","91","yes","1024"
"3.282244367","0","6","fute","non-word","81.52173913043478","81.52173913043478","732.2826086956521","732.2826086956521","black","no","legacy","legacy","legacy","0","uniform","1","undefined","undefined","undefined","1","f","0","0","0","0","91","0","0","0","91","0","87","91","87","0","87","3","91","0","91","Thu Feb 18 13:28:56 2021","The main experiment item","yes","Lexical_Decision_Task.osexp","C:/Users/user/OneDrive/Documents/Uni/Year 2/cognitive and language","no","Andale Mono","no","18","no","white","no","yes","576","legacy","87","87","3","C:/Users/user/OneDrive/Documents/Uni/Year 2/cognitive and language/subject-5203120.csv","legacy","Lentiform Loewenfeld","3.3.7","yes","yes","600bd7cfb6416f0113b04181","602110864497cf011d9c0822","0","f","NA","space","space","space","space","f","824","NA","4372","17151","6825","6519","824","2","legacy","1024","2","48000","-16","task","5203120","even","NA","41386","47763","43388","227279","5493","29475","22649","227781","146110","227277","227781","227180","47763","228607","39749","226680","5477","214462","Lexical Decision Task","75","67370","92","yes","1024"
"3.062080345","0","6","tomp","non-word","81.72043010752688","81.72043010752688","735.5806451612904","735.5806451612904","black","no","legacy","legacy","legacy","0","uniform","1","undefined","undefined","undefined","1","f","0","0","0","0","92","0","0","0","92","0","88","92","88","0","88","3","92","0","92","Thu Feb 18 13:28:56 2021","The main experiment item","yes","Lexical_Decision_Task.osexp","C:/Users/user/OneDrive/Documents/Uni/Year 2/cognitive and language","no","Andale Mono","no","18","no","white","no","yes","576","legacy","88","88","3","C:/Users/user/OneDrive/Documents/Uni/Year 2/cognitive and language/subject-5203120.csv","legacy","Lentiform Loewenfeld","3.3.7","yes","yes","600bd7cfb6416f0113b04181","602110864497cf011d9c0822","0","f","NA","space","space","space","space","f","1039","NA","4372","17151","6825","6519","1039","2","legacy","1024","2","48000","-16","task","5203120","even","NA","41386","47763","43388","229215","5493","29475","22649","229717","146110","229213","229717","229116","47763","230758","39749","228616","5477","214462","Lexical Decision Task","76","68409","93","yes","1024"
