"Log_BG","Log_Freq_HAL","Ortho_N","Stimulus","Type","acc","accuracy","average_response_time","avg_rt","background","bidi","canvas_backend","clock_backend","color_backend","compensation","coordinates","correct","correct_Experimental_intro","correct_Introduction","correct_Practice_intro","correct_experimenter_kb","correct_response","count_End_Of_Experiment","count_End_Of_Practice","count_Experimental_Loop","count_Experimental_intro","count_Fixation","count_Introduction","count_Practice_Loop","count_Practice_intro","count_Stimulus","count_block_break_feedback","count_experimental_sequence","count_experimenter_kb","count_increment_trial_count","count_init_trial_count","count_logger","count_practice_sequence","count_right","count_task","count_wrong","datetime","description","disable_garbage_collection","experiment_file","experiment_path","font_bold","font_family","font_italic","font_size","font_underline","foreground","form_clicks","fullscreen","height","keyboard_backend","live_row","live_row_Experimental_Loop","live_row_Practice_Loop","logfile","mouse_backend","opensesame_codename","opensesame_version","osf_always_upload_data","osf_always_upload_experiment","osf_datanode_id","osf_id","repeat_cycle","response","response_End_Of_Experiment","response_Experimental_intro","response_Introduction","response_Practice_intro","response_block_break_feedback","response_experimenter_kb","response_time","response_time_End_Of_Experiment","response_time_Experimental_intro","response_time_Introduction","response_time_Practice_intro","response_time_block_break_feedback","response_time_experimenter_kb","round_decimals","sampler_backend","sound_buf_size","sound_channels","sound_freq","sound_sample_size","start","subject_nr","subject_parity","time_End_Of_Experiment","time_End_Of_Practice","time_Experimental_Loop","time_Experimental_intro","time_Fixation","time_Introduction","time_Practice_Loop","time_Practice_intro","time_Stimulus","time_block_break_feedback","time_experimental_sequence","time_experimenter_kb","time_increment_trial_count","time_init_trial_count","time_logger","time_practice_sequence","time_right","time_task","time_wrong","title","total_correct","total_response_time","total_responses","uniform_coordinates","width"
"2.799799878","0","4","ciff","non-word","80","80","1513.4","1513.4","black","no","legacy","legacy","legacy","0","uniform","1","undefined","undefined","undefined","1","f","0","0","0","0","4","0","0","0","4","NA","0","4","0","0","0","3","4","0","4","Fri Feb 19 15:48:35 2021","The main experiment item","yes","Lexical_Decision_Task.osexp","/Users/meganosborne-shaw","no","Andale Mono","no","18","no","white","no","yes","576","legacy","0","0","3","/Users/meganosborne-shaw/Downloads/subject-5226271.csv","legacy","Lentiform Loewenfeld","3.3.7","yes","yes","600bd7cfb6416f0113b04181","602110864497cf011d9c0822","0","f","NA","j","space","space","NA","f","2051","NA","3883","48089","8048","NA","2051","2","legacy","1024","2","48000","-16","task","5226271","odd","NA","72725","78613","74729","78644","5808","61959","53909","79146","NA","78642","79146","NA","78613","81198","70808","72201","5760","69260","Lexical Decision Task","4","7567","5","yes","1024"
"3.037294994","8.64","7","roof","word","83.33333333333333","83.33333333333333","1348.3333333333333","1348.3333333333333","black","no","legacy","legacy","legacy","0","uniform","1","undefined","undefined","undefined","1","j","0","0","0","0","5","0","0","0","5","NA","1","5","1","0","1","3","5","0","5","Fri Feb 19 15:48:35 2021","The main experiment item","yes","Lexical_Decision_Task.osexp","/Users/meganosborne-shaw","no","Andale Mono","no","18","no","white","no","yes","576","legacy","1","1","3","/Users/meganosborne-shaw/Downloads/subject-5226271.csv","legacy","Lentiform Loewenfeld","3.3.7","yes","yes","600bd7cfb6416f0113b04181","602110864497cf011d9c0822","0","j","NA","j","space","space","NA","j","523","NA","3883","48089","8048","NA","523","2","legacy","1024","2","48000","-16","task","5226271","odd","NA","72725","78613","74729","81762","5808","61959","53909","82264","NA","81760","82265","81705","78613","82789","70808","81205","5760","69260","Lexical Decision Task","5","8090","6","yes","1024"
"2.937852093","0","7","bamp","non-word","85.71428571428571","85.71428571428571","1273.5714285714287","1273.5714285714287","black","no","legacy","legacy","legacy","0","uniform","1","undefined","undefined","undefined","1","f","0","0","0","0","6","0","0","0","6","NA","2","6","2","0","2","3","6","0","6","Fri Feb 19 15:48:35 2021","The main experiment item","yes","Lexical_Decision_Task.osexp","/Users/meganosborne-shaw","no","Andale Mono","no","18","no","white","no","yes","576","legacy","2","2","3","/Users/meganosborne-shaw/Downloads/subject-5226271.csv","legacy","Lentiform Loewenfeld","3.3.7","yes","yes","600bd7cfb6416f0113b04181","602110864497cf011d9c0822","0","f","NA","j","space","space","NA","f","825","NA","3883","48089","8048","NA","825","2","legacy","1024","2","48000","-16","task","5226271","odd","NA","72725","78613","74729","83348","5808","61959","53909","83850","NA","83346","83851","83294","78613","84677","70808","82794","5760","69260","Lexical Decision Task","6","8915","7","yes","1024"
"2.875447132","0","9","jelt","non-word","87.5","87.5","1213.875","1213.875","black","no","legacy","legacy","legacy","0","uniform","1","undefined","undefined","undefined","1","f","0","0","0","0","7","0","0","0","7","NA","3","7","3","0","3","3","7","0","7","Fri Feb 19 15:48:35 2021","The main experiment item","yes","Lexical_Decision_Task.osexp","/Users/meganosborne-shaw","no","Andale Mono","no","18","no","white","no","yes","576","legacy","3","3","3","/Users/meganosborne-shaw/Downloads/subject-5226271.csv","legacy","Lentiform Loewenfeld","3.3.7","yes","yes","600bd7cfb6416f0113b04181","602110864497cf011d9c0822","0","f","NA","j","space","space","NA","f","796","NA","3883","48089","8048","NA","796","2","legacy","1024","2","48000","-16","task","5226271","odd","NA","72725","78613","74729","85238","5808","61959","53909","85740","NA","85235","85740","85183","78613","86538","70808","84683","5760","69260","Lexical Decision Task","7","9711","8","yes","1024"
"2.803231716","5.26","3","kiln","word","88.88888888888889","88.88888888888889","1167.888888888889","1167.888888888889","black","no","legacy","legacy","legacy","0","uniform","1","undefined","undefined","undefined","1","j","0","0","0","0","8","0","0","0","8","NA","4","8","4","0","4","3","8","0","8","Fri Feb 19 15:48:35 2021","The main experiment item","yes","Lexical_Decision_Task.osexp","/Users/meganosborne-shaw","no","Andale Mono","no","18","no","white","no","yes","576","legacy","4","4","3","/Users/meganosborne-shaw/Downloads/subject-5226271.csv","legacy","Lentiform Loewenfeld","3.3.7","yes","yes","600bd7cfb6416f0113b04181","602110864497cf011d9c0822","0","j","NA","j","space","space","NA","j","800","NA","3883","48089","8048","NA","800","2","legacy","1024","2","48000","-16","task","5226271","odd","NA","72725","78613","74729","87096","5808","61959","53909","87598","NA","87094","87599","87042","78613","88401","70808","86542","5760","69260","Lexical Decision Task","8","10511","9","yes","1024"
"3.090140555","5.81","8","pout","word","90","90","1119.1","1119.1","black","no","legacy","legacy","legacy","0","uniform","1","undefined","undefined","undefined","1","j","0","0","0","0","9","0","0","0","9","NA","5","9","5","0","5","3","9","0","9","Fri Feb 19 15:48:35 2021","The main experiment item","yes","Lexical_Decision_Task.osexp","/Users/meganosborne-shaw","no","Andale Mono","no","18","no","white","no","yes","576","legacy","5","5","3","/Users/meganosborne-shaw/Downloads/subject-5226271.csv","legacy","Lentiform Loewenfeld","3.3.7","yes","yes","600bd7cfb6416f0113b04181","602110864497cf011d9c0822","0","j","NA","j","space","space","NA","j","680","NA","3883","48089","8048","NA","680","2","legacy","1024","2","48000","-16","task","5226271","odd","NA","72725","78613","74729","88960","5808","61959","53909","89463","NA","88958","89463","88906","78613","90145","70808","88406","5760","69260","Lexical Decision Task","9","11191","10","yes","1024"
"3.263399331","0","8","cour","non-word","90.9090909090909","90.9090909090909","1084","1084","black","no","legacy","legacy","legacy","0","uniform","1","undefined","undefined","undefined","1","f","0","0","0","0","10","0","0","0","10","NA","6","10","6","0","6","3","10","0","10","Fri Feb 19 15:48:35 2021","The main experiment item","yes","Lexical_Decision_Task.osexp","/Users/meganosborne-shaw","no","Andale Mono","no","18","no","white","no","yes","576","legacy","6","6","3","/Users/meganosborne-shaw/Downloads/subject-5226271.csv","legacy","Lentiform Loewenfeld","3.3.7","yes","yes","600bd7cfb6416f0113b04181","602110864497cf011d9c0822","0","f","NA","j","space","space","NA","f","733","NA","3883","48089","8048","NA","733","2","legacy","1024","2","48000","-16","task","5226271","odd","NA","72725","78613","74729","90705","5808","61959","53909","91207","NA","90702","91208","90649","78613","91942","70808","90149","5760","69260","Lexical Decision Task","10","11924","11","yes","1024"
"2.698100546","0","9","mulk","non-word","91.66666666666667","91.66666666666667","1050.25","1050.25","black","no","legacy","legacy","legacy","0","uniform","1","undefined","undefined","undefined","1","f","0","0","0","0","11","0","0","0","11","NA","7","11","7","0","7","3","11","0","11","Fri Feb 19 15:48:35 2021","The main experiment item","yes","Lexical_Decision_Task.osexp","/Users/meganosborne-shaw","no","Andale Mono","no","18","no","white","no","yes","576","legacy","7","7","3","/Users/meganosborne-shaw/Downloads/subject-5226271.csv","legacy","Lentiform Loewenfeld","3.3.7","yes","yes","600bd7cfb6416f0113b04181","602110864497cf011d9c0822","0","f","NA","j","space","space","NA","f","679","NA","3883","48089","8048","NA","679","2","legacy","1024","2","48000","-16","task","5226271","odd","NA","72725","78613","74729","92502","5808","61959","53909","93005","NA","92499","93005","92448","78613","93685","70808","91948","5760","69260","Lexical Decision Task","11","12603","12","yes","1024"
"3.216517684","10.87","3","film","word","92.3076923076923","92.3076923076923","1007.0769230769231","1007.0769230769231","black","no","legacy","legacy","legacy","0","uniform","1","undefined","undefined","undefined","1","j","0","0","0","0","12","0","0","0","12","NA","8","12","8","0","8","3","12","0","12","Fri Feb 19 15:48:35 2021","The main experiment item","yes","Lexical_Decision_Task.osexp","/Users/meganosborne-shaw","no","Andale Mono","no","18","no","white","no","yes","576","legacy","8","8","3","/Users/meganosborne-shaw/Downloads/subject-5226271.csv","legacy","Lentiform Loewenfeld","3.3.7","yes","yes","600bd7cfb6416f0113b04181","602110864497cf011d9c0822","0","j","NA","j","space","space","NA","j","489","NA","3883","48089","8048","NA","489","2","legacy","1024","2","48000","-16","task","5226271","odd","NA","72725","78613","74729","94245","5808","61959","53909","94747","NA","94242","94748","94191","78613","95239","70808","93691","5760","69260","Lexical Decision Task","12","13092","13","yes","1024"
"2.693726949","5.08","3","swig","word","92.85714285714286","92.85714285714286","995.6428571428571","995.6428571428571","black","no","legacy","legacy","legacy","0","uniform","1","undefined","undefined","undefined","1","j","0","0","0","0","13","0","0","0","13","NA","9","13","9","0","9","3","13","0","13","Fri Feb 19 15:48:35 2021","The main experiment item","yes","Lexical_Decision_Task.osexp","/Users/meganosborne-shaw","no","Andale Mono","no","18","no","white","no","yes","576","legacy","9","9","3","/Users/meganosborne-shaw/Downloads/subject-5226271.csv","legacy","Lentiform Loewenfeld","3.3.7","yes","yes","600bd7cfb6416f0113b04181","602110864497cf011d9c0822","0","j","NA","j","space","space","NA","j","847","NA","3883","48089","8048","NA","847","2","legacy","1024","2","48000","-16","task","5226271","odd","NA","72725","78613","74729","95797","5808","61959","53909","96300","NA","95795","96301","95743","78613","97149","70808","95243","5760","69260","Lexical Decision Task","13","13939","14","yes","1024"
"2.9737419","7.69","7","claw","word","93.33333333333333","93.33333333333333","969","969","black","no","legacy","legacy","legacy","0","uniform","1","undefined","undefined","undefined","1","j","0","0","0","0","14","0","0","0","14","NA","10","14","10","0","10","3","14","0","14","Fri Feb 19 15:48:35 2021","The main experiment item","yes","Lexical_Decision_Task.osexp","/Users/meganosborne-shaw","no","Andale Mono","no","18","no","white","no","yes","576","legacy","10","10","3","/Users/meganosborne-shaw/Downloads/subject-5226271.csv","legacy","Lentiform Loewenfeld","3.3.7","yes","yes","600bd7cfb6416f0113b04181","602110864497cf011d9c0822","0","j","NA","j","space","space","NA","j","596","NA","3883","48089","8048","NA","596","2","legacy","1024","2","48000","-16","task","5226271","odd","NA","72725","78613","74729","97709","5808","61959","53909","98211","NA","97706","98212","97654","78613","98809","70808","97154","5760","69260","Lexical Decision Task","14","14535","15","yes","1024"
"3.209246849","0","7","slem","non-word","93.75","93.75","944.6875","944.6875","black","no","legacy","legacy","legacy","0","uniform","1","undefined","undefined","undefined","1","f","0","0","0","0","15","0","0","0","15","NA","11","15","11","0","11","3","15","0","15","Fri Feb 19 15:48:35 2021","The main experiment item","yes","Lexical_Decision_Task.osexp","/Users/meganosborne-shaw","no","Andale Mono","no","18","no","white","no","yes","576","legacy","11","11","3","/Users/meganosborne-shaw/Downloads/subject-5226271.csv","legacy","Lentiform Loewenfeld","3.3.7","yes","yes","600bd7cfb6416f0113b04181","602110864497cf011d9c0822","0","f","NA","j","space","space","NA","f","580","NA","3883","48089","8048","NA","580","2","legacy","1024","2","48000","-16","task","5226271","odd","NA","72725","78613","74729","99376","5808","61959","53909","99879","NA","99374","99879","99314","78613","100460","70808","98814","5760","69260","Lexical Decision Task","15","15115","16","yes","1024"
"2.812467698","0","7","hafe","non-word","94.11764705882354","94.11764705882354","921.4117647058823","921.4117647058823","black","no","legacy","legacy","legacy","0","uniform","1","undefined","undefined","undefined","1","f","0","0","0","0","16","0","0","0","16","NA","12","16","12","0","12","3","16","0","16","Fri Feb 19 15:48:35 2021","The main experiment item","yes","Lexical_Decision_Task.osexp","/Users/meganosborne-shaw","no","Andale Mono","no","18","no","white","no","yes","576","legacy","12","12","3","/Users/meganosborne-shaw/Downloads/subject-5226271.csv","legacy","Lentiform Loewenfeld","3.3.7","yes","yes","600bd7cfb6416f0113b04181","602110864497cf011d9c0822","0","f","NA","j","space","space","NA","f","549","NA","3883","48089","8048","NA","549","2","legacy","1024","2","48000","-16","task","5226271","odd","NA","72725","78613","74729","101022","5808","61959","53909","101525","NA","101020","101525","100967","78613","102075","70808","100467","5760","69260","Lexical Decision Task","16","15664","17","yes","1024"
"3.091901331","0","9","nipe","non-word","94.44444444444444","94.44444444444444","907.0555555555555","907.0555555555555","black","no","legacy","legacy","legacy","0","uniform","1","undefined","undefined","undefined","1","f","0","0","0","0","17","0","0","0","17","NA","13","17","13","0","13","3","17","0","17","Fri Feb 19 15:48:35 2021","The main experiment item","yes","Lexical_Decision_Task.osexp","/Users/meganosborne-shaw","no","Andale Mono","no","18","no","white","no","yes","576","legacy","13","13","3","/Users/meganosborne-shaw/Downloads/subject-5226271.csv","legacy","Lentiform Loewenfeld","3.3.7","yes","yes","600bd7cfb6416f0113b04181","602110864497cf011d9c0822","0","f","NA","j","space","space","NA","f","663","NA","3883","48089","8048","NA","663","2","legacy","1024","2","48000","-16","task","5226271","odd","NA","72725","78613","74729","102634","5808","61959","53909","103136","NA","102632","103137","102581","78613","103801","70808","102080","5760","69260","Lexical Decision Task","17","16327","18","yes","1024"
"3.353210739","0","9","reet","non-word","89.47368421052632","89.47368421052632","883.578947368421","883.578947368421","black","no","legacy","legacy","legacy","0","uniform","0","undefined","undefined","undefined","0","f","0","0","0","0","18","0","0","0","18","NA","14","18","14","0","14","3","18","0","18","Fri Feb 19 15:48:35 2021","The main experiment item","yes","Lexical_Decision_Task.osexp","/Users/meganosborne-shaw","no","Andale Mono","no","18","no","white","no","yes","576","legacy","14","14","3","/Users/meganosborne-shaw/Downloads/subject-5226271.csv","legacy","Lentiform Loewenfeld","3.3.7","yes","yes","600bd7cfb6416f0113b04181","602110864497cf011d9c0822","0","j","NA","j","space","space","NA","j","461","NA","3883","48089","8048","NA","461","2","legacy","1024","2","48000","-16","task","5226271","odd","NA","72725","78613","74729","104361","5808","61959","53909","104864","NA","104359","104864","104306","78613","105326","70808","103806","5760","69260","Lexical Decision Task","17","16788","19","yes","1024"
"3.094121596","0","8","fode","non-word","90","90","870.8","870.8","black","no","legacy","legacy","legacy","0","uniform","1","undefined","undefined","undefined","1","f","0","0","0","0","19","0","0","0","19","NA","15","19","15","0","15","3","19","0","19","Fri Feb 19 15:48:35 2021","The main experiment item","yes","Lexical_Decision_Task.osexp","/Users/meganosborne-shaw","no","Andale Mono","no","18","no","white","no","yes","576","legacy","15","15","3","/Users/meganosborne-shaw/Downloads/subject-5226271.csv","legacy","Lentiform Loewenfeld","3.3.7","yes","yes","600bd7cfb6416f0113b04181","602110864497cf011d9c0822","0","f","NA","j","space","space","NA","f","628","NA","3883","48089","8048","NA","628","2","legacy","1024","2","48000","-16","task","5226271","odd","NA","72725","78613","74729","106891","5808","61959","53909","107394","NA","106888","107394","106832","78613","108023","70808","103806","5760","105331","Lexical Decision Task","18","17416","20","yes","1024"
"2.771097306","0","9","jold","non-word","90.47619047619048","90.47619047619048","862.952380952381","862.952380952381","black","no","legacy","legacy","legacy","0","uniform","1","undefined","undefined","undefined","1","f","0","0","0","0","20","0","0","0","20","NA","16","20","16","0","16","3","20","0","20","Fri Feb 19 15:48:35 2021","The main experiment item","yes","Lexical_Decision_Task.osexp","/Users/meganosborne-shaw","no","Andale Mono","no","18","no","white","no","yes","576","legacy","16","16","3","/Users/meganosborne-shaw/Downloads/subject-5226271.csv","legacy","Lentiform Loewenfeld","3.3.7","yes","yes","600bd7cfb6416f0113b04181","602110864497cf011d9c0822","0","f","NA","j","space","space","NA","f","706","NA","3883","48089","8048","NA","706","2","legacy","1024","2","48000","-16","task","5226271","odd","NA","72725","78613","74729","108582","5808","61959","53909","109084","NA","108579","109085","108528","78613","109792","70808","108028","5760","105331","Lexical Decision Task","19","18122","21","yes","1024"
"3.105055783","0","2","norp","non-word","90.9090909090909","90.9090909090909","848.2727272727273","848.2727272727273","black","no","legacy","legacy","legacy","0","uniform","1","undefined","undefined","undefined","1","f","0","0","0","0","21","0","0","0","21","NA","17","21","17","0","17","3","21","0","21","Fri Feb 19 15:48:35 2021","The main experiment item","yes","Lexical_Decision_Task.osexp","/Users/meganosborne-shaw","no","Andale Mono","no","18","no","white","no","yes","576","legacy","17","17","3","/Users/meganosborne-shaw/Downloads/subject-5226271.csv","legacy","Lentiform Loewenfeld","3.3.7","yes","yes","600bd7cfb6416f0113b04181","602110864497cf011d9c0822","0","f","NA","j","space","space","NA","f","540","NA","3883","48089","8048","NA","540","2","legacy","1024","2","48000","-16","task","5226271","odd","NA","72725","78613","74729","110352","5808","61959","53909","110854","NA","110350","110855","110297","78613","111396","70808","109797","5760","105331","Lexical Decision Task","20","18662","22","yes","1024"
"3.492014979","0","9","yine","non-word","91.30434782608695","91.30434782608695","832.1304347826087","832.1304347826087","black","no","legacy","legacy","legacy","0","uniform","1","undefined","undefined","undefined","1","f","0","0","0","0","22","0","0","0","22","NA","18","22","18","0","18","3","22","0","22","Fri Feb 19 15:48:35 2021","The main experiment item","yes","Lexical_Decision_Task.osexp","/Users/meganosborne-shaw","no","Andale Mono","no","18","no","white","no","yes","576","legacy","18","18","3","/Users/meganosborne-shaw/Downloads/subject-5226271.csv","legacy","Lentiform Loewenfeld","3.3.7","yes","yes","600bd7cfb6416f0113b04181","602110864497cf011d9c0822","0","f","NA","j","space","space","NA","f","477","NA","3883","48089","8048","NA","477","2","legacy","1024","2","48000","-16","task","5226271","odd","NA","72725","78613","74729","111956","5808","61959","53909","112458","NA","111953","112459","111901","78613","112937","70808","111401","5760","105331","Lexical Decision Task","21","19139","23","yes","1024"
"2.6599162","0","2","saff","non-word","91.66666666666667","91.66666666666667","820.75","820.75","black","no","legacy","legacy","legacy","0","uniform","1","undefined","undefined","undefined","1","f","0","0","0","0","23","0","0","0","23","NA","19","23","19","0","19","3","23","0","23","Fri Feb 19 15:48:35 2021","The main experiment item","yes","Lexical_Decision_Task.osexp","/Users/meganosborne-shaw","no","Andale Mono","no","18","no","white","no","yes","576","legacy","19","19","3","/Users/meganosborne-shaw/Downloads/subject-5226271.csv","legacy","Lentiform Loewenfeld","3.3.7","yes","yes","600bd7cfb6416f0113b04181","602110864497cf011d9c0822","0","f","NA","j","space","space","NA","f","559","NA","3883","48089","8048","NA","559","2","legacy","1024","2","48000","-16","task","5226271","odd","NA","72725","78613","74729","113497","5808","61959","53909","114000","NA","113495","114000","113442","78613","114560","70808","112941","5760","105331","Lexical Decision Task","22","19698","24","yes","1024"
"2.696356389","0","1","pizz","non-word","92","92","811.72","811.72","black","no","legacy","legacy","legacy","0","uniform","1","undefined","undefined","undefined","1","f","0","0","0","0","24","0","0","0","24","NA","20","24","20","0","20","3","24","0","24","Fri Feb 19 15:48:35 2021","The main experiment item","yes","Lexical_Decision_Task.osexp","/Users/meganosborne-shaw","no","Andale Mono","no","18","no","white","no","yes","576","legacy","20","20","3","/Users/meganosborne-shaw/Downloads/subject-5226271.csv","legacy","Lentiform Loewenfeld","3.3.7","yes","yes","600bd7cfb6416f0113b04181","602110864497cf011d9c0822","0","f","NA","j","space","space","NA","f","595","NA","3883","48089","8048","NA","595","2","legacy","1024","2","48000","-16","task","5226271","odd","NA","72725","78613","74729","115120","5808","61959","53909","115622","NA","115117","115622","115065","78613","116218","70808","114565","5760","105331","Lexical Decision Task","23","20293","25","yes","1024"
"3.077974404","10.41","8","tool","word","92.3076923076923","92.3076923076923","799.5769230769231","799.5769230769231","black","no","legacy","legacy","legacy","0","uniform","1","undefined","undefined","undefined","1","j","0","0","0","0","25","0","0","0","25","NA","21","25","21","0","21","3","25","0","25","Fri Feb 19 15:48:35 2021","The main experiment item","yes","Lexical_Decision_Task.osexp","/Users/meganosborne-shaw","no","Andale Mono","no","18","no","white","no","yes","576","legacy","21","21","3","/Users/meganosborne-shaw/Downloads/subject-5226271.csv","legacy","Lentiform Loewenfeld","3.3.7","yes","yes","600bd7cfb6416f0113b04181","602110864497cf011d9c0822","0","j","NA","j","space","space","NA","j","496","NA","3883","48089","8048","NA","496","2","legacy","1024","2","48000","-16","task","5226271","odd","NA","72725","78613","74729","116777","5808","61959","53909","117280","NA","116775","117280","116723","78613","117777","70808","116223","5760","105331","Lexical Decision Task","24","20789","26","yes","1024"
"2.696644658","5.78","2","yolk","word","92.5925925925926","92.5925925925926","791.1481481481482","791.1481481481482","black","no","legacy","legacy","legacy","0","uniform","1","undefined","undefined","undefined","1","j","0","0","0","0","26","0","0","0","26","NA","22","26","22","0","22","3","26","0","26","Fri Feb 19 15:48:35 2021","The main experiment item","yes","Lexical_Decision_Task.osexp","/Users/meganosborne-shaw","no","Andale Mono","no","18","no","white","no","yes","576","legacy","22","22","3","/Users/meganosborne-shaw/Downloads/subject-5226271.csv","legacy","Lentiform Loewenfeld","3.3.7","yes","yes","600bd7cfb6416f0113b04181","602110864497cf011d9c0822","0","j","NA","j","space","space","NA","j","572","NA","3883","48089","8048","NA","572","2","legacy","1024","2","48000","-16","task","5226271","odd","NA","72725","78613","74729","118334","5808","61959","53909","118837","NA","118332","118837","118281","78613","119410","70808","117781","5760","105331","Lexical Decision Task","25","21361","27","yes","1024"
"2.821076612","0","4","lult","non-word","92.85714285714286","92.85714285714286","781.2142857142857","781.2142857142857","black","no","legacy","legacy","legacy","0","uniform","1","undefined","undefined","undefined","1","f","0","0","0","0","27","0","0","0","27","NA","23","27","23","0","23","3","27","0","27","Fri Feb 19 15:48:35 2021","The main experiment item","yes","Lexical_Decision_Task.osexp","/Users/meganosborne-shaw","no","Andale Mono","no","18","no","white","no","yes","576","legacy","23","23","3","/Users/meganosborne-shaw/Downloads/subject-5226271.csv","legacy","Lentiform Loewenfeld","3.3.7","yes","yes","600bd7cfb6416f0113b04181","602110864497cf011d9c0822","0","f","NA","j","space","space","NA","f","513","NA","3883","48089","8048","NA","513","2","legacy","1024","2","48000","-16","task","5226271","odd","NA","72725","78613","74729","119970","5808","61959","53909","120472","NA","119968","120473","119917","78613","120987","70808","119416","5760","105331","Lexical Decision Task","26","21874","28","yes","1024"
"2.664011697","8.19","4","hawk","word","93.10344827586206","93.10344827586206","775.7586206896551","775.7586206896551","black","no","legacy","legacy","legacy","0","uniform","1","undefined","undefined","undefined","1","j","0","0","0","0","28","0","0","0","28","NA","24","28","24","0","24","3","28","0","28","Fri Feb 19 15:48:35 2021","The main experiment item","yes","Lexical_Decision_Task.osexp","/Users/meganosborne-shaw","no","Andale Mono","no","18","no","white","no","yes","576","legacy","24","24","3","/Users/meganosborne-shaw/Downloads/subject-5226271.csv","legacy","Lentiform Loewenfeld","3.3.7","yes","yes","600bd7cfb6416f0113b04181","602110864497cf011d9c0822","0","j","NA","j","space","space","NA","j","623","NA","3883","48089","8048","NA","623","2","legacy","1024","2","48000","-16","task","5226271","odd","NA","72725","78613","74729","121546","5808","61959","53909","122049","NA","121544","122049","121492","78613","122673","70808","120992","5760","105331","Lexical Decision Task","27","22497","29","yes","1024"
"3.028977705","0","7","frow","non-word","93.33333333333333","93.33333333333333","773.7","773.7","black","no","legacy","legacy","legacy","0","uniform","1","undefined","undefined","undefined","1","f","0","0","0","0","29","0","0","0","29","NA","25","29","25","0","25","3","29","0","29","Fri Feb 19 15:48:35 2021","The main experiment item","yes","Lexical_Decision_Task.osexp","/Users/meganosborne-shaw","no","Andale Mono","no","18","no","white","no","yes","576","legacy","25","25","3","/Users/meganosborne-shaw/Downloads/subject-5226271.csv","legacy","Lentiform Loewenfeld","3.3.7","yes","yes","600bd7cfb6416f0113b04181","602110864497cf011d9c0822","0","f","NA","j","space","space","NA","f","714","NA","3883","48089","8048","NA","714","2","legacy","1024","2","48000","-16","task","5226271","odd","NA","72725","78613","74729","123233","5808","61959","53909","123735","NA","123231","123736","123178","78613","124451","70808","122678","5760","105331","Lexical Decision Task","28","23211","30","yes","1024"
"2.972357144","0","5","dasp","non-word","93.54838709677419","93.54838709677419","767.5806451612904","767.5806451612904","black","no","legacy","legacy","legacy","0","uniform","1","undefined","undefined","undefined","1","f","0","0","0","0","30","0","0","0","30","NA","26","30","26","0","26","3","30","0","30","Fri Feb 19 15:48:35 2021","The main experiment item","yes","Lexical_Decision_Task.osexp","/Users/meganosborne-shaw","no","Andale Mono","no","18","no","white","no","yes","576","legacy","26","26","3","/Users/meganosborne-shaw/Downloads/subject-5226271.csv","legacy","Lentiform Loewenfeld","3.3.7","yes","yes","600bd7cfb6416f0113b04181","602110864497cf011d9c0822","0","f","NA","j","space","space","NA","f","584","NA","3883","48089","8048","NA","584","2","legacy","1024","2","48000","-16","task","5226271","odd","NA","72725","78613","74729","125011","5808","61959","53909","125513","NA","125009","125513","124957","78613","126098","70808","124457","5760","105331","Lexical Decision Task","29","23795","31","yes","1024"
"2.980306438","0","7","slun","non-word","93.75","93.75","762.28125","762.28125","black","no","legacy","legacy","legacy","0","uniform","1","undefined","undefined","undefined","1","f","0","0","0","0","31","0","0","0","31","NA","27","31","27","0","27","3","31","0","31","Fri Feb 19 15:48:35 2021","The main experiment item","yes","Lexical_Decision_Task.osexp","/Users/meganosborne-shaw","no","Andale Mono","no","18","no","white","no","yes","576","legacy","27","27","3","/Users/meganosborne-shaw/Downloads/subject-5226271.csv","legacy","Lentiform Loewenfeld","3.3.7","yes","yes","600bd7cfb6416f0113b04181","602110864497cf011d9c0822","0","f","NA","j","space","space","NA","f","598","NA","3883","48089","8048","NA","598","2","legacy","1024","2","48000","-16","task","5226271","odd","NA","72725","78613","74729","126658","5808","61959","53909","127161","NA","126655","127161","126603","78613","127760","70808","126103","5760","105331","Lexical Decision Task","30","24393","32","yes","1024"
"3.443783828","7.65","3","verb","word","93.93939393939394","93.93939393939394","755.6060606060606","755.6060606060606","black","no","legacy","legacy","legacy","0","uniform","1","undefined","undefined","undefined","1","j","0","0","0","0","32","0","0","0","32","NA","28","32","28","0","28","3","32","0","32","Fri Feb 19 15:48:35 2021","The main experiment item","yes","Lexical_Decision_Task.osexp","/Users/meganosborne-shaw","no","Andale Mono","no","18","no","white","no","yes","576","legacy","28","28","3","/Users/meganosborne-shaw/Downloads/subject-5226271.csv","legacy","Lentiform Loewenfeld","3.3.7","yes","yes","600bd7cfb6416f0113b04181","602110864497cf011d9c0822","0","j","NA","j","space","space","NA","j","542","NA","3883","48089","8048","NA","542","2","legacy","1024","2","48000","-16","task","5226271","odd","NA","72725","78613","74729","128320","5808","61959","53909","128823","NA","128317","128823","128265","78613","129367","70808","127765","5760","105331","Lexical Decision Task","31","24935","33","yes","1024"
"2.899092422","7.27","6","snag","word","91.17647058823529","91.17647058823529","748.4117647058823","748.4117647058823","black","no","legacy","legacy","legacy","0","uniform","0","undefined","undefined","undefined","0","j","0","0","0","0","33","0","0","0","33","NA","29","33","29","0","29","3","33","0","33","Fri Feb 19 15:48:35 2021","The main experiment item","yes","Lexical_Decision_Task.osexp","/Users/meganosborne-shaw","no","Andale Mono","no","18","no","white","no","yes","576","legacy","29","29","3","/Users/meganosborne-shaw/Downloads/subject-5226271.csv","legacy","Lentiform Loewenfeld","3.3.7","yes","yes","600bd7cfb6416f0113b04181","602110864497cf011d9c0822","0","f","NA","j","space","space","NA","f","511","NA","3883","48089","8048","NA","511","2","legacy","1024","2","48000","-16","task","5226271","odd","NA","72725","78613","74729","129925","5808","61959","53909","130428","NA","129923","130429","129871","78613","130942","70808","129371","5760","105331","Lexical Decision Task","31","25446","34","yes","1024"
"3.299579929","0","2","flis","non-word","91.42857142857143","91.42857142857143","743.6857142857143","743.6857142857143","black","no","legacy","legacy","legacy","0","uniform","1","undefined","undefined","undefined","1","f","0","0","0","0","34","0","0","0","34","NA","30","34","30","0","30","3","34","0","34","Fri Feb 19 15:48:35 2021","The main experiment item","yes","Lexical_Decision_Task.osexp","/Users/meganosborne-shaw","no","Andale Mono","no","18","no","white","no","yes","576","legacy","30","30","3","/Users/meganosborne-shaw/Downloads/subject-5226271.csv","legacy","Lentiform Loewenfeld","3.3.7","yes","yes","600bd7cfb6416f0113b04181","602110864497cf011d9c0822","0","f","NA","j","space","space","NA","f","583","NA","3883","48089","8048","NA","583","2","legacy","1024","2","48000","-16","task","5226271","odd","NA","72725","78613","74729","132506","5808","61959","53909","133009","NA","132504","133009","132447","78613","133594","70808","129371","5760","130947","Lexical Decision Task","32","26029","35","yes","1024"
"3.316948329","0","1","besc","non-word","91.66666666666667","91.66666666666667","735.5277777777778","735.5277777777778","black","no","legacy","legacy","legacy","0","uniform","1","undefined","undefined","undefined","1","f","0","0","0","0","35","0","0","0","35","NA","31","35","31","0","31","3","35","0","35","Fri Feb 19 15:48:35 2021","The main experiment item","yes","Lexical_Decision_Task.osexp","/Users/meganosborne-shaw","no","Andale Mono","no","18","no","white","no","yes","576","legacy","31","31","3","/Users/meganosborne-shaw/Downloads/subject-5226271.csv","legacy","Lentiform Loewenfeld","3.3.7","yes","yes","600bd7cfb6416f0113b04181","602110864497cf011d9c0822","0","f","NA","j","space","space","NA","f","450","NA","3883","48089","8048","NA","450","2","legacy","1024","2","48000","-16","task","5226271","odd","NA","72725","78613","74729","134153","5808","61959","53909","134655","NA","134150","134656","134099","78613","135107","70808","133599","5760","130947","Lexical Decision Task","33","26479","36","yes","1024"
"3.168400243","9.12","6","horn","word","91.89189189189189","91.89189189189189","731.1621621621622","731.1621621621622","black","no","legacy","legacy","legacy","0","uniform","1","undefined","undefined","undefined","1","j","0","0","0","0","36","0","0","0","36","NA","32","36","32","0","32","3","36","0","36","Fri Feb 19 15:48:35 2021","The main experiment item","yes","Lexical_Decision_Task.osexp","/Users/meganosborne-shaw","no","Andale Mono","no","18","no","white","no","yes","576","legacy","32","32","3","/Users/meganosborne-shaw/Downloads/subject-5226271.csv","legacy","Lentiform Loewenfeld","3.3.7","yes","yes","600bd7cfb6416f0113b04181","602110864497cf011d9c0822","0","j","NA","j","space","space","NA","j","574","NA","3883","48089","8048","NA","574","2","legacy","1024","2","48000","-16","task","5226271","odd","NA","72725","78613","74729","135665","5808","61959","53909","136168","NA","135663","136168","135612","78613","136744","70808","135112","5760","130947","Lexical Decision Task","34","27053","37","yes","1024"
"3.529815197","0","3","lerm","non-word","92.10526315789474","92.10526315789474","724.3947368421053","724.3947368421053","black","no","legacy","legacy","legacy","0","uniform","1","undefined","undefined","undefined","1","f","0","0","0","0","37","0","0","0","37","NA","33","37","33","0","33","3","37","0","37","Fri Feb 19 15:48:35 2021","The main experiment item","yes","Lexical_Decision_Task.osexp","/Users/meganosborne-shaw","no","Andale Mono","no","18","no","white","no","yes","576","legacy","33","33","3","/Users/meganosborne-shaw/Downloads/subject-5226271.csv","legacy","Lentiform Loewenfeld","3.3.7","yes","yes","600bd7cfb6416f0113b04181","602110864497cf011d9c0822","0","f","NA","j","space","space","NA","f","474","NA","3883","48089","8048","NA","474","2","legacy","1024","2","48000","-16","task","5226271","odd","NA","72725","78613","74729","137304","5808","61959","53909","137807","NA","137301","137807","137249","78613","138283","70808","136749","5760","130947","Lexical Decision Task","35","27527","38","yes","1024"
"2.755364069","7.72","2","hoax","word","92.3076923076923","92.3076923076923","721.025641025641","721.025641025641","black","no","legacy","legacy","legacy","0","uniform","1","undefined","undefined","undefined","1","j","0","0","0","0","38","0","0","0","38","NA","34","38","34","0","34","3","38","0","38","Fri Feb 19 15:48:35 2021","The main experiment item","yes","Lexical_Decision_Task.osexp","/Users/meganosborne-shaw","no","Andale Mono","no","18","no","white","no","yes","576","legacy","34","34","3","/Users/meganosborne-shaw/Downloads/subject-5226271.csv","legacy","Lentiform Loewenfeld","3.3.7","yes","yes","600bd7cfb6416f0113b04181","602110864497cf011d9c0822","0","j","NA","j","space","space","NA","j","593","NA","3883","48089","8048","NA","593","2","legacy","1024","2","48000","-16","task","5226271","odd","NA","72725","78613","74729","138842","5808","61959","53909","139344","NA","138840","139345","138788","78613","139940","70808","138288","5760","130947","Lexical Decision Task","36","28120","39","yes","1024"
"3.132473155","0","4","glim","non-word","92.5","92.5","717.1","717.1","black","no","legacy","legacy","legacy","0","uniform","1","undefined","undefined","undefined","1","f","0","0","0","0","39","0","0","0","39","NA","35","39","35","0","35","3","39","0","39","Fri Feb 19 15:48:35 2021","The main experiment item","yes","Lexical_Decision_Task.osexp","/Users/meganosborne-shaw","no","Andale Mono","no","18","no","white","no","yes","576","legacy","35","35","3","/Users/meganosborne-shaw/Downloads/subject-5226271.csv","legacy","Lentiform Loewenfeld","3.3.7","yes","yes","600bd7cfb6416f0113b04181","602110864497cf011d9c0822","0","f","NA","j","space","space","NA","f","564","NA","3883","48089","8048","NA","564","2","legacy","1024","2","48000","-16","task","5226271","odd","NA","72725","78613","74729","140498","5808","61959","53909","141001","NA","140496","141001","140444","78613","141567","70808","139944","5760","130947","Lexical Decision Task","37","28684","40","yes","1024"
"2.953276337","6.32","4","thaw","word","92.6829268292683","92.6829268292683","720.1219512195122","720.1219512195122","black","no","legacy","legacy","legacy","0","uniform","1","undefined","undefined","undefined","1","j","0","0","0","0","40","0","0","0","40","NA","36","40","36","0","36","3","40","0","40","Fri Feb 19 15:48:35 2021","The main experiment item","yes","Lexical_Decision_Task.osexp","/Users/meganosborne-shaw","no","Andale Mono","no","18","no","white","no","yes","576","legacy","36","36","3","/Users/meganosborne-shaw/Downloads/subject-5226271.csv","legacy","Lentiform Loewenfeld","3.3.7","yes","yes","600bd7cfb6416f0113b04181","602110864497cf011d9c0822","0","j","NA","j","space","space","NA","j","841","NA","3883","48089","8048","NA","841","2","legacy","1024","2","48000","-16","task","5226271","odd","NA","72725","78613","74729","142127","5808","61959","53909","142629","NA","142125","142630","142072","78613","143473","70808","141572","5760","130947","Lexical Decision Task","38","29525","41","yes","1024"
"3.302475237","0","7","leel","non-word","92.85714285714286","92.85714285714286","715.2619047619048","715.2619047619048","black","no","legacy","legacy","legacy","0","uniform","1","undefined","undefined","undefined","1","f","0","0","0","0","41","0","0","0","41","NA","37","41","37","0","37","3","41","0","41","Fri Feb 19 15:48:35 2021","The main experiment item","yes","Lexical_Decision_Task.osexp","/Users/meganosborne-shaw","no","Andale Mono","no","18","no","white","no","yes","576","legacy","37","37","3","/Users/meganosborne-shaw/Downloads/subject-5226271.csv","legacy","Lentiform Loewenfeld","3.3.7","yes","yes","600bd7cfb6416f0113b04181","602110864497cf011d9c0822","0","f","NA","j","space","space","NA","f","516","NA","3883","48089","8048","NA","516","2","legacy","1024","2","48000","-16","task","5226271","odd","NA","72725","78613","74729","144031","5808","61959","53909","144534","NA","144029","144535","143978","78613","145052","70808","143478","5760","130947","Lexical Decision Task","39","30041","42","yes","1024"
"3.225825991","0","7","talm","non-word","93.02325581395348","93.02325581395348","711.2093023255813","711.2093023255813","black","no","legacy","legacy","legacy","0","uniform","1","undefined","undefined","undefined","1","f","0","0","0","0","42","0","0","0","42","NA","38","42","38","0","38","3","42","0","42","Fri Feb 19 15:48:35 2021","The main experiment item","yes","Lexical_Decision_Task.osexp","/Users/meganosborne-shaw","no","Andale Mono","no","18","no","white","no","yes","576","legacy","38","38","3","/Users/meganosborne-shaw/Downloads/subject-5226271.csv","legacy","Lentiform Loewenfeld","3.3.7","yes","yes","600bd7cfb6416f0113b04181","602110864497cf011d9c0822","0","f","NA","j","space","space","NA","f","541","NA","3883","48089","8048","NA","541","2","legacy","1024","2","48000","-16","task","5226271","odd","NA","72725","78613","74729","145613","5808","61959","53909","146116","NA","145610","146116","145558","78613","146659","70808","145058","5760","130947","Lexical Decision Task","40","30582","43","yes","1024"
"2.868644438","10.52","4","town","word","93.18181818181819","93.18181818181819","704.2045454545455","704.2045454545455","black","no","legacy","legacy","legacy","0","uniform","1","undefined","undefined","undefined","1","j","0","0","0","0","43","0","0","0","43","NA","39","43","39","0","39","3","43","0","43","Fri Feb 19 15:48:35 2021","The main experiment item","yes","Lexical_Decision_Task.osexp","/Users/meganosborne-shaw","no","Andale Mono","no","18","no","white","no","yes","576","legacy","39","39","3","/Users/meganosborne-shaw/Downloads/subject-5226271.csv","legacy","Lentiform Loewenfeld","3.3.7","yes","yes","600bd7cfb6416f0113b04181","602110864497cf011d9c0822","0","j","NA","j","space","space","NA","j","403","NA","3883","48089","8048","NA","403","2","legacy","1024","2","48000","-16","task","5226271","odd","NA","72725","78613","74729","147218","5808","61959","53909","147720","NA","147215","147721","147164","78613","148125","70808","146664","5760","130947","Lexical Decision Task","41","30985","44","yes","1024"
"3.003891166","8.05","2","frog","word","93.33333333333333","93.33333333333333","699.0888888888888","699.0888888888888","black","no","legacy","legacy","legacy","0","uniform","1","undefined","undefined","undefined","1","j","0","0","0","0","44","0","0","0","44","NA","40","44","40","0","40","3","44","0","44","Fri Feb 19 15:48:35 2021","The main experiment item","yes","Lexical_Decision_Task.osexp","/Users/meganosborne-shaw","no","Andale Mono","no","18","no","white","no","yes","576","legacy","40","40","3","/Users/meganosborne-shaw/Downloads/subject-5226271.csv","legacy","Lentiform Loewenfeld","3.3.7","yes","yes","600bd7cfb6416f0113b04181","602110864497cf011d9c0822","0","j","NA","j","space","space","NA","j","474","NA","3883","48089","8048","NA","474","2","legacy","1024","2","48000","-16","task","5226271","odd","NA","72725","78613","74729","148687","5808","61959","53909","149189","NA","148685","149190","148631","78613","149665","70808","148131","5760","130947","Lexical Decision Task","42","31459","45","yes","1024"
"2.705007959","6.01","4","wept","word","91.30434782608695","91.30434782608695","694.8260869565217","694.8260869565217","black","no","legacy","legacy","legacy","0","uniform","0","undefined","undefined","undefined","0","j","0","0","0","0","45","0","0","0","45","NA","41","45","41","0","41","3","45","0","45","Fri Feb 19 15:48:35 2021","The main experiment item","yes","Lexical_Decision_Task.osexp","/Users/meganosborne-shaw","no","Andale Mono","no","18","no","white","no","yes","576","legacy","41","41","3","/Users/meganosborne-shaw/Downloads/subject-5226271.csv","legacy","Lentiform Loewenfeld","3.3.7","yes","yes","600bd7cfb6416f0113b04181","602110864497cf011d9c0822","0","f","NA","j","space","space","NA","f","503","NA","3883","48089","8048","NA","503","2","legacy","1024","2","48000","-16","task","5226271","odd","NA","72725","78613","74729","150225","5808","61959","53909","150728","NA","150223","150728","150171","78613","151232","70808","149671","5760","130947","Lexical Decision Task","42","31962","46","yes","1024"
"3.140404328","10.66","9","deep","word","91.48936170212765","91.48936170212765","691.1276595744681","691.1276595744681","black","no","legacy","legacy","legacy","0","uniform","1","undefined","undefined","undefined","1","j","0","0","0","0","46","0","0","0","46","NA","42","46","42","0","42","3","46","0","46","Fri Feb 19 15:48:35 2021","The main experiment item","yes","Lexical_Decision_Task.osexp","/Users/meganosborne-shaw","no","Andale Mono","no","18","no","white","no","yes","576","legacy","42","42","3","/Users/meganosborne-shaw/Downloads/subject-5226271.csv","legacy","Lentiform Loewenfeld","3.3.7","yes","yes","600bd7cfb6416f0113b04181","602110864497cf011d9c0822","0","j","NA","j","space","space","NA","j","521","NA","3883","48089","8048","NA","521","2","legacy","1024","2","48000","-16","task","5226271","odd","NA","72725","78613","74729","152797","5808","61959","53909","153299","NA","152794","153300","152737","78613","153822","70808","149671","5760","151237","Lexical Decision Task","43","32483","47","yes","1024"
"2.706148589","0","4","hube","non-word","91.66666666666667","91.66666666666667","691.6458333333334","691.6458333333334","black","no","legacy","legacy","legacy","0","uniform","1","undefined","undefined","undefined","1","f","0","0","0","0","47","0","0","0","47","NA","43","47","43","0","43","3","47","0","47","Fri Feb 19 15:48:35 2021","The main experiment item","yes","Lexical_Decision_Task.osexp","/Users/meganosborne-shaw","no","Andale Mono","no","18","no","white","no","yes","576","legacy","43","43","3","/Users/meganosborne-shaw/Downloads/subject-5226271.csv","legacy","Lentiform Loewenfeld","3.3.7","yes","yes","600bd7cfb6416f0113b04181","602110864497cf011d9c0822","0","f","NA","j","space","space","NA","f","716","NA","3883","48089","8048","NA","716","2","legacy","1024","2","48000","-16","task","5226271","odd","NA","72725","78613","74729","154381","5808","61959","53909","154883","NA","154378","154884","154327","78613","155601","70808","153827","5760","151237","Lexical Decision Task","44","33199","48","yes","1024"
"2.983324025","9.56","2","debt","word","91.83673469387755","91.83673469387755","687.4489795918367","687.4489795918367","black","no","legacy","legacy","legacy","0","uniform","1","undefined","undefined","undefined","1","j","0","0","0","0","48","0","0","0","48","NA","44","48","44","0","44","3","48","0","48","Fri Feb 19 15:48:35 2021","The main experiment item","yes","Lexical_Decision_Task.osexp","/Users/meganosborne-shaw","no","Andale Mono","no","18","no","white","no","yes","576","legacy","44","44","3","/Users/meganosborne-shaw/Downloads/subject-5226271.csv","legacy","Lentiform Loewenfeld","3.3.7","yes","yes","600bd7cfb6416f0113b04181","602110864497cf011d9c0822","0","j","NA","j","space","space","NA","j","486","NA","3883","48089","8048","NA","486","2","legacy","1024","2","48000","-16","task","5226271","odd","NA","72725","78613","74729","156161","5808","61959","53909","156663","NA","156159","156664","156106","78613","157152","70808","155606","5760","151237","Lexical Decision Task","45","33685","49","yes","1024"
"3.20871002","7.15","8","cram","word","92","92","687.7","687.7","black","no","legacy","legacy","legacy","0","uniform","1","undefined","undefined","undefined","1","j","0","0","0","0","49","0","0","0","49","NA","45","49","45","0","45","3","49","0","49","Fri Feb 19 15:48:35 2021","The main experiment item","yes","Lexical_Decision_Task.osexp","/Users/meganosborne-shaw","no","Andale Mono","no","18","no","white","no","yes","576","legacy","45","45","3","/Users/meganosborne-shaw/Downloads/subject-5226271.csv","legacy","Lentiform Loewenfeld","3.3.7","yes","yes","600bd7cfb6416f0113b04181","602110864497cf011d9c0822","0","j","NA","j","space","space","NA","j","700","NA","3883","48089","8048","NA","700","2","legacy","1024","2","48000","-16","task","5226271","odd","NA","72725","78613","74729","157711","5808","61959","53909","158213","NA","157709","158214","157657","78613","158915","70808","157157","5760","151237","Lexical Decision Task","46","34385","50","yes","1024"
"2.675164031","8.57","6","glue","word","92.15686274509804","92.15686274509804","683.2745098039215","683.2745098039215","black","no","legacy","legacy","legacy","0","uniform","1","undefined","undefined","undefined","1","j","0","0","0","0","50","0","0","0","50","NA","46","50","46","0","46","3","50","0","50","Fri Feb 19 15:48:35 2021","The main experiment item","yes","Lexical_Decision_Task.osexp","/Users/meganosborne-shaw","no","Andale Mono","no","18","no","white","no","yes","576","legacy","46","46","3","/Users/meganosborne-shaw/Downloads/subject-5226271.csv","legacy","Lentiform Loewenfeld","3.3.7","yes","yes","600bd7cfb6416f0113b04181","602110864497cf011d9c0822","0","j","NA","j","space","space","NA","j","462","NA","3883","48089","8048","NA","462","2","legacy","1024","2","48000","-16","task","5226271","odd","NA","72725","78613","74729","159477","5808","61959","53909","159979","NA","159474","159980","159420","78613","160443","70808","158920","5760","151237","Lexical Decision Task","47","34847","51","yes","1024"
"2.979548375","8.71","4","soup","word","92.3076923076923","92.3076923076923","677.75","677.75","black","no","legacy","legacy","legacy","0","uniform","1","undefined","undefined","undefined","1","j","0","0","0","0","51","0","0","0","51","NA","47","51","47","0","47","3","51","0","51","Fri Feb 19 15:48:35 2021","The main experiment item","yes","Lexical_Decision_Task.osexp","/Users/meganosborne-shaw","no","Andale Mono","no","18","no","white","no","yes","576","legacy","47","47","3","/Users/meganosborne-shaw/Downloads/subject-5226271.csv","legacy","Lentiform Loewenfeld","3.3.7","yes","yes","600bd7cfb6416f0113b04181","602110864497cf011d9c0822","0","j","NA","j","space","space","NA","j","396","NA","3883","48089","8048","NA","396","2","legacy","1024","2","48000","-16","task","5226271","odd","NA","72725","78613","74729","161003","5808","61959","53909","161506","NA","161001","161506","160949","78613","161903","70808","160449","5760","151237","Lexical Decision Task","48","35243","52","yes","1024"
"3.15462682","0","6","noal","non-word","90.56603773584905","90.56603773584905","672.433962264151","672.433962264151","black","no","legacy","legacy","legacy","0","uniform","0","undefined","undefined","undefined","0","f","0","0","0","0","52","0","0","0","52","NA","48","52","48","0","48","3","52","0","52","Fri Feb 19 15:48:35 2021","The main experiment item","yes","Lexical_Decision_Task.osexp","/Users/meganosborne-shaw","no","Andale Mono","no","18","no","white","no","yes","576","legacy","48","48","3","/Users/meganosborne-shaw/Downloads/subject-5226271.csv","legacy","Lentiform Loewenfeld","3.3.7","yes","yes","600bd7cfb6416f0113b04181","602110864497cf011d9c0822","0","j","NA","j","space","space","NA","j","396","NA","3883","48089","8048","NA","396","2","legacy","1024","2","48000","-16","task","5226271","odd","NA","72725","78613","74729","162463","5808","61959","53909","162965","NA","162461","162966","162408","78613","163363","70808","161908","5760","151237","Lexical Decision Task","48","35639","53","yes","1024"
"3.134602053","0","8","jart","non-word","90.74074074074075","90.74074074074075","669.5555555555555","669.5555555555555","black","no","legacy","legacy","legacy","0","uniform","1","undefined","undefined","undefined","1","f","0","0","0","0","53","0","0","0","53","NA","49","53","49","0","49","3","53","0","53","Fri Feb 19 15:48:35 2021","The main experiment item","yes","Lexical_Decision_Task.osexp","/Users/meganosborne-shaw","no","Andale Mono","no","18","no","white","no","yes","576","legacy","49","49","3","/Users/meganosborne-shaw/Downloads/subject-5226271.csv","legacy","Lentiform Loewenfeld","3.3.7","yes","yes","600bd7cfb6416f0113b04181","602110864497cf011d9c0822","0","f","NA","j","space","space","NA","f","517","NA","3883","48089","8048","NA","517","2","legacy","1024","2","48000","-16","task","5226271","odd","NA","72725","78613","74729","164927","5808","61959","53909","165429","NA","164924","165430","164868","78613","165948","70808","161908","5760","163368","Lexical Decision Task","49","36156","54","yes","1024"
"3.269668578","0","7","trag","non-word","90.9090909090909","90.9090909090909","668.2181818181818","668.2181818181818","black","no","legacy","legacy","legacy","0","uniform","1","undefined","undefined","undefined","1","f","0","0","0","0","54","0","0","0","54","0","50","54","50","0","50","3","54","0","54","Fri Feb 19 15:48:35 2021","The main experiment item","yes","Lexical_Decision_Task.osexp","/Users/meganosborne-shaw","no","Andale Mono","no","18","no","white","no","yes","576","legacy","50","50","3","/Users/meganosborne-shaw/Downloads/subject-5226271.csv","legacy","Lentiform Loewenfeld","3.3.7","yes","yes","600bd7cfb6416f0113b04181","602110864497cf011d9c0822","0","f","NA","j","space","space","space","f","596","NA","3883","48089","8048","33040","596","2","legacy","1024","2","48000","-16","task","5226271","odd","NA","72725","78613","74729","199574","5808","61959","53909","200078","166481","199572","200078","166453","78613","200676","70808","165952","5760","163368","Lexical Decision Task","50","36752","55","yes","1024"
"3.076883066","0","8","mout","non-word","91.07142857142857","91.07142857142857","666.3928571428571","666.3928571428571","black","no","legacy","legacy","legacy","0","uniform","1","undefined","undefined","undefined","1","f","0","0","0","0","55","0","0","0","55","0","51","55","51","0","51","3","55","0","55","Fri Feb 19 15:48:35 2021","The main experiment item","yes","Lexical_Decision_Task.osexp","/Users/meganosborne-shaw","no","Andale Mono","no","18","no","white","no","yes","576","legacy","51","51","3","/Users/meganosborne-shaw/Downloads/subject-5226271.csv","legacy","Lentiform Loewenfeld","3.3.7","yes","yes","600bd7cfb6416f0113b04181","602110864497cf011d9c0822","0","f","NA","j","space","space","space","f","566","NA","3883","48089","8048","33040","566","2","legacy","1024","2","48000","-16","task","5226271","odd","NA","72725","78613","74729","201235","5808","61959","53909","201738","166481","201233","201738","201181","78613","202306","70808","200681","5760","163368","Lexical Decision Task","51","37318","56","yes","1024"
"3.031408464","0","7","drow","non-word","91.2280701754386","91.2280701754386","663.140350877193","663.140350877193","black","no","legacy","legacy","legacy","0","uniform","1","undefined","undefined","undefined","1","f","0","0","0","0","56","0","0","0","56","0","52","56","52","0","52","3","56","0","56","Fri Feb 19 15:48:35 2021","The main experiment item","yes","Lexical_Decision_Task.osexp","/Users/meganosborne-shaw","no","Andale Mono","no","18","no","white","no","yes","576","legacy","52","52","3","/Users/meganosborne-shaw/Downloads/subject-5226271.csv","legacy","Lentiform Loewenfeld","3.3.7","yes","yes","600bd7cfb6416f0113b04181","602110864497cf011d9c0822","0","f","NA","j","space","space","space","f","481","NA","3883","48089","8048","33040","481","2","legacy","1024","2","48000","-16","task","5226271","odd","NA","72725","78613","74729","202866","5808","61959","53909","203369","166481","202864","203369","202811","78613","203851","70808","202311","5760","163368","Lexical Decision Task","52","37799","57","yes","1024"
"2.813801082","5.47","7","nook","word","89.65517241379311","89.65517241379311","661.551724137931","661.551724137931","black","no","legacy","legacy","legacy","0","uniform","0","undefined","undefined","undefined","0","j","0","0","0","0","57","0","0","0","57","0","53","57","53","0","53","3","57","0","57","Fri Feb 19 15:48:35 2021","The main experiment item","yes","Lexical_Decision_Task.osexp","/Users/meganosborne-shaw","no","Andale Mono","no","18","no","white","no","yes","576","legacy","53","53","3","/Users/meganosborne-shaw/Downloads/subject-5226271.csv","legacy","Lentiform Loewenfeld","3.3.7","yes","yes","600bd7cfb6416f0113b04181","602110864497cf011d9c0822","0","f","NA","j","space","space","space","f","571","NA","3883","48089","8048","33040","571","2","legacy","1024","2","48000","-16","task","5226271","odd","NA","72725","78613","74729","204410","5808","61959","53909","204912","166481","204408","204913","204356","78613","205486","70808","203856","5760","163368","Lexical Decision Task","52","38370","58","yes","1024"
"3.488597715","0","9","nain","non-word","89.83050847457628","89.83050847457628","659.5932203389831","659.5932203389831","black","no","legacy","legacy","legacy","0","uniform","1","undefined","undefined","undefined","1","f","0","0","0","0","58","0","0","0","58","0","54","58","54","0","54","3","58","0","58","Fri Feb 19 15:48:35 2021","The main experiment item","yes","Lexical_Decision_Task.osexp","/Users/meganosborne-shaw","no","Andale Mono","no","18","no","white","no","yes","576","legacy","54","54","3","/Users/meganosborne-shaw/Downloads/subject-5226271.csv","legacy","Lentiform Loewenfeld","3.3.7","yes","yes","600bd7cfb6416f0113b04181","602110864497cf011d9c0822","0","f","NA","j","space","space","space","f","546","NA","3883","48089","8048","33040","546","2","legacy","1024","2","48000","-16","task","5226271","odd","NA","72725","78613","74729","207051","5808","61959","53909","207553","166481","207049","207554","206991","78613","208102","70808","203856","5760","205491","Lexical Decision Task","53","38916","59","yes","1024"
"3.067193647","6.73","6","raft","word","90","90","657.0666666666667","657.0666666666667","black","no","legacy","legacy","legacy","0","uniform","1","undefined","undefined","undefined","1","j","0","0","0","0","59","0","0","0","59","0","55","59","55","0","55","3","59","0","59","Fri Feb 19 15:48:35 2021","The main experiment item","yes","Lexical_Decision_Task.osexp","/Users/meganosborne-shaw","no","Andale Mono","no","18","no","white","no","yes","576","legacy","55","55","3","/Users/meganosborne-shaw/Downloads/subject-5226271.csv","legacy","Lentiform Loewenfeld","3.3.7","yes","yes","600bd7cfb6416f0113b04181","602110864497cf011d9c0822","0","j","NA","j","space","space","space","j","508","NA","3883","48089","8048","33040","508","2","legacy","1024","2","48000","-16","task","5226271","odd","NA","72725","78613","74729","208659","5808","61959","53909","209161","166481","208657","209162","208605","78613","209672","70808","208105","5760","205491","Lexical Decision Task","54","39424","60","yes","1024"
"2.843025032","0","9","pusk","non-word","90.1639344262295","90.1639344262295","653.7540983606557","653.7540983606557","black","no","legacy","legacy","legacy","0","uniform","1","undefined","undefined","undefined","1","f","0","0","0","0","60","0","0","0","60","0","56","60","56","0","56","3","60","0","60","Fri Feb 19 15:48:35 2021","The main experiment item","yes","Lexical_Decision_Task.osexp","/Users/meganosborne-shaw","no","Andale Mono","no","18","no","white","no","yes","576","legacy","56","56","3","/Users/meganosborne-shaw/Downloads/subject-5226271.csv","legacy","Lentiform Loewenfeld","3.3.7","yes","yes","600bd7cfb6416f0113b04181","602110864497cf011d9c0822","0","f","NA","j","space","space","space","f","455","NA","3883","48089","8048","33040","455","2","legacy","1024","2","48000","-16","task","5226271","odd","NA","72725","78613","74729","210232","5808","61959","53909","210734","166481","210230","210735","210176","78613","211191","70808","209676","5760","205491","Lexical Decision Task","55","39879","61","yes","1024"
"2.980911938","7.15","7","hoop","word","90.3225806451613","90.3225806451613","650.3870967741935","650.3870967741935","black","no","legacy","legacy","legacy","0","uniform","1","undefined","undefined","undefined","1","j","0","0","0","0","61","0","0","0","61","0","57","61","57","0","57","3","61","0","61","Fri Feb 19 15:48:35 2021","The main experiment item","yes","Lexical_Decision_Task.osexp","/Users/meganosborne-shaw","no","Andale Mono","no","18","no","white","no","yes","576","legacy","57","57","3","/Users/meganosborne-shaw/Downloads/subject-5226271.csv","legacy","Lentiform Loewenfeld","3.3.7","yes","yes","600bd7cfb6416f0113b04181","602110864497cf011d9c0822","0","j","NA","j","space","space","space","j","445","NA","3883","48089","8048","33040","445","2","legacy","1024","2","48000","-16","task","5226271","odd","NA","72725","78613","74729","211751","5808","61959","53909","212254","166481","211749","212254","211697","78613","212701","70808","211196","5760","205491","Lexical Decision Task","56","40324","62","yes","1024"
"2.68604012","0","4","pumb","non-word","90.47619047619048","90.47619047619048","651.2698412698413","651.2698412698413","black","no","legacy","legacy","legacy","0","uniform","1","undefined","undefined","undefined","1","f","0","0","0","0","62","0","0","0","62","0","58","62","58","0","58","3","62","0","62","Fri Feb 19 15:48:35 2021","The main experiment item","yes","Lexical_Decision_Task.osexp","/Users/meganosborne-shaw","no","Andale Mono","no","18","no","white","no","yes","576","legacy","58","58","3","/Users/meganosborne-shaw/Downloads/subject-5226271.csv","legacy","Lentiform Loewenfeld","3.3.7","yes","yes","600bd7cfb6416f0113b04181","602110864497cf011d9c0822","0","f","NA","j","space","space","space","f","706","NA","3883","48089","8048","33040","706","2","legacy","1024","2","48000","-16","task","5226271","odd","NA","72725","78613","74729","213260","5808","61959","53909","213763","166481","213258","213764","213206","78613","214472","70808","212705","5760","205491","Lexical Decision Task","57","41030","63","yes","1024"
"2.7084209","0","8","vump","non-word","90.625","90.625","650.34375","650.34375","black","no","legacy","legacy","legacy","0","uniform","1","undefined","undefined","undefined","1","f","0","0","0","0","63","0","0","0","63","0","59","63","59","0","59","3","63","0","63","Fri Feb 19 15:48:35 2021","The main experiment item","yes","Lexical_Decision_Task.osexp","/Users/meganosborne-shaw","no","Andale Mono","no","18","no","white","no","yes","576","legacy","59","59","3","/Users/meganosborne-shaw/Downloads/subject-5226271.csv","legacy","Lentiform Loewenfeld","3.3.7","yes","yes","600bd7cfb6416f0113b04181","602110864497cf011d9c0822","0","f","NA","j","space","space","space","f","592","NA","3883","48089","8048","33040","592","2","legacy","1024","2","48000","-16","task","5226271","odd","NA","72725","78613","74729","215031","5808","61959","53909","215534","166481","215028","215534","214977","78613","216127","70808","214477","5760","205491","Lexical Decision Task","58","41622","64","yes","1024"
"3.062080345","0","6","tomp","non-word","90.76923076923077","90.76923076923077","648.8","648.8","black","no","legacy","legacy","legacy","0","uniform","1","undefined","undefined","undefined","1","f","0","0","0","0","64","0","0","0","64","0","60","64","60","0","60","3","64","0","64","Fri Feb 19 15:48:35 2021","The main experiment item","yes","Lexical_Decision_Task.osexp","/Users/meganosborne-shaw","no","Andale Mono","no","18","no","white","no","yes","576","legacy","60","60","3","/Users/meganosborne-shaw/Downloads/subject-5226271.csv","legacy","Lentiform Loewenfeld","3.3.7","yes","yes","600bd7cfb6416f0113b04181","602110864497cf011d9c0822","0","f","NA","j","space","space","space","f","550","NA","3883","48089","8048","33040","550","2","legacy","1024","2","48000","-16","task","5226271","odd","NA","72725","78613","74729","216686","5808","61959","53909","217189","166481","216683","217189","216632","78613","217740","70808","216131","5760","205491","Lexical Decision Task","59","42172","65","yes","1024"
"2.576725172","0","8","gowl","non-word","90.9090909090909","90.9090909090909","646.3636363636364","646.3636363636364","black","no","legacy","legacy","legacy","0","uniform","1","undefined","undefined","undefined","1","f","0","0","0","0","65","0","0","0","65","0","61","65","61","0","61","3","65","0","65","Fri Feb 19 15:48:35 2021","The main experiment item","yes","Lexical_Decision_Task.osexp","/Users/meganosborne-shaw","no","Andale Mono","no","18","no","white","no","yes","576","legacy","61","61","3","/Users/meganosborne-shaw/Downloads/subject-5226271.csv","legacy","Lentiform Loewenfeld","3.3.7","yes","yes","600bd7cfb6416f0113b04181","602110864497cf011d9c0822","0","f","NA","j","space","space","space","f","488","NA","3883","48089","8048","33040","488","2","legacy","1024","2","48000","-16","task","5226271","odd","NA","72725","78613","74729","218299","5808","61959","53909","218801","166481","218297","218801","218245","78613","219291","70808","217745","5760","205491","Lexical Decision Task","60","42660","66","yes","1024"
"3.347850856","10.51","2","rich","word","91.04477611940298","91.04477611940298","643.6268656716418","643.6268656716418","black","no","legacy","legacy","legacy","0","uniform","1","undefined","undefined","undefined","1","j","0","0","0","0","66","0","0","0","66","0","62","66","62","0","62","3","66","0","66","Fri Feb 19 15:48:35 2021","The main experiment item","yes","Lexical_Decision_Task.osexp","/Users/meganosborne-shaw","no","Andale Mono","no","18","no","white","no","yes","576","legacy","62","62","3","/Users/meganosborne-shaw/Downloads/subject-5226271.csv","legacy","Lentiform Loewenfeld","3.3.7","yes","yes","600bd7cfb6416f0113b04181","602110864497cf011d9c0822","0","j","NA","j","space","space","space","j","463","NA","3883","48089","8048","33040","463","2","legacy","1024","2","48000","-16","task","5226271","odd","NA","72725","78613","74729","219850","5808","61959","53909","220352","166481","219847","220353","219795","78613","220817","70808","219294","5760","205491","Lexical Decision Task","61","43123","67","yes","1024"
"3.474361976","5.24","6","veer","word","91.17647058823529","91.17647058823529","642.7941176470588","642.7941176470588","black","no","legacy","legacy","legacy","0","uniform","1","undefined","undefined","undefined","1","j","0","0","0","0","67","0","0","0","67","0","63","67","63","0","63","3","67","0","67","Fri Feb 19 15:48:35 2021","The main experiment item","yes","Lexical_Decision_Task.osexp","/Users/meganosborne-shaw","no","Andale Mono","no","18","no","white","no","yes","576","legacy","63","63","3","/Users/meganosborne-shaw/Downloads/subject-5226271.csv","legacy","Lentiform Loewenfeld","3.3.7","yes","yes","600bd7cfb6416f0113b04181","602110864497cf011d9c0822","0","j","NA","j","space","space","space","j","587","NA","3883","48089","8048","33040","587","2","legacy","1024","2","48000","-16","task","5226271","odd","NA","72725","78613","74729","221377","5808","61959","53909","221880","166481","221375","221880","221323","78613","222469","70808","220823","5760","205491","Lexical Decision Task","62","43710","68","yes","1024"
"2.767650507","0","6","yolt","non-word","91.30434782608695","91.30434782608695","643.072463768116","643.072463768116","black","no","legacy","legacy","legacy","0","uniform","1","undefined","undefined","undefined","1","f","0","0","0","0","68","0","0","0","68","0","64","68","64","0","64","3","68","0","68","Fri Feb 19 15:48:35 2021","The main experiment item","yes","Lexical_Decision_Task.osexp","/Users/meganosborne-shaw","no","Andale Mono","no","18","no","white","no","yes","576","legacy","64","64","3","/Users/meganosborne-shaw/Downloads/subject-5226271.csv","legacy","Lentiform Loewenfeld","3.3.7","yes","yes","600bd7cfb6416f0113b04181","602110864497cf011d9c0822","0","f","NA","j","space","space","space","f","662","NA","3883","48089","8048","33040","662","2","legacy","1024","2","48000","-16","task","5226271","odd","NA","72725","78613","74729","223029","5808","61959","53909","223532","166481","223027","223532","222974","78613","224195","70808","222474","5760","205491","Lexical Decision Task","63","44372","69","yes","1024"
"3.067070856","9.39","3","loud","word","91.42857142857143","91.42857142857143","640.9857142857143","640.9857142857143","black","no","legacy","legacy","legacy","0","uniform","1","undefined","undefined","undefined","1","j","0","0","0","0","69","0","0","0","69","0","65","69","65","0","65","3","69","0","69","Fri Feb 19 15:48:35 2021","The main experiment item","yes","Lexical_Decision_Task.osexp","/Users/meganosborne-shaw","no","Andale Mono","no","18","no","white","no","yes","576","legacy","65","65","3","/Users/meganosborne-shaw/Downloads/subject-5226271.csv","legacy","Lentiform Loewenfeld","3.3.7","yes","yes","600bd7cfb6416f0113b04181","602110864497cf011d9c0822","0","j","NA","j","space","space","space","j","497","NA","3883","48089","8048","33040","497","2","legacy","1024","2","48000","-16","task","5226271","odd","NA","72725","78613","74729","224756","5808","61959","53909","225258","166481","224753","225259","224700","78613","225757","70808","224200","5760","205491","Lexical Decision Task","64","44869","70","yes","1024"
"2.873320602","0","4","lurg","non-word","91.54929577464789","91.54929577464789","637.887323943662","637.887323943662","black","no","legacy","legacy","legacy","0","uniform","1","undefined","undefined","undefined","1","f","0","0","0","0","70","0","0","0","70","0","66","70","66","0","66","3","70","0","70","Fri Feb 19 15:48:35 2021","The main experiment item","yes","Lexical_Decision_Task.osexp","/Users/meganosborne-shaw","no","Andale Mono","no","18","no","white","no","yes","576","legacy","66","66","3","/Users/meganosborne-shaw/Downloads/subject-5226271.csv","legacy","Lentiform Loewenfeld","3.3.7","yes","yes","600bd7cfb6416f0113b04181","602110864497cf011d9c0822","0","f","NA","j","space","space","space","f","421","NA","3883","48089","8048","33040","421","2","legacy","1024","2","48000","-16","task","5226271","odd","NA","72725","78613","74729","226317","5808","61959","53909","226820","166481","226314","226820","226263","78613","227242","70808","225763","5760","205491","Lexical Decision Task","65","45290","71","yes","1024"
"3.303771854","0","9","dath","non-word","91.66666666666667","91.66666666666667","635.9583333333334","635.9583333333334","black","no","legacy","legacy","legacy","0","uniform","1","undefined","undefined","undefined","1","f","0","0","0","0","71","0","0","0","71","0","67","71","67","0","67","3","71","0","71","Fri Feb 19 15:48:35 2021","The main experiment item","yes","Lexical_Decision_Task.osexp","/Users/meganosborne-shaw","no","Andale Mono","no","18","no","white","no","yes","576","legacy","67","67","3","/Users/meganosborne-shaw/Downloads/subject-5226271.csv","legacy","Lentiform Loewenfeld","3.3.7","yes","yes","600bd7cfb6416f0113b04181","602110864497cf011d9c0822","0","f","NA","j","space","space","space","f","499","NA","3883","48089","8048","33040","499","2","legacy","1024","2","48000","-16","task","5226271","odd","NA","72725","78613","74729","227802","5808","61959","53909","228305","166481","227800","228305","227748","78613","228805","70808","227247","5760","205491","Lexical Decision Task","66","45789","72","yes","1024"
"3.195807436","0","6","stup","non-word","91.78082191780823","91.78082191780823","634.3150684931506","634.3150684931506","black","no","legacy","legacy","legacy","0","uniform","1","undefined","undefined","undefined","1","f","0","0","0","0","72","0","0","0","72","0","68","72","68","0","68","3","72","0","72","Fri Feb 19 15:48:35 2021","The main experiment item","yes","Lexical_Decision_Task.osexp","/Users/meganosborne-shaw","no","Andale Mono","no","18","no","white","no","yes","576","legacy","68","68","3","/Users/meganosborne-shaw/Downloads/subject-5226271.csv","legacy","Lentiform Loewenfeld","3.3.7","yes","yes","600bd7cfb6416f0113b04181","602110864497cf011d9c0822","0","f","NA","j","space","space","space","f","516","NA","3883","48089","8048","33040","516","2","legacy","1024","2","48000","-16","task","5226271","odd","NA","72725","78613","74729","229364","5808","61959","53909","229867","166481","229361","229867","229309","78613","230384","70808","228809","5760","205491","Lexical Decision Task","67","46305","73","yes","1024"
"3.29439347","8.6","9","wand","word","91.89189189189189","91.89189189189189","632.1891891891892","632.1891891891892","black","no","legacy","legacy","legacy","0","uniform","1","undefined","undefined","undefined","1","j","0","0","0","0","73","0","0","0","73","0","69","73","69","0","69","3","73","0","73","Fri Feb 19 15:48:35 2021","The main experiment item","yes","Lexical_Decision_Task.osexp","/Users/meganosborne-shaw","no","Andale Mono","no","18","no","white","no","yes","576","legacy","69","69","3","/Users/meganosborne-shaw/Downloads/subject-5226271.csv","legacy","Lentiform Loewenfeld","3.3.7","yes","yes","600bd7cfb6416f0113b04181","602110864497cf011d9c0822","0","j","NA","j","space","space","space","j","477","NA","3883","48089","8048","33040","477","2","legacy","1024","2","48000","-16","task","5226271","odd","NA","72725","78613","74729","230945","5808","61959","53909","231447","166481","230943","231448","230890","78613","231926","70808","230389","5760","205491","Lexical Decision Task","68","46782","74","yes","1024"
"3.137775856","7.39","5","comb","word","92","92","630.8133333333334","630.8133333333334","black","no","legacy","legacy","legacy","0","uniform","1","undefined","undefined","undefined","1","j","0","0","0","0","74","0","0","0","74","0","70","74","70","0","70","3","74","0","74","Fri Feb 19 15:48:35 2021","The main experiment item","yes","Lexical_Decision_Task.osexp","/Users/meganosborne-shaw","no","Andale Mono","no","18","no","white","no","yes","576","legacy","70","70","3","/Users/meganosborne-shaw/Downloads/subject-5226271.csv","legacy","Lentiform Loewenfeld","3.3.7","yes","yes","600bd7cfb6416f0113b04181","602110864497cf011d9c0822","0","j","NA","j","space","space","space","j","529","NA","3883","48089","8048","33040","529","2","legacy","1024","2","48000","-16","task","5226271","odd","NA","72725","78613","74729","232486","5808","61959","53909","232988","166481","232484","232989","232432","78613","233519","70808","231932","5760","205491","Lexical Decision Task","69","47311","75","yes","1024"
"3.431095062","5.74","9","perk","word","92.10526315789474","92.10526315789474","629.2368421052631","629.2368421052631","black","no","legacy","legacy","legacy","0","uniform","1","undefined","undefined","undefined","1","j","0","0","0","0","75","0","0","0","75","0","71","75","71","0","71","3","75","0","75","Fri Feb 19 15:48:35 2021","The main experiment item","yes","Lexical_Decision_Task.osexp","/Users/meganosborne-shaw","no","Andale Mono","no","18","no","white","no","yes","576","legacy","71","71","3","/Users/meganosborne-shaw/Downloads/subject-5226271.csv","legacy","Lentiform Loewenfeld","3.3.7","yes","yes","600bd7cfb6416f0113b04181","602110864497cf011d9c0822","0","j","NA","j","space","space","space","j","511","NA","3883","48089","8048","33040","511","2","legacy","1024","2","48000","-16","task","5226271","odd","NA","72725","78613","74729","234077","5808","61959","53909","234580","166481","234075","234580","234023","78613","235093","70808","233523","5760","205491","Lexical Decision Task","70","47822","76","yes","1024"
"2.839268497","0","8","maft","non-word","92.20779220779221","92.20779220779221","627.5714285714286","627.5714285714286","black","no","legacy","legacy","legacy","0","uniform","1","undefined","undefined","undefined","1","f","0","0","0","0","76","0","0","0","76","0","72","76","72","0","72","3","76","0","76","Fri Feb 19 15:48:35 2021","The main experiment item","yes","Lexical_Decision_Task.osexp","/Users/meganosborne-shaw","no","Andale Mono","no","18","no","white","no","yes","576","legacy","72","72","3","/Users/meganosborne-shaw/Downloads/subject-5226271.csv","legacy","Lentiform Loewenfeld","3.3.7","yes","yes","600bd7cfb6416f0113b04181","602110864497cf011d9c0822","0","f","NA","j","space","space","space","f","501","NA","3883","48089","8048","33040","501","2","legacy","1024","2","48000","-16","task","5226271","odd","NA","72725","78613","74729","235653","5808","61959","53909","236156","166481","235651","236156","235599","78613","236658","70808","235099","5760","205491","Lexical Decision Task","71","48323","77","yes","1024"
"3.100255637","0","6","brax","non-word","92.3076923076923","92.3076923076923","625.474358974359","625.474358974359","black","no","legacy","legacy","legacy","0","uniform","1","undefined","undefined","undefined","1","f","0","0","0","0","77","0","0","0","77","0","73","77","73","0","73","3","77","0","77","Fri Feb 19 15:48:35 2021","The main experiment item","yes","Lexical_Decision_Task.osexp","/Users/meganosborne-shaw","no","Andale Mono","no","18","no","white","no","yes","576","legacy","73","73","3","/Users/meganosborne-shaw/Downloads/subject-5226271.csv","legacy","Lentiform Loewenfeld","3.3.7","yes","yes","600bd7cfb6416f0113b04181","602110864497cf011d9c0822","0","f","NA","j","space","space","space","f","464","NA","3883","48089","8048","33040","464","2","legacy","1024","2","48000","-16","task","5226271","odd","NA","72725","78613","74729","237217","5808","61959","53909","237720","166481","237215","237721","237163","78613","238187","70808","236663","5760","205491","Lexical Decision Task","72","48787","78","yes","1024"
"3.174641193","0","3","ramb","non-word","92.40506329113924","92.40506329113924","625.3291139240506","625.3291139240506","black","no","legacy","legacy","legacy","0","uniform","1","undefined","undefined","undefined","1","f","0","0","0","0","78","0","0","0","78","0","74","78","74","0","74","3","78","0","78","Fri Feb 19 15:48:35 2021","The main experiment item","yes","Lexical_Decision_Task.osexp","/Users/meganosborne-shaw","no","Andale Mono","no","18","no","white","no","yes","576","legacy","74","74","3","/Users/meganosborne-shaw/Downloads/subject-5226271.csv","legacy","Lentiform Loewenfeld","3.3.7","yes","yes","600bd7cfb6416f0113b04181","602110864497cf011d9c0822","0","f","NA","j","space","space","space","f","614","NA","3883","48089","8048","33040","614","2","legacy","1024","2","48000","-16","task","5226271","odd","NA","72725","78613","74729","238747","5808","61959","53909","239249","166481","238744","239250","238692","78613","239865","70808","238192","5760","205491","Lexical Decision Task","73","49401","79","yes","1024"
"2.714888338","0","3","brug","non-word","92.5","92.5","624.5","624.5","black","no","legacy","legacy","legacy","0","uniform","1","undefined","undefined","undefined","1","f","0","0","0","0","79","0","0","0","79","0","75","79","75","0","75","3","79","0","79","Fri Feb 19 15:48:35 2021","The main experiment item","yes","Lexical_Decision_Task.osexp","/Users/meganosborne-shaw","no","Andale Mono","no","18","no","white","no","yes","576","legacy","75","75","3","/Users/meganosborne-shaw/Downloads/subject-5226271.csv","legacy","Lentiform Loewenfeld","3.3.7","yes","yes","600bd7cfb6416f0113b04181","602110864497cf011d9c0822","0","f","NA","j","space","space","space","f","559","NA","3883","48089","8048","33040","559","2","legacy","1024","2","48000","-16","task","5226271","odd","NA","72725","78613","74729","240426","5808","61959","53909","240929","166481","240424","240929","240372","78613","241490","70808","239872","5760","205491","Lexical Decision Task","74","49960","80","yes","1024"
"2.709837904","6.85","8","skim","word","92.5925925925926","92.5925925925926","624.9629629629629","624.9629629629629","black","no","legacy","legacy","legacy","0","uniform","1","undefined","undefined","undefined","1","j","0","0","0","0","80","0","0","0","80","0","76","80","76","0","76","3","80","0","80","Fri Feb 19 15:48:35 2021","The main experiment item","yes","Lexical_Decision_Task.osexp","/Users/meganosborne-shaw","no","Andale Mono","no","18","no","white","no","yes","576","legacy","76","76","3","/Users/meganosborne-shaw/Downloads/subject-5226271.csv","legacy","Lentiform Loewenfeld","3.3.7","yes","yes","600bd7cfb6416f0113b04181","602110864497cf011d9c0822","0","j","NA","j","space","space","space","j","662","NA","3883","48089","8048","33040","662","2","legacy","1024","2","48000","-16","task","5226271","odd","NA","72725","78613","74729","242048","5808","61959","53909","242550","166481","242046","242551","241995","78613","243214","70808","241494","5760","205491","Lexical Decision Task","75","50622","81","yes","1024"
"2.695481676","0","7","goke","non-word","92.6829268292683","92.6829268292683","622.560975609756","622.560975609756","black","no","legacy","legacy","legacy","0","uniform","1","undefined","undefined","undefined","1","f","0","0","0","0","81","0","0","0","81","0","77","81","77","0","77","3","81","0","81","Fri Feb 19 15:48:35 2021","The main experiment item","yes","Lexical_Decision_Task.osexp","/Users/meganosborne-shaw","no","Andale Mono","no","18","no","white","no","yes","576","legacy","77","77","3","/Users/meganosborne-shaw/Downloads/subject-5226271.csv","legacy","Lentiform Loewenfeld","3.3.7","yes","yes","600bd7cfb6416f0113b04181","602110864497cf011d9c0822","0","f","NA","j","space","space","space","f","428","NA","3883","48089","8048","33040","428","2","legacy","1024","2","48000","-16","task","5226271","odd","NA","72725","78613","74729","243772","5808","61959","53909","244276","166481","243769","244276","243718","78613","244706","70808","243218","5760","205491","Lexical Decision Task","76","51050","82","yes","1024"
"3.145920145","8.51","8","flew","word","92.7710843373494","92.7710843373494","621.0120481927711","621.0120481927711","black","no","legacy","legacy","legacy","0","uniform","1","undefined","undefined","undefined","1","j","0","0","0","0","82","0","0","0","82","0","78","82","78","0","78","3","82","0","82","Fri Feb 19 15:48:35 2021","The main experiment item","yes","Lexical_Decision_Task.osexp","/Users/meganosborne-shaw","no","Andale Mono","no","18","no","white","no","yes","576","legacy","78","78","3","/Users/meganosborne-shaw/Downloads/subject-5226271.csv","legacy","Lentiform Loewenfeld","3.3.7","yes","yes","600bd7cfb6416f0113b04181","602110864497cf011d9c0822","0","j","NA","j","space","space","space","j","494","NA","3883","48089","8048","33040","494","2","legacy","1024","2","48000","-16","task","5226271","odd","NA","72725","78613","74729","245264","5808","61959","53909","245767","166481","245262","245767","245210","78613","246263","70808","244710","5760","205491","Lexical Decision Task","77","51544","83","yes","1024"
"3.2757719","0","5","slea","non-word","92.85714285714286","92.85714285714286","619.1309523809524","619.1309523809524","black","no","legacy","legacy","legacy","0","uniform","1","undefined","undefined","undefined","1","f","0","0","0","0","83","0","0","0","83","0","79","83","79","0","79","3","83","0","83","Fri Feb 19 15:48:35 2021","The main experiment item","yes","Lexical_Decision_Task.osexp","/Users/meganosborne-shaw","no","Andale Mono","no","18","no","white","no","yes","576","legacy","79","79","3","/Users/meganosborne-shaw/Downloads/subject-5226271.csv","legacy","Lentiform Loewenfeld","3.3.7","yes","yes","600bd7cfb6416f0113b04181","602110864497cf011d9c0822","0","f","NA","j","space","space","space","f","463","NA","3883","48089","8048","33040","463","2","legacy","1024","2","48000","-16","task","5226271","odd","NA","72725","78613","74729","246822","5808","61959","53909","247325","166481","246819","247325","246768","78613","247790","70808","246267","5760","205491","Lexical Decision Task","78","52007","84","yes","1024"
"2.899638141","0","3","hapt","non-word","92.94117647058823","92.94117647058823","617.8","617.8","black","no","legacy","legacy","legacy","0","uniform","1","undefined","undefined","undefined","1","f","0","0","0","0","84","0","0","0","84","0","80","84","80","0","80","3","84","0","84","Fri Feb 19 15:48:35 2021","The main experiment item","yes","Lexical_Decision_Task.osexp","/Users/meganosborne-shaw","no","Andale Mono","no","18","no","white","no","yes","576","legacy","80","80","3","/Users/meganosborne-shaw/Downloads/subject-5226271.csv","legacy","Lentiform Loewenfeld","3.3.7","yes","yes","600bd7cfb6416f0113b04181","602110864497cf011d9c0822","0","f","NA","j","space","space","space","f","506","NA","3883","48089","8048","33040","506","2","legacy","1024","2","48000","-16","task","5226271","odd","NA","72725","78613","74729","248349","5808","61959","53909","248854","166481","248346","248855","248294","78613","249363","70808","247794","5760","205491","Lexical Decision Task","79","52513","85","yes","1024"
"3.257359335","8","6","brew","word","93.02325581395348","93.02325581395348","616.8720930232558","616.8720930232558","black","no","legacy","legacy","legacy","0","uniform","1","undefined","undefined","undefined","1","j","0","0","0","0","85","0","0","0","85","0","81","85","81","0","81","3","85","0","85","Fri Feb 19 15:48:35 2021","The main experiment item","yes","Lexical_Decision_Task.osexp","/Users/meganosborne-shaw","no","Andale Mono","no","18","no","white","no","yes","576","legacy","81","81","3","/Users/meganosborne-shaw/Downloads/subject-5226271.csv","legacy","Lentiform Loewenfeld","3.3.7","yes","yes","600bd7cfb6416f0113b04181","602110864497cf011d9c0822","0","j","NA","j","space","space","space","j","538","NA","3883","48089","8048","33040","538","2","legacy","1024","2","48000","-16","task","5226271","odd","NA","72725","78613","74729","249923","5808","61959","53909","250426","166481","249920","250427","249868","78613","250966","70808","249368","5760","205491","Lexical Decision Task","80","53051","86","yes","1024"
"2.8162413","0","5","nusk","non-word","93.10344827586206","93.10344827586206","615.6321839080459","615.6321839080459","black","no","legacy","legacy","legacy","0","uniform","1","undefined","undefined","undefined","1","f","0","0","0","0","86","0","0","0","86","0","82","86","82","0","82","3","86","0","86","Fri Feb 19 15:48:35 2021","The main experiment item","yes","Lexical_Decision_Task.osexp","/Users/meganosborne-shaw","no","Andale Mono","no","18","no","white","no","yes","576","legacy","82","82","3","/Users/meganosborne-shaw/Downloads/subject-5226271.csv","legacy","Lentiform Loewenfeld","3.3.7","yes","yes","600bd7cfb6416f0113b04181","602110864497cf011d9c0822","0","f","NA","j","space","space","space","f","509","NA","3883","48089","8048","33040","509","2","legacy","1024","2","48000","-16","task","5226271","odd","NA","72725","78613","74729","251526","5808","61959","53909","252030","166481","251523","252030","251471","78613","252541","70808","250971","5760","205491","Lexical Decision Task","81","53560","87","yes","1024"
"3.307211407","6.07","7","honk","word","92.04545454545455","92.04545454545455","613.7840909090909","613.7840909090909","black","no","legacy","legacy","legacy","0","uniform","0","undefined","undefined","undefined","0","j","0","0","0","0","87","0","0","0","87","0","83","87","83","0","83","3","87","0","87","Fri Feb 19 15:48:35 2021","The main experiment item","yes","Lexical_Decision_Task.osexp","/Users/meganosborne-shaw","no","Andale Mono","no","18","no","white","no","yes","576","legacy","83","83","3","/Users/meganosborne-shaw/Downloads/subject-5226271.csv","legacy","Lentiform Loewenfeld","3.3.7","yes","yes","600bd7cfb6416f0113b04181","602110864497cf011d9c0822","0","f","NA","j","space","space","space","f","453","NA","3883","48089","8048","33040","453","2","legacy","1024","2","48000","-16","task","5226271","odd","NA","72725","78613","74729","253101","5808","61959","53909","253604","166481","253098","253604","253046","78613","254059","70808","252546","5760","205491","Lexical Decision Task","81","54013","88","yes","1024"
"3.153001286","8.7","5","palm","word","92.13483146067416","92.13483146067416","611.5393258426966","611.5393258426966","black","no","legacy","legacy","legacy","0","uniform","1","undefined","undefined","undefined","1","j","0","0","0","0","88","0","0","0","88","0","84","88","84","0","84","3","88","0","88","Fri Feb 19 15:48:35 2021","The main experiment item","yes","Lexical_Decision_Task.osexp","/Users/meganosborne-shaw","no","Andale Mono","no","18","no","white","no","yes","576","legacy","84","84","3","/Users/meganosborne-shaw/Downloads/subject-5226271.csv","legacy","Lentiform Loewenfeld","3.3.7","yes","yes","600bd7cfb6416f0113b04181","602110864497cf011d9c0822","0","j","NA","j","space","space","space","j","414","NA","3883","48089","8048","33040","414","2","legacy","1024","2","48000","-16","task","5226271","odd","NA","72725","78613","74729","255622","5808","61959","53909","256125","166481","255620","256125","255564","78613","256541","70808","252546","5760","254064","Lexical Decision Task","82","54427","89","yes","1024"
"2.82129731","6.72","5","plum","word","92.22222222222223","92.22222222222223","609.6777777777778","609.6777777777778","black","no","legacy","legacy","legacy","0","uniform","1","undefined","undefined","undefined","1","j","0","0","0","0","89","0","0","0","89","0","85","89","85","0","85","3","89","0","89","Fri Feb 19 15:48:35 2021","The main experiment item","yes","Lexical_Decision_Task.osexp","/Users/meganosborne-shaw","no","Andale Mono","no","18","no","white","no","yes","576","legacy","85","85","3","/Users/meganosborne-shaw/Downloads/subject-5226271.csv","legacy","Lentiform Loewenfeld","3.3.7","yes","yes","600bd7cfb6416f0113b04181","602110864497cf011d9c0822","0","j","NA","j","space","space","space","j","444","NA","3883","48089","8048","33040","444","2","legacy","1024","2","48000","-16","task","5226271","odd","NA","72725","78613","74729","257099","5808","61959","53909","257602","166481","257096","257602","257045","78613","258048","70808","256545","5760","254064","Lexical Decision Task","83","54871","90","yes","1024"
"2.809559715","8.44","4","volt","word","92.3076923076923","92.3076923076923","607.4065934065934","607.4065934065934","black","no","legacy","legacy","legacy","0","uniform","1","undefined","undefined","undefined","1","j","0","0","0","0","90","0","0","0","90","0","86","90","86","0","86","3","90","0","90","Fri Feb 19 15:48:35 2021","The main experiment item","yes","Lexical_Decision_Task.osexp","/Users/meganosborne-shaw","no","Andale Mono","no","18","no","white","no","yes","576","legacy","86","86","3","/Users/meganosborne-shaw/Downloads/subject-5226271.csv","legacy","Lentiform Loewenfeld","3.3.7","yes","yes","600bd7cfb6416f0113b04181","602110864497cf011d9c0822","0","j","NA","j","space","space","space","j","403","NA","3883","48089","8048","33040","403","2","legacy","1024","2","48000","-16","task","5226271","odd","NA","72725","78613","74729","258608","5808","61959","53909","259111","166481","258606","259111","258553","78613","259516","70808","258053","5760","254064","Lexical Decision Task","84","55274","91","yes","1024"
"3.081107167","0","6","chot","non-word","92.3913043478261","92.3913043478261","605.6195652173913","605.6195652173913","black","no","legacy","legacy","legacy","0","uniform","1","undefined","undefined","undefined","1","f","0","0","0","0","91","0","0","0","91","0","87","91","87","0","87","3","91","0","91","Fri Feb 19 15:48:35 2021","The main experiment item","yes","Lexical_Decision_Task.osexp","/Users/meganosborne-shaw","no","Andale Mono","no","18","no","white","no","yes","576","legacy","87","87","3","/Users/meganosborne-shaw/Downloads/subject-5226271.csv","legacy","Lentiform Loewenfeld","3.3.7","yes","yes","600bd7cfb6416f0113b04181","602110864497cf011d9c0822","0","f","NA","j","space","space","space","f","443","NA","3883","48089","8048","33040","443","2","legacy","1024","2","48000","-16","task","5226271","odd","NA","72725","78613","74729","260075","5808","61959","53909","260577","166481","260072","260578","260021","78613","261023","70808","259521","5760","254064","Lexical Decision Task","85","55717","92","yes","1024"
"2.728085817","10.02","9","bike","word","92.47311827956989","92.47311827956989","603.2258064516129","603.2258064516129","black","no","legacy","legacy","legacy","0","uniform","1","undefined","undefined","undefined","1","j","0","0","0","0","92","0","0","0","92","0","88","92","88","0","88","3","92","0","92","Fri Feb 19 15:48:35 2021","The main experiment item","yes","Lexical_Decision_Task.osexp","/Users/meganosborne-shaw","no","Andale Mono","no","18","no","white","no","yes","576","legacy","88","88","3","/Users/meganosborne-shaw/Downloads/subject-5226271.csv","legacy","Lentiform Loewenfeld","3.3.7","yes","yes","600bd7cfb6416f0113b04181","602110864497cf011d9c0822","0","j","NA","j","space","space","space","j","383","NA","3883","48089","8048","33040","383","2","legacy","1024","2","48000","-16","task","5226271","odd","NA","72725","78613","74729","261581","5808","61959","53909","262084","166481","261579","262084","261527","78613","262469","70808","261027","5760","254064","Lexical Decision Task","86","56100","93","yes","1024"
"3.197740804","6.74","3","ache","word","92.55319148936171","92.55319148936171","602.5851063829788","602.5851063829788","black","no","legacy","legacy","legacy","0","uniform","1","undefined","undefined","undefined","1","j","0","0","0","0","93","0","0","0","93","0","89","93","89","0","89","3","93","0","93","Fri Feb 19 15:48:35 2021","The main experiment item","yes","Lexical_Decision_Task.osexp","/Users/meganosborne-shaw","no","Andale Mono","no","18","no","white","no","yes","576","legacy","89","89","3","/Users/meganosborne-shaw/Downloads/subject-5226271.csv","legacy","Lentiform Loewenfeld","3.3.7","yes","yes","600bd7cfb6416f0113b04181","602110864497cf011d9c0822","0","j","NA","j","space","space","space","j","543","NA","3883","48089","8048","33040","543","2","legacy","1024","2","48000","-16","task","5226271","odd","NA","72725","78613","74729","263028","5808","61959","53909","263531","166481","263025","263531","262974","78613","264076","70808","262473","5760","254064","Lexical Decision Task","87","56643","94","yes","1024"
"2.858136002","0","4","phip","non-word","92.63157894736842","92.63157894736842","600.9157894736842","600.9157894736842","black","no","legacy","legacy","legacy","0","uniform","1","undefined","undefined","undefined","1","f","0","0","0","0","94","0","0","0","94","0","90","94","90","0","90","3","94","0","94","Fri Feb 19 15:48:35 2021","The main experiment item","yes","Lexical_Decision_Task.osexp","/Users/meganosborne-shaw","no","Andale Mono","no","18","no","white","no","yes","576","legacy","90","90","3","/Users/meganosborne-shaw/Downloads/subject-5226271.csv","legacy","Lentiform Loewenfeld","3.3.7","yes","yes","600bd7cfb6416f0113b04181","602110864497cf011d9c0822","0","f","NA","j","space","space","space","f","444","NA","3883","48089","8048","33040","444","2","legacy","1024","2","48000","-16","task","5226271","odd","NA","72725","78613","74729","264637","5808","61959","53909","265141","166481","264634","265141","264581","78613","265587","70808","264081","5760","254064","Lexical Decision Task","88","57087","95","yes","1024"
"2.67699827","0","6","hulf","non-word","92.70833333333333","92.70833333333333","599.96875","599.96875","black","no","legacy","legacy","legacy","0","uniform","1","undefined","undefined","undefined","1","f","0","0","0","0","95","0","0","0","95","0","91","95","91","0","91","3","95","0","95","Fri Feb 19 15:48:35 2021","The main experiment item","yes","Lexical_Decision_Task.osexp","/Users/meganosborne-shaw","no","Andale Mono","no","18","no","white","no","yes","576","legacy","91","91","3","/Users/meganosborne-shaw/Downloads/subject-5226271.csv","legacy","Lentiform Loewenfeld","3.3.7","yes","yes","600bd7cfb6416f0113b04181","602110864497cf011d9c0822","0","f","NA","j","space","space","space","f","510","NA","3883","48089","8048","33040","510","2","legacy","1024","2","48000","-16","task","5226271","odd","NA","72725","78613","74729","266146","5808","61959","53909","266648","166481","266143","266649","266092","78613","267161","70808","265591","5760","254064","Lexical Decision Task","89","57597","96","yes","1024"
"2.972819734","0","4","scew","non-word","91.75257731958763","91.75257731958763","599.0927835051547","599.0927835051547","black","no","legacy","legacy","legacy","0","uniform","0","undefined","undefined","undefined","0","f","0","0","0","0","96","0","0","0","96","0","92","96","92","0","92","3","96","0","96","Fri Feb 19 15:48:35 2021","The main experiment item","yes","Lexical_Decision_Task.osexp","/Users/meganosborne-shaw","no","Andale Mono","no","18","no","white","no","yes","576","legacy","92","92","3","/Users/meganosborne-shaw/Downloads/subject-5226271.csv","legacy","Lentiform Loewenfeld","3.3.7","yes","yes","600bd7cfb6416f0113b04181","602110864497cf011d9c0822","0","j","NA","j","space","space","space","j","515","NA","3883","48089","8048","33040","515","2","legacy","1024","2","48000","-16","task","5226271","odd","NA","72725","78613","74729","267720","5808","61959","53909","268223","166481","267718","268223","267666","78613","268740","70808","267166","5760","254064","Lexical Decision Task","89","58112","97","yes","1024"
"3.440331212","7.35","6","stew","word","91.83673469387755","91.83673469387755","597.0816326530612","597.0816326530612","black","no","legacy","legacy","legacy","0","uniform","1","undefined","undefined","undefined","1","j","0","0","0","0","97","0","0","0","97","0","93","97","93","0","93","3","97","0","97","Fri Feb 19 15:48:35 2021","The main experiment item","yes","Lexical_Decision_Task.osexp","/Users/meganosborne-shaw","no","Andale Mono","no","18","no","white","no","yes","576","legacy","93","93","3","/Users/meganosborne-shaw/Downloads/subject-5226271.csv","legacy","Lentiform Loewenfeld","3.3.7","yes","yes","600bd7cfb6416f0113b04181","602110864497cf011d9c0822","0","j","NA","j","space","space","space","j","402","NA","3883","48089","8048","33040","402","2","legacy","1024","2","48000","-16","task","5226271","odd","NA","72725","78613","74729","270303","5808","61959","53909","270805","166481","270300","270806","270245","78613","271211","70808","267166","5760","268745","Lexical Decision Task","90","58514","98","yes","1024"
"2.814027728","8.2","4","foam","word","91.91919191919192","91.91919191919192","596.020202020202","596.020202020202","black","no","legacy","legacy","legacy","0","uniform","1","undefined","undefined","undefined","1","j","0","0","0","0","98","0","0","0","98","0","94","98","94","0","94","3","98","0","98","Fri Feb 19 15:48:35 2021","The main experiment item","yes","Lexical_Decision_Task.osexp","/Users/meganosborne-shaw","no","Andale Mono","no","18","no","white","no","yes","576","legacy","94","94","3","/Users/meganosborne-shaw/Downloads/subject-5226271.csv","legacy","Lentiform Loewenfeld","3.3.7","yes","yes","600bd7cfb6416f0113b04181","602110864497cf011d9c0822","0","j","NA","j","space","space","space","j","492","NA","3883","48089","8048","33040","492","2","legacy","1024","2","48000","-16","task","5226271","odd","NA","72725","78613","74729","271773","5808","61959","53909","272276","166481","271770","272276","271718","78613","272769","70808","271218","5760","268745","Lexical Decision Task","91","59006","99","yes","1024"
"2.892836167","10.01","5","soft","word","92","92","593.36","593.36","black","no","legacy","legacy","legacy","0","uniform","1","undefined","undefined","undefined","1","j","0","0","0","0","99","0","0","0","99","0","95","99","95","0","95","3","99","0","99","Fri Feb 19 15:48:35 2021","The main experiment item","yes","Lexical_Decision_Task.osexp","/Users/meganosborne-shaw","no","Andale Mono","no","18","no","white","no","yes","576","legacy","95","95","3","/Users/meganosborne-shaw/Downloads/subject-5226271.csv","legacy","Lentiform Loewenfeld","3.3.7","yes","yes","600bd7cfb6416f0113b04181","602110864497cf011d9c0822","0","j","NA","j","space","space","space","j","330","NA","3883","48089","8048","33040","330","2","legacy","1024","2","48000","-16","task","5226271","odd","NA","72725","78613","74729","273329","5808","61959","53909","273831","166481","273326","273832","273275","78613","274163","70808","272774","5760","268745","Lexical Decision Task","92","59336","100","yes","1024"
