"Log_BG","Log_Freq_HAL","Ortho_N","Stimulus","Type","acc","accuracy","average_response_time","avg_rt","background","bidi","canvas_backend","clock_backend","color_backend","compensation","coordinates","correct","correct_Experimental_intro","correct_Introduction","correct_Practice_intro","correct_experimenter_kb","correct_response","count_End_Of_Experiment","count_End_Of_Practice","count_Experimental_Loop","count_Experimental_intro","count_Fixation","count_Introduction","count_Practice_Loop","count_Practice_intro","count_Stimulus","count_block_break_feedback","count_experimental_sequence","count_experimenter_kb","count_increment_trial_count","count_init_trial_count","count_logger","count_practice_sequence","count_right","count_task","count_wrong","datetime","description","disable_garbage_collection","experiment_file","experiment_path","font_bold","font_family","font_italic","font_size","font_underline","foreground","form_clicks","fullscreen","height","keyboard_backend","live_row","live_row_Experimental_Loop","live_row_Practice_Loop","logfile","mouse_backend","opensesame_codename","opensesame_version","osf_always_upload_data","osf_always_upload_experiment","osf_datanode_id","osf_id","repeat_cycle","response","response_End_Of_Experiment","response_Experimental_intro","response_Introduction","response_Practice_intro","response_block_break_feedback","response_experimenter_kb","response_time","response_time_End_Of_Experiment","response_time_Experimental_intro","response_time_Introduction","response_time_Practice_intro","response_time_block_break_feedback","response_time_experimenter_kb","round_decimals","sampler_backend","sound_buf_size","sound_channels","sound_freq","sound_sample_size","start","subject_nr","subject_parity","time_End_Of_Experiment","time_End_Of_Practice","time_Experimental_Loop","time_Experimental_intro","time_Fixation","time_Introduction","time_Practice_Loop","time_Practice_intro","time_Stimulus","time_block_break_feedback","time_experimental_sequence","time_experimenter_kb","time_increment_trial_count","time_init_trial_count","time_logger","time_practice_sequence","time_right","time_task","time_wrong","title","total_correct","total_response_time","total_responses","uniform_coordinates","width"
"2.899092422","7.27","6","snag","word","100","100","864","864","black","no","legacy","legacy","legacy","0","uniform","1","undefined","undefined","undefined","1","j","0","0","0","0","4","0","0","0","4","NA","0","4","0","0","0","3","4","0","4","Thu Feb 18 14:46:05 2021","The main experiment item","yes","Lexical_Decision_Task.osexp","C:/Users/ellie","no","Andale Mono","no","18","no","white","no","yes","576","legacy","0","0","3","C:/Users/ellie/subject-5226171.csv","legacy","Lentiform Loewenfeld","3.3.7","yes","yes","600bd7cfb6416f0113b04181","602110864497cf011d9c0822","0","j","NA","space","j","j","NA","j","641","NA","2533","8607","3690","NA","641","2","legacy","1024","2","48000","-16","task","5226171","odd","NA","23028","27562","25029","27598","2759","15059","11369","28100","NA","27597","28100","NA","27562","28741","21237","22505","2754","NA","Lexical Decision Task","5","4320","5","yes","1024"
"2.744553742","0","2","nawk","non-word","100","100","842","842","black","no","legacy","legacy","legacy","0","uniform","1","undefined","undefined","undefined","1","f","0","0","0","0","5","0","0","0","5","NA","1","5","1","0","1","3","5","0","5","Thu Feb 18 14:46:05 2021","The main experiment item","yes","Lexical_Decision_Task.osexp","C:/Users/ellie","no","Andale Mono","no","18","no","white","no","yes","576","legacy","1","1","3","C:/Users/ellie/subject-5226171.csv","legacy","Lentiform Loewenfeld","3.3.7","yes","yes","600bd7cfb6416f0113b04181","602110864497cf011d9c0822","0","f","NA","space","j","j","NA","f","732","NA","2533","8607","3690","NA","732","2","legacy","1024","2","48000","-16","task","5226171","odd","NA","23028","27562","25029","29318","2759","15059","11369","29820","NA","29316","29820","29247","27562","30552","21237","28747","2754","NA","Lexical Decision Task","6","5052","6","yes","1024"
"2.895974732","6.65","5","sift","word","100","100","883.8571428571429","883.8571428571429","black","no","legacy","legacy","legacy","0","uniform","1","undefined","undefined","undefined","1","j","0","0","0","0","6","0","0","0","6","NA","2","6","2","0","2","3","6","0","6","Thu Feb 18 14:46:05 2021","The main experiment item","yes","Lexical_Decision_Task.osexp","C:/Users/ellie","no","Andale Mono","no","18","no","white","no","yes","576","legacy","2","2","3","C:/Users/ellie/subject-5226171.csv","legacy","Lentiform Loewenfeld","3.3.7","yes","yes","600bd7cfb6416f0113b04181","602110864497cf011d9c0822","0","j","NA","space","j","j","NA","j","1135","NA","2533","8607","3690","NA","1135","2","legacy","1024","2","48000","-16","task","5226171","odd","NA","23028","27562","25029","31117","2759","15059","11369","31618","NA","31115","31618","31056","27562","32753","21237","30556","2754","NA","Lexical Decision Task","7","6187","7","yes","1024"
"2.8162413","0","5","nusk","non-word","100","100","869","869","black","no","legacy","legacy","legacy","0","uniform","1","undefined","undefined","undefined","1","f","0","0","0","0","7","0","0","0","7","NA","3","7","3","0","3","3","7","0","7","Thu Feb 18 14:46:05 2021","The main experiment item","yes","Lexical_Decision_Task.osexp","C:/Users/ellie","no","Andale Mono","no","18","no","white","no","yes","576","legacy","3","3","3","C:/Users/ellie/subject-5226171.csv","legacy","Lentiform Loewenfeld","3.3.7","yes","yes","600bd7cfb6416f0113b04181","602110864497cf011d9c0822","0","f","NA","space","j","j","NA","f","765","NA","2533","8607","3690","NA","765","2","legacy","1024","2","48000","-16","task","5226171","odd","NA","23028","27562","25029","33314","2759","15059","11369","33816","NA","33313","33816","33257","27562","34582","21237","32757","2754","NA","Lexical Decision Task","8","6952","8","yes","1024"
"3.119255889","6.63","2","itch","word","100","100","829.6666666666666","829.6666666666666","black","no","legacy","legacy","legacy","0","uniform","1","undefined","undefined","undefined","1","j","0","0","0","0","8","0","0","0","8","NA","4","8","4","0","4","3","8","0","8","Thu Feb 18 14:46:05 2021","The main experiment item","yes","Lexical_Decision_Task.osexp","C:/Users/ellie","no","Andale Mono","no","18","no","white","no","yes","576","legacy","4","4","3","C:/Users/ellie/subject-5226171.csv","legacy","Lentiform Loewenfeld","3.3.7","yes","yes","600bd7cfb6416f0113b04181","602110864497cf011d9c0822","0","j","NA","space","j","j","NA","j","515","NA","2533","8607","3690","NA","515","2","legacy","1024","2","48000","-16","task","5226171","odd","NA","23028","27562","25029","35144","2759","15059","11369","35645","NA","35142","35645","35085","27562","36160","21237","34585","2754","NA","Lexical Decision Task","9","7467","9","yes","1024"
"3.077974404","10.41","8","tool","word","100","100","793.6","793.6","black","no","legacy","legacy","legacy","0","uniform","1","undefined","undefined","undefined","1","j","0","0","0","0","9","0","0","0","9","NA","5","9","5","0","5","3","9","0","9","Thu Feb 18 14:46:05 2021","The main experiment item","yes","Lexical_Decision_Task.osexp","C:/Users/ellie","no","Andale Mono","no","18","no","white","no","yes","576","legacy","5","5","3","C:/Users/ellie/subject-5226171.csv","legacy","Lentiform Loewenfeld","3.3.7","yes","yes","600bd7cfb6416f0113b04181","602110864497cf011d9c0822","0","j","NA","space","j","j","NA","j","469","NA","2533","8607","3690","NA","469","2","legacy","1024","2","48000","-16","task","5226171","odd","NA","23028","27562","25029","36723","2759","15059","11369","37225","NA","36722","37225","36664","27562","37694","21237","36164","2754","NA","Lexical Decision Task","10","7936","10","yes","1024"
"2.664011697","8.19","4","hawk","word","100","100","774.2727272727273","774.2727272727273","black","no","legacy","legacy","legacy","0","uniform","1","undefined","undefined","undefined","1","j","0","0","0","0","10","0","0","0","10","NA","6","10","6","0","6","3","10","0","10","Thu Feb 18 14:46:05 2021","The main experiment item","yes","Lexical_Decision_Task.osexp","C:/Users/ellie","no","Andale Mono","no","18","no","white","no","yes","576","legacy","6","6","3","C:/Users/ellie/subject-5226171.csv","legacy","Lentiform Loewenfeld","3.3.7","yes","yes","600bd7cfb6416f0113b04181","602110864497cf011d9c0822","0","j","NA","space","j","j","NA","j","581","NA","2533","8607","3690","NA","581","2","legacy","1024","2","48000","-16","task","5226171","odd","NA","23028","27562","25029","38259","2759","15059","11369","38760","NA","38257","38760","38198","27562","39341","21237","37698","2754","NA","Lexical Decision Task","11","8517","11","yes","1024"
"2.714888338","0","3","brug","non-word","100","100","778.5833333333334","778.5833333333334","black","no","legacy","legacy","legacy","0","uniform","1","undefined","undefined","undefined","1","f","0","0","0","0","11","0","0","0","11","NA","7","11","7","0","7","3","11","0","11","Thu Feb 18 14:46:05 2021","The main experiment item","yes","Lexical_Decision_Task.osexp","C:/Users/ellie","no","Andale Mono","no","18","no","white","no","yes","576","legacy","7","7","3","C:/Users/ellie/subject-5226171.csv","legacy","Lentiform Loewenfeld","3.3.7","yes","yes","600bd7cfb6416f0113b04181","602110864497cf011d9c0822","0","f","NA","space","j","j","NA","f","826","NA","2533","8607","3690","NA","826","2","legacy","1024","2","48000","-16","task","5226171","odd","NA","23028","27562","25029","39900","2759","15059","11369","40402","NA","39898","40402","39845","27562","41228","21237","39345","2754","NA","Lexical Decision Task","12","9343","12","yes","1024"
"2.996511672","0","7","hoil","non-word","100","100","783.6153846153846","783.6153846153846","black","no","legacy","legacy","legacy","0","uniform","1","undefined","undefined","undefined","1","f","0","0","0","0","12","0","0","0","12","NA","8","12","8","0","8","3","12","0","12","Thu Feb 18 14:46:05 2021","The main experiment item","yes","Lexical_Decision_Task.osexp","C:/Users/ellie","no","Andale Mono","no","18","no","white","no","yes","576","legacy","8","8","3","C:/Users/ellie/subject-5226171.csv","legacy","Lentiform Loewenfeld","3.3.7","yes","yes","600bd7cfb6416f0113b04181","602110864497cf011d9c0822","0","f","NA","space","j","j","NA","f","844","NA","2533","8607","3690","NA","844","2","legacy","1024","2","48000","-16","task","5226171","odd","NA","23028","27562","25029","41788","2759","15059","11369","42290","NA","41786","42290","41731","27562","43135","21237","41231","2754","NA","Lexical Decision Task","13","10187","13","yes","1024"
"2.803231716","5.26","3","kiln","word","92.85714285714286","92.85714285714286","774.7142857142857","774.7142857142857","black","no","legacy","legacy","legacy","0","uniform","0","undefined","undefined","undefined","0","j","0","0","0","0","13","0","0","0","13","NA","9","13","9","0","9","3","13","0","13","Thu Feb 18 14:46:05 2021","The main experiment item","yes","Lexical_Decision_Task.osexp","C:/Users/ellie","no","Andale Mono","no","18","no","white","no","yes","576","legacy","9","9","3","C:/Users/ellie/subject-5226171.csv","legacy","Lentiform Loewenfeld","3.3.7","yes","yes","600bd7cfb6416f0113b04181","602110864497cf011d9c0822","0","f","NA","space","j","j","NA","f","659","NA","2533","8607","3690","NA","659","2","legacy","1024","2","48000","-16","task","5226171","odd","NA","23028","27562","25029","43693","2759","15059","11369","44194","NA","43691","44194","43638","27562","44854","21237","43138","2754","NA","Lexical Decision Task","13","10846","14","yes","1024"
"2.695770526","7.34","6","pawn","word","93.33333333333333","93.33333333333333","763.6","763.6","black","no","legacy","legacy","legacy","0","uniform","1","undefined","undefined","undefined","1","j","0","0","0","0","14","0","0","0","14","NA","10","14","10","0","10","3","14","0","14","Thu Feb 18 14:46:05 2021","The main experiment item","yes","Lexical_Decision_Task.osexp","C:/Users/ellie","no","Andale Mono","no","18","no","white","no","yes","576","legacy","10","10","3","C:/Users/ellie/subject-5226171.csv","legacy","Lentiform Loewenfeld","3.3.7","yes","yes","600bd7cfb6416f0113b04181","602110864497cf011d9c0822","0","j","NA","space","j","j","NA","j","608","NA","2533","8607","3690","NA","608","2","legacy","1024","2","48000","-16","task","5226171","odd","NA","23028","27562","25029","46421","2759","15059","11369","46924","NA","46419","46924","46362","27562","47533","21237","43138","2754","44862","Lexical Decision Task","14","11454","15","yes","1024"
"3.165936429","0","7","leps","non-word","87.5","87.5","763.625","763.625","black","no","legacy","legacy","legacy","0","uniform","0","undefined","undefined","undefined","0","f","0","0","0","0","15","0","0","0","15","NA","11","15","11","0","11","3","15","0","15","Thu Feb 18 14:46:05 2021","The main experiment item","yes","Lexical_Decision_Task.osexp","C:/Users/ellie","no","Andale Mono","no","18","no","white","no","yes","576","legacy","11","11","3","C:/Users/ellie/subject-5226171.csv","legacy","Lentiform Loewenfeld","3.3.7","yes","yes","600bd7cfb6416f0113b04181","602110864497cf011d9c0822","0","j","NA","space","j","j","NA","j","764","NA","2533","8607","3690","NA","764","2","legacy","1024","2","48000","-16","task","5226171","odd","NA","23028","27562","25029","48091","2759","15059","11369","48592","NA","48090","48593","48036","27562","49358","21237","47536","2754","44862","Lexical Decision Task","14","12218","16","yes","1024"
"2.696644658","5.78","2","yolk","word","88.23529411764706","88.23529411764706","790.9411764705883","790.9411764705883","black","no","legacy","legacy","legacy","0","uniform","1","undefined","undefined","undefined","1","j","0","0","0","0","16","0","0","0","16","NA","12","16","12","0","12","3","16","0","16","Thu Feb 18 14:46:05 2021","The main experiment item","yes","Lexical_Decision_Task.osexp","C:/Users/ellie","no","Andale Mono","no","18","no","white","no","yes","576","legacy","12","12","3","C:/Users/ellie/subject-5226171.csv","legacy","Lentiform Loewenfeld","3.3.7","yes","yes","600bd7cfb6416f0113b04181","602110864497cf011d9c0822","0","j","NA","space","j","j","NA","j","1228","NA","2533","8607","3690","NA","1228","2","legacy","1024","2","48000","-16","task","5226171","odd","NA","23028","27562","25029","50919","2759","15059","11369","51420","NA","50918","51420","50861","27562","52649","21237","47536","2754","49361","Lexical Decision Task","15","13446","17","yes","1024"
"3.091901331","0","9","nipe","non-word","83.33333333333333","83.33333333333333","784.1111111111111","784.1111111111111","black","no","legacy","legacy","legacy","0","uniform","0","undefined","undefined","undefined","0","f","0","0","0","0","17","0","0","0","17","NA","13","17","13","0","13","3","17","0","17","Thu Feb 18 14:46:05 2021","The main experiment item","yes","Lexical_Decision_Task.osexp","C:/Users/ellie","no","Andale Mono","no","18","no","white","no","yes","576","legacy","13","13","3","C:/Users/ellie/subject-5226171.csv","legacy","Lentiform Loewenfeld","3.3.7","yes","yes","600bd7cfb6416f0113b04181","602110864497cf011d9c0822","0","j","NA","space","j","j","NA","j","668","NA","2533","8607","3690","NA","668","2","legacy","1024","2","48000","-16","task","5226171","odd","NA","23028","27562","25029","53210","2759","15059","11369","53711","NA","53209","53711","53152","27562","54380","21237","52652","2754","49361","Lexical Decision Task","15","14114","18","yes","1024"
"2.979548375","8.71","4","soup","word","84.21052631578948","84.21052631578948","768.1052631578947","768.1052631578947","black","no","legacy","legacy","legacy","0","uniform","1","undefined","undefined","undefined","1","j","0","0","0","0","18","0","0","0","18","NA","14","18","14","0","14","3","18","0","18","Thu Feb 18 14:46:05 2021","The main experiment item","yes","Lexical_Decision_Task.osexp","C:/Users/ellie","no","Andale Mono","no","18","no","white","no","yes","576","legacy","14","14","3","C:/Users/ellie/subject-5226171.csv","legacy","Lentiform Loewenfeld","3.3.7","yes","yes","600bd7cfb6416f0113b04181","602110864497cf011d9c0822","0","j","NA","space","j","j","NA","j","480","NA","2533","8607","3690","NA","480","2","legacy","1024","2","48000","-16","task","5226171","odd","NA","23028","27562","25029","55942","2759","15059","11369","56443","NA","55940","56443","55883","27562","56924","21237","52652","2754","54383","Lexical Decision Task","16","14594","19","yes","1024"
"2.981215883","10.66","5","hair","word","85","85","755.2","755.2","black","no","legacy","legacy","legacy","0","uniform","1","undefined","undefined","undefined","1","j","0","0","0","0","19","0","0","0","19","NA","15","19","15","0","15","3","19","0","19","Thu Feb 18 14:46:05 2021","The main experiment item","yes","Lexical_Decision_Task.osexp","C:/Users/ellie","no","Andale Mono","no","18","no","white","no","yes","576","legacy","15","15","3","C:/Users/ellie/subject-5226171.csv","legacy","Lentiform Loewenfeld","3.3.7","yes","yes","600bd7cfb6416f0113b04181","602110864497cf011d9c0822","0","j","NA","space","j","j","NA","j","510","NA","2533","8607","3690","NA","510","2","legacy","1024","2","48000","-16","task","5226171","odd","NA","23028","27562","25029","57482","2759","15059","11369","57984","NA","57481","57984","57426","27562","58494","21237","56926","2754","54383","Lexical Decision Task","17","15104","20","yes","1024"
"2.899638141","0","3","hapt","non-word","85.71428571428571","85.71428571428571","751.1428571428571","751.1428571428571","black","no","legacy","legacy","legacy","0","uniform","1","undefined","undefined","undefined","1","f","0","0","0","0","20","0","0","0","20","NA","16","20","16","0","16","3","20","0","20","Thu Feb 18 14:46:05 2021","The main experiment item","yes","Lexical_Decision_Task.osexp","C:/Users/ellie","no","Andale Mono","no","18","no","white","no","yes","576","legacy","16","16","3","C:/Users/ellie/subject-5226171.csv","legacy","Lentiform Loewenfeld","3.3.7","yes","yes","600bd7cfb6416f0113b04181","602110864497cf011d9c0822","0","f","NA","space","j","j","NA","f","670","NA","2533","8607","3690","NA","670","2","legacy","1024","2","48000","-16","task","5226171","odd","NA","23028","27562","25029","59058","2759","15059","11369","59559","NA","59056","59559","58998","27562","60230","21237","58498","2754","54383","Lexical Decision Task","18","15774","21","yes","1024"
"3.037294994","8.64","7","roof","word","86.36363636363636","86.36363636363636","741.0454545454545","741.0454545454545","black","no","legacy","legacy","legacy","0","uniform","1","undefined","undefined","undefined","1","j","0","0","0","0","21","0","0","0","21","NA","17","21","17","0","17","3","21","0","21","Thu Feb 18 14:46:05 2021","The main experiment item","yes","Lexical_Decision_Task.osexp","C:/Users/ellie","no","Andale Mono","no","18","no","white","no","yes","576","legacy","17","17","3","C:/Users/ellie/subject-5226171.csv","legacy","Lentiform Loewenfeld","3.3.7","yes","yes","600bd7cfb6416f0113b04181","602110864497cf011d9c0822","0","j","NA","space","j","j","NA","j","529","NA","2533","8607","3690","NA","529","2","legacy","1024","2","48000","-16","task","5226171","odd","NA","23028","27562","25029","60787","2759","15059","11369","61288","NA","60785","61289","60733","27562","61819","21237","60233","2754","54383","Lexical Decision Task","19","16303","22","yes","1024"
"3.474361976","5.24","6","veer","word","86.95652173913044","86.95652173913044","734.1739130434783","734.1739130434783","black","no","legacy","legacy","legacy","0","uniform","1","undefined","undefined","undefined","1","j","0","0","0","0","22","0","0","0","22","NA","18","22","18","0","18","3","22","0","22","Thu Feb 18 14:46:05 2021","The main experiment item","yes","Lexical_Decision_Task.osexp","C:/Users/ellie","no","Andale Mono","no","18","no","white","no","yes","576","legacy","18","18","3","C:/Users/ellie/subject-5226171.csv","legacy","Lentiform Loewenfeld","3.3.7","yes","yes","600bd7cfb6416f0113b04181","602110864497cf011d9c0822","0","j","NA","space","j","j","NA","j","583","NA","2533","8607","3690","NA","583","2","legacy","1024","2","48000","-16","task","5226171","odd","NA","23028","27562","25029","62377","2759","15059","11369","62879","NA","62375","62879","62322","27562","63463","21237","61822","2754","54383","Lexical Decision Task","20","16886","23","yes","1024"
"3.705778213","0","6","stin","non-word","87.5","87.5","731.9583333333334","731.9583333333334","black","no","legacy","legacy","legacy","0","uniform","1","undefined","undefined","undefined","1","f","0","0","0","0","23","0","0","0","23","NA","19","23","19","0","19","3","23","0","23","Thu Feb 18 14:46:05 2021","The main experiment item","yes","Lexical_Decision_Task.osexp","C:/Users/ellie","no","Andale Mono","no","18","no","white","no","yes","576","legacy","19","19","3","C:/Users/ellie/subject-5226171.csv","legacy","Lentiform Loewenfeld","3.3.7","yes","yes","600bd7cfb6416f0113b04181","602110864497cf011d9c0822","0","f","NA","space","j","j","NA","f","681","NA","2533","8607","3690","NA","681","2","legacy","1024","2","48000","-16","task","5226171","odd","NA","23028","27562","25029","64019","2759","15059","11369","64521","NA","64018","64521","63966","27562","65203","21237","63466","2754","54383","Lexical Decision Task","21","17567","24","yes","1024"
"3.299579929","0","2","flis","non-word","88","88","733.32","733.32","black","no","legacy","legacy","legacy","0","uniform","1","undefined","undefined","undefined","1","f","0","0","0","0","24","0","0","0","24","NA","20","24","20","0","20","3","24","0","24","Thu Feb 18 14:46:05 2021","The main experiment item","yes","Lexical_Decision_Task.osexp","C:/Users/ellie","no","Andale Mono","no","18","no","white","no","yes","576","legacy","20","20","3","C:/Users/ellie/subject-5226171.csv","legacy","Lentiform Loewenfeld","3.3.7","yes","yes","600bd7cfb6416f0113b04181","602110864497cf011d9c0822","0","f","NA","space","j","j","NA","f","766","NA","2533","8607","3690","NA","766","2","legacy","1024","2","48000","-16","task","5226171","odd","NA","23028","27562","25029","65760","2759","15059","11369","66261","NA","65759","66261","65706","27562","67027","21237","65206","2754","54383","Lexical Decision Task","22","18333","25","yes","1024"
"3.145920145","8.51","8","flew","word","88.46153846153847","88.46153846153847","733.0384615384615","733.0384615384615","black","no","legacy","legacy","legacy","0","uniform","1","undefined","undefined","undefined","1","j","0","0","0","0","25","0","0","0","25","NA","21","25","21","0","21","3","25","0","25","Thu Feb 18 14:46:05 2021","The main experiment item","yes","Lexical_Decision_Task.osexp","C:/Users/ellie","no","Andale Mono","no","18","no","white","no","yes","576","legacy","21","21","3","C:/Users/ellie/subject-5226171.csv","legacy","Lentiform Loewenfeld","3.3.7","yes","yes","600bd7cfb6416f0113b04181","602110864497cf011d9c0822","0","j","NA","space","j","j","NA","j","726","NA","2533","8607","3690","NA","726","2","legacy","1024","2","48000","-16","task","5226171","odd","NA","23028","27562","25029","67589","2759","15059","11369","68090","NA","67587","68091","67531","27562","68817","21237","67031","2754","54383","Lexical Decision Task","23","19059","26","yes","1024"
"2.708989954","9.28","9","bowl","word","88.88888888888889","88.88888888888889","727.8888888888889","727.8888888888889","black","no","legacy","legacy","legacy","0","uniform","1","undefined","undefined","undefined","1","j","0","0","0","0","26","0","0","0","26","NA","22","26","22","0","22","3","26","0","26","Thu Feb 18 14:46:05 2021","The main experiment item","yes","Lexical_Decision_Task.osexp","C:/Users/ellie","no","Andale Mono","no","18","no","white","no","yes","576","legacy","22","22","3","C:/Users/ellie/subject-5226171.csv","legacy","Lentiform Loewenfeld","3.3.7","yes","yes","600bd7cfb6416f0113b04181","602110864497cf011d9c0822","0","j","NA","space","j","j","NA","j","594","NA","2533","8607","3690","NA","594","2","legacy","1024","2","48000","-16","task","5226171","odd","NA","23028","27562","25029","69376","2759","15059","11369","69877","NA","69375","69877","69321","27562","70472","21237","68821","2754","54383","Lexical Decision Task","24","19653","27","yes","1024"
"2.6599162","0","6","flug","non-word","85.71428571428571","85.71428571428571","720.4642857142857","720.4642857142857","black","no","legacy","legacy","legacy","0","uniform","0","undefined","undefined","undefined","0","f","0","0","0","0","27","0","0","0","27","NA","23","27","23","0","23","3","27","0","27","Thu Feb 18 14:46:05 2021","The main experiment item","yes","Lexical_Decision_Task.osexp","C:/Users/ellie","no","Andale Mono","no","18","no","white","no","yes","576","legacy","23","23","3","C:/Users/ellie/subject-5226171.csv","legacy","Lentiform Loewenfeld","3.3.7","yes","yes","600bd7cfb6416f0113b04181","602110864497cf011d9c0822","0","j","NA","space","j","j","NA","j","520","NA","2533","8607","3690","NA","520","2","legacy","1024","2","48000","-16","task","5226171","odd","NA","23028","27562","25029","71031","2759","15059","11369","71532","NA","71029","71532","70975","27562","72052","21237","70475","2754","54383","Lexical Decision Task","24","20173","28","yes","1024"
"3.259832699","0","9","flar","non-word","86.20689655172414","86.20689655172414","728.551724137931","728.551724137931","black","no","legacy","legacy","legacy","0","uniform","1","undefined","undefined","undefined","1","f","0","0","0","0","28","0","0","0","28","NA","24","28","24","0","24","3","28","0","28","Thu Feb 18 14:46:05 2021","The main experiment item","yes","Lexical_Decision_Task.osexp","C:/Users/ellie","no","Andale Mono","no","18","no","white","no","yes","576","legacy","24","24","3","C:/Users/ellie/subject-5226171.csv","legacy","Lentiform Loewenfeld","3.3.7","yes","yes","600bd7cfb6416f0113b04181","602110864497cf011d9c0822","0","f","NA","space","j","j","NA","f","955","NA","2533","8607","3690","NA","955","2","legacy","1024","2","48000","-16","task","5226171","odd","NA","23028","27562","25029","73608","2759","15059","11369","74109","NA","73606","74109","73556","27562","75065","21237","70475","2754","72056","Lexical Decision Task","25","21128","29","yes","1024"
"3.353210739","0","9","reet","non-word","86.66666666666667","86.66666666666667","733.5666666666667","733.5666666666667","black","no","legacy","legacy","legacy","0","uniform","1","undefined","undefined","undefined","1","f","0","0","0","0","29","0","0","0","29","NA","25","29","25","0","25","3","29","0","29","Thu Feb 18 14:46:05 2021","The main experiment item","yes","Lexical_Decision_Task.osexp","C:/Users/ellie","no","Andale Mono","no","18","no","white","no","yes","576","legacy","25","25","3","C:/Users/ellie/subject-5226171.csv","legacy","Lentiform Loewenfeld","3.3.7","yes","yes","600bd7cfb6416f0113b04181","602110864497cf011d9c0822","0","f","NA","space","j","j","NA","f","879","NA","2533","8607","3690","NA","879","2","legacy","1024","2","48000","-16","task","5226171","odd","NA","23028","27562","25029","75623","2759","15059","11369","76124","NA","75621","76125","75568","27562","77004","21237","75068","2754","72056","Lexical Decision Task","26","22007","30","yes","1024"
"2.68604012","0","4","pumb","non-word","87.09677419354838","87.09677419354838","745","745","black","no","legacy","legacy","legacy","0","uniform","1","undefined","undefined","undefined","1","f","0","0","0","0","30","0","0","0","30","NA","26","30","26","0","26","3","30","0","30","Thu Feb 18 14:46:05 2021","The main experiment item","yes","Lexical_Decision_Task.osexp","C:/Users/ellie","no","Andale Mono","no","18","no","white","no","yes","576","legacy","26","26","3","C:/Users/ellie/subject-5226171.csv","legacy","Lentiform Loewenfeld","3.3.7","yes","yes","600bd7cfb6416f0113b04181","602110864497cf011d9c0822","0","f","NA","space","j","j","NA","f","1088","NA","2533","8607","3690","NA","1088","2","legacy","1024","2","48000","-16","task","5226171","odd","NA","23028","27562","25029","77562","2759","15059","11369","78063","NA","77561","78064","77508","27562","79152","21237","77008","2754","72056","Lexical Decision Task","27","23095","31","yes","1024"
"3.168400243","9.12","6","horn","word","87.5","87.5","739.84375","739.84375","black","no","legacy","legacy","legacy","0","uniform","1","undefined","undefined","undefined","1","j","0","0","0","0","31","0","0","0","31","NA","27","31","27","0","27","3","31","0","31","Thu Feb 18 14:46:05 2021","The main experiment item","yes","Lexical_Decision_Task.osexp","C:/Users/ellie","no","Andale Mono","no","18","no","white","no","yes","576","legacy","27","27","3","C:/Users/ellie/subject-5226171.csv","legacy","Lentiform Loewenfeld","3.3.7","yes","yes","600bd7cfb6416f0113b04181","602110864497cf011d9c0822","0","j","NA","space","j","j","NA","j","580","NA","2533","8607","3690","NA","580","2","legacy","1024","2","48000","-16","task","5226171","odd","NA","23028","27562","25029","79711","2759","15059","11369","80212","NA","79709","80212","79656","27562","80792","21237","79156","2754","72056","Lexical Decision Task","28","23675","32","yes","1024"
"2.799799878","0","4","ciff","non-word","87.87878787878788","87.87878787878788","736.4545454545455","736.4545454545455","black","no","legacy","legacy","legacy","0","uniform","1","undefined","undefined","undefined","1","f","0","0","0","0","32","0","0","0","32","NA","28","32","28","0","28","3","32","0","32","Thu Feb 18 14:46:05 2021","The main experiment item","yes","Lexical_Decision_Task.osexp","C:/Users/ellie","no","Andale Mono","no","18","no","white","no","yes","576","legacy","28","28","3","C:/Users/ellie/subject-5226171.csv","legacy","Lentiform Loewenfeld","3.3.7","yes","yes","600bd7cfb6416f0113b04181","602110864497cf011d9c0822","0","f","NA","space","j","j","NA","f","628","NA","2533","8607","3690","NA","628","2","legacy","1024","2","48000","-16","task","5226171","odd","NA","23028","27562","25029","81353","2759","15059","11369","81854","NA","81352","81854","81296","27562","82483","21237","80796","2754","72056","Lexical Decision Task","29","24303","33","yes","1024"
"2.664328519","0","4","plux","non-word","88.23529411764706","88.23529411764706","733.7058823529412","733.7058823529412","black","no","legacy","legacy","legacy","0","uniform","1","undefined","undefined","undefined","1","f","0","0","0","0","33","0","0","0","33","NA","29","33","29","0","29","3","33","0","33","Thu Feb 18 14:46:05 2021","The main experiment item","yes","Lexical_Decision_Task.osexp","C:/Users/ellie","no","Andale Mono","no","18","no","white","no","yes","576","legacy","29","29","3","C:/Users/ellie/subject-5226171.csv","legacy","Lentiform Loewenfeld","3.3.7","yes","yes","600bd7cfb6416f0113b04181","602110864497cf011d9c0822","0","f","NA","space","j","j","NA","f","643","NA","2533","8607","3690","NA","643","2","legacy","1024","2","48000","-16","task","5226171","odd","NA","23028","27562","25029","83045","2759","15059","11369","83546","NA","83043","83546","82986","27562","84190","21237","82486","2754","72056","Lexical Decision Task","30","24946","34","yes","1024"
"2.983324025","9.56","2","debt","word","88.57142857142857","88.57142857142857","727.1142857142858","727.1142857142858","black","no","legacy","legacy","legacy","0","uniform","1","undefined","undefined","undefined","1","j","0","0","0","0","34","0","0","0","34","NA","30","34","30","0","30","3","34","0","34","Thu Feb 18 14:46:05 2021","The main experiment item","yes","Lexical_Decision_Task.osexp","C:/Users/ellie","no","Andale Mono","no","18","no","white","no","yes","576","legacy","30","30","3","C:/Users/ellie/subject-5226171.csv","legacy","Lentiform Loewenfeld","3.3.7","yes","yes","600bd7cfb6416f0113b04181","602110864497cf011d9c0822","0","j","NA","space","j","j","NA","j","503","NA","2533","8607","3690","NA","503","2","legacy","1024","2","48000","-16","task","5226171","odd","NA","23028","27562","25029","84756","2759","15059","11369","85257","NA","84754","85257","84693","27562","85762","21237","84193","2754","72056","Lexical Decision Task","31","25449","35","yes","1024"
"3.440331212","7.35","6","stew","word","88.88888888888889","88.88888888888889","722.6666666666666","722.6666666666666","black","no","legacy","legacy","legacy","0","uniform","1","undefined","undefined","undefined","1","j","0","0","0","0","35","0","0","0","35","NA","31","35","31","0","31","3","35","0","35","Thu Feb 18 14:46:05 2021","The main experiment item","yes","Lexical_Decision_Task.osexp","C:/Users/ellie","no","Andale Mono","no","18","no","white","no","yes","576","legacy","31","31","3","C:/Users/ellie/subject-5226171.csv","legacy","Lentiform Loewenfeld","3.3.7","yes","yes","600bd7cfb6416f0113b04181","602110864497cf011d9c0822","0","j","NA","space","j","j","NA","j","567","NA","2533","8607","3690","NA","567","2","legacy","1024","2","48000","-16","task","5226171","odd","NA","23028","27562","25029","86326","2759","15059","11369","86828","NA","86325","86828","86265","27562","87395","21237","85765","2754","72056","Lexical Decision Task","32","26016","36","yes","1024"
"3.488597715","0","9","nain","non-word","89.1891891891892","89.1891891891892","722.0540540540541","722.0540540540541","black","no","legacy","legacy","legacy","0","uniform","1","undefined","undefined","undefined","1","f","0","0","0","0","36","0","0","0","36","NA","32","36","32","0","32","3","36","0","36","Thu Feb 18 14:46:05 2021","The main experiment item","yes","Lexical_Decision_Task.osexp","C:/Users/ellie","no","Andale Mono","no","18","no","white","no","yes","576","legacy","32","32","3","C:/Users/ellie/subject-5226171.csv","legacy","Lentiform Loewenfeld","3.3.7","yes","yes","600bd7cfb6416f0113b04181","602110864497cf011d9c0822","0","f","NA","space","j","j","NA","f","700","NA","2533","8607","3690","NA","700","2","legacy","1024","2","48000","-16","task","5226171","odd","NA","23028","27562","25029","87958","2759","15059","11369","88459","NA","87955","88459","87899","27562","89160","21237","87399","2754","72056","Lexical Decision Task","33","26716","37","yes","1024"
"3.257359335","8","6","brew","word","89.47368421052632","89.47368421052632","719.8684210526316","719.8684210526316","black","no","legacy","legacy","legacy","0","uniform","1","undefined","undefined","undefined","1","j","0","0","0","0","37","0","0","0","37","NA","33","37","33","0","33","3","37","0","37","Thu Feb 18 14:46:05 2021","The main experiment item","yes","Lexical_Decision_Task.osexp","C:/Users/ellie","no","Andale Mono","no","18","no","white","no","yes","576","legacy","33","33","3","C:/Users/ellie/subject-5226171.csv","legacy","Lentiform Loewenfeld","3.3.7","yes","yes","600bd7cfb6416f0113b04181","602110864497cf011d9c0822","0","j","NA","space","j","j","NA","j","639","NA","2533","8607","3690","NA","639","2","legacy","1024","2","48000","-16","task","5226171","odd","NA","23028","27562","25029","89722","2759","15059","11369","90223","NA","89719","90223","89662","27562","90863","21237","89162","2754","72056","Lexical Decision Task","34","27355","38","yes","1024"
"2.616654026","9.37","5","gift","word","89.74358974358974","89.74358974358974","717.5897435897435","717.5897435897435","black","no","legacy","legacy","legacy","0","uniform","1","undefined","undefined","undefined","1","j","0","0","0","0","38","0","0","0","38","NA","34","38","34","0","34","3","38","0","38","Thu Feb 18 14:46:05 2021","The main experiment item","yes","Lexical_Decision_Task.osexp","C:/Users/ellie","no","Andale Mono","no","18","no","white","no","yes","576","legacy","34","34","3","C:/Users/ellie/subject-5226171.csv","legacy","Lentiform Loewenfeld","3.3.7","yes","yes","600bd7cfb6416f0113b04181","602110864497cf011d9c0822","0","j","NA","space","j","j","NA","j","631","NA","2533","8607","3690","NA","631","2","legacy","1024","2","48000","-16","task","5226171","odd","NA","23028","27562","25029","91422","2759","15059","11369","91924","NA","91420","91924","91367","27562","92556","21237","90867","2754","72056","Lexical Decision Task","35","27986","39","yes","1024"
"2.713490543","0","3","feps","non-word","90","90","712.3","712.3","black","no","legacy","legacy","legacy","0","uniform","1","undefined","undefined","undefined","1","f","0","0","0","0","39","0","0","0","39","NA","35","39","35","0","35","3","39","0","39","Thu Feb 18 14:46:05 2021","The main experiment item","yes","Lexical_Decision_Task.osexp","C:/Users/ellie","no","Andale Mono","no","18","no","white","no","yes","576","legacy","35","35","3","C:/Users/ellie/subject-5226171.csv","legacy","Lentiform Loewenfeld","3.3.7","yes","yes","600bd7cfb6416f0113b04181","602110864497cf011d9c0822","0","f","NA","space","j","j","NA","f","506","NA","2533","8607","3690","NA","506","2","legacy","1024","2","48000","-16","task","5226171","odd","NA","23028","27562","25029","93115","2759","15059","11369","93615","NA","93113","93615","93060","27562","94122","21237","92560","2754","72056","Lexical Decision Task","36","28492","40","yes","1024"
"3.049218023","7.4","9","robe","word","90.2439024390244","90.2439024390244","707.6829268292682","707.6829268292682","black","no","legacy","legacy","legacy","0","uniform","1","undefined","undefined","undefined","1","j","0","0","0","0","40","0","0","0","40","NA","36","40","36","0","36","3","40","0","40","Thu Feb 18 14:46:05 2021","The main experiment item","yes","Lexical_Decision_Task.osexp","C:/Users/ellie","no","Andale Mono","no","18","no","white","no","yes","576","legacy","36","36","3","C:/Users/ellie/subject-5226171.csv","legacy","Lentiform Loewenfeld","3.3.7","yes","yes","600bd7cfb6416f0113b04181","602110864497cf011d9c0822","0","j","NA","space","j","j","NA","j","523","NA","2533","8607","3690","NA","523","2","legacy","1024","2","48000","-16","task","5226171","odd","NA","23028","27562","25029","94682","2759","15059","11369","95184","NA","94680","95184","94626","27562","95708","21237","94126","2754","72056","Lexical Decision Task","37","29015","41","yes","1024"
"2.907588697","8.91","9","mood","word","90.47619047619048","90.47619047619048","704.3095238095239","704.3095238095239","black","no","legacy","legacy","legacy","0","uniform","1","undefined","undefined","undefined","1","j","0","0","0","0","41","0","0","0","41","NA","37","41","37","0","37","3","41","0","41","Thu Feb 18 14:46:05 2021","The main experiment item","yes","Lexical_Decision_Task.osexp","C:/Users/ellie","no","Andale Mono","no","18","no","white","no","yes","576","legacy","37","37","3","C:/Users/ellie/subject-5226171.csv","legacy","Lentiform Loewenfeld","3.3.7","yes","yes","600bd7cfb6416f0113b04181","602110864497cf011d9c0822","0","j","NA","space","j","j","NA","j","566","NA","2533","8607","3690","NA","566","2","legacy","1024","2","48000","-16","task","5226171","odd","NA","23028","27562","25029","96270","2759","15059","11369","96771","NA","96268","96771","96211","27562","97338","21237","95711","2754","72056","Lexical Decision Task","38","29581","42","yes","1024"
"3.039414119","0","9","meep","non-word","90.69767441860465","90.69767441860465","702.6976744186046","702.6976744186046","black","no","legacy","legacy","legacy","0","uniform","1","undefined","undefined","undefined","1","f","0","0","0","0","42","0","0","0","42","NA","38","42","38","0","38","3","42","0","42","Thu Feb 18 14:46:05 2021","The main experiment item","yes","Lexical_Decision_Task.osexp","C:/Users/ellie","no","Andale Mono","no","18","no","white","no","yes","576","legacy","38","38","3","C:/Users/ellie/subject-5226171.csv","legacy","Lentiform Loewenfeld","3.3.7","yes","yes","600bd7cfb6416f0113b04181","602110864497cf011d9c0822","0","f","NA","space","j","j","NA","f","635","NA","2533","8607","3690","NA","635","2","legacy","1024","2","48000","-16","task","5226171","odd","NA","23028","27562","25029","97898","2759","15059","11369","98399","NA","97896","98400","97841","27562","99035","21237","97341","2754","72056","Lexical Decision Task","39","30216","43","yes","1024"
"2.875447132","0","9","jelt","non-word","88.63636363636364","88.63636363636364","700.7727272727273","700.7727272727273","black","no","legacy","legacy","legacy","0","uniform","0","undefined","undefined","undefined","0","f","0","0","0","0","43","0","0","0","43","NA","39","43","39","0","39","3","43","0","43","Thu Feb 18 14:46:05 2021","The main experiment item","yes","Lexical_Decision_Task.osexp","C:/Users/ellie","no","Andale Mono","no","18","no","white","no","yes","576","legacy","39","39","3","C:/Users/ellie/subject-5226171.csv","legacy","Lentiform Loewenfeld","3.3.7","yes","yes","600bd7cfb6416f0113b04181","602110864497cf011d9c0822","0","j","NA","space","j","j","NA","j","618","NA","2533","8607","3690","NA","618","2","legacy","1024","2","48000","-16","task","5226171","odd","NA","23028","27562","25029","99597","2759","15059","11369","100098","NA","99595","100098","99539","27562","100716","21237","99039","2754","72056","Lexical Decision Task","39","30834","44","yes","1024"
"3.031812271","6.52","3","gulp","word","86.66666666666667","86.66666666666667","699.1111111111111","699.1111111111111","black","no","legacy","legacy","legacy","0","uniform","0","undefined","undefined","undefined","0","j","0","0","0","0","44","0","0","0","44","NA","40","44","40","0","40","3","44","0","44","Thu Feb 18 14:46:05 2021","The main experiment item","yes","Lexical_Decision_Task.osexp","C:/Users/ellie","no","Andale Mono","no","18","no","white","no","yes","576","legacy","40","40","3","C:/Users/ellie/subject-5226171.csv","legacy","Lentiform Loewenfeld","3.3.7","yes","yes","600bd7cfb6416f0113b04181","602110864497cf011d9c0822","0","f","NA","space","j","j","NA","f","626","NA","2533","8607","3690","NA","626","2","legacy","1024","2","48000","-16","task","5226171","odd","NA","23028","27562","25029","102278","2759","15059","11369","102779","NA","102276","102779","102220","27562","103405","21237","99039","2754","100720","Lexical Decision Task","39","31460","45","yes","1024"
"3.102203805","7.21","3","drip","word","86.95652173913044","86.95652173913044","698.6304347826087","698.6304347826087","black","no","legacy","legacy","legacy","0","uniform","1","undefined","undefined","undefined","1","j","0","0","0","0","45","0","0","0","45","NA","41","45","41","0","41","3","45","0","45","Thu Feb 18 14:46:05 2021","The main experiment item","yes","Lexical_Decision_Task.osexp","C:/Users/ellie","no","Andale Mono","no","18","no","white","no","yes","576","legacy","41","41","3","C:/Users/ellie/subject-5226171.csv","legacy","Lentiform Loewenfeld","3.3.7","yes","yes","600bd7cfb6416f0113b04181","602110864497cf011d9c0822","0","j","NA","space","j","j","NA","j","677","NA","2533","8607","3690","NA","677","2","legacy","1024","2","48000","-16","task","5226171","odd","NA","23028","27562","25029","104970","2759","15059","11369","105472","NA","104969","105472","104909","27562","106149","21237","99039","2754","103409","Lexical Decision Task","40","32137","46","yes","1024"
"2.920123326","7.43","4","duel","word","87.23404255319149","87.23404255319149","694.8936170212766","694.8936170212766","black","no","legacy","legacy","legacy","0","uniform","1","undefined","undefined","undefined","1","j","0","0","0","0","46","0","0","0","46","NA","42","46","42","0","42","3","46","0","46","Thu Feb 18 14:46:05 2021","The main experiment item","yes","Lexical_Decision_Task.osexp","C:/Users/ellie","no","Andale Mono","no","18","no","white","no","yes","576","legacy","42","42","3","C:/Users/ellie/subject-5226171.csv","legacy","Lentiform Loewenfeld","3.3.7","yes","yes","600bd7cfb6416f0113b04181","602110864497cf011d9c0822","0","j","NA","space","j","j","NA","j","523","NA","2533","8607","3690","NA","523","2","legacy","1024","2","48000","-16","task","5226171","odd","NA","23028","27562","25029","106710","2759","15059","11369","107211","NA","106708","107211","106653","27562","107735","21237","106153","2754","103409","Lexical Decision Task","41","32660","47","yes","1024"
"3.1430148","7.92","8","bald","word","87.5","87.5","692.5625","692.5625","black","no","legacy","legacy","legacy","0","uniform","1","undefined","undefined","undefined","1","j","0","0","0","0","47","0","0","0","47","NA","43","47","43","0","43","3","47","0","47","Thu Feb 18 14:46:05 2021","The main experiment item","yes","Lexical_Decision_Task.osexp","C:/Users/ellie","no","Andale Mono","no","18","no","white","no","yes","576","legacy","43","43","3","C:/Users/ellie/subject-5226171.csv","legacy","Lentiform Loewenfeld","3.3.7","yes","yes","600bd7cfb6416f0113b04181","602110864497cf011d9c0822","0","j","NA","space","j","j","NA","j","583","NA","2533","8607","3690","NA","583","2","legacy","1024","2","48000","-16","task","5226171","odd","NA","23028","27562","25029","108294","2759","15059","11369","108795","NA","108292","108795","108238","27562","109378","21237","107738","2754","103409","Lexical Decision Task","42","33243","48","yes","1024"
"3.248054965","7.86","5","glow","word","87.75510204081633","87.75510204081633","690.2857142857143","690.2857142857143","black","no","legacy","legacy","legacy","0","uniform","1","undefined","undefined","undefined","1","j","0","0","0","0","48","0","0","0","48","NA","44","48","44","0","44","3","48","0","48","Thu Feb 18 14:46:05 2021","The main experiment item","yes","Lexical_Decision_Task.osexp","C:/Users/ellie","no","Andale Mono","no","18","no","white","no","yes","576","legacy","44","44","3","C:/Users/ellie/subject-5226171.csv","legacy","Lentiform Loewenfeld","3.3.7","yes","yes","600bd7cfb6416f0113b04181","602110864497cf011d9c0822","0","j","NA","space","j","j","NA","j","581","NA","2533","8607","3690","NA","581","2","legacy","1024","2","48000","-16","task","5226171","odd","NA","23028","27562","25029","109939","2759","15059","11369","110440","NA","109938","110441","109882","27562","111022","21237","109382","2754","103409","Lexical Decision Task","43","33824","49","yes","1024"
"3.140404328","10.66","9","deep","word","88","88","686.6","686.6","black","no","legacy","legacy","legacy","0","uniform","1","undefined","undefined","undefined","1","j","0","0","0","0","49","0","0","0","49","NA","45","49","45","0","45","3","49","0","49","Thu Feb 18 14:46:05 2021","The main experiment item","yes","Lexical_Decision_Task.osexp","C:/Users/ellie","no","Andale Mono","no","18","no","white","no","yes","576","legacy","45","45","3","C:/Users/ellie/subject-5226171.csv","legacy","Lentiform Loewenfeld","3.3.7","yes","yes","600bd7cfb6416f0113b04181","602110864497cf011d9c0822","0","j","NA","space","j","j","NA","j","506","NA","2533","8607","3690","NA","506","2","legacy","1024","2","48000","-16","task","5226171","odd","NA","23028","27562","25029","111578","2759","15059","11369","112080","NA","111577","112080","111526","27562","112587","21237","111025","2754","103409","Lexical Decision Task","44","34330","50","yes","1024"
"2.69019608","9.01","2","myth","word","88.23529411764706","88.23529411764706","684.9019607843137","684.9019607843137","black","no","legacy","legacy","legacy","0","uniform","1","undefined","undefined","undefined","1","j","0","0","0","0","50","0","0","0","50","NA","46","50","46","0","46","3","50","0","50","Thu Feb 18 14:46:05 2021","The main experiment item","yes","Lexical_Decision_Task.osexp","C:/Users/ellie","no","Andale Mono","no","18","no","white","no","yes","576","legacy","46","46","3","C:/Users/ellie/subject-5226171.csv","legacy","Lentiform Loewenfeld","3.3.7","yes","yes","600bd7cfb6416f0113b04181","602110864497cf011d9c0822","0","j","NA","space","j","j","NA","j","600","NA","2533","8607","3690","NA","600","2","legacy","1024","2","48000","-16","task","5226171","odd","NA","23028","27562","25029","113148","2759","15059","11369","113649","NA","113146","113649","113090","27562","114249","21237","112590","2754","103409","Lexical Decision Task","45","34930","51","yes","1024"
"3.066077331","0","7","vorn","non-word","88.46153846153847","88.46153846153847","699.2115384615385","699.2115384615385","black","no","legacy","legacy","legacy","0","uniform","1","undefined","undefined","undefined","1","f","0","0","0","0","51","0","0","0","51","NA","47","51","47","0","47","3","51","0","51","Thu Feb 18 14:46:05 2021","The main experiment item","yes","Lexical_Decision_Task.osexp","C:/Users/ellie","no","Andale Mono","no","18","no","white","no","yes","576","legacy","47","47","3","C:/Users/ellie/subject-5226171.csv","legacy","Lentiform Loewenfeld","3.3.7","yes","yes","600bd7cfb6416f0113b04181","602110864497cf011d9c0822","0","f","NA","space","j","j","NA","f","1429","NA","2533","8607","3690","NA","1429","2","legacy","1024","2","48000","-16","task","5226171","odd","NA","23028","27562","25029","114805","2759","15059","11369","115307","NA","114803","115307","114753","27562","116736","21237","114253","2754","103409","Lexical Decision Task","46","36359","52","yes","1024"
"2.839898939","8.99","6","soap","word","88.67924528301887","88.67924528301887","716.2264150943396","716.2264150943396","black","no","legacy","legacy","legacy","0","uniform","1","undefined","undefined","undefined","1","j","0","0","0","0","52","0","0","0","52","NA","48","52","48","0","48","3","52","0","52","Thu Feb 18 14:46:05 2021","The main experiment item","yes","Lexical_Decision_Task.osexp","C:/Users/ellie","no","Andale Mono","no","18","no","white","no","yes","576","legacy","48","48","3","C:/Users/ellie/subject-5226171.csv","legacy","Lentiform Loewenfeld","3.3.7","yes","yes","600bd7cfb6416f0113b04181","602110864497cf011d9c0822","0","j","NA","space","j","j","NA","j","1601","NA","2533","8607","3690","NA","1601","2","legacy","1024","2","48000","-16","task","5226171","odd","NA","23028","27562","25029","117298","2759","15059","11369","117800","NA","117296","117800","117240","27562","119401","21237","116740","2754","103409","Lexical Decision Task","47","37960","53","yes","1024"
"2.755364069","7.72","2","hoax","word","88.88888888888889","88.88888888888889","717.4629629629629","717.4629629629629","black","no","legacy","legacy","legacy","0","uniform","1","undefined","undefined","undefined","1","j","0","0","0","0","53","0","0","0","53","NA","49","53","49","0","49","3","53","0","53","Thu Feb 18 14:46:05 2021","The main experiment item","yes","Lexical_Decision_Task.osexp","C:/Users/ellie","no","Andale Mono","no","18","no","white","no","yes","576","legacy","49","49","3","C:/Users/ellie/subject-5226171.csv","legacy","Lentiform Loewenfeld","3.3.7","yes","yes","600bd7cfb6416f0113b04181","602110864497cf011d9c0822","0","j","NA","space","j","j","NA","j","783","NA","2533","8607","3690","NA","783","2","legacy","1024","2","48000","-16","task","5226171","odd","NA","23028","27562","25029","119959","2759","15059","11369","120461","NA","119957","120461","119905","27562","121245","21237","119405","2754","103409","Lexical Decision Task","48","38743","54","yes","1024"
"2.953276337","6.32","4","thaw","word","89.0909090909091","89.0909090909091","714.709090909091","714.709090909091","black","no","legacy","legacy","legacy","0","uniform","1","undefined","undefined","undefined","1","j","0","0","0","0","54","0","0","0","54","0","50","54","50","0","50","3","54","0","54","Thu Feb 18 14:46:05 2021","The main experiment item","yes","Lexical_Decision_Task.osexp","C:/Users/ellie","no","Andale Mono","no","18","no","white","no","yes","576","legacy","50","50","3","C:/Users/ellie/subject-5226171.csv","legacy","Lentiform Loewenfeld","3.3.7","yes","yes","600bd7cfb6416f0113b04181","602110864497cf011d9c0822","0","j","NA","space","j","j","space","j","566","NA","2533","8607","3690","3541","566","2","legacy","1024","2","48000","-16","task","5226171","odd","NA","23028","27562","25029","125375","2759","15059","11369","125876","121781","125373","125876","121748","27562","126443","21237","121248","2754","103409","Lexical Decision Task","49","39309","55","yes","1024"
"2.64476673","0","5","moft","non-word","89.28571428571429","89.28571428571429","714.9464285714286","714.9464285714286","black","no","legacy","legacy","legacy","0","uniform","1","undefined","undefined","undefined","1","f","0","0","0","0","55","0","0","0","55","0","51","55","51","0","51","3","55","0","55","Thu Feb 18 14:46:05 2021","The main experiment item","yes","Lexical_Decision_Task.osexp","C:/Users/ellie","no","Andale Mono","no","18","no","white","no","yes","576","legacy","51","51","3","C:/Users/ellie/subject-5226171.csv","legacy","Lentiform Loewenfeld","3.3.7","yes","yes","600bd7cfb6416f0113b04181","602110864497cf011d9c0822","0","f","NA","space","j","j","space","f","728","NA","2533","8607","3690","3541","728","2","legacy","1024","2","48000","-16","task","5226171","odd","NA","23028","27562","25029","127001","2759","15059","11369","127502","121781","127000","127502","126946","27562","128230","21237","126446","2754","103409","Lexical Decision Task","50","40037","56","yes","1024"
"2.892836167","10.01","5","soft","word","89.47368421052632","89.47368421052632","712.421052631579","712.421052631579","black","no","legacy","legacy","legacy","0","uniform","1","undefined","undefined","undefined","1","j","0","0","0","0","56","0","0","0","56","0","52","56","52","0","52","3","56","0","56","Thu Feb 18 14:46:05 2021","The main experiment item","yes","Lexical_Decision_Task.osexp","C:/Users/ellie","no","Andale Mono","no","18","no","white","no","yes","576","legacy","52","52","3","C:/Users/ellie/subject-5226171.csv","legacy","Lentiform Loewenfeld","3.3.7","yes","yes","600bd7cfb6416f0113b04181","602110864497cf011d9c0822","0","j","NA","space","j","j","space","j","571","NA","2533","8607","3690","3541","571","2","legacy","1024","2","48000","-16","task","5226171","odd","NA","23028","27562","25029","128790","2759","15059","11369","129291","121781","128788","129292","128734","27562","129864","21237","128234","2754","103409","Lexical Decision Task","51","40608","57","yes","1024"
"2.705007959","6.01","4","wept","word","89.65517241379311","89.65517241379311","714.1379310344828","714.1379310344828","black","no","legacy","legacy","legacy","0","uniform","1","undefined","undefined","undefined","1","j","0","0","0","0","57","0","0","0","57","0","53","57","53","0","53","3","57","0","57","Thu Feb 18 14:46:05 2021","The main experiment item","yes","Lexical_Decision_Task.osexp","C:/Users/ellie","no","Andale Mono","no","18","no","white","no","yes","576","legacy","53","53","3","C:/Users/ellie/subject-5226171.csv","legacy","Lentiform Loewenfeld","3.3.7","yes","yes","600bd7cfb6416f0113b04181","602110864497cf011d9c0822","0","j","NA","space","j","j","space","j","812","NA","2533","8607","3690","3541","812","2","legacy","1024","2","48000","-16","task","5226171","odd","NA","23028","27562","25029","130422","2759","15059","11369","130923","121781","130420","130923","130367","27562","131735","21237","129867","2754","103409","Lexical Decision Task","52","41420","58","yes","1024"
"3.153104174","10.89","6","door","word","89.83050847457628","89.83050847457628","710.6101694915254","710.6101694915254","black","no","legacy","legacy","legacy","0","uniform","1","undefined","undefined","undefined","1","j","0","0","0","0","58","0","0","0","58","0","54","58","54","0","54","3","58","0","58","Thu Feb 18 14:46:05 2021","The main experiment item","yes","Lexical_Decision_Task.osexp","C:/Users/ellie","no","Andale Mono","no","18","no","white","no","yes","576","legacy","54","54","3","C:/Users/ellie/subject-5226171.csv","legacy","Lentiform Loewenfeld","3.3.7","yes","yes","600bd7cfb6416f0113b04181","602110864497cf011d9c0822","0","j","NA","space","j","j","space","j","506","NA","2533","8607","3690","3541","506","2","legacy","1024","2","48000","-16","task","5226171","odd","NA","23028","27562","25029","132292","2759","15059","11369","132794","121781","132291","132794","132239","27562","133301","21237","131739","2754","103409","Lexical Decision Task","53","41926","59","yes","1024"
"2.675164031","8.57","6","glue","word","90","90","707.5","707.5","black","no","legacy","legacy","legacy","0","uniform","1","undefined","undefined","undefined","1","j","0","0","0","0","59","0","0","0","59","0","55","59","55","0","55","3","59","0","59","Thu Feb 18 14:46:05 2021","The main experiment item","yes","Lexical_Decision_Task.osexp","C:/Users/ellie","no","Andale Mono","no","18","no","white","no","yes","576","legacy","55","55","3","C:/Users/ellie/subject-5226171.csv","legacy","Lentiform Loewenfeld","3.3.7","yes","yes","600bd7cfb6416f0113b04181","602110864497cf011d9c0822","0","j","NA","space","j","j","space","j","524","NA","2533","8607","3690","3541","524","2","legacy","1024","2","48000","-16","task","5226171","odd","NA","23028","27562","25029","133860","2759","15059","11369","134361","121781","133858","134361","133804","27562","134886","21237","133304","2754","103409","Lexical Decision Task","54","42450","60","yes","1024"
"3.132473155","0","4","glim","non-word","90.1639344262295","90.1639344262295","705.688524590164","705.688524590164","black","no","legacy","legacy","legacy","0","uniform","1","undefined","undefined","undefined","1","f","0","0","0","0","60","0","0","0","60","0","56","60","56","0","56","3","60","0","60","Thu Feb 18 14:46:05 2021","The main experiment item","yes","Lexical_Decision_Task.osexp","C:/Users/ellie","no","Andale Mono","no","18","no","white","no","yes","576","legacy","56","56","3","C:/Users/ellie/subject-5226171.csv","legacy","Lentiform Loewenfeld","3.3.7","yes","yes","600bd7cfb6416f0113b04181","602110864497cf011d9c0822","0","f","NA","space","j","j","space","f","597","NA","2533","8607","3690","3541","597","2","legacy","1024","2","48000","-16","task","5226171","odd","NA","23028","27562","25029","135445","2759","15059","11369","135947","121781","135443","135947","135389","27562","136545","21237","134889","2754","103409","Lexical Decision Task","55","43047","61","yes","1024"
"2.873320602","0","4","lurg","non-word","90.3225806451613","90.3225806451613","704.016129032258","704.016129032258","black","no","legacy","legacy","legacy","0","uniform","1","undefined","undefined","undefined","1","f","0","0","0","0","61","0","0","0","61","0","57","61","57","0","57","3","61","0","61","Thu Feb 18 14:46:05 2021","The main experiment item","yes","Lexical_Decision_Task.osexp","C:/Users/ellie","no","Andale Mono","no","18","no","white","no","yes","576","legacy","57","57","3","C:/Users/ellie/subject-5226171.csv","legacy","Lentiform Loewenfeld","3.3.7","yes","yes","600bd7cfb6416f0113b04181","602110864497cf011d9c0822","0","f","NA","space","j","j","space","f","602","NA","2533","8607","3690","3541","602","2","legacy","1024","2","48000","-16","task","5226171","odd","NA","23028","27562","25029","137105","2759","15059","11369","137607","121781","137104","137607","137049","27562","138209","21237","136549","2754","103409","Lexical Decision Task","56","43649","62","yes","1024"
"2.807758206","6.25","4","hurl","word","90.47619047619048","90.47619047619048","702.5396825396825","702.5396825396825","black","no","legacy","legacy","legacy","0","uniform","1","undefined","undefined","undefined","1","j","0","0","0","0","62","0","0","0","62","0","58","62","58","0","58","3","62","0","62","Thu Feb 18 14:46:05 2021","The main experiment item","yes","Lexical_Decision_Task.osexp","C:/Users/ellie","no","Andale Mono","no","18","no","white","no","yes","576","legacy","58","58","3","C:/Users/ellie/subject-5226171.csv","legacy","Lentiform Loewenfeld","3.3.7","yes","yes","600bd7cfb6416f0113b04181","602110864497cf011d9c0822","0","j","NA","space","j","j","space","j","611","NA","2533","8607","3690","3541","611","2","legacy","1024","2","48000","-16","task","5226171","odd","NA","23028","27562","25029","138768","2759","15059","11369","139269","121781","138766","139270","138713","27562","139882","21237","138213","2754","103409","Lexical Decision Task","57","44260","63","yes","1024"
"3.384413096","10.15","3","glad","word","90.625","90.625","699.296875","699.296875","black","no","legacy","legacy","legacy","0","uniform","1","undefined","undefined","undefined","1","j","0","0","0","0","63","0","0","0","63","0","59","63","59","0","59","3","63","0","63","Thu Feb 18 14:46:05 2021","The main experiment item","yes","Lexical_Decision_Task.osexp","C:/Users/ellie","no","Andale Mono","no","18","no","white","no","yes","576","legacy","59","59","3","C:/Users/ellie/subject-5226171.csv","legacy","Lentiform Loewenfeld","3.3.7","yes","yes","600bd7cfb6416f0113b04181","602110864497cf011d9c0822","0","j","NA","space","j","j","space","j","495","NA","2533","8607","3690","3541","495","2","legacy","1024","2","48000","-16","task","5226171","odd","NA","23028","27562","25029","140445","2759","15059","11369","140946","121781","140444","140946","140385","27562","141442","21237","139885","2754","103409","Lexical Decision Task","58","44755","64","yes","1024"
"3.209246849","0","7","slem","non-word","90.76923076923077","90.76923076923077","697.6615384615385","697.6615384615385","black","no","legacy","legacy","legacy","0","uniform","1","undefined","undefined","undefined","1","f","0","0","0","0","64","0","0","0","64","0","60","64","60","0","60","3","64","0","64","Thu Feb 18 14:46:05 2021","The main experiment item","yes","Lexical_Decision_Task.osexp","C:/Users/ellie","no","Andale Mono","no","18","no","white","no","yes","576","legacy","60","60","3","C:/Users/ellie/subject-5226171.csv","legacy","Lentiform Loewenfeld","3.3.7","yes","yes","600bd7cfb6416f0113b04181","602110864497cf011d9c0822","0","f","NA","space","j","j","space","f","593","NA","2533","8607","3690","3541","593","2","legacy","1024","2","48000","-16","task","5226171","odd","NA","23028","27562","25029","142003","2759","15059","11369","142504","121781","142002","142504","141946","27562","143098","21237","141446","2754","103409","Lexical Decision Task","59","45348","65","yes","1024"
"2.576725172","0","8","gowl","non-word","90.9090909090909","90.9090909090909","696.8787878787879","696.8787878787879","black","no","legacy","legacy","legacy","0","uniform","1","undefined","undefined","undefined","1","f","0","0","0","0","65","0","0","0","65","0","61","65","61","0","61","3","65","0","65","Thu Feb 18 14:46:05 2021","The main experiment item","yes","Lexical_Decision_Task.osexp","C:/Users/ellie","no","Andale Mono","no","18","no","white","no","yes","576","legacy","61","61","3","C:/Users/ellie/subject-5226171.csv","legacy","Lentiform Loewenfeld","3.3.7","yes","yes","600bd7cfb6416f0113b04181","602110864497cf011d9c0822","0","f","NA","space","j","j","space","f","646","NA","2533","8607","3690","3541","646","2","legacy","1024","2","48000","-16","task","5226171","odd","NA","23028","27562","25029","143655","2759","15059","11369","144156","121781","143654","144156","143602","27562","144802","21237","143102","2754","103409","Lexical Decision Task","60","45994","66","yes","1024"
"3.208978517","10.33","4","fish","word","91.04477611940298","91.04477611940298","692.7313432835821","692.7313432835821","black","no","legacy","legacy","legacy","0","uniform","1","undefined","undefined","undefined","1","j","0","0","0","0","66","0","0","0","66","0","62","66","62","0","62","3","66","0","66","Thu Feb 18 14:46:05 2021","The main experiment item","yes","Lexical_Decision_Task.osexp","C:/Users/ellie","no","Andale Mono","no","18","no","white","no","yes","576","legacy","62","62","3","C:/Users/ellie/subject-5226171.csv","legacy","Lentiform Loewenfeld","3.3.7","yes","yes","600bd7cfb6416f0113b04181","602110864497cf011d9c0822","0","j","NA","space","j","j","space","j","419","NA","2533","8607","3690","3541","419","2","legacy","1024","2","48000","-16","task","5226171","odd","NA","23028","27562","25029","145361","2759","15059","11369","145862","121781","145359","145862","145306","27562","146281","21237","144806","2754","103409","Lexical Decision Task","61","46413","67","yes","1024"
"3.15462682","0","6","noal","non-word","91.17647058823529","91.17647058823529","691.9852941176471","691.9852941176471","black","no","legacy","legacy","legacy","0","uniform","1","undefined","undefined","undefined","1","f","0","0","0","0","67","0","0","0","67","0","63","67","63","0","63","3","67","0","67","Thu Feb 18 14:46:05 2021","The main experiment item","yes","Lexical_Decision_Task.osexp","C:/Users/ellie","no","Andale Mono","no","18","no","white","no","yes","576","legacy","63","63","3","C:/Users/ellie/subject-5226171.csv","legacy","Lentiform Loewenfeld","3.3.7","yes","yes","600bd7cfb6416f0113b04181","602110864497cf011d9c0822","0","f","NA","space","j","j","space","f","642","NA","2533","8607","3690","3541","642","2","legacy","1024","2","48000","-16","task","5226171","odd","NA","23028","27562","25029","146842","2759","15059","11369","147343","121781","146840","147344","146785","27562","147987","21237","146285","2754","103409","Lexical Decision Task","62","47055","68","yes","1024"
"2.821076612","0","4","lult","non-word","91.30434782608695","91.30434782608695","689.6521739130435","689.6521739130435","black","no","legacy","legacy","legacy","0","uniform","1","undefined","undefined","undefined","1","f","0","0","0","0","68","0","0","0","68","0","64","68","64","0","64","3","68","0","68","Thu Feb 18 14:46:05 2021","The main experiment item","yes","Lexical_Decision_Task.osexp","C:/Users/ellie","no","Andale Mono","no","18","no","white","no","yes","576","legacy","64","64","3","C:/Users/ellie/subject-5226171.csv","legacy","Lentiform Loewenfeld","3.3.7","yes","yes","600bd7cfb6416f0113b04181","602110864497cf011d9c0822","0","f","NA","space","j","j","space","f","531","NA","2533","8607","3690","3541","531","2","legacy","1024","2","48000","-16","task","5226171","odd","NA","23028","27562","25029","148546","2759","15059","11369","149048","121781","148544","149048","148490","27562","149579","21237","147990","2754","103409","Lexical Decision Task","63","47586","69","yes","1024"
"2.696356389","0","1","pizz","non-word","91.42857142857143","91.42857142857143","689.2714285714286","689.2714285714286","black","no","legacy","legacy","legacy","0","uniform","1","undefined","undefined","undefined","1","f","0","0","0","0","69","0","0","0","69","0","65","69","65","0","65","3","69","0","69","Thu Feb 18 14:46:05 2021","The main experiment item","yes","Lexical_Decision_Task.osexp","C:/Users/ellie","no","Andale Mono","no","18","no","white","no","yes","576","legacy","65","65","3","C:/Users/ellie/subject-5226171.csv","legacy","Lentiform Loewenfeld","3.3.7","yes","yes","600bd7cfb6416f0113b04181","602110864497cf011d9c0822","0","f","NA","space","j","j","space","f","663","NA","2533","8607","3690","3541","663","2","legacy","1024","2","48000","-16","task","5226171","odd","NA","23028","27562","25029","150141","2759","15059","11369","150643","121781","150140","150643","150083","27562","151306","21237","149583","2754","103409","Lexical Decision Task","64","48249","70","yes","1024"
"3.010582609","0","2","drod","non-word","91.54929577464789","91.54929577464789","687.2816901408451","687.2816901408451","black","no","legacy","legacy","legacy","0","uniform","1","undefined","undefined","undefined","1","f","0","0","0","0","70","0","0","0","70","0","66","70","66","0","66","3","70","0","70","Thu Feb 18 14:46:05 2021","The main experiment item","yes","Lexical_Decision_Task.osexp","C:/Users/ellie","no","Andale Mono","no","18","no","white","no","yes","576","legacy","66","66","3","C:/Users/ellie/subject-5226171.csv","legacy","Lentiform Loewenfeld","3.3.7","yes","yes","600bd7cfb6416f0113b04181","602110864497cf011d9c0822","0","f","NA","space","j","j","space","f","548","NA","2533","8607","3690","3541","548","2","legacy","1024","2","48000","-16","task","5226171","odd","NA","23028","27562","25029","151870","2759","15059","11369","152371","121781","151868","152371","151810","27562","152919","21237","151310","2754","103409","Lexical Decision Task","65","48797","71","yes","1024"
"3.076883066","0","8","mout","non-word","91.66666666666667","91.66666666666667","686.6805555555555","686.6805555555555","black","no","legacy","legacy","legacy","0","uniform","1","undefined","undefined","undefined","1","f","0","0","0","0","71","0","0","0","71","0","67","71","67","0","67","3","71","0","71","Thu Feb 18 14:46:05 2021","The main experiment item","yes","Lexical_Decision_Task.osexp","C:/Users/ellie","no","Andale Mono","no","18","no","white","no","yes","576","legacy","67","67","3","C:/Users/ellie/subject-5226171.csv","legacy","Lentiform Loewenfeld","3.3.7","yes","yes","600bd7cfb6416f0113b04181","602110864497cf011d9c0822","0","f","NA","space","j","j","space","f","644","NA","2533","8607","3690","3541","644","2","legacy","1024","2","48000","-16","task","5226171","odd","NA","23028","27562","25029","153478","2759","15059","11369","153979","121781","153476","153979","153423","27562","154624","21237","152923","2754","103409","Lexical Decision Task","66","49441","72","yes","1024"
"2.842815106","7.86","8","lump","word","91.78082191780823","91.78082191780823","685.3424657534247","685.3424657534247","black","no","legacy","legacy","legacy","0","uniform","1","undefined","undefined","undefined","1","j","0","0","0","0","72","0","0","0","72","0","68","72","68","0","68","3","72","0","72","Thu Feb 18 14:46:05 2021","The main experiment item","yes","Lexical_Decision_Task.osexp","C:/Users/ellie","no","Andale Mono","no","18","no","white","no","yes","576","legacy","68","68","3","C:/Users/ellie/subject-5226171.csv","legacy","Lentiform Loewenfeld","3.3.7","yes","yes","600bd7cfb6416f0113b04181","602110864497cf011d9c0822","0","j","NA","space","j","j","space","j","589","NA","2533","8607","3690","3541","589","2","legacy","1024","2","48000","-16","task","5226171","odd","NA","23028","27562","25029","155183","2759","15059","11369","155684","121781","155182","155684","155127","27562","156274","21237","154627","2754","103409","Lexical Decision Task","67","50030","73","yes","1024"
"3.194328374","9.42","6","harm","word","91.89189189189189","91.89189189189189","681.7972972972973","681.7972972972973","black","no","legacy","legacy","legacy","0","uniform","1","undefined","undefined","undefined","1","j","0","0","0","0","73","0","0","0","73","0","69","73","69","0","69","3","73","0","73","Thu Feb 18 14:46:05 2021","The main experiment item","yes","Lexical_Decision_Task.osexp","C:/Users/ellie","no","Andale Mono","no","18","no","white","no","yes","576","legacy","69","69","3","C:/Users/ellie/subject-5226171.csv","legacy","Lentiform Loewenfeld","3.3.7","yes","yes","600bd7cfb6416f0113b04181","602110864497cf011d9c0822","0","j","NA","space","j","j","space","j","423","NA","2533","8607","3690","3541","423","2","legacy","1024","2","48000","-16","task","5226171","odd","NA","23028","27562","25029","156838","2759","15059","11369","157339","121781","156836","157339","156778","27562","157763","21237","156278","2754","103409","Lexical Decision Task","68","50453","74","yes","1024"
"3.261341392","5.08","8","reek","word","90.66666666666667","90.66666666666667","683.6133333333333","683.6133333333333","black","no","legacy","legacy","legacy","0","uniform","0","undefined","undefined","undefined","0","j","0","0","0","0","74","0","0","0","74","0","70","74","70","0","70","3","74","0","74","Thu Feb 18 14:46:05 2021","The main experiment item","yes","Lexical_Decision_Task.osexp","C:/Users/ellie","no","Andale Mono","no","18","no","white","no","yes","576","legacy","70","70","3","C:/Users/ellie/subject-5226171.csv","legacy","Lentiform Loewenfeld","3.3.7","yes","yes","600bd7cfb6416f0113b04181","602110864497cf011d9c0822","0","f","NA","space","j","j","space","f","818","NA","2533","8607","3690","3541","818","2","legacy","1024","2","48000","-16","task","5226171","odd","NA","23028","27562","25029","158326","2759","15059","11369","158827","121781","158324","158827","158267","27562","159645","21237","157767","2754","103409","Lexical Decision Task","68","51271","75","yes","1024"
"3.043885998","0","9","gome","non-word","90.78947368421052","90.78947368421052","683.5131578947369","683.5131578947369","black","no","legacy","legacy","legacy","0","uniform","1","undefined","undefined","undefined","1","f","0","0","0","0","75","0","0","0","75","0","71","75","71","0","71","3","75","0","75","Thu Feb 18 14:46:05 2021","The main experiment item","yes","Lexical_Decision_Task.osexp","C:/Users/ellie","no","Andale Mono","no","18","no","white","no","yes","576","legacy","71","71","3","C:/Users/ellie/subject-5226171.csv","legacy","Lentiform Loewenfeld","3.3.7","yes","yes","600bd7cfb6416f0113b04181","602110864497cf011d9c0822","0","f","NA","space","j","j","space","f","676","NA","2533","8607","3690","3541","676","2","legacy","1024","2","48000","-16","task","5226171","odd","NA","23028","27562","25029","161209","2759","15059","11369","161710","121781","161207","161710","161149","27562","162387","21237","157767","2754","159649","Lexical Decision Task","69","51947","76","yes","1024"
"2.80048796","0","8","pife","non-word","90.9090909090909","90.9090909090909","684.9480519480519","684.9480519480519","black","no","legacy","legacy","legacy","0","uniform","1","undefined","undefined","undefined","1","f","0","0","0","0","76","0","0","0","76","0","72","76","72","0","72","3","76","0","76","Thu Feb 18 14:46:05 2021","The main experiment item","yes","Lexical_Decision_Task.osexp","C:/Users/ellie","no","Andale Mono","no","18","no","white","no","yes","576","legacy","72","72","3","C:/Users/ellie/subject-5226171.csv","legacy","Lentiform Loewenfeld","3.3.7","yes","yes","600bd7cfb6416f0113b04181","602110864497cf011d9c0822","0","f","NA","space","j","j","space","f","794","NA","2533","8607","3690","3541","794","2","legacy","1024","2","48000","-16","task","5226171","odd","NA","23028","27562","25029","162947","2759","15059","11369","163448","121781","162945","163448","162890","27562","164243","21237","162390","2754","159649","Lexical Decision Task","70","52741","77","yes","1024"
"3.2757719","0","5","slea","non-word","91.02564102564102","91.02564102564102","683.5769230769231","683.5769230769231","black","no","legacy","legacy","legacy","0","uniform","1","undefined","undefined","undefined","1","f","0","0","0","0","77","0","0","0","77","0","73","77","73","0","73","3","77","0","77","Thu Feb 18 14:46:05 2021","The main experiment item","yes","Lexical_Decision_Task.osexp","C:/Users/ellie","no","Andale Mono","no","18","no","white","no","yes","576","legacy","73","73","3","C:/Users/ellie/subject-5226171.csv","legacy","Lentiform Loewenfeld","3.3.7","yes","yes","600bd7cfb6416f0113b04181","602110864497cf011d9c0822","0","f","NA","space","j","j","space","f","578","NA","2533","8607","3690","3541","578","2","legacy","1024","2","48000","-16","task","5226171","odd","NA","23028","27562","25029","164929","2759","15059","11369","165430","121781","164927","165431","164870","27562","166009","21237","164369","2754","159649","Lexical Decision Task","71","53319","78","yes","1024"
"2.693726949","5.08","3","swig","word","91.13924050632912","91.13924050632912","681.0126582278481","681.0126582278481","black","no","legacy","legacy","legacy","0","uniform","1","undefined","undefined","undefined","1","j","0","0","0","0","78","0","0","0","78","0","74","78","74","0","74","3","78","0","78","Thu Feb 18 14:46:05 2021","The main experiment item","yes","Lexical_Decision_Task.osexp","C:/Users/ellie","no","Andale Mono","no","18","no","white","no","yes","576","legacy","74","74","3","C:/Users/ellie/subject-5226171.csv","legacy","Lentiform Loewenfeld","3.3.7","yes","yes","600bd7cfb6416f0113b04181","602110864497cf011d9c0822","0","j","NA","space","j","j","space","j","481","NA","2533","8607","3690","3541","481","2","legacy","1024","2","48000","-16","task","5226171","odd","NA","23028","27562","25029","166568","2759","15059","11369","167070","121781","166566","167070","166513","27562","167552","21237","166013","2754","159649","Lexical Decision Task","72","53800","79","yes","1024"
"3.197740804","6.74","3","ache","word","91.25","91.25","680.575","680.575","black","no","legacy","legacy","legacy","0","uniform","1","undefined","undefined","undefined","1","j","0","0","0","0","79","0","0","0","79","0","75","79","75","0","75","3","79","0","79","Thu Feb 18 14:46:05 2021","The main experiment item","yes","Lexical_Decision_Task.osexp","C:/Users/ellie","no","Andale Mono","no","18","no","white","no","yes","576","legacy","75","75","3","C:/Users/ellie/subject-5226171.csv","legacy","Lentiform Loewenfeld","3.3.7","yes","yes","600bd7cfb6416f0113b04181","602110864497cf011d9c0822","0","j","NA","space","j","j","space","j","646","NA","2533","8607","3690","3541","646","2","legacy","1024","2","48000","-16","task","5226171","odd","NA","23028","27562","25029","168116","2759","15059","11369","168617","121781","168114","168617","168056","27562","169263","21237","167555","2754","159649","Lexical Decision Task","73","54446","80","yes","1024"
"2.966923697","5.4","2","fume","word","91.35802469135803","91.35802469135803","679.3703703703703","679.3703703703703","black","no","legacy","legacy","legacy","0","uniform","1","undefined","undefined","undefined","1","j","0","0","0","0","80","0","0","0","80","0","76","80","76","0","76","3","80","0","80","Thu Feb 18 14:46:05 2021","The main experiment item","yes","Lexical_Decision_Task.osexp","C:/Users/ellie","no","Andale Mono","no","18","no","white","no","yes","576","legacy","76","76","3","C:/Users/ellie/subject-5226171.csv","legacy","Lentiform Loewenfeld","3.3.7","yes","yes","600bd7cfb6416f0113b04181","602110864497cf011d9c0822","0","j","NA","space","j","j","space","j","583","NA","2533","8607","3690","3541","583","2","legacy","1024","2","48000","-16","task","5226171","odd","NA","23028","27562","25029","169826","2759","15059","11369","170327","121781","169825","170327","169767","27562","170911","21237","169267","2754","159649","Lexical Decision Task","74","55029","81","yes","1024"
"2.884795364","0","6","flob","non-word","91.46341463414635","91.46341463414635","677.8780487804878","677.8780487804878","black","no","legacy","legacy","legacy","0","uniform","1","undefined","undefined","undefined","1","f","0","0","0","0","81","0","0","0","81","0","77","81","77","0","77","3","81","0","81","Thu Feb 18 14:46:05 2021","The main experiment item","yes","Lexical_Decision_Task.osexp","C:/Users/ellie","no","Andale Mono","no","18","no","white","no","yes","576","legacy","77","77","3","C:/Users/ellie/subject-5226171.csv","legacy","Lentiform Loewenfeld","3.3.7","yes","yes","600bd7cfb6416f0113b04181","602110864497cf011d9c0822","0","f","NA","space","j","j","space","f","557","NA","2533","8607","3690","3541","557","2","legacy","1024","2","48000","-16","task","5226171","odd","NA","23028","27562","25029","171472","2759","15059","11369","171973","121781","171471","171973","171415","27562","172531","21237","170914","2754","159649","Lexical Decision Task","75","55586","82","yes","1024"
"2.813801082","5.47","7","nook","word","90.36144578313252","90.36144578313252","677.4939759036145","677.4939759036145","black","no","legacy","legacy","legacy","0","uniform","0","undefined","undefined","undefined","0","j","0","0","0","0","82","0","0","0","82","0","78","82","78","0","78","3","82","0","82","Thu Feb 18 14:46:05 2021","The main experiment item","yes","Lexical_Decision_Task.osexp","C:/Users/ellie","no","Andale Mono","no","18","no","white","no","yes","576","legacy","78","78","3","C:/Users/ellie/subject-5226171.csv","legacy","Lentiform Loewenfeld","3.3.7","yes","yes","600bd7cfb6416f0113b04181","602110864497cf011d9c0822","0","f","NA","space","j","j","space","f","646","NA","2533","8607","3690","3541","646","2","legacy","1024","2","48000","-16","task","5226171","odd","NA","23028","27562","25029","173090","2759","15059","11369","173591","121781","173089","173591","173035","27562","174238","21237","172534","2754","159649","Lexical Decision Task","75","56232","83","yes","1024"
"3.159867847","5.98","5","brim","word","90.47619047619048","90.47619047619048","675.3928571428571","675.3928571428571","black","no","legacy","legacy","legacy","0","uniform","1","undefined","undefined","undefined","1","j","0","0","0","0","83","0","0","0","83","0","79","83","79","0","79","3","83","0","83","Thu Feb 18 14:46:05 2021","The main experiment item","yes","Lexical_Decision_Task.osexp","C:/Users/ellie","no","Andale Mono","no","18","no","white","no","yes","576","legacy","79","79","3","C:/Users/ellie/subject-5226171.csv","legacy","Lentiform Loewenfeld","3.3.7","yes","yes","600bd7cfb6416f0113b04181","602110864497cf011d9c0822","0","j","NA","space","j","j","space","j","501","NA","2533","8607","3690","3541","501","2","legacy","1024","2","48000","-16","task","5226171","odd","NA","23028","27562","25029","175800","2759","15059","11369","176302","121781","175799","176302","175742","27562","176803","21237","172534","2754","174242","Lexical Decision Task","76","56733","84","yes","1024"
"2.986323777","10.85","8","ship","word","90.58823529411765","90.58823529411765","675.1058823529412","675.1058823529412","black","no","legacy","legacy","legacy","0","uniform","1","undefined","undefined","undefined","1","j","0","0","0","0","84","0","0","0","84","0","80","84","80","0","80","3","84","0","84","Thu Feb 18 14:46:05 2021","The main experiment item","yes","Lexical_Decision_Task.osexp","C:/Users/ellie","no","Andale Mono","no","18","no","white","no","yes","576","legacy","80","80","3","C:/Users/ellie/subject-5226171.csv","legacy","Lentiform Loewenfeld","3.3.7","yes","yes","600bd7cfb6416f0113b04181","602110864497cf011d9c0822","0","j","NA","space","j","j","space","j","651","NA","2533","8607","3690","3541","651","2","legacy","1024","2","48000","-16","task","5226171","odd","NA","23028","27562","25029","177365","2759","15059","11369","177867","121781","177363","177867","177307","27562","178519","21237","176807","2754","174242","Lexical Decision Task","77","57384","85","yes","1024"
"3.149629599","0","2","cleb","non-word","90.69767441860465","90.69767441860465","673.9883720930233","673.9883720930233","black","no","legacy","legacy","legacy","0","uniform","1","undefined","undefined","undefined","1","f","0","0","0","0","85","0","0","0","85","0","81","85","81","0","81","3","85","0","85","Thu Feb 18 14:46:05 2021","The main experiment item","yes","Lexical_Decision_Task.osexp","C:/Users/ellie","no","Andale Mono","no","18","no","white","no","yes","576","legacy","81","81","3","C:/Users/ellie/subject-5226171.csv","legacy","Lentiform Loewenfeld","3.3.7","yes","yes","600bd7cfb6416f0113b04181","602110864497cf011d9c0822","0","f","NA","space","j","j","space","f","579","NA","2533","8607","3690","3541","579","2","legacy","1024","2","48000","-16","task","5226171","odd","NA","23028","27562","25029","179080","2759","15059","11369","179581","121781","179079","179581","179022","27562","180161","21237","178522","2754","174242","Lexical Decision Task","78","57963","86","yes","1024"
"3.397302518","7.01","2","knit","word","90.80459770114942","90.80459770114942","671.3448275862069","671.3448275862069","black","no","legacy","legacy","legacy","0","uniform","1","undefined","undefined","undefined","1","j","0","0","0","0","86","0","0","0","86","0","82","86","82","0","82","3","86","0","86","Thu Feb 18 14:46:05 2021","The main experiment item","yes","Lexical_Decision_Task.osexp","C:/Users/ellie","no","Andale Mono","no","18","no","white","no","yes","576","legacy","82","82","3","C:/Users/ellie/subject-5226171.csv","legacy","Lentiform Loewenfeld","3.3.7","yes","yes","600bd7cfb6416f0113b04181","602110864497cf011d9c0822","0","j","NA","space","j","j","space","j","444","NA","2533","8607","3690","3541","444","2","legacy","1024","2","48000","-16","task","5226171","odd","NA","23028","27562","25029","180724","2759","15059","11369","181226","121781","180722","181226","180666","27562","181671","21237","180166","2754","174242","Lexical Decision Task","79","58407","87","yes","1024"
"2.893578687","8.69","3","surf","word","90.9090909090909","90.9090909090909","668.5454545454545","668.5454545454545","black","no","legacy","legacy","legacy","0","uniform","1","undefined","undefined","undefined","1","j","0","0","0","0","87","0","0","0","87","0","83","87","83","0","83","3","87","0","87","Thu Feb 18 14:46:05 2021","The main experiment item","yes","Lexical_Decision_Task.osexp","C:/Users/ellie","no","Andale Mono","no","18","no","white","no","yes","576","legacy","83","83","3","C:/Users/ellie/subject-5226171.csv","legacy","Lentiform Loewenfeld","3.3.7","yes","yes","600bd7cfb6416f0113b04181","602110864497cf011d9c0822","0","j","NA","space","j","j","space","j","425","NA","2533","8607","3690","3541","425","2","legacy","1024","2","48000","-16","task","5226171","odd","NA","23028","27562","25029","182237","2759","15059","11369","182738","121781","182235","182738","182175","27562","183164","21237","181675","2754","174242","Lexical Decision Task","80","58832","88","yes","1024"
"3.028977705","0","7","frow","non-word","89.88764044943821","89.88764044943821","670.629213483146","670.629213483146","black","no","legacy","legacy","legacy","0","uniform","0","undefined","undefined","undefined","0","f","0","0","0","0","88","0","0","0","88","0","84","88","84","0","84","3","88","0","88","Thu Feb 18 14:46:05 2021","The main experiment item","yes","Lexical_Decision_Task.osexp","C:/Users/ellie","no","Andale Mono","no","18","no","white","no","yes","576","legacy","84","84","3","C:/Users/ellie/subject-5226171.csv","legacy","Lentiform Loewenfeld","3.3.7","yes","yes","600bd7cfb6416f0113b04181","602110864497cf011d9c0822","0","j","NA","space","j","j","space","j","854","NA","2533","8607","3690","3541","854","2","legacy","1024","2","48000","-16","task","5226171","odd","NA","23028","27562","25029","183719","2759","15059","11369","184220","121781","183718","184220","183668","27562","185074","21237","183168","2754","174242","Lexical Decision Task","80","59686","89","yes","1024"
"2.668385917","5.48","4","twig","word","90","90","668.2444444444444","668.2444444444444","black","no","legacy","legacy","legacy","0","uniform","1","undefined","undefined","undefined","1","j","0","0","0","0","89","0","0","0","89","0","85","89","85","0","85","3","89","0","89","Thu Feb 18 14:46:05 2021","The main experiment item","yes","Lexical_Decision_Task.osexp","C:/Users/ellie","no","Andale Mono","no","18","no","white","no","yes","576","legacy","85","85","3","C:/Users/ellie/subject-5226171.csv","legacy","Lentiform Loewenfeld","3.3.7","yes","yes","600bd7cfb6416f0113b04181","602110864497cf011d9c0822","0","j","NA","space","j","j","space","j","456","NA","2533","8607","3690","3541","456","2","legacy","1024","2","48000","-16","task","5226171","odd","NA","23028","27562","25029","186650","2759","15059","11369","187153","121781","186649","187153","186578","27562","187609","21237","183168","2754","185078","Lexical Decision Task","81","60142","90","yes","1024"
"3.276537627","9.15","5","trap","word","90.10989010989012","90.10989010989012","666.7142857142857","666.7142857142857","black","no","legacy","legacy","legacy","0","uniform","1","undefined","undefined","undefined","1","j","0","0","0","0","90","0","0","0","90","0","86","90","86","0","86","3","90","0","90","Thu Feb 18 14:46:05 2021","The main experiment item","yes","Lexical_Decision_Task.osexp","C:/Users/ellie","no","Andale Mono","no","18","no","white","no","yes","576","legacy","86","86","3","C:/Users/ellie/subject-5226171.csv","legacy","Lentiform Loewenfeld","3.3.7","yes","yes","600bd7cfb6416f0113b04181","602110864497cf011d9c0822","0","j","NA","space","j","j","space","j","529","NA","2533","8607","3690","3541","529","2","legacy","1024","2","48000","-16","task","5226171","odd","NA","23028","27562","25029","188165","2759","15059","11369","188666","121781","188163","188666","188113","27562","189196","21237","187613","2754","185078","Lexical Decision Task","82","60671","91","yes","1024"
"3.208172527","10.27","7","deck","word","90.21739130434783","90.21739130434783","664.6195652173913","664.6195652173913","black","no","legacy","legacy","legacy","0","uniform","1","undefined","undefined","undefined","1","j","0","0","0","0","91","0","0","0","91","0","87","91","87","0","87","3","91","0","91","Thu Feb 18 14:46:05 2021","The main experiment item","yes","Lexical_Decision_Task.osexp","C:/Users/ellie","no","Andale Mono","no","18","no","white","no","yes","576","legacy","87","87","3","C:/Users/ellie/subject-5226171.csv","legacy","Lentiform Loewenfeld","3.3.7","yes","yes","600bd7cfb6416f0113b04181","602110864497cf011d9c0822","0","j","NA","space","j","j","space","j","474","NA","2533","8607","3690","3541","474","2","legacy","1024","2","48000","-16","task","5226171","odd","NA","23028","27562","25029","189759","2759","15059","11369","190261","121781","189758","190261","189699","27562","190735","21237","189199","2754","185078","Lexical Decision Task","83","61145","92","yes","1024"
"2.6599162","0","2","saff","non-word","90.3225806451613","90.3225806451613","663.6666666666666","663.6666666666666","black","no","legacy","legacy","legacy","0","uniform","1","undefined","undefined","undefined","1","f","0","0","0","0","92","0","0","0","92","0","88","92","88","0","88","3","92","0","92","Thu Feb 18 14:46:05 2021","The main experiment item","yes","Lexical_Decision_Task.osexp","C:/Users/ellie","no","Andale Mono","no","18","no","white","no","yes","576","legacy","88","88","3","C:/Users/ellie/subject-5226171.csv","legacy","Lentiform Loewenfeld","3.3.7","yes","yes","600bd7cfb6416f0113b04181","602110864497cf011d9c0822","0","f","NA","space","j","j","space","f","576","NA","2533","8607","3690","3541","576","2","legacy","1024","2","48000","-16","task","5226171","odd","NA","23028","27562","25029","191298","2759","15059","11369","191799","121781","191297","191799","191239","27562","192376","21237","190739","2754","185078","Lexical Decision Task","84","61721","93","yes","1024"
"3.105055783","0","2","norp","non-word","90.42553191489361","90.42553191489361","663.3829787234042","663.3829787234042","black","no","legacy","legacy","legacy","0","uniform","1","undefined","undefined","undefined","1","f","0","0","0","0","93","0","0","0","93","0","89","93","89","0","89","3","93","0","93","Thu Feb 18 14:46:05 2021","The main experiment item","yes","Lexical_Decision_Task.osexp","C:/Users/ellie","no","Andale Mono","no","18","no","white","no","yes","576","legacy","89","89","3","C:/Users/ellie/subject-5226171.csv","legacy","Lentiform Loewenfeld","3.3.7","yes","yes","600bd7cfb6416f0113b04181","602110864497cf011d9c0822","0","f","NA","space","j","j","space","f","637","NA","2533","8607","3690","3541","637","2","legacy","1024","2","48000","-16","task","5226171","odd","NA","23028","27562","25029","192936","2759","15059","11369","193438","121781","192935","193438","192879","27562","194075","21237","192379","2754","185078","Lexical Decision Task","85","62358","94","yes","1024"
"3.372543801","9.24","8","coat","word","90.52631578947368","90.52631578947368","663.4315789473684","663.4315789473684","black","no","legacy","legacy","legacy","0","uniform","1","undefined","undefined","undefined","1","j","0","0","0","0","94","0","0","0","94","0","90","94","90","0","90","3","94","0","94","Thu Feb 18 14:46:05 2021","The main experiment item","yes","Lexical_Decision_Task.osexp","C:/Users/ellie","no","Andale Mono","no","18","no","white","no","yes","576","legacy","90","90","3","C:/Users/ellie/subject-5226171.csv","legacy","Lentiform Loewenfeld","3.3.7","yes","yes","600bd7cfb6416f0113b04181","602110864497cf011d9c0822","0","j","NA","space","j","j","space","j","668","NA","2533","8607","3690","3541","668","2","legacy","1024","2","48000","-16","task","5226171","odd","NA","23028","27562","25029","194636","2759","15059","11369","195137","121781","194634","195137","194579","27562","195806","21237","194079","2754","185078","Lexical Decision Task","86","63026","95","yes","1024"
"3.133964479","0","8","graw","non-word","90.625","90.625","662.2708333333334","662.2708333333334","black","no","legacy","legacy","legacy","0","uniform","1","undefined","undefined","undefined","1","f","0","0","0","0","95","0","0","0","95","0","91","95","91","0","91","3","95","0","95","Thu Feb 18 14:46:05 2021","The main experiment item","yes","Lexical_Decision_Task.osexp","C:/Users/ellie","no","Andale Mono","no","18","no","white","no","yes","576","legacy","91","91","3","C:/Users/ellie/subject-5226171.csv","legacy","Lentiform Loewenfeld","3.3.7","yes","yes","600bd7cfb6416f0113b04181","602110864497cf011d9c0822","0","f","NA","space","j","j","space","f","552","NA","2533","8607","3690","3541","552","2","legacy","1024","2","48000","-16","task","5226171","odd","NA","23028","27562","25029","196363","2759","15059","11369","196864","121781","196362","196864","196309","27562","197417","21237","195809","2754","185078","Lexical Decision Task","87","63578","96","yes","1024"
"2.95456409","0","4","taud","non-word","89.69072164948453","89.69072164948453","660.4226804123712","660.4226804123712","black","no","legacy","legacy","legacy","0","uniform","0","undefined","undefined","undefined","0","f","0","0","0","0","96","0","0","0","96","0","92","96","92","0","92","3","96","0","96","Thu Feb 18 14:46:05 2021","The main experiment item","yes","Lexical_Decision_Task.osexp","C:/Users/ellie","no","Andale Mono","no","18","no","white","no","yes","576","legacy","92","92","3","C:/Users/ellie/subject-5226171.csv","legacy","Lentiform Loewenfeld","3.3.7","yes","yes","600bd7cfb6416f0113b04181","602110864497cf011d9c0822","0","j","NA","space","j","j","space","j","483","NA","2533","8607","3690","3541","483","2","legacy","1024","2","48000","-16","task","5226171","odd","NA","23028","27562","25029","197978","2759","15059","11369","198480","121781","197976","198480","197920","27562","198963","21237","197420","2754","185078","Lexical Decision Task","87","64061","97","yes","1024"
"2.972357144","0","5","dasp","non-word","89.79591836734694","89.79591836734694","662.3061224489796","662.3061224489796","black","no","legacy","legacy","legacy","0","uniform","1","undefined","undefined","undefined","1","f","0","0","0","0","97","0","0","0","97","0","93","97","93","0","93","3","97","0","97","Thu Feb 18 14:46:05 2021","The main experiment item","yes","Lexical_Decision_Task.osexp","C:/Users/ellie","no","Andale Mono","no","18","no","white","no","yes","576","legacy","93","93","3","C:/Users/ellie/subject-5226171.csv","legacy","Lentiform Loewenfeld","3.3.7","yes","yes","600bd7cfb6416f0113b04181","602110864497cf011d9c0822","0","f","NA","space","j","j","space","f","845","NA","2533","8607","3690","3541","845","2","legacy","1024","2","48000","-16","task","5226171","odd","NA","23028","27562","25029","200524","2759","15059","11369","201025","121781","200523","201025","200467","27562","201870","21237","197420","2754","198967","Lexical Decision Task","88","64906","98","yes","1024"
"2.746890964","9.67","3","plug","word","89.8989898989899","89.8989898989899","661.040404040404","661.040404040404","black","no","legacy","legacy","legacy","0","uniform","1","undefined","undefined","undefined","1","j","0","0","0","0","98","0","0","0","98","0","94","98","94","0","94","3","98","0","98","Thu Feb 18 14:46:05 2021","The main experiment item","yes","Lexical_Decision_Task.osexp","C:/Users/ellie","no","Andale Mono","no","18","no","white","no","yes","576","legacy","94","94","3","C:/Users/ellie/subject-5226171.csv","legacy","Lentiform Loewenfeld","3.3.7","yes","yes","600bd7cfb6416f0113b04181","602110864497cf011d9c0822","0","j","NA","space","j","j","space","j","537","NA","2533","8607","3690","3541","537","2","legacy","1024","2","48000","-16","task","5226171","odd","NA","23028","27562","25029","202427","2759","15059","11369","202928","121781","202425","202928","202374","27562","203466","21237","201874","2754","198967","Lexical Decision Task","89","65443","99","yes","1024"
"3.156347201","0","8","lasp","non-word","90","90","667.63","667.63","black","no","legacy","legacy","legacy","0","uniform","1","undefined","undefined","undefined","1","f","0","0","0","0","99","0","0","0","99","0","95","99","95","0","95","3","99","0","99","Thu Feb 18 14:46:05 2021","The main experiment item","yes","Lexical_Decision_Task.osexp","C:/Users/ellie","no","Andale Mono","no","18","no","white","no","yes","576","legacy","95","95","3","C:/Users/ellie/subject-5226171.csv","legacy","Lentiform Loewenfeld","3.3.7","yes","yes","600bd7cfb6416f0113b04181","602110864497cf011d9c0822","0","f","NA","space","j","j","space","f","1320","NA","2533","8607","3690","3541","1320","2","legacy","1024","2","48000","-16","task","5226171","odd","NA","23028","27562","25029","204026","2759","15059","11369","204527","121781","204024","204527","203970","27562","205848","21237","203470","2754","198967","Lexical Decision Task","90","66763","100","yes","1024"
"3.134602053","0","8","jart","non-word","90.0990099009901","90.0990099009901","667.3465346534654","667.3465346534654","black","no","legacy","legacy","legacy","0","uniform","1","undefined","undefined","undefined","1","f","0","0","0","0","100","0","0","0","100","0","96","100","96","0","96","3","100","0","100","Thu Feb 18 14:46:05 2021","The main experiment item","yes","Lexical_Decision_Task.osexp","C:/Users/ellie","no","Andale Mono","no","18","no","white","no","yes","576","legacy","96","96","3","C:/Users/ellie/subject-5226171.csv","legacy","Lentiform Loewenfeld","3.3.7","yes","yes","600bd7cfb6416f0113b04181","602110864497cf011d9c0822","0","f","NA","space","j","j","space","f","639","NA","2533","8607","3690","3541","639","2","legacy","1024","2","48000","-16","task","5226171","odd","NA","23028","27562","25029","206406","2759","15059","11369","206908","121781","206404","206908","206351","27562","207548","21237","205851","2754","198967","Lexical Decision Task","91","67402","101","yes","1024"
"2.695481676","0","7","goke","non-word","90.19607843137256","90.19607843137256","668.1078431372549","668.1078431372549","black","no","legacy","legacy","legacy","0","uniform","1","undefined","undefined","undefined","1","f","0","0","0","0","101","0","0","0","101","0","97","101","97","0","97","3","101","0","101","Thu Feb 18 14:46:05 2021","The main experiment item","yes","Lexical_Decision_Task.osexp","C:/Users/ellie","no","Andale Mono","no","18","no","white","no","yes","576","legacy","97","97","3","C:/Users/ellie/subject-5226171.csv","legacy","Lentiform Loewenfeld","3.3.7","yes","yes","600bd7cfb6416f0113b04181","602110864497cf011d9c0822","0","f","NA","space","j","j","space","f","745","NA","2533","8607","3690","3541","745","2","legacy","1024","2","48000","-16","task","5226171","odd","NA","23028","27562","25029","208109","2759","15059","11369","208610","121781","208107","208610","208052","27562","209356","21237","207552","2754","198967","Lexical Decision Task","92","68147","102","yes","1024"
"2.778633532","0","3","jurp","non-word","89.32038834951456","89.32038834951456","667.9223300970874","667.9223300970874","black","no","legacy","legacy","legacy","0","uniform","0","undefined","undefined","undefined","0","f","0","0","0","0","102","0","0","0","102","0","98","102","98","0","98","3","102","0","102","Thu Feb 18 14:46:05 2021","The main experiment item","yes","Lexical_Decision_Task.osexp","C:/Users/ellie","no","Andale Mono","no","18","no","white","no","yes","576","legacy","98","98","3","C:/Users/ellie/subject-5226171.csv","legacy","Lentiform Loewenfeld","3.3.7","yes","yes","600bd7cfb6416f0113b04181","602110864497cf011d9c0822","0","j","NA","space","j","j","space","j","649","NA","2533","8607","3690","3541","649","2","legacy","1024","2","48000","-16","task","5226171","odd","NA","23028","27562","25029","209917","2759","15059","11369","210419","121781","209915","210419","209859","27562","211068","21237","209359","2754","198967","Lexical Decision Task","92","68796","103","yes","1024"
