"Log_BG","Log_Freq_HAL","Ortho_N","Stimulus","Type","acc","accuracy","average_response_time","avg_rt","background","bidi","canvas_backend","clock_backend","color_backend","compensation","coordinates","correct","correct_Experimental_intro","correct_Introduction","correct_Practice_intro","correct_experimenter_kb","correct_response","count_End_Of_Experiment","count_End_Of_Practice","count_Experimental_Loop","count_Experimental_intro","count_Fixation","count_Introduction","count_Practice_Loop","count_Practice_intro","count_Stimulus","count_block_break_feedback","count_experimental_sequence","count_experimenter_kb","count_increment_trial_count","count_init_trial_count","count_logger","count_practice_sequence","count_right","count_task","count_wrong","datetime","description","disable_garbage_collection","experiment_file","experiment_path","font_bold","font_family","font_italic","font_size","font_underline","foreground","form_clicks","fullscreen","height","keyboard_backend","live_row","live_row_Experimental_Loop","live_row_Practice_Loop","logfile","mouse_backend","opensesame_codename","opensesame_version","osf_always_upload_data","osf_always_upload_experiment","osf_datanode_id","osf_id","repeat_cycle","response","response_End_Of_Experiment","response_Experimental_intro","response_Introduction","response_Practice_intro","response_block_break_feedback","response_experimenter_kb","response_time","response_time_End_Of_Experiment","response_time_Experimental_intro","response_time_Introduction","response_time_Practice_intro","response_time_block_break_feedback","response_time_experimenter_kb","round_decimals","sampler_backend","sound_buf_size","sound_channels","sound_freq","sound_sample_size","start","subject_nr","subject_parity","time_End_Of_Experiment","time_End_Of_Practice","time_Experimental_Loop","time_Experimental_intro","time_Fixation","time_Introduction","time_Practice_Loop","time_Practice_intro","time_Stimulus","time_block_break_feedback","time_experimental_sequence","time_experimenter_kb","time_increment_trial_count","time_init_trial_count","time_logger","time_practice_sequence","time_right","time_task","time_wrong","title","total_correct","total_response_time","total_responses","uniform_coordinates","width"
"2.668385917","5.48","4","twig","word","100","100","996","996","black","no","legacy","legacy","legacy","0","uniform","1","undefined","undefined","undefined","1","j","0","0","0","0","4","0","0","0","4","NA","0","4","0","0","0","3","4","0","4","Fri Feb 19 12:10:06 2021","The main experiment item","yes","Lexical_Decision_Task.osexp","/Users/abbiehobbs/Downloads","no","Andale Mono","no","18","no","white","no","yes","576","legacy","0","0","3","/Users/abbiehobbs/Downloads/subject-5203244.csv","legacy","Lentiform Loewenfeld","3.3.7","yes","yes","600bd7cfb6416f0113b04181","602110864497cf011d9c0822","0","j","NA","j","j","j","NA","j","1066","NA","3656","28513","6609","NA","1066","2","legacy","1024","2","48000","-16","task","5203244","even","NA","48174","53835","50178","53860","4841","39981","33368","54364","NA","53858","54364","NA","53835","55431","46279","47645","4790","NA","Lexical Decision Task","5","4980","5","yes","1024"
"2.784379519","0","2","snaf","non-word","100","100","962.1666666666666","962.1666666666666","black","no","legacy","legacy","legacy","0","uniform","1","undefined","undefined","undefined","1","f","0","0","0","0","5","0","0","0","5","NA","1","5","1","0","1","3","5","0","5","Fri Feb 19 12:10:06 2021","The main experiment item","yes","Lexical_Decision_Task.osexp","/Users/abbiehobbs/Downloads","no","Andale Mono","no","18","no","white","no","yes","576","legacy","1","1","3","/Users/abbiehobbs/Downloads/subject-5203244.csv","legacy","Lentiform Loewenfeld","3.3.7","yes","yes","600bd7cfb6416f0113b04181","602110864497cf011d9c0822","0","f","NA","j","j","j","NA","f","793","NA","3656","28513","6609","NA","793","2","legacy","1024","2","48000","-16","task","5203244","even","NA","48174","53835","50178","56001","4841","39981","33368","56504","NA","55999","56504","55938","53835","57298","46279","55438","4790","NA","Lexical Decision Task","6","5773","6","yes","1024"
"2.895974732","6.65","5","sift","word","100","100","999.4285714285714","999.4285714285714","black","no","legacy","legacy","legacy","0","uniform","1","undefined","undefined","undefined","1","j","0","0","0","0","6","0","0","0","6","NA","2","6","2","0","2","3","6","0","6","Fri Feb 19 12:10:06 2021","The main experiment item","yes","Lexical_Decision_Task.osexp","/Users/abbiehobbs/Downloads","no","Andale Mono","no","18","no","white","no","yes","576","legacy","2","2","3","/Users/abbiehobbs/Downloads/subject-5203244.csv","legacy","Lentiform Loewenfeld","3.3.7","yes","yes","600bd7cfb6416f0113b04181","602110864497cf011d9c0822","0","j","NA","j","j","j","NA","j","1223","NA","3656","28513","6609","NA","1223","2","legacy","1024","2","48000","-16","task","5203244","even","NA","48174","53835","50178","57862","4841","39981","33368","58365","NA","57859","58365","57802","53835","59589","46279","57302","4790","NA","Lexical Decision Task","7","6996","7","yes","1024"
"3.137775856","7.39","5","comb","word","100","100","976.5","976.5","black","no","legacy","legacy","legacy","0","uniform","1","undefined","undefined","undefined","1","j","0","0","0","0","7","0","0","0","7","NA","3","7","3","0","3","3","7","0","7","Fri Feb 19 12:10:06 2021","The main experiment item","yes","Lexical_Decision_Task.osexp","/Users/abbiehobbs/Downloads","no","Andale Mono","no","18","no","white","no","yes","576","legacy","3","3","3","/Users/abbiehobbs/Downloads/subject-5203244.csv","legacy","Lentiform Loewenfeld","3.3.7","yes","yes","600bd7cfb6416f0113b04181","602110864497cf011d9c0822","0","j","NA","j","j","j","NA","j","816","NA","3656","28513","6609","NA","816","2","legacy","1024","2","48000","-16","task","5203244","even","NA","48174","53835","50178","60151","4841","39981","33368","60654","NA","60148","60654","60094","53835","61471","46279","59594","4790","NA","Lexical Decision Task","8","7812","8","yes","1024"
"3.081107167","0","6","chot","non-word","100","100","983.7777777777778","983.7777777777778","black","no","legacy","legacy","legacy","0","uniform","1","undefined","undefined","undefined","1","f","0","0","0","0","8","0","0","0","8","NA","4","8","4","0","4","3","8","0","8","Fri Feb 19 12:10:06 2021","The main experiment item","yes","Lexical_Decision_Task.osexp","/Users/abbiehobbs/Downloads","no","Andale Mono","no","18","no","white","no","yes","576","legacy","4","4","3","/Users/abbiehobbs/Downloads/subject-5203244.csv","legacy","Lentiform Loewenfeld","3.3.7","yes","yes","600bd7cfb6416f0113b04181","602110864497cf011d9c0822","0","f","NA","j","j","j","NA","f","1042","NA","3656","28513","6609","NA","1042","2","legacy","1024","2","48000","-16","task","5203244","even","NA","48174","53835","50178","62034","4841","39981","33368","62537","NA","62031","62537","61975","53835","63580","46279","61475","4790","NA","Lexical Decision Task","9","8854","9","yes","1024"
"3.1430148","7.92","8","bald","word","100","100","955.7","955.7","black","no","legacy","legacy","legacy","0","uniform","1","undefined","undefined","undefined","1","j","0","0","0","0","9","0","0","0","9","NA","5","9","5","0","5","3","9","0","9","Fri Feb 19 12:10:06 2021","The main experiment item","yes","Lexical_Decision_Task.osexp","/Users/abbiehobbs/Downloads","no","Andale Mono","no","18","no","white","no","yes","576","legacy","5","5","3","/Users/abbiehobbs/Downloads/subject-5203244.csv","legacy","Lentiform Loewenfeld","3.3.7","yes","yes","600bd7cfb6416f0113b04181","602110864497cf011d9c0822","0","j","NA","j","j","j","NA","j","703","NA","3656","28513","6609","NA","703","2","legacy","1024","2","48000","-16","task","5203244","even","NA","48174","53835","50178","64141","4841","39981","33368","64644","NA","64139","64644","64083","53835","65348","46279","63583","4790","NA","Lexical Decision Task","10","9557","10","yes","1024"
"2.778633532","0","3","jurp","non-word","100","100","931.4545454545455","931.4545454545455","black","no","legacy","legacy","legacy","0","uniform","1","undefined","undefined","undefined","1","f","0","0","0","0","10","0","0","0","10","NA","6","10","6","0","6","3","10","0","10","Fri Feb 19 12:10:06 2021","The main experiment item","yes","Lexical_Decision_Task.osexp","/Users/abbiehobbs/Downloads","no","Andale Mono","no","18","no","white","no","yes","576","legacy","6","6","3","/Users/abbiehobbs/Downloads/subject-5203244.csv","legacy","Lentiform Loewenfeld","3.3.7","yes","yes","600bd7cfb6416f0113b04181","602110864497cf011d9c0822","0","f","NA","j","j","j","NA","f","689","NA","3656","28513","6609","NA","689","2","legacy","1024","2","48000","-16","task","5203244","even","NA","48174","53835","50178","65910","4841","39981","33368","66413","NA","65907","66413","65852","53835","67103","46279","65352","4790","NA","Lexical Decision Task","11","10246","11","yes","1024"
"3.302475237","0","7","leel","non-word","100","100","930.5833333333334","930.5833333333334","black","no","legacy","legacy","legacy","0","uniform","1","undefined","undefined","undefined","1","f","0","0","0","0","11","0","0","0","11","NA","7","11","7","0","7","3","11","0","11","Fri Feb 19 12:10:06 2021","The main experiment item","yes","Lexical_Decision_Task.osexp","/Users/abbiehobbs/Downloads","no","Andale Mono","no","18","no","white","no","yes","576","legacy","7","7","3","/Users/abbiehobbs/Downloads/subject-5203244.csv","legacy","Lentiform Loewenfeld","3.3.7","yes","yes","600bd7cfb6416f0113b04181","602110864497cf011d9c0822","0","f","NA","j","j","j","NA","f","921","NA","3656","28513","6609","NA","921","2","legacy","1024","2","48000","-16","task","5203244","even","NA","48174","53835","50178","67664","4841","39981","33368","68167","NA","67662","68167","67607","53835","69088","46279","67106","4790","NA","Lexical Decision Task","12","11167","12","yes","1024"
"2.675164031","8.57","6","glue","word","100","100","913.2307692307693","913.2307692307693","black","no","legacy","legacy","legacy","0","uniform","1","undefined","undefined","undefined","1","j","0","0","0","0","12","0","0","0","12","NA","8","12","8","0","8","3","12","0","12","Fri Feb 19 12:10:06 2021","The main experiment item","yes","Lexical_Decision_Task.osexp","/Users/abbiehobbs/Downloads","no","Andale Mono","no","18","no","white","no","yes","576","legacy","8","8","3","/Users/abbiehobbs/Downloads/subject-5203244.csv","legacy","Lentiform Loewenfeld","3.3.7","yes","yes","600bd7cfb6416f0113b04181","602110864497cf011d9c0822","0","j","NA","j","j","j","NA","j","705","NA","3656","28513","6609","NA","705","2","legacy","1024","2","48000","-16","task","5203244","even","NA","48174","53835","50178","69650","4841","39981","33368","70153","NA","69647","70153","69592","53835","70858","46279","69092","4790","NA","Lexical Decision Task","13","11872","13","yes","1024"
"3.140404328","10.66","9","deep","word","100","100","893.2857142857143","893.2857142857143","black","no","legacy","legacy","legacy","0","uniform","1","undefined","undefined","undefined","1","j","0","0","0","0","13","0","0","0","13","NA","9","13","9","0","9","3","13","0","13","Fri Feb 19 12:10:06 2021","The main experiment item","yes","Lexical_Decision_Task.osexp","/Users/abbiehobbs/Downloads","no","Andale Mono","no","18","no","white","no","yes","576","legacy","9","9","3","/Users/abbiehobbs/Downloads/subject-5203244.csv","legacy","Lentiform Loewenfeld","3.3.7","yes","yes","600bd7cfb6416f0113b04181","602110864497cf011d9c0822","0","j","NA","j","j","j","NA","j","634","NA","3656","28513","6609","NA","634","2","legacy","1024","2","48000","-16","task","5203244","even","NA","48174","53835","50178","71419","4841","39981","33368","71922","NA","71417","71922","71362","53835","72556","46279","70862","4790","NA","Lexical Decision Task","14","12506","14","yes","1024"
"3.133964479","0","8","graw","non-word","100","100","886.2","886.2","black","no","legacy","legacy","legacy","0","uniform","1","undefined","undefined","undefined","1","f","0","0","0","0","14","0","0","0","14","NA","10","14","10","0","10","3","14","0","14","Fri Feb 19 12:10:06 2021","The main experiment item","yes","Lexical_Decision_Task.osexp","/Users/abbiehobbs/Downloads","no","Andale Mono","no","18","no","white","no","yes","576","legacy","10","10","3","/Users/abbiehobbs/Downloads/subject-5203244.csv","legacy","Lentiform Loewenfeld","3.3.7","yes","yes","600bd7cfb6416f0113b04181","602110864497cf011d9c0822","0","f","NA","j","j","j","NA","f","787","NA","3656","28513","6609","NA","787","2","legacy","1024","2","48000","-16","task","5203244","even","NA","48174","53835","50178","73118","4841","39981","33368","73621","NA","73116","73621","73061","53835","74409","46279","72560","4790","NA","Lexical Decision Task","15","13293","15","yes","1024"
"2.873320602","0","4","lurg","non-word","100","100","875.1875","875.1875","black","no","legacy","legacy","legacy","0","uniform","1","undefined","undefined","undefined","1","f","0","0","0","0","15","0","0","0","15","NA","11","15","11","0","11","3","15","0","15","Fri Feb 19 12:10:06 2021","The main experiment item","yes","Lexical_Decision_Task.osexp","/Users/abbiehobbs/Downloads","no","Andale Mono","no","18","no","white","no","yes","576","legacy","11","11","3","/Users/abbiehobbs/Downloads/subject-5203244.csv","legacy","Lentiform Loewenfeld","3.3.7","yes","yes","600bd7cfb6416f0113b04181","602110864497cf011d9c0822","0","f","NA","j","j","j","NA","f","710","NA","3656","28513","6609","NA","710","2","legacy","1024","2","48000","-16","task","5203244","even","NA","48174","53835","50178","74970","4841","39981","33368","75473","NA","74968","75473","74912","53835","76184","46279","74412","4790","NA","Lexical Decision Task","16","14003","16","yes","1024"
"2.966923697","5.4","2","fume","word","100","100","870.1176470588235","870.1176470588235","black","no","legacy","legacy","legacy","0","uniform","1","undefined","undefined","undefined","1","j","0","0","0","0","16","0","0","0","16","NA","12","16","12","0","12","3","16","0","16","Fri Feb 19 12:10:06 2021","The main experiment item","yes","Lexical_Decision_Task.osexp","/Users/abbiehobbs/Downloads","no","Andale Mono","no","18","no","white","no","yes","576","legacy","12","12","3","/Users/abbiehobbs/Downloads/subject-5203244.csv","legacy","Lentiform Loewenfeld","3.3.7","yes","yes","600bd7cfb6416f0113b04181","602110864497cf011d9c0822","0","j","NA","j","j","j","NA","j","789","NA","3656","28513","6609","NA","789","2","legacy","1024","2","48000","-16","task","5203244","even","NA","48174","53835","50178","76745","4841","39981","33368","77248","NA","76743","77248","76688","53835","78037","46279","76188","4790","NA","Lexical Decision Task","17","14792","17","yes","1024"
"2.920123326","7.43","4","duel","word","100","100","857.6666666666666","857.6666666666666","black","no","legacy","legacy","legacy","0","uniform","1","undefined","undefined","undefined","1","j","0","0","0","0","17","0","0","0","17","NA","13","17","13","0","13","3","17","0","17","Fri Feb 19 12:10:06 2021","The main experiment item","yes","Lexical_Decision_Task.osexp","/Users/abbiehobbs/Downloads","no","Andale Mono","no","18","no","white","no","yes","576","legacy","13","13","3","/Users/abbiehobbs/Downloads/subject-5203244.csv","legacy","Lentiform Loewenfeld","3.3.7","yes","yes","600bd7cfb6416f0113b04181","602110864497cf011d9c0822","0","j","NA","j","j","j","NA","j","646","NA","3656","28513","6609","NA","646","2","legacy","1024","2","48000","-16","task","5203244","even","NA","48174","53835","50178","78600","4841","39981","33368","79103","NA","78597","79103","78541","53835","79750","46279","78041","4790","NA","Lexical Decision Task","18","15438","18","yes","1024"
"3.064581521","5.51","6","cask","word","94.73684210526316","94.73684210526316","856.8947368421053","856.8947368421053","black","no","legacy","legacy","legacy","0","uniform","0","undefined","undefined","undefined","0","j","0","0","0","0","18","0","0","0","18","NA","14","18","14","0","14","3","18","0","18","Fri Feb 19 12:10:06 2021","The main experiment item","yes","Lexical_Decision_Task.osexp","/Users/abbiehobbs/Downloads","no","Andale Mono","no","18","no","white","no","yes","576","legacy","14","14","3","/Users/abbiehobbs/Downloads/subject-5203244.csv","legacy","Lentiform Loewenfeld","3.3.7","yes","yes","600bd7cfb6416f0113b04181","602110864497cf011d9c0822","0","f","NA","j","j","j","NA","f","843","NA","3656","28513","6609","NA","843","2","legacy","1024","2","48000","-16","task","5203244","even","NA","48174","53835","50178","80313","4841","39981","33368","80816","NA","80311","80816","80254","53835","81660","46279","79754","4790","NA","Lexical Decision Task","18","16281","19","yes","1024"
"3.132473155","0","4","glim","non-word","90","90","858.05","858.05","black","no","legacy","legacy","legacy","0","uniform","0","undefined","undefined","undefined","0","f","0","0","0","0","19","0","0","0","19","NA","15","19","15","0","15","3","19","0","19","Fri Feb 19 12:10:06 2021","The main experiment item","yes","Lexical_Decision_Task.osexp","/Users/abbiehobbs/Downloads","no","Andale Mono","no","18","no","white","no","yes","576","legacy","15","15","3","/Users/abbiehobbs/Downloads/subject-5203244.csv","legacy","Lentiform Loewenfeld","3.3.7","yes","yes","600bd7cfb6416f0113b04181","602110864497cf011d9c0822","0","j","NA","j","j","j","NA","j","880","NA","3656","28513","6609","NA","880","2","legacy","1024","2","48000","-16","task","5203244","even","NA","48174","53835","50178","83225","4841","39981","33368","83728","NA","83223","83728","83164","53835","84609","46279","79754","4790","81664","Lexical Decision Task","18","17161","20","yes","1024"
"3.174641193","0","3","ramb","non-word","90.47619047619048","90.47619047619048","856.4761904761905","856.4761904761905","black","no","legacy","legacy","legacy","0","uniform","1","undefined","undefined","undefined","1","f","0","0","0","0","20","0","0","0","20","NA","16","20","16","0","16","3","20","0","20","Fri Feb 19 12:10:06 2021","The main experiment item","yes","Lexical_Decision_Task.osexp","/Users/abbiehobbs/Downloads","no","Andale Mono","no","18","no","white","no","yes","576","legacy","16","16","3","/Users/abbiehobbs/Downloads/subject-5203244.csv","legacy","Lentiform Loewenfeld","3.3.7","yes","yes","600bd7cfb6416f0113b04181","602110864497cf011d9c0822","0","f","NA","j","j","j","NA","f","825","NA","3656","28513","6609","NA","825","2","legacy","1024","2","48000","-16","task","5203244","even","NA","48174","53835","50178","86177","4841","39981","33368","86680","NA","86174","86680","86115","53835","87506","46279","79754","4790","84615","Lexical Decision Task","19","17986","21","yes","1024"
"2.793790385","5.67","9","swab","word","90.9090909090909","90.9090909090909","846.6363636363636","846.6363636363636","black","no","legacy","legacy","legacy","0","uniform","1","undefined","undefined","undefined","1","j","0","0","0","0","21","0","0","0","21","NA","17","21","17","0","17","3","21","0","21","Fri Feb 19 12:10:06 2021","The main experiment item","yes","Lexical_Decision_Task.osexp","/Users/abbiehobbs/Downloads","no","Andale Mono","no","18","no","white","no","yes","576","legacy","17","17","3","/Users/abbiehobbs/Downloads/subject-5203244.csv","legacy","Lentiform Loewenfeld","3.3.7","yes","yes","600bd7cfb6416f0113b04181","602110864497cf011d9c0822","0","j","NA","j","j","j","NA","j","640","NA","3656","28513","6609","NA","640","2","legacy","1024","2","48000","-16","task","5203244","even","NA","48174","53835","50178","88067","4841","39981","33368","88570","NA","88064","88570","88009","53835","89211","46279","87509","4790","84615","Lexical Decision Task","20","18626","22","yes","1024"
"2.709837904","6.85","8","skim","word","91.30434782608695","91.30434782608695","841.7826086956521","841.7826086956521","black","no","legacy","legacy","legacy","0","uniform","1","undefined","undefined","undefined","1","j","0","0","0","0","22","0","0","0","22","NA","18","22","18","0","18","3","22","0","22","Fri Feb 19 12:10:06 2021","The main experiment item","yes","Lexical_Decision_Task.osexp","/Users/abbiehobbs/Downloads","no","Andale Mono","no","18","no","white","no","yes","576","legacy","18","18","3","/Users/abbiehobbs/Downloads/subject-5203244.csv","legacy","Lentiform Loewenfeld","3.3.7","yes","yes","600bd7cfb6416f0113b04181","602110864497cf011d9c0822","0","j","NA","j","j","j","NA","j","735","NA","3656","28513","6609","NA","735","2","legacy","1024","2","48000","-16","task","5203244","even","NA","48174","53835","50178","89774","4841","39981","33368","90277","NA","89771","90277","89715","53835","91013","46279","89215","4790","84615","Lexical Decision Task","21","19361","23","yes","1024"
"2.664011697","8.19","4","hawk","word","91.66666666666667","91.66666666666667","832.75","832.75","black","no","legacy","legacy","legacy","0","uniform","1","undefined","undefined","undefined","1","j","0","0","0","0","23","0","0","0","23","NA","19","23","19","0","19","3","23","0","23","Fri Feb 19 12:10:06 2021","The main experiment item","yes","Lexical_Decision_Task.osexp","/Users/abbiehobbs/Downloads","no","Andale Mono","no","18","no","white","no","yes","576","legacy","19","19","3","/Users/abbiehobbs/Downloads/subject-5203244.csv","legacy","Lentiform Loewenfeld","3.3.7","yes","yes","600bd7cfb6416f0113b04181","602110864497cf011d9c0822","0","j","NA","j","j","j","NA","j","625","NA","3656","28513","6609","NA","625","2","legacy","1024","2","48000","-16","task","5203244","even","NA","48174","53835","50178","91575","4841","39981","33368","92078","NA","91572","92078","91517","53835","92704","46279","91016","4790","84615","Lexical Decision Task","22","19986","24","yes","1024"
"3.299579929","0","2","flis","non-word","92","92","826.24","826.24","black","no","legacy","legacy","legacy","0","uniform","1","undefined","undefined","undefined","1","f","0","0","0","0","24","0","0","0","24","NA","20","24","20","0","20","3","24","0","24","Fri Feb 19 12:10:06 2021","The main experiment item","yes","Lexical_Decision_Task.osexp","/Users/abbiehobbs/Downloads","no","Andale Mono","no","18","no","white","no","yes","576","legacy","20","20","3","/Users/abbiehobbs/Downloads/subject-5203244.csv","legacy","Lentiform Loewenfeld","3.3.7","yes","yes","600bd7cfb6416f0113b04181","602110864497cf011d9c0822","0","f","NA","j","j","j","NA","f","670","NA","3656","28513","6609","NA","670","2","legacy","1024","2","48000","-16","task","5203244","even","NA","48174","53835","50178","93266","4841","39981","33368","93769","NA","93264","93769","93208","53835","94440","46279","92708","4790","84615","Lexical Decision Task","23","20656","25","yes","1024"
"3.257359335","8","6","brew","word","92.3076923076923","92.3076923076923","816.5","816.5","black","no","legacy","legacy","legacy","0","uniform","1","undefined","undefined","undefined","1","j","0","0","0","0","25","0","0","0","25","NA","21","25","21","0","21","3","25","0","25","Fri Feb 19 12:10:06 2021","The main experiment item","yes","Lexical_Decision_Task.osexp","/Users/abbiehobbs/Downloads","no","Andale Mono","no","18","no","white","no","yes","576","legacy","21","21","3","/Users/abbiehobbs/Downloads/subject-5203244.csv","legacy","Lentiform Loewenfeld","3.3.7","yes","yes","600bd7cfb6416f0113b04181","602110864497cf011d9c0822","0","j","NA","j","j","j","NA","j","573","NA","3656","28513","6609","NA","573","2","legacy","1024","2","48000","-16","task","5203244","even","NA","48174","53835","50178","95001","4841","39981","33368","95505","NA","94999","95505","94944","53835","96079","46279","94444","4790","84615","Lexical Decision Task","24","21229","26","yes","1024"
"3.168890155","0","6","thet","non-word","92.5925925925926","92.5925925925926","813","813","black","no","legacy","legacy","legacy","0","uniform","1","undefined","undefined","undefined","1","f","0","0","0","0","26","0","0","0","26","NA","22","26","22","0","22","3","26","0","26","Fri Feb 19 12:10:06 2021","The main experiment item","yes","Lexical_Decision_Task.osexp","/Users/abbiehobbs/Downloads","no","Andale Mono","no","18","no","white","no","yes","576","legacy","22","22","3","/Users/abbiehobbs/Downloads/subject-5203244.csv","legacy","Lentiform Loewenfeld","3.3.7","yes","yes","600bd7cfb6416f0113b04181","602110864497cf011d9c0822","0","f","NA","j","j","j","NA","f","722","NA","3656","28513","6609","NA","722","2","legacy","1024","2","48000","-16","task","5203244","even","NA","48174","53835","50178","96641","4841","39981","33368","97144","NA","96638","97144","96583","53835","97867","46279","96083","4790","84615","Lexical Decision Task","25","21951","27","yes","1024"
"2.821076612","0","4","lult","non-word","92.85714285714286","92.85714285714286","808.4285714285714","808.4285714285714","black","no","legacy","legacy","legacy","0","uniform","1","undefined","undefined","undefined","1","f","0","0","0","0","27","0","0","0","27","NA","23","27","23","0","23","3","27","0","27","Fri Feb 19 12:10:06 2021","The main experiment item","yes","Lexical_Decision_Task.osexp","/Users/abbiehobbs/Downloads","no","Andale Mono","no","18","no","white","no","yes","576","legacy","23","23","3","/Users/abbiehobbs/Downloads/subject-5203244.csv","legacy","Lentiform Loewenfeld","3.3.7","yes","yes","600bd7cfb6416f0113b04181","602110864497cf011d9c0822","0","f","NA","j","j","j","NA","f","685","NA","3656","28513","6609","NA","685","2","legacy","1024","2","48000","-16","task","5203244","even","NA","48174","53835","50178","98429","4841","39981","33368","98932","NA","98426","98932","98371","53835","99617","46279","97871","4790","84615","Lexical Decision Task","26","22636","28","yes","1024"
"3.20871002","7.15","8","cram","word","93.10344827586206","93.10344827586206","804.3793103448276","804.3793103448276","black","no","legacy","legacy","legacy","0","uniform","1","undefined","undefined","undefined","1","j","0","0","0","0","28","0","0","0","28","NA","24","28","24","0","24","3","28","0","28","Fri Feb 19 12:10:06 2021","The main experiment item","yes","Lexical_Decision_Task.osexp","/Users/abbiehobbs/Downloads","no","Andale Mono","no","18","no","white","no","yes","576","legacy","24","24","3","/Users/abbiehobbs/Downloads/subject-5203244.csv","legacy","Lentiform Loewenfeld","3.3.7","yes","yes","600bd7cfb6416f0113b04181","602110864497cf011d9c0822","0","j","NA","j","j","j","NA","j","691","NA","3656","28513","6609","NA","691","2","legacy","1024","2","48000","-16","task","5203244","even","NA","48174","53835","50178","100179","4841","39981","33368","100682","NA","100176","100682","100121","53835","101374","46279","99621","4790","84615","Lexical Decision Task","27","23327","29","yes","1024"
"2.990042563","6.64","9","plow","word","93.33333333333333","93.33333333333333","815.6","815.6","black","no","legacy","legacy","legacy","0","uniform","1","undefined","undefined","undefined","1","j","0","0","0","0","29","0","0","0","29","NA","25","29","25","0","25","3","29","0","29","Fri Feb 19 12:10:06 2021","The main experiment item","yes","Lexical_Decision_Task.osexp","/Users/abbiehobbs/Downloads","no","Andale Mono","no","18","no","white","no","yes","576","legacy","25","25","3","/Users/abbiehobbs/Downloads/subject-5203244.csv","legacy","Lentiform Loewenfeld","3.3.7","yes","yes","600bd7cfb6416f0113b04181","602110864497cf011d9c0822","0","j","NA","j","j","j","NA","j","1141","NA","3656","28513","6609","NA","1141","2","legacy","1024","2","48000","-16","task","5203244","even","NA","48174","53835","50178","101935","4841","39981","33368","102438","NA","101933","102438","101878","53835","103580","46279","101377","4790","84615","Lexical Decision Task","28","24468","30","yes","1024"
"2.819763221","0","2","durp","non-word","93.54838709677419","93.54838709677419","808.7096774193549","808.7096774193549","black","no","legacy","legacy","legacy","0","uniform","1","undefined","undefined","undefined","1","f","0","0","0","0","30","0","0","0","30","NA","26","30","26","0","26","3","30","0","30","Fri Feb 19 12:10:06 2021","The main experiment item","yes","Lexical_Decision_Task.osexp","/Users/abbiehobbs/Downloads","no","Andale Mono","no","18","no","white","no","yes","576","legacy","26","26","3","/Users/abbiehobbs/Downloads/subject-5203244.csv","legacy","Lentiform Loewenfeld","3.3.7","yes","yes","600bd7cfb6416f0113b04181","602110864497cf011d9c0822","0","f","NA","j","j","j","NA","f","602","NA","3656","28513","6609","NA","602","2","legacy","1024","2","48000","-16","task","5203244","even","NA","48174","53835","50178","104140","4841","39981","33368","104643","NA","104138","104643","104083","53835","105245","46279","103583","4790","84615","Lexical Decision Task","29","25070","31","yes","1024"
"3.474361976","5.24","6","veer","word","90.625","90.625","821.84375","821.84375","black","no","legacy","legacy","legacy","0","uniform","0","undefined","undefined","undefined","0","j","0","0","0","0","31","0","0","0","31","NA","27","31","27","0","27","3","31","0","31","Fri Feb 19 12:10:06 2021","The main experiment item","yes","Lexical_Decision_Task.osexp","/Users/abbiehobbs/Downloads","no","Andale Mono","no","18","no","white","no","yes","576","legacy","27","27","3","/Users/abbiehobbs/Downloads/subject-5203244.csv","legacy","Lentiform Loewenfeld","3.3.7","yes","yes","600bd7cfb6416f0113b04181","602110864497cf011d9c0822","0","f","NA","j","j","j","NA","f","1229","NA","3656","28513","6609","NA","1229","2","legacy","1024","2","48000","-16","task","5203244","even","NA","48174","53835","50178","105807","4841","39981","33368","106310","NA","105804","106310","105749","53835","107540","46279","105249","4790","84615","Lexical Decision Task","29","26299","32","yes","1024"
"3.105055783","0","2","norp","non-word","90.9090909090909","90.9090909090909","818.7878787878788","818.7878787878788","black","no","legacy","legacy","legacy","0","uniform","1","undefined","undefined","undefined","1","f","0","0","0","0","32","0","0","0","32","NA","28","32","28","0","28","3","32","0","32","Fri Feb 19 12:10:06 2021","The main experiment item","yes","Lexical_Decision_Task.osexp","/Users/abbiehobbs/Downloads","no","Andale Mono","no","18","no","white","no","yes","576","legacy","28","28","3","/Users/abbiehobbs/Downloads/subject-5203244.csv","legacy","Lentiform Loewenfeld","3.3.7","yes","yes","600bd7cfb6416f0113b04181","602110864497cf011d9c0822","0","f","NA","j","j","j","NA","f","721","NA","3656","28513","6609","NA","721","2","legacy","1024","2","48000","-16","task","5203244","even","NA","48174","53835","50178","109105","4841","39981","33368","109608","NA","109102","109608","109044","53835","110330","46279","105249","4790","107544","Lexical Decision Task","30","27020","33","yes","1024"
"3.269668578","0","7","trag","non-word","91.17647058823529","91.17647058823529","826.8235294117648","826.8235294117648","black","no","legacy","legacy","legacy","0","uniform","1","undefined","undefined","undefined","1","f","0","0","0","0","33","0","0","0","33","NA","29","33","29","0","29","3","33","0","33","Fri Feb 19 12:10:06 2021","The main experiment item","yes","Lexical_Decision_Task.osexp","/Users/abbiehobbs/Downloads","no","Andale Mono","no","18","no","white","no","yes","576","legacy","29","29","3","/Users/abbiehobbs/Downloads/subject-5203244.csv","legacy","Lentiform Loewenfeld","3.3.7","yes","yes","600bd7cfb6416f0113b04181","602110864497cf011d9c0822","0","f","NA","j","j","j","NA","f","1092","NA","3656","28513","6609","NA","1092","2","legacy","1024","2","48000","-16","task","5203244","even","NA","48174","53835","50178","110892","4841","39981","33368","111395","NA","110890","111395","110834","53835","112487","46279","110334","4790","107544","Lexical Decision Task","31","28112","34","yes","1024"
"2.924968096","0","4","phim","non-word","91.42857142857143","91.42857142857143","853.0571428571428","853.0571428571428","black","no","legacy","legacy","legacy","0","uniform","1","undefined","undefined","undefined","1","f","0","0","0","0","34","0","0","0","34","NA","30","34","30","0","30","3","34","0","34","Fri Feb 19 12:10:06 2021","The main experiment item","yes","Lexical_Decision_Task.osexp","/Users/abbiehobbs/Downloads","no","Andale Mono","no","18","no","white","no","yes","576","legacy","30","30","3","/Users/abbiehobbs/Downloads/subject-5203244.csv","legacy","Lentiform Loewenfeld","3.3.7","yes","yes","600bd7cfb6416f0113b04181","602110864497cf011d9c0822","0","f","NA","j","j","j","NA","f","1745","NA","3656","28513","6609","NA","1745","2","legacy","1024","2","48000","-16","task","5203244","even","NA","48174","53835","50178","113049","4841","39981","33368","113552","NA","113046","113552","112991","53835","115298","46279","112491","4790","107544","Lexical Decision Task","32","29857","35","yes","1024"
"3.165936429","0","7","leps","non-word","91.66666666666667","91.66666666666667","847.4166666666666","847.4166666666666","black","no","legacy","legacy","legacy","0","uniform","1","undefined","undefined","undefined","1","f","0","0","0","0","35","0","0","0","35","NA","31","35","31","0","31","3","35","0","35","Fri Feb 19 12:10:06 2021","The main experiment item","yes","Lexical_Decision_Task.osexp","/Users/abbiehobbs/Downloads","no","Andale Mono","no","18","no","white","no","yes","576","legacy","31","31","3","/Users/abbiehobbs/Downloads/subject-5203244.csv","legacy","Lentiform Loewenfeld","3.3.7","yes","yes","600bd7cfb6416f0113b04181","602110864497cf011d9c0822","0","f","NA","j","j","j","NA","f","650","NA","3656","28513","6609","NA","650","2","legacy","1024","2","48000","-16","task","5203244","even","NA","48174","53835","50178","115861","4841","39981","33368","116364","NA","115859","116364","115803","53835","117015","46279","115303","4790","107544","Lexical Decision Task","33","30507","36","yes","1024"
"3.492014979","0","9","yine","non-word","91.89189189189189","91.89189189189189","843.9459459459459","843.9459459459459","black","no","legacy","legacy","legacy","0","uniform","1","undefined","undefined","undefined","1","f","0","0","0","0","36","0","0","0","36","NA","32","36","32","0","32","3","36","0","36","Fri Feb 19 12:10:06 2021","The main experiment item","yes","Lexical_Decision_Task.osexp","/Users/abbiehobbs/Downloads","no","Andale Mono","no","18","no","white","no","yes","576","legacy","32","32","3","/Users/abbiehobbs/Downloads/subject-5203244.csv","legacy","Lentiform Loewenfeld","3.3.7","yes","yes","600bd7cfb6416f0113b04181","602110864497cf011d9c0822","0","f","NA","j","j","j","NA","f","719","NA","3656","28513","6609","NA","719","2","legacy","1024","2","48000","-16","task","5203244","even","NA","48174","53835","50178","117577","4841","39981","33368","118080","NA","117574","118080","117519","53835","118800","46279","117019","4790","107544","Lexical Decision Task","34","31226","37","yes","1024"
"3.363486562","6.93","9","lush","word","92.10526315789474","92.10526315789474","836.8684210526316","836.8684210526316","black","no","legacy","legacy","legacy","0","uniform","1","undefined","undefined","undefined","1","j","0","0","0","0","37","0","0","0","37","NA","33","37","33","0","33","3","37","0","37","Fri Feb 19 12:10:06 2021","The main experiment item","yes","Lexical_Decision_Task.osexp","/Users/abbiehobbs/Downloads","no","Andale Mono","no","18","no","white","no","yes","576","legacy","33","33","3","/Users/abbiehobbs/Downloads/subject-5203244.csv","legacy","Lentiform Loewenfeld","3.3.7","yes","yes","600bd7cfb6416f0113b04181","602110864497cf011d9c0822","0","j","NA","j","j","j","NA","j","575","NA","3656","28513","6609","NA","575","2","legacy","1024","2","48000","-16","task","5203244","even","NA","48174","53835","50178","119362","4841","39981","33368","119865","NA","119359","119865","119304","53835","120441","46279","118803","4790","107544","Lexical Decision Task","35","31801","38","yes","1024"
"3.121778632","0","9","sark","non-word","92.3076923076923","92.3076923076923","831.3333333333334","831.3333333333334","black","no","legacy","legacy","legacy","0","uniform","1","undefined","undefined","undefined","1","f","0","0","0","0","38","0","0","0","38","NA","34","38","34","0","34","3","38","0","38","Fri Feb 19 12:10:06 2021","The main experiment item","yes","Lexical_Decision_Task.osexp","/Users/abbiehobbs/Downloads","no","Andale Mono","no","18","no","white","no","yes","576","legacy","34","34","3","/Users/abbiehobbs/Downloads/subject-5203244.csv","legacy","Lentiform Loewenfeld","3.3.7","yes","yes","600bd7cfb6416f0113b04181","602110864497cf011d9c0822","0","f","NA","j","j","j","NA","f","621","NA","3656","28513","6609","NA","621","2","legacy","1024","2","48000","-16","task","5203244","even","NA","48174","53835","50178","121002","4841","39981","33368","121506","NA","121000","121506","120945","53835","122128","46279","120444","4790","107544","Lexical Decision Task","36","32422","39","yes","1024"
"3.274543461","7.46","7","scar","word","92.5","92.5","825.975","825.975","black","no","legacy","legacy","legacy","0","uniform","1","undefined","undefined","undefined","1","j","0","0","0","0","39","0","0","0","39","NA","35","39","35","0","35","3","39","0","39","Fri Feb 19 12:10:06 2021","The main experiment item","yes","Lexical_Decision_Task.osexp","/Users/abbiehobbs/Downloads","no","Andale Mono","no","18","no","white","no","yes","576","legacy","35","35","3","/Users/abbiehobbs/Downloads/subject-5203244.csv","legacy","Lentiform Loewenfeld","3.3.7","yes","yes","600bd7cfb6416f0113b04181","602110864497cf011d9c0822","0","j","NA","j","j","j","NA","j","617","NA","3656","28513","6609","NA","617","2","legacy","1024","2","48000","-16","task","5203244","even","NA","48174","53835","50178","122690","4841","39981","33368","123193","NA","122687","123193","122632","53835","123811","46279","122132","4790","107544","Lexical Decision Task","37","33039","40","yes","1024"
"3.366547468","0","6","plat","non-word","92.6829268292683","92.6829268292683","833.6341463414634","833.6341463414634","black","no","legacy","legacy","legacy","0","uniform","1","undefined","undefined","undefined","1","f","0","0","0","0","40","0","0","0","40","NA","36","40","36","0","36","3","40","0","40","Fri Feb 19 12:10:06 2021","The main experiment item","yes","Lexical_Decision_Task.osexp","/Users/abbiehobbs/Downloads","no","Andale Mono","no","18","no","white","no","yes","576","legacy","36","36","3","/Users/abbiehobbs/Downloads/subject-5203244.csv","legacy","Lentiform Loewenfeld","3.3.7","yes","yes","600bd7cfb6416f0113b04181","602110864497cf011d9c0822","0","f","NA","j","j","j","NA","f","1140","NA","3656","28513","6609","NA","1140","2","legacy","1024","2","48000","-16","task","5203244","even","NA","48174","53835","50178","124373","4841","39981","33368","124876","NA","124370","124876","124315","53835","126017","46279","123815","4790","107544","Lexical Decision Task","38","34179","41","yes","1024"
"2.858136002","0","4","phip","non-word","92.85714285714286","92.85714285714286","832.9761904761905","832.9761904761905","black","no","legacy","legacy","legacy","0","uniform","1","undefined","undefined","undefined","1","f","0","0","0","0","41","0","0","0","41","NA","37","41","37","0","37","3","41","0","41","Fri Feb 19 12:10:06 2021","The main experiment item","yes","Lexical_Decision_Task.osexp","/Users/abbiehobbs/Downloads","no","Andale Mono","no","18","no","white","no","yes","576","legacy","37","37","3","/Users/abbiehobbs/Downloads/subject-5203244.csv","legacy","Lentiform Loewenfeld","3.3.7","yes","yes","600bd7cfb6416f0113b04181","602110864497cf011d9c0822","0","f","NA","j","j","j","NA","f","806","NA","3656","28513","6609","NA","806","2","legacy","1024","2","48000","-16","task","5203244","even","NA","48174","53835","50178","126579","4841","39981","33368","127082","NA","126576","127082","126522","53835","127889","46279","126021","4790","107544","Lexical Decision Task","39","34985","42","yes","1024"
"2.696356389","0","1","pizz","non-word","93.02325581395348","93.02325581395348","830.7441860465116","830.7441860465116","black","no","legacy","legacy","legacy","0","uniform","1","undefined","undefined","undefined","1","f","0","0","0","0","42","0","0","0","42","NA","38","42","38","0","38","3","42","0","42","Fri Feb 19 12:10:06 2021","The main experiment item","yes","Lexical_Decision_Task.osexp","/Users/abbiehobbs/Downloads","no","Andale Mono","no","18","no","white","no","yes","576","legacy","38","38","3","/Users/abbiehobbs/Downloads/subject-5203244.csv","legacy","Lentiform Loewenfeld","3.3.7","yes","yes","600bd7cfb6416f0113b04181","602110864497cf011d9c0822","0","f","NA","j","j","j","NA","f","737","NA","3656","28513","6609","NA","737","2","legacy","1024","2","48000","-16","task","5203244","even","NA","48174","53835","50178","128451","4841","39981","33368","128954","NA","128448","128954","128393","53835","129692","46279","127893","4790","107544","Lexical Decision Task","40","35722","43","yes","1024"
"2.576725172","0","8","gowl","non-word","90.9090909090909","90.9090909090909","843.8409090909091","843.8409090909091","black","no","legacy","legacy","legacy","0","uniform","0","undefined","undefined","undefined","0","f","0","0","0","0","43","0","0","0","43","NA","39","43","39","0","39","3","43","0","43","Fri Feb 19 12:10:06 2021","The main experiment item","yes","Lexical_Decision_Task.osexp","/Users/abbiehobbs/Downloads","no","Andale Mono","no","18","no","white","no","yes","576","legacy","39","39","3","/Users/abbiehobbs/Downloads/subject-5203244.csv","legacy","Lentiform Loewenfeld","3.3.7","yes","yes","600bd7cfb6416f0113b04181","602110864497cf011d9c0822","0","j","NA","j","j","j","NA","j","1407","NA","3656","28513","6609","NA","1407","2","legacy","1024","2","48000","-16","task","5203244","even","NA","48174","53835","50178","130254","4841","39981","33368","130758","NA","130252","130758","130196","53835","132166","46279","129696","4790","107544","Lexical Decision Task","40","37129","44","yes","1024"
"3.531734309","0","6","lerd","non-word","91.11111111111111","91.11111111111111","841.5777777777778","841.5777777777778","black","no","legacy","legacy","legacy","0","uniform","1","undefined","undefined","undefined","1","f","0","0","0","0","44","0","0","0","44","NA","40","44","40","0","40","3","44","0","44","Fri Feb 19 12:10:06 2021","The main experiment item","yes","Lexical_Decision_Task.osexp","/Users/abbiehobbs/Downloads","no","Andale Mono","no","18","no","white","no","yes","576","legacy","40","40","3","/Users/abbiehobbs/Downloads/subject-5203244.csv","legacy","Lentiform Loewenfeld","3.3.7","yes","yes","600bd7cfb6416f0113b04181","602110864497cf011d9c0822","0","f","NA","j","j","j","NA","f","742","NA","3656","28513","6609","NA","742","2","legacy","1024","2","48000","-16","task","5203244","even","NA","48174","53835","50178","133731","4841","39981","33368","134234","NA","133728","134234","133670","53835","134976","46279","129696","4790","132169","Lexical Decision Task","41","37871","45","yes","1024"
"3.225825991","0","7","talm","non-word","91.30434782608695","91.30434782608695","839.304347826087","839.304347826087","black","no","legacy","legacy","legacy","0","uniform","1","undefined","undefined","undefined","1","f","0","0","0","0","45","0","0","0","45","NA","41","45","41","0","41","3","45","0","45","Fri Feb 19 12:10:06 2021","The main experiment item","yes","Lexical_Decision_Task.osexp","/Users/abbiehobbs/Downloads","no","Andale Mono","no","18","no","white","no","yes","576","legacy","41","41","3","/Users/abbiehobbs/Downloads/subject-5203244.csv","legacy","Lentiform Loewenfeld","3.3.7","yes","yes","600bd7cfb6416f0113b04181","602110864497cf011d9c0822","0","f","NA","j","j","j","NA","f","737","NA","3656","28513","6609","NA","737","2","legacy","1024","2","48000","-16","task","5203244","even","NA","48174","53835","50178","135538","4841","39981","33368","136041","NA","135535","136041","135480","53835","136779","46279","134980","4790","132169","Lexical Decision Task","42","38608","46","yes","1024"
"3.22685757","9.99","7","roll","word","91.48936170212765","91.48936170212765","832.3829787234042","832.3829787234042","black","no","legacy","legacy","legacy","0","uniform","1","undefined","undefined","undefined","1","j","0","0","0","0","46","0","0","0","46","NA","42","46","42","0","42","3","46","0","46","Fri Feb 19 12:10:06 2021","The main experiment item","yes","Lexical_Decision_Task.osexp","/Users/abbiehobbs/Downloads","no","Andale Mono","no","18","no","white","no","yes","576","legacy","42","42","3","/Users/abbiehobbs/Downloads/subject-5203244.csv","legacy","Lentiform Loewenfeld","3.3.7","yes","yes","600bd7cfb6416f0113b04181","602110864497cf011d9c0822","0","j","NA","j","j","j","NA","j","514","NA","3656","28513","6609","NA","514","2","legacy","1024","2","48000","-16","task","5203244","even","NA","48174","53835","50178","137341","4841","39981","33368","137844","NA","137338","137844","137283","53835","138359","46279","136783","4790","132169","Lexical Decision Task","43","39122","47","yes","1024"
"2.698100546","0","9","mulk","non-word","91.66666666666667","91.66666666666667","829.8125","829.8125","black","no","legacy","legacy","legacy","0","uniform","1","undefined","undefined","undefined","1","f","0","0","0","0","47","0","0","0","47","NA","43","47","43","0","43","3","47","0","47","Fri Feb 19 12:10:06 2021","The main experiment item","yes","Lexical_Decision_Task.osexp","/Users/abbiehobbs/Downloads","no","Andale Mono","no","18","no","white","no","yes","576","legacy","43","43","3","/Users/abbiehobbs/Downloads/subject-5203244.csv","legacy","Lentiform Loewenfeld","3.3.7","yes","yes","600bd7cfb6416f0113b04181","602110864497cf011d9c0822","0","f","NA","j","j","j","NA","f","709","NA","3656","28513","6609","NA","709","2","legacy","1024","2","48000","-16","task","5203244","even","NA","48174","53835","50178","138923","4841","39981","33368","139426","NA","138921","139426","138864","53835","140135","46279","138363","4790","132169","Lexical Decision Task","44","39831","48","yes","1024"
"2.937852093","0","7","bamp","non-word","91.83673469387755","91.83673469387755","831.265306122449","831.265306122449","black","no","legacy","legacy","legacy","0","uniform","1","undefined","undefined","undefined","1","f","0","0","0","0","48","0","0","0","48","NA","44","48","44","0","44","3","48","0","48","Fri Feb 19 12:10:06 2021","The main experiment item","yes","Lexical_Decision_Task.osexp","/Users/abbiehobbs/Downloads","no","Andale Mono","no","18","no","white","no","yes","576","legacy","44","44","3","/Users/abbiehobbs/Downloads/subject-5203244.csv","legacy","Lentiform Loewenfeld","3.3.7","yes","yes","600bd7cfb6416f0113b04181","602110864497cf011d9c0822","0","f","NA","j","j","j","NA","f","901","NA","3656","28513","6609","NA","901","2","legacy","1024","2","48000","-16","task","5203244","even","NA","48174","53835","50178","140698","4841","39981","33368","141201","NA","140695","141201","140639","53835","142103","46279","140139","4790","132169","Lexical Decision Task","45","40732","49","yes","1024"
"3.276537627","9.15","5","trap","word","92","92","825.98","825.98","black","no","legacy","legacy","legacy","0","uniform","1","undefined","undefined","undefined","1","j","0","0","0","0","49","0","0","0","49","NA","45","49","45","0","45","3","49","0","49","Fri Feb 19 12:10:06 2021","The main experiment item","yes","Lexical_Decision_Task.osexp","/Users/abbiehobbs/Downloads","no","Andale Mono","no","18","no","white","no","yes","576","legacy","45","45","3","/Users/abbiehobbs/Downloads/subject-5203244.csv","legacy","Lentiform Loewenfeld","3.3.7","yes","yes","600bd7cfb6416f0113b04181","602110864497cf011d9c0822","0","j","NA","j","j","j","NA","j","567","NA","3656","28513","6609","NA","567","2","legacy","1024","2","48000","-16","task","5203244","even","NA","48174","53835","50178","142665","4841","39981","33368","143168","NA","142663","143168","142607","53835","143736","46279","142107","4790","132169","Lexical Decision Task","46","41299","50","yes","1024"
"3.100255637","0","6","brax","non-word","92.15686274509804","92.15686274509804","820.6274509803922","820.6274509803922","black","no","legacy","legacy","legacy","0","uniform","1","undefined","undefined","undefined","1","f","0","0","0","0","50","0","0","0","50","NA","46","50","46","0","46","3","50","0","50","Fri Feb 19 12:10:06 2021","The main experiment item","yes","Lexical_Decision_Task.osexp","/Users/abbiehobbs/Downloads","no","Andale Mono","no","18","no","white","no","yes","576","legacy","46","46","3","/Users/abbiehobbs/Downloads/subject-5203244.csv","legacy","Lentiform Loewenfeld","3.3.7","yes","yes","600bd7cfb6416f0113b04181","602110864497cf011d9c0822","0","f","NA","j","j","j","NA","f","553","NA","3656","28513","6609","NA","553","2","legacy","1024","2","48000","-16","task","5203244","even","NA","48174","53835","50178","144299","4841","39981","33368","144802","NA","144296","144802","144241","53835","145356","46279","143741","4790","132169","Lexical Decision Task","47","41852","51","yes","1024"
"2.80048796","0","8","pife","non-word","92.3076923076923","92.3076923076923","817.2115384615385","817.2115384615385","black","no","legacy","legacy","legacy","0","uniform","1","undefined","undefined","undefined","1","f","0","0","0","0","51","0","0","0","51","NA","47","51","47","0","47","3","51","0","51","Fri Feb 19 12:10:06 2021","The main experiment item","yes","Lexical_Decision_Task.osexp","/Users/abbiehobbs/Downloads","no","Andale Mono","no","18","no","white","no","yes","576","legacy","47","47","3","/Users/abbiehobbs/Downloads/subject-5203244.csv","legacy","Lentiform Loewenfeld","3.3.7","yes","yes","600bd7cfb6416f0113b04181","602110864497cf011d9c0822","0","f","NA","j","j","j","NA","f","643","NA","3656","28513","6609","NA","643","2","legacy","1024","2","48000","-16","task","5203244","even","NA","48174","53835","50178","145917","4841","39981","33368","146420","NA","145914","146420","145860","53835","147064","46279","145360","4790","132169","Lexical Decision Task","48","42495","52","yes","1024"
"3.14849993","10.75","7","hour","word","92.45283018867924","92.45283018867924","813.8490566037735","813.8490566037735","black","no","legacy","legacy","legacy","0","uniform","1","undefined","undefined","undefined","1","j","0","0","0","0","52","0","0","0","52","NA","48","52","48","0","48","3","52","0","52","Fri Feb 19 12:10:06 2021","The main experiment item","yes","Lexical_Decision_Task.osexp","/Users/abbiehobbs/Downloads","no","Andale Mono","no","18","no","white","no","yes","576","legacy","48","48","3","/Users/abbiehobbs/Downloads/subject-5203244.csv","legacy","Lentiform Loewenfeld","3.3.7","yes","yes","600bd7cfb6416f0113b04181","602110864497cf011d9c0822","0","j","NA","j","j","j","NA","j","639","NA","3656","28513","6609","NA","639","2","legacy","1024","2","48000","-16","task","5203244","even","NA","48174","53835","50178","147627","4841","39981","33368","148130","NA","147624","148130","147568","53835","148770","46279","147068","4790","132169","Lexical Decision Task","49","43134","53","yes","1024"
"3.378276681","6.39","8","bran","word","90.74074074074075","90.74074074074075","811.7037037037037","811.7037037037037","black","no","legacy","legacy","legacy","0","uniform","0","undefined","undefined","undefined","0","j","0","0","0","0","53","0","0","0","53","NA","49","53","49","0","49","3","53","0","53","Fri Feb 19 12:10:06 2021","The main experiment item","yes","Lexical_Decision_Task.osexp","/Users/abbiehobbs/Downloads","no","Andale Mono","no","18","no","white","no","yes","576","legacy","49","49","3","/Users/abbiehobbs/Downloads/subject-5203244.csv","legacy","Lentiform Loewenfeld","3.3.7","yes","yes","600bd7cfb6416f0113b04181","602110864497cf011d9c0822","0","f","NA","j","j","j","NA","f","698","NA","3656","28513","6609","NA","698","2","legacy","1024","2","48000","-16","task","5203244","even","NA","48174","53835","50178","149332","4841","39981","33368","149835","NA","149330","149835","149274","53835","150534","46279","148774","4790","132169","Lexical Decision Task","49","43832","54","yes","1024"
"3.311895072","0","9","gung","non-word","90.9090909090909","90.9090909090909","810.3090909090909","810.3090909090909","black","no","legacy","legacy","legacy","0","uniform","1","undefined","undefined","undefined","1","f","0","0","0","0","54","0","0","0","54","0","50","54","50","0","50","3","54","0","54","Fri Feb 19 12:10:06 2021","The main experiment item","yes","Lexical_Decision_Task.osexp","/Users/abbiehobbs/Downloads","no","Andale Mono","no","18","no","white","no","yes","576","legacy","50","50","3","/Users/abbiehobbs/Downloads/subject-5203244.csv","legacy","Lentiform Loewenfeld","3.3.7","yes","yes","600bd7cfb6416f0113b04181","602110864497cf011d9c0822","0","f","NA","j","j","j","j","f","735","NA","3656","28513","6609","5328","735","2","legacy","1024","2","48000","-16","task","5203244","even","NA","48174","53835","50178","157451","4841","39981","33368","157954","152070","157448","157955","152038","53835","158691","46279","148774","4790","150538","Lexical Decision Task","50","44567","55","yes","1024"
"3.159867847","5.98","5","brim","word","91.07142857142857","91.07142857142857","807.3035714285714","807.3035714285714","black","no","legacy","legacy","legacy","0","uniform","1","undefined","undefined","undefined","1","j","0","0","0","0","55","0","0","0","55","0","51","55","51","0","51","3","55","0","55","Fri Feb 19 12:10:06 2021","The main experiment item","yes","Lexical_Decision_Task.osexp","/Users/abbiehobbs/Downloads","no","Andale Mono","no","18","no","white","no","yes","576","legacy","51","51","3","/Users/abbiehobbs/Downloads/subject-5203244.csv","legacy","Lentiform Loewenfeld","3.3.7","yes","yes","600bd7cfb6416f0113b04181","602110864497cf011d9c0822","0","j","NA","j","j","j","j","j","642","NA","3656","28513","6609","5328","642","2","legacy","1024","2","48000","-16","task","5203244","even","NA","48174","53835","50178","159252","4841","39981","33368","159754","152070","159249","159754","159195","53835","160397","46279","158695","4790","150538","Lexical Decision Task","51","45209","56","yes","1024"
"2.695481676","0","7","goke","non-word","91.2280701754386","91.2280701754386","805.1754385964912","805.1754385964912","black","no","legacy","legacy","legacy","0","uniform","1","undefined","undefined","undefined","1","f","0","0","0","0","56","0","0","0","56","0","52","56","52","0","52","3","56","0","56","Fri Feb 19 12:10:06 2021","The main experiment item","yes","Lexical_Decision_Task.osexp","/Users/abbiehobbs/Downloads","no","Andale Mono","no","18","no","white","no","yes","576","legacy","52","52","3","/Users/abbiehobbs/Downloads/subject-5203244.csv","legacy","Lentiform Loewenfeld","3.3.7","yes","yes","600bd7cfb6416f0113b04181","602110864497cf011d9c0822","0","f","NA","j","j","j","j","f","686","NA","3656","28513","6609","5328","686","2","legacy","1024","2","48000","-16","task","5203244","even","NA","48174","53835","50178","160959","4841","39981","33368","161462","152070","160957","161462","160901","53835","162149","46279","160401","4790","150538","Lexical Decision Task","52","45895","57","yes","1024"
"2.693726949","5.08","3","swig","word","91.37931034482759","91.37931034482759","802.7241379310345","802.7241379310345","black","no","legacy","legacy","legacy","0","uniform","1","undefined","undefined","undefined","1","j","0","0","0","0","57","0","0","0","57","0","53","57","53","0","53","3","57","0","57","Fri Feb 19 12:10:06 2021","The main experiment item","yes","Lexical_Decision_Task.osexp","/Users/abbiehobbs/Downloads","no","Andale Mono","no","18","no","white","no","yes","576","legacy","53","53","3","/Users/abbiehobbs/Downloads/subject-5203244.csv","legacy","Lentiform Loewenfeld","3.3.7","yes","yes","600bd7cfb6416f0113b04181","602110864497cf011d9c0822","0","j","NA","j","j","j","j","j","663","NA","3656","28513","6609","5328","663","2","legacy","1024","2","48000","-16","task","5203244","even","NA","48174","53835","50178","162710","4841","39981","33368","163213","152070","162708","163213","162653","53835","163877","46279","162153","4790","150538","Lexical Decision Task","53","46558","58","yes","1024"
"3.156347201","0","8","lasp","non-word","91.52542372881356","91.52542372881356","802.0847457627119","802.0847457627119","black","no","legacy","legacy","legacy","0","uniform","1","undefined","undefined","undefined","1","f","0","0","0","0","58","0","0","0","58","0","54","58","54","0","54","3","58","0","58","Fri Feb 19 12:10:06 2021","The main experiment item","yes","Lexical_Decision_Task.osexp","/Users/abbiehobbs/Downloads","no","Andale Mono","no","18","no","white","no","yes","576","legacy","54","54","3","/Users/abbiehobbs/Downloads/subject-5203244.csv","legacy","Lentiform Loewenfeld","3.3.7","yes","yes","600bd7cfb6416f0113b04181","602110864497cf011d9c0822","0","f","NA","j","j","j","j","f","765","NA","3656","28513","6609","5328","765","2","legacy","1024","2","48000","-16","task","5203244","even","NA","48174","53835","50178","164438","4841","39981","33368","164941","152070","164435","164941","164380","53835","165707","46279","163880","4790","150538","Lexical Decision Task","54","47323","59","yes","1024"
"2.971428938","9.86","7","spot","word","91.66666666666667","91.66666666666667","797.4833333333333","797.4833333333333","black","no","legacy","legacy","legacy","0","uniform","1","undefined","undefined","undefined","1","j","0","0","0","0","59","0","0","0","59","0","55","59","55","0","55","3","59","0","59","Fri Feb 19 12:10:06 2021","The main experiment item","yes","Lexical_Decision_Task.osexp","/Users/abbiehobbs/Downloads","no","Andale Mono","no","18","no","white","no","yes","576","legacy","55","55","3","/Users/abbiehobbs/Downloads/subject-5203244.csv","legacy","Lentiform Loewenfeld","3.3.7","yes","yes","600bd7cfb6416f0113b04181","602110864497cf011d9c0822","0","j","NA","j","j","j","j","j","526","NA","3656","28513","6609","5328","526","2","legacy","1024","2","48000","-16","task","5203244","even","NA","48174","53835","50178","166268","4841","39981","33368","166771","152070","166265","166771","166211","53835","167298","46279","165711","4790","150538","Lexical Decision Task","55","47849","60","yes","1024"
"2.875447132","0","9","jelt","non-word","91.80327868852459","91.80327868852459","795.2786885245902","795.2786885245902","black","no","legacy","legacy","legacy","0","uniform","1","undefined","undefined","undefined","1","f","0","0","0","0","60","0","0","0","60","0","56","60","56","0","56","3","60","0","60","Fri Feb 19 12:10:06 2021","The main experiment item","yes","Lexical_Decision_Task.osexp","/Users/abbiehobbs/Downloads","no","Andale Mono","no","18","no","white","no","yes","576","legacy","56","56","3","/Users/abbiehobbs/Downloads/subject-5203244.csv","legacy","Lentiform Loewenfeld","3.3.7","yes","yes","600bd7cfb6416f0113b04181","602110864497cf011d9c0822","0","f","NA","j","j","j","j","f","663","NA","3656","28513","6609","5328","663","2","legacy","1024","2","48000","-16","task","5203244","even","NA","48174","53835","50178","167861","4841","39981","33368","168364","152070","167858","168364","167802","53835","169028","46279","167302","4790","150538","Lexical Decision Task","56","48512","61","yes","1024"
"3.259832699","0","9","flar","non-word","91.93548387096774","91.93548387096774","794.5645161290323","794.5645161290323","black","no","legacy","legacy","legacy","0","uniform","1","undefined","undefined","undefined","1","f","0","0","0","0","61","0","0","0","61","0","57","61","57","0","57","3","61","0","61","Fri Feb 19 12:10:06 2021","The main experiment item","yes","Lexical_Decision_Task.osexp","/Users/abbiehobbs/Downloads","no","Andale Mono","no","18","no","white","no","yes","576","legacy","57","57","3","/Users/abbiehobbs/Downloads/subject-5203244.csv","legacy","Lentiform Loewenfeld","3.3.7","yes","yes","600bd7cfb6416f0113b04181","602110864497cf011d9c0822","0","f","NA","j","j","j","j","f","751","NA","3656","28513","6609","5328","751","2","legacy","1024","2","48000","-16","task","5203244","even","NA","48174","53835","50178","169588","4841","39981","33368","170092","152070","169586","170092","169531","53835","170844","46279","169031","4790","150538","Lexical Decision Task","57","49263","62","yes","1024"
"2.696644658","5.78","2","yolk","word","92.06349206349206","92.06349206349206","793.015873015873","793.015873015873","black","no","legacy","legacy","legacy","0","uniform","1","undefined","undefined","undefined","1","j","0","0","0","0","62","0","0","0","62","0","58","62","58","0","58","3","62","0","62","Fri Feb 19 12:10:06 2021","The main experiment item","yes","Lexical_Decision_Task.osexp","/Users/abbiehobbs/Downloads","no","Andale Mono","no","18","no","white","no","yes","576","legacy","58","58","3","/Users/abbiehobbs/Downloads/subject-5203244.csv","legacy","Lentiform Loewenfeld","3.3.7","yes","yes","600bd7cfb6416f0113b04181","602110864497cf011d9c0822","0","j","NA","j","j","j","j","j","697","NA","3656","28513","6609","5328","697","2","legacy","1024","2","48000","-16","task","5203244","even","NA","48174","53835","50178","171405","4841","39981","33368","171909","152070","171403","171909","171347","53835","172607","46279","170847","4790","150538","Lexical Decision Task","58","49960","63","yes","1024"
"2.899092422","7.27","6","snag","word","90.625","90.625","790.703125","790.703125","black","no","legacy","legacy","legacy","0","uniform","0","undefined","undefined","undefined","0","j","0","0","0","0","63","0","0","0","63","0","59","63","59","0","59","3","63","0","63","Fri Feb 19 12:10:06 2021","The main experiment item","yes","Lexical_Decision_Task.osexp","/Users/abbiehobbs/Downloads","no","Andale Mono","no","18","no","white","no","yes","576","legacy","59","59","3","/Users/abbiehobbs/Downloads/subject-5203244.csv","legacy","Lentiform Loewenfeld","3.3.7","yes","yes","600bd7cfb6416f0113b04181","602110864497cf011d9c0822","0","f","NA","j","j","j","j","f","645","NA","3656","28513","6609","5328","645","2","legacy","1024","2","48000","-16","task","5203244","even","NA","48174","53835","50178","173169","4841","39981","33368","173672","152070","173166","173672","173111","53835","174318","46279","172611","4790","150538","Lexical Decision Task","58","50605","64","yes","1024"
"3.066077331","0","7","vorn","non-word","90.76923076923077","90.76923076923077","788.5692307692308","788.5692307692308","black","no","legacy","legacy","legacy","0","uniform","1","undefined","undefined","undefined","1","f","0","0","0","0","64","0","0","0","64","0","60","64","60","0","60","3","64","0","64","Fri Feb 19 12:10:06 2021","The main experiment item","yes","Lexical_Decision_Task.osexp","/Users/abbiehobbs/Downloads","no","Andale Mono","no","18","no","white","no","yes","576","legacy","60","60","3","/Users/abbiehobbs/Downloads/subject-5203244.csv","legacy","Lentiform Loewenfeld","3.3.7","yes","yes","600bd7cfb6416f0113b04181","602110864497cf011d9c0822","0","f","NA","j","j","j","j","f","652","NA","3656","28513","6609","5328","652","2","legacy","1024","2","48000","-16","task","5203244","even","NA","48174","53835","50178","175884","4841","39981","33368","176387","152070","175881","176387","175822","53835","177040","46279","172611","4790","174322","Lexical Decision Task","59","51257","65","yes","1024"
"3.168400243","9.12","6","horn","word","90.9090909090909","90.9090909090909","784.5454545454545","784.5454545454545","black","no","legacy","legacy","legacy","0","uniform","1","undefined","undefined","undefined","1","j","0","0","0","0","65","0","0","0","65","0","61","65","61","0","61","3","65","0","65","Fri Feb 19 12:10:06 2021","The main experiment item","yes","Lexical_Decision_Task.osexp","/Users/abbiehobbs/Downloads","no","Andale Mono","no","18","no","white","no","yes","576","legacy","61","61","3","/Users/abbiehobbs/Downloads/subject-5203244.csv","legacy","Lentiform Loewenfeld","3.3.7","yes","yes","600bd7cfb6416f0113b04181","602110864497cf011d9c0822","0","j","NA","j","j","j","j","j","523","NA","3656","28513","6609","5328","523","2","legacy","1024","2","48000","-16","task","5203244","even","NA","48174","53835","50178","177602","4841","39981","33368","178105","152070","177599","178105","177544","53835","178629","46279","177044","4790","174322","Lexical Decision Task","60","51780","66","yes","1024"
"3.102203805","7.21","3","drip","word","91.04477611940298","91.04477611940298","781.4925373134329","781.4925373134329","black","no","legacy","legacy","legacy","0","uniform","1","undefined","undefined","undefined","1","j","0","0","0","0","66","0","0","0","66","0","62","66","62","0","62","3","66","0","66","Fri Feb 19 12:10:06 2021","The main experiment item","yes","Lexical_Decision_Task.osexp","/Users/abbiehobbs/Downloads","no","Andale Mono","no","18","no","white","no","yes","576","legacy","62","62","3","/Users/abbiehobbs/Downloads/subject-5203244.csv","legacy","Lentiform Loewenfeld","3.3.7","yes","yes","600bd7cfb6416f0113b04181","602110864497cf011d9c0822","0","j","NA","j","j","j","j","j","580","NA","3656","28513","6609","5328","580","2","legacy","1024","2","48000","-16","task","5203244","even","NA","48174","53835","50178","179191","4841","39981","33368","179694","152070","179189","179694","179133","53835","180275","46279","178633","4790","174322","Lexical Decision Task","61","52360","67","yes","1024"
"2.9737419","7.69","7","claw","word","91.17647058823529","91.17647058823529","776.4705882352941","776.4705882352941","black","no","legacy","legacy","legacy","0","uniform","1","undefined","undefined","undefined","1","j","0","0","0","0","67","0","0","0","67","0","63","67","63","0","63","3","67","0","67","Fri Feb 19 12:10:06 2021","The main experiment item","yes","Lexical_Decision_Task.osexp","/Users/abbiehobbs/Downloads","no","Andale Mono","no","18","no","white","no","yes","576","legacy","63","63","3","/Users/abbiehobbs/Downloads/subject-5203244.csv","legacy","Lentiform Loewenfeld","3.3.7","yes","yes","600bd7cfb6416f0113b04181","602110864497cf011d9c0822","0","j","NA","j","j","j","j","j","440","NA","3656","28513","6609","5328","440","2","legacy","1024","2","48000","-16","task","5203244","even","NA","48174","53835","50178","180837","4841","39981","33368","181340","152070","180834","181340","180779","53835","181781","46279","180279","4790","174322","Lexical Decision Task","62","52800","68","yes","1024"
"2.868644438","10.52","4","town","word","91.30434782608695","91.30434782608695","778.304347826087","778.304347826087","black","no","legacy","legacy","legacy","0","uniform","1","undefined","undefined","undefined","1","j","0","0","0","0","68","0","0","0","68","0","64","68","64","0","64","3","68","0","68","Fri Feb 19 12:10:06 2021","The main experiment item","yes","Lexical_Decision_Task.osexp","/Users/abbiehobbs/Downloads","no","Andale Mono","no","18","no","white","no","yes","576","legacy","64","64","3","/Users/abbiehobbs/Downloads/subject-5203244.csv","legacy","Lentiform Loewenfeld","3.3.7","yes","yes","600bd7cfb6416f0113b04181","602110864497cf011d9c0822","0","j","NA","j","j","j","j","j","903","NA","3656","28513","6609","5328","903","2","legacy","1024","2","48000","-16","task","5203244","even","NA","48174","53835","50178","182343","4841","39981","33368","182846","152070","182340","182846","182285","53835","183750","46279","181785","4790","174322","Lexical Decision Task","63","53703","69","yes","1024"
"3.049218023","7.4","9","robe","word","91.42857142857143","91.42857142857143","777.8142857142857","777.8142857142857","black","no","legacy","legacy","legacy","0","uniform","1","undefined","undefined","undefined","1","j","0","0","0","0","69","0","0","0","69","0","65","69","65","0","65","3","69","0","69","Fri Feb 19 12:10:06 2021","The main experiment item","yes","Lexical_Decision_Task.osexp","/Users/abbiehobbs/Downloads","no","Andale Mono","no","18","no","white","no","yes","576","legacy","65","65","3","/Users/abbiehobbs/Downloads/subject-5203244.csv","legacy","Lentiform Loewenfeld","3.3.7","yes","yes","600bd7cfb6416f0113b04181","602110864497cf011d9c0822","0","j","NA","j","j","j","j","j","744","NA","3656","28513","6609","5328","744","2","legacy","1024","2","48000","-16","task","5203244","even","NA","48174","53835","50178","184312","4841","39981","33368","184816","152070","184310","184816","184254","53835","185561","46279","183754","4790","174322","Lexical Decision Task","64","54447","70","yes","1024"
"2.809559715","8.44","4","volt","word","91.54929577464789","91.54929577464789","777.3380281690141","777.3380281690141","black","no","legacy","legacy","legacy","0","uniform","1","undefined","undefined","undefined","1","j","0","0","0","0","70","0","0","0","70","0","66","70","66","0","66","3","70","0","70","Fri Feb 19 12:10:06 2021","The main experiment item","yes","Lexical_Decision_Task.osexp","/Users/abbiehobbs/Downloads","no","Andale Mono","no","18","no","white","no","yes","576","legacy","66","66","3","/Users/abbiehobbs/Downloads/subject-5203244.csv","legacy","Lentiform Loewenfeld","3.3.7","yes","yes","600bd7cfb6416f0113b04181","602110864497cf011d9c0822","0","j","NA","j","j","j","j","j","744","NA","3656","28513","6609","5328","744","2","legacy","1024","2","48000","-16","task","5203244","even","NA","48174","53835","50178","186123","4841","39981","33368","186626","152070","186121","186626","186065","53835","187371","46279","185564","4790","174322","Lexical Decision Task","65","55191","71","yes","1024"
"3.153001286","8.7","5","palm","word","91.66666666666667","91.66666666666667","777.8611111111111","777.8611111111111","black","no","legacy","legacy","legacy","0","uniform","1","undefined","undefined","undefined","1","j","0","0","0","0","71","0","0","0","71","0","67","71","67","0","67","3","71","0","71","Fri Feb 19 12:10:06 2021","The main experiment item","yes","Lexical_Decision_Task.osexp","/Users/abbiehobbs/Downloads","no","Andale Mono","no","18","no","white","no","yes","576","legacy","67","67","3","/Users/abbiehobbs/Downloads/subject-5203244.csv","legacy","Lentiform Loewenfeld","3.3.7","yes","yes","600bd7cfb6416f0113b04181","602110864497cf011d9c0822","0","j","NA","j","j","j","j","j","815","NA","3656","28513","6609","5328","815","2","legacy","1024","2","48000","-16","task","5203244","even","NA","48174","53835","50178","187934","4841","39981","33368","188437","152070","187931","188437","187875","53835","189253","46279","187375","4790","174322","Lexical Decision Task","66","56006","72","yes","1024"
"3.316948329","0","1","besc","non-word","91.78082191780823","91.78082191780823","776.1643835616438","776.1643835616438","black","no","legacy","legacy","legacy","0","uniform","1","undefined","undefined","undefined","1","f","0","0","0","0","72","0","0","0","72","0","68","72","68","0","68","3","72","0","72","Fri Feb 19 12:10:06 2021","The main experiment item","yes","Lexical_Decision_Task.osexp","/Users/abbiehobbs/Downloads","no","Andale Mono","no","18","no","white","no","yes","576","legacy","68","68","3","/Users/abbiehobbs/Downloads/subject-5203244.csv","legacy","Lentiform Loewenfeld","3.3.7","yes","yes","600bd7cfb6416f0113b04181","602110864497cf011d9c0822","0","f","NA","j","j","j","j","f","654","NA","3656","28513","6609","5328","654","2","legacy","1024","2","48000","-16","task","5203244","even","NA","48174","53835","50178","189815","4841","39981","33368","190318","152070","189813","190318","189757","53835","190973","46279","189257","4790","174322","Lexical Decision Task","67","56660","73","yes","1024"
"3.261341392","5.08","8","reek","word","91.89189189189189","91.89189189189189","775.918918918919","775.918918918919","black","no","legacy","legacy","legacy","0","uniform","1","undefined","undefined","undefined","1","j","0","0","0","0","73","0","0","0","73","0","69","73","69","0","69","3","73","0","73","Fri Feb 19 12:10:06 2021","The main experiment item","yes","Lexical_Decision_Task.osexp","/Users/abbiehobbs/Downloads","no","Andale Mono","no","18","no","white","no","yes","576","legacy","69","69","3","/Users/abbiehobbs/Downloads/subject-5203244.csv","legacy","Lentiform Loewenfeld","3.3.7","yes","yes","600bd7cfb6416f0113b04181","602110864497cf011d9c0822","0","j","NA","j","j","j","j","j","758","NA","3656","28513","6609","5328","758","2","legacy","1024","2","48000","-16","task","5203244","even","NA","48174","53835","50178","191535","4841","39981","33368","192039","152070","191533","192039","191477","53835","192798","46279","190977","4790","174322","Lexical Decision Task","68","57418","74","yes","1024"
"3.003891166","8.05","2","frog","word","92","92","771.5466666666666","771.5466666666666","black","no","legacy","legacy","legacy","0","uniform","1","undefined","undefined","undefined","1","j","0","0","0","0","74","0","0","0","74","0","70","74","70","0","70","3","74","0","74","Fri Feb 19 12:10:06 2021","The main experiment item","yes","Lexical_Decision_Task.osexp","/Users/abbiehobbs/Downloads","no","Andale Mono","no","18","no","white","no","yes","576","legacy","70","70","3","/Users/abbiehobbs/Downloads/subject-5203244.csv","legacy","Lentiform Loewenfeld","3.3.7","yes","yes","600bd7cfb6416f0113b04181","602110864497cf011d9c0822","0","j","NA","j","j","j","j","j","448","NA","3656","28513","6609","5328","448","2","legacy","1024","2","48000","-16","task","5203244","even","NA","48174","53835","50178","193360","4841","39981","33368","193864","152070","193358","193864","193302","53835","194313","46279","192802","4790","174322","Lexical Decision Task","69","57866","75","yes","1024"
"3.043885998","0","9","gome","non-word","90.78947368421052","90.78947368421052","770.1973684210526","770.1973684210526","black","no","legacy","legacy","legacy","0","uniform","0","undefined","undefined","undefined","0","f","0","0","0","0","75","0","0","0","75","0","71","75","71","0","71","3","75","0","75","Fri Feb 19 12:10:06 2021","The main experiment item","yes","Lexical_Decision_Task.osexp","/Users/abbiehobbs/Downloads","no","Andale Mono","no","18","no","white","no","yes","576","legacy","71","71","3","/Users/abbiehobbs/Downloads/subject-5203244.csv","legacy","Lentiform Loewenfeld","3.3.7","yes","yes","600bd7cfb6416f0113b04181","602110864497cf011d9c0822","0","j","NA","j","j","j","j","j","669","NA","3656","28513","6609","5328","669","2","legacy","1024","2","48000","-16","task","5203244","even","NA","48174","53835","50178","194875","4841","39981","33368","195378","152070","194872","195378","194817","53835","196048","46279","194317","4790","174322","Lexical Decision Task","69","58535","76","yes","1024"
"3.120025233","0","2","nyst","non-word","90.9090909090909","90.9090909090909","767.987012987013","767.987012987013","black","no","legacy","legacy","legacy","0","uniform","1","undefined","undefined","undefined","1","f","0","0","0","0","76","0","0","0","76","0","72","76","72","0","72","3","76","0","76","Fri Feb 19 12:10:06 2021","The main experiment item","yes","Lexical_Decision_Task.osexp","/Users/abbiehobbs/Downloads","no","Andale Mono","no","18","no","white","no","yes","576","legacy","72","72","3","/Users/abbiehobbs/Downloads/subject-5203244.csv","legacy","Lentiform Loewenfeld","3.3.7","yes","yes","600bd7cfb6416f0113b04181","602110864497cf011d9c0822","0","f","NA","j","j","j","j","f","600","NA","3656","28513","6609","5328","600","2","legacy","1024","2","48000","-16","task","5203244","even","NA","48174","53835","50178","197613","4841","39981","33368","198116","152070","197610","198116","197551","53835","198717","46279","194317","4790","196051","Lexical Decision Task","70","59135","77","yes","1024"
"3.384413096","10.15","3","glad","word","91.02564102564102","91.02564102564102","766.3846153846154","766.3846153846154","black","no","legacy","legacy","legacy","0","uniform","1","undefined","undefined","undefined","1","j","0","0","0","0","77","0","0","0","77","0","73","77","73","0","73","3","77","0","77","Fri Feb 19 12:10:06 2021","The main experiment item","yes","Lexical_Decision_Task.osexp","/Users/abbiehobbs/Downloads","no","Andale Mono","no","18","no","white","no","yes","576","legacy","73","73","3","/Users/abbiehobbs/Downloads/subject-5203244.csv","legacy","Lentiform Loewenfeld","3.3.7","yes","yes","600bd7cfb6416f0113b04181","602110864497cf011d9c0822","0","j","NA","j","j","j","j","j","643","NA","3656","28513","6609","5328","643","2","legacy","1024","2","48000","-16","task","5203244","even","NA","48174","53835","50178","199280","4841","39981","33368","199783","152070","199278","199783","199221","53835","200427","46279","198721","4790","196051","Lexical Decision Task","71","59778","78","yes","1024"
"3.29439347","8.6","9","wand","word","91.13924050632912","91.13924050632912","764.2911392405064","764.2911392405064","black","no","legacy","legacy","legacy","0","uniform","1","undefined","undefined","undefined","1","j","0","0","0","0","78","0","0","0","78","0","74","78","74","0","74","3","78","0","78","Fri Feb 19 12:10:06 2021","The main experiment item","yes","Lexical_Decision_Task.osexp","/Users/abbiehobbs/Downloads","no","Andale Mono","no","18","no","white","no","yes","576","legacy","74","74","3","/Users/abbiehobbs/Downloads/subject-5203244.csv","legacy","Lentiform Loewenfeld","3.3.7","yes","yes","600bd7cfb6416f0113b04181","602110864497cf011d9c0822","0","j","NA","j","j","j","j","j","601","NA","3656","28513","6609","5328","601","2","legacy","1024","2","48000","-16","task","5203244","even","NA","48174","53835","50178","200989","4841","39981","33368","201492","152070","200987","201492","200930","53835","202094","46279","200430","4790","196051","Lexical Decision Task","72","60379","79","yes","1024"
"3.194328374","9.42","6","harm","word","91.25","91.25","761.5","761.5","black","no","legacy","legacy","legacy","0","uniform","1","undefined","undefined","undefined","1","j","0","0","0","0","79","0","0","0","79","0","75","79","75","0","75","3","79","0","79","Fri Feb 19 12:10:06 2021","The main experiment item","yes","Lexical_Decision_Task.osexp","/Users/abbiehobbs/Downloads","no","Andale Mono","no","18","no","white","no","yes","576","legacy","75","75","3","/Users/abbiehobbs/Downloads/subject-5203244.csv","legacy","Lentiform Loewenfeld","3.3.7","yes","yes","600bd7cfb6416f0113b04181","602110864497cf011d9c0822","0","j","NA","j","j","j","j","j","541","NA","3656","28513","6609","5328","541","2","legacy","1024","2","48000","-16","task","5203244","even","NA","48174","53835","50178","202657","4841","39981","33368","203160","152070","202654","203160","202597","53835","203702","46279","202097","4790","196051","Lexical Decision Task","73","60920","80","yes","1024"
"2.799799878","0","4","ciff","non-word","91.35802469135803","91.35802469135803","760.2716049382716","760.2716049382716","black","no","legacy","legacy","legacy","0","uniform","1","undefined","undefined","undefined","1","f","0","0","0","0","80","0","0","0","80","0","76","80","76","0","76","3","80","0","80","Fri Feb 19 12:10:06 2021","The main experiment item","yes","Lexical_Decision_Task.osexp","/Users/abbiehobbs/Downloads","no","Andale Mono","no","18","no","white","no","yes","576","legacy","76","76","3","/Users/abbiehobbs/Downloads/subject-5203244.csv","legacy","Lentiform Loewenfeld","3.3.7","yes","yes","600bd7cfb6416f0113b04181","602110864497cf011d9c0822","0","f","NA","j","j","j","j","f","662","NA","3656","28513","6609","5328","662","2","legacy","1024","2","48000","-16","task","5203244","even","NA","48174","53835","50178","204264","4841","39981","33368","204768","152070","204262","204768","204206","53835","205431","46279","203706","4790","196051","Lexical Decision Task","74","61582","81","yes","1024"
"2.794720352","0","9","koot","non-word","91.46341463414635","91.46341463414635","761.219512195122","761.219512195122","black","no","legacy","legacy","legacy","0","uniform","1","undefined","undefined","undefined","1","f","0","0","0","0","81","0","0","0","81","0","77","81","77","0","77","3","81","0","81","Fri Feb 19 12:10:06 2021","The main experiment item","yes","Lexical_Decision_Task.osexp","/Users/abbiehobbs/Downloads","no","Andale Mono","no","18","no","white","no","yes","576","legacy","77","77","3","/Users/abbiehobbs/Downloads/subject-5203244.csv","legacy","Lentiform Loewenfeld","3.3.7","yes","yes","600bd7cfb6416f0113b04181","602110864497cf011d9c0822","0","f","NA","j","j","j","j","f","838","NA","3656","28513","6609","5328","838","2","legacy","1024","2","48000","-16","task","5203244","even","NA","48174","53835","50178","205994","4841","39981","33368","206496","152070","205991","206497","205936","53835","207336","46279","205435","4790","196051","Lexical Decision Task","75","62420","82","yes","1024"
"3.209246849","0","7","slem","non-word","91.56626506024097","91.56626506024097","758.7951807228916","758.7951807228916","black","no","legacy","legacy","legacy","0","uniform","1","undefined","undefined","undefined","1","f","0","0","0","0","82","0","0","0","82","0","78","82","78","0","78","3","82","0","82","Fri Feb 19 12:10:06 2021","The main experiment item","yes","Lexical_Decision_Task.osexp","/Users/abbiehobbs/Downloads","no","Andale Mono","no","18","no","white","no","yes","576","legacy","78","78","3","/Users/abbiehobbs/Downloads/subject-5203244.csv","legacy","Lentiform Loewenfeld","3.3.7","yes","yes","600bd7cfb6416f0113b04181","602110864497cf011d9c0822","0","f","NA","j","j","j","j","f","560","NA","3656","28513","6609","5328","560","2","legacy","1024","2","48000","-16","task","5203244","even","NA","48174","53835","50178","207899","4841","39981","33368","208402","152070","207897","208402","207841","53835","208963","46279","207340","4790","196051","Lexical Decision Task","76","62980","83","yes","1024"
"2.884795364","0","6","flob","non-word","90.47619047619048","90.47619047619048","758.3690476190476","758.3690476190476","black","no","legacy","legacy","legacy","0","uniform","0","undefined","undefined","undefined","0","f","0","0","0","0","83","0","0","0","83","0","79","83","79","0","79","3","83","0","83","Fri Feb 19 12:10:06 2021","The main experiment item","yes","Lexical_Decision_Task.osexp","/Users/abbiehobbs/Downloads","no","Andale Mono","no","18","no","white","no","yes","576","legacy","79","79","3","/Users/abbiehobbs/Downloads/subject-5203244.csv","legacy","Lentiform Loewenfeld","3.3.7","yes","yes","600bd7cfb6416f0113b04181","602110864497cf011d9c0822","0","j","NA","j","j","j","j","j","723","NA","3656","28513","6609","5328","723","2","legacy","1024","2","48000","-16","task","5203244","even","NA","48174","53835","50178","209525","4841","39981","33368","210028","152070","209522","210028","209467","53835","210752","46279","208967","4790","196051","Lexical Decision Task","76","63703","84","yes","1024"
"3.460446784","0","5","dess","non-word","90.58823529411765","90.58823529411765","758.5764705882353","758.5764705882353","black","no","legacy","legacy","legacy","0","uniform","1","undefined","undefined","undefined","1","f","0","0","0","0","84","0","0","0","84","0","80","84","80","0","80","3","84","0","84","Fri Feb 19 12:10:06 2021","The main experiment item","yes","Lexical_Decision_Task.osexp","/Users/abbiehobbs/Downloads","no","Andale Mono","no","18","no","white","no","yes","576","legacy","80","80","3","/Users/abbiehobbs/Downloads/subject-5203244.csv","legacy","Lentiform Loewenfeld","3.3.7","yes","yes","600bd7cfb6416f0113b04181","602110864497cf011d9c0822","0","f","NA","j","j","j","j","f","776","NA","3656","28513","6609","5328","776","2","legacy","1024","2","48000","-16","task","5203244","even","NA","48174","53835","50178","212319","4841","39981","33368","212822","152070","212316","212822","212257","53835","213599","46279","208967","4790","210756","Lexical Decision Task","77","64479","85","yes","1024"
"2.69019608","9.01","2","myth","word","90.69767441860465","90.69767441860465","756.6046511627907","756.6046511627907","black","no","legacy","legacy","legacy","0","uniform","1","undefined","undefined","undefined","1","j","0","0","0","0","85","0","0","0","85","0","81","85","81","0","81","3","85","0","85","Fri Feb 19 12:10:06 2021","The main experiment item","yes","Lexical_Decision_Task.osexp","/Users/abbiehobbs/Downloads","no","Andale Mono","no","18","no","white","no","yes","576","legacy","81","81","3","/Users/abbiehobbs/Downloads/subject-5203244.csv","legacy","Lentiform Loewenfeld","3.3.7","yes","yes","600bd7cfb6416f0113b04181","602110864497cf011d9c0822","0","j","NA","j","j","j","j","j","589","NA","3656","28513","6609","5328","589","2","legacy","1024","2","48000","-16","task","5203244","even","NA","48174","53835","50178","214161","4841","39981","33368","214664","152070","214158","214664","214103","53835","215254","46279","213603","4790","210756","Lexical Decision Task","78","65068","86","yes","1024"
"3.039414119","0","9","meep","non-word","90.80459770114942","90.80459770114942","756.6436781609195","756.6436781609195","black","no","legacy","legacy","legacy","0","uniform","1","undefined","undefined","undefined","1","f","0","0","0","0","86","0","0","0","86","0","82","86","82","0","82","3","86","0","86","Fri Feb 19 12:10:06 2021","The main experiment item","yes","Lexical_Decision_Task.osexp","/Users/abbiehobbs/Downloads","no","Andale Mono","no","18","no","white","no","yes","576","legacy","82","82","3","/Users/abbiehobbs/Downloads/subject-5203244.csv","legacy","Lentiform Loewenfeld","3.3.7","yes","yes","600bd7cfb6416f0113b04181","602110864497cf011d9c0822","0","f","NA","j","j","j","j","f","760","NA","3656","28513","6609","5328","760","2","legacy","1024","2","48000","-16","task","5203244","even","NA","48174","53835","50178","215816","4841","39981","33368","216319","152070","215814","216319","215758","53835","217080","46279","215258","4790","210756","Lexical Decision Task","79","65828","87","yes","1024"
"2.812467698","0","7","hafe","non-word","90.9090909090909","90.9090909090909","755.6704545454545","755.6704545454545","black","no","legacy","legacy","legacy","0","uniform","1","undefined","undefined","undefined","1","f","0","0","0","0","87","0","0","0","87","0","83","87","83","0","83","3","87","0","87","Fri Feb 19 12:10:06 2021","The main experiment item","yes","Lexical_Decision_Task.osexp","/Users/abbiehobbs/Downloads","no","Andale Mono","no","18","no","white","no","yes","576","legacy","83","83","3","/Users/abbiehobbs/Downloads/subject-5203244.csv","legacy","Lentiform Loewenfeld","3.3.7","yes","yes","600bd7cfb6416f0113b04181","602110864497cf011d9c0822","0","f","NA","j","j","j","j","f","671","NA","3656","28513","6609","5328","671","2","legacy","1024","2","48000","-16","task","5203244","even","NA","48174","53835","50178","217641","4841","39981","33368","218144","152070","217639","218144","217583","53835","218816","46279","217083","4790","210756","Lexical Decision Task","80","66499","88","yes","1024"
"2.705007959","6.01","4","wept","word","91.01123595505618","91.01123595505618","756.9775280898876","756.9775280898876","black","no","legacy","legacy","legacy","0","uniform","1","undefined","undefined","undefined","1","j","0","0","0","0","88","0","0","0","88","0","84","88","84","0","84","3","88","0","88","Fri Feb 19 12:10:06 2021","The main experiment item","yes","Lexical_Decision_Task.osexp","/Users/abbiehobbs/Downloads","no","Andale Mono","no","18","no","white","no","yes","576","legacy","84","84","3","/Users/abbiehobbs/Downloads/subject-5203244.csv","legacy","Lentiform Loewenfeld","3.3.7","yes","yes","600bd7cfb6416f0113b04181","602110864497cf011d9c0822","0","j","NA","j","j","j","j","j","872","NA","3656","28513","6609","5328","872","2","legacy","1024","2","48000","-16","task","5203244","even","NA","48174","53835","50178","219379","4841","39981","33368","219881","152070","219375","219881","219320","53835","220754","46279","218820","4790","210756","Lexical Decision Task","81","67371","89","yes","1024"
"2.782472624","10.55","2","huge","word","91.11111111111111","91.11111111111111","755.2111111111111","755.2111111111111","black","no","legacy","legacy","legacy","0","uniform","1","undefined","undefined","undefined","1","j","0","0","0","0","89","0","0","0","89","0","85","89","85","0","85","3","89","0","89","Fri Feb 19 12:10:06 2021","The main experiment item","yes","Lexical_Decision_Task.osexp","/Users/abbiehobbs/Downloads","no","Andale Mono","no","18","no","white","no","yes","576","legacy","85","85","3","/Users/abbiehobbs/Downloads/subject-5203244.csv","legacy","Lentiform Loewenfeld","3.3.7","yes","yes","600bd7cfb6416f0113b04181","602110864497cf011d9c0822","0","j","NA","j","j","j","j","j","598","NA","3656","28513","6609","5328","598","2","legacy","1024","2","48000","-16","task","5203244","even","NA","48174","53835","50178","221316","4841","39981","33368","221819","152070","221313","221819","221258","53835","222418","46279","220758","4790","210756","Lexical Decision Task","82","67969","90","yes","1024"
"2.75025376","10.2","6","jump","word","91.20879120879121","91.20879120879121","752.4725274725274","752.4725274725274","black","no","legacy","legacy","legacy","0","uniform","1","undefined","undefined","undefined","1","j","0","0","0","0","90","0","0","0","90","0","86","90","86","0","86","3","90","0","90","Fri Feb 19 12:10:06 2021","The main experiment item","yes","Lexical_Decision_Task.osexp","/Users/abbiehobbs/Downloads","no","Andale Mono","no","18","no","white","no","yes","576","legacy","86","86","3","/Users/abbiehobbs/Downloads/subject-5203244.csv","legacy","Lentiform Loewenfeld","3.3.7","yes","yes","600bd7cfb6416f0113b04181","602110864497cf011d9c0822","0","j","NA","j","j","j","j","j","506","NA","3656","28513","6609","5328","506","2","legacy","1024","2","48000","-16","task","5203244","even","NA","48174","53835","50178","222981","4841","39981","33368","223484","152070","222978","223484","222922","53835","223991","46279","222422","4790","210756","Lexical Decision Task","83","68475","91","yes","1024"
"3.062080345","0","6","tomp","non-word","91.30434782608695","91.30434782608695","750.5326086956521","750.5326086956521","black","no","legacy","legacy","legacy","0","uniform","1","undefined","undefined","undefined","1","f","0","0","0","0","91","0","0","0","91","0","87","91","87","0","87","3","91","0","91","Fri Feb 19 12:10:06 2021","The main experiment item","yes","Lexical_Decision_Task.osexp","/Users/abbiehobbs/Downloads","no","Andale Mono","no","18","no","white","no","yes","576","legacy","87","87","3","/Users/abbiehobbs/Downloads/subject-5203244.csv","legacy","Lentiform Loewenfeld","3.3.7","yes","yes","600bd7cfb6416f0113b04181","602110864497cf011d9c0822","0","f","NA","j","j","j","j","f","574","NA","3656","28513","6609","5328","574","2","legacy","1024","2","48000","-16","task","5203244","even","NA","48174","53835","50178","224553","4841","39981","33368","225055","152070","224551","225055","224495","53835","225630","46279","223995","4790","210756","Lexical Decision Task","84","69049","92","yes","1024"
"2.68604012","0","3","mulb","non-word","91.39784946236558","91.39784946236558","748.3978494623656","748.3978494623656","black","no","legacy","legacy","legacy","0","uniform","1","undefined","undefined","undefined","1","f","0","0","0","0","92","0","0","0","92","0","88","92","88","0","88","3","92","0","92","Fri Feb 19 12:10:06 2021","The main experiment item","yes","Lexical_Decision_Task.osexp","/Users/abbiehobbs/Downloads","no","Andale Mono","no","18","no","white","no","yes","576","legacy","88","88","3","/Users/abbiehobbs/Downloads/subject-5203244.csv","legacy","Lentiform Loewenfeld","3.3.7","yes","yes","600bd7cfb6416f0113b04181","602110864497cf011d9c0822","0","f","NA","j","j","j","j","f","552","NA","3656","28513","6609","5328","552","2","legacy","1024","2","48000","-16","task","5203244","even","NA","48174","53835","50178","226191","4841","39981","33368","226694","152070","226188","226694","226133","53835","227247","46279","225633","4790","210756","Lexical Decision Task","85","69601","93","yes","1024"
"2.703007489","8.37","3","pulp","word","91.48936170212765","91.48936170212765","747.7234042553191","747.7234042553191","black","no","legacy","legacy","legacy","0","uniform","1","undefined","undefined","undefined","1","j","0","0","0","0","93","0","0","0","93","0","89","93","89","0","89","3","93","0","93","Fri Feb 19 12:10:06 2021","The main experiment item","yes","Lexical_Decision_Task.osexp","/Users/abbiehobbs/Downloads","no","Andale Mono","no","18","no","white","no","yes","576","legacy","89","89","3","/Users/abbiehobbs/Downloads/subject-5203244.csv","legacy","Lentiform Loewenfeld","3.3.7","yes","yes","600bd7cfb6416f0113b04181","602110864497cf011d9c0822","0","j","NA","j","j","j","j","j","685","NA","3656","28513","6609","5328","685","2","legacy","1024","2","48000","-16","task","5203244","even","NA","48174","53835","50178","227809","4841","39981","33368","228312","152070","227806","228312","227751","53835","228998","46279","227251","4790","210756","Lexical Decision Task","86","70286","94","yes","1024"
"2.755364069","7.72","2","hoax","word","91.57894736842105","91.57894736842105","747.3157894736842","747.3157894736842","black","no","legacy","legacy","legacy","0","uniform","1","undefined","undefined","undefined","1","j","0","0","0","0","94","0","0","0","94","0","90","94","90","0","90","3","94","0","94","Fri Feb 19 12:10:06 2021","The main experiment item","yes","Lexical_Decision_Task.osexp","/Users/abbiehobbs/Downloads","no","Andale Mono","no","18","no","white","no","yes","576","legacy","90","90","3","/Users/abbiehobbs/Downloads/subject-5203244.csv","legacy","Lentiform Loewenfeld","3.3.7","yes","yes","600bd7cfb6416f0113b04181","602110864497cf011d9c0822","0","j","NA","j","j","j","j","j","709","NA","3656","28513","6609","5328","709","2","legacy","1024","2","48000","-16","task","5203244","even","NA","48174","53835","50178","229560","4841","39981","33368","230063","152070","229558","230063","229502","53835","230773","46279","229001","4790","210756","Lexical Decision Task","87","70995","95","yes","1024"
"2.842815106","7.86","8","lump","word","91.66666666666667","91.66666666666667","747.9166666666666","747.9166666666666","black","no","legacy","legacy","legacy","0","uniform","1","undefined","undefined","undefined","1","j","0","0","0","0","95","0","0","0","95","0","91","95","91","0","91","3","95","0","95","Fri Feb 19 12:10:06 2021","The main experiment item","yes","Lexical_Decision_Task.osexp","/Users/abbiehobbs/Downloads","no","Andale Mono","no","18","no","white","no","yes","576","legacy","91","91","3","/Users/abbiehobbs/Downloads/subject-5203244.csv","legacy","Lentiform Loewenfeld","3.3.7","yes","yes","600bd7cfb6416f0113b04181","602110864497cf011d9c0822","0","j","NA","j","j","j","j","j","805","NA","3656","28513","6609","5328","805","2","legacy","1024","2","48000","-16","task","5203244","even","NA","48174","53835","50178","231335","4841","39981","33368","231838","152070","231332","231838","231277","53835","232644","46279","230777","4790","210756","Lexical Decision Task","88","71800","96","yes","1024"
"3.307211407","6.07","7","honk","word","91.75257731958763","91.75257731958763","745.8865979381443","745.8865979381443","black","no","legacy","legacy","legacy","0","uniform","1","undefined","undefined","undefined","1","j","0","0","0","0","96","0","0","0","96","0","92","96","92","0","92","3","96","0","96","Fri Feb 19 12:10:06 2021","The main experiment item","yes","Lexical_Decision_Task.osexp","/Users/abbiehobbs/Downloads","no","Andale Mono","no","18","no","white","no","yes","576","legacy","92","92","3","/Users/abbiehobbs/Downloads/subject-5203244.csv","legacy","Lentiform Loewenfeld","3.3.7","yes","yes","600bd7cfb6416f0113b04181","602110864497cf011d9c0822","0","j","NA","j","j","j","j","j","551","NA","3656","28513","6609","5328","551","2","legacy","1024","2","48000","-16","task","5203244","even","NA","48174","53835","50178","233206","4841","39981","33368","233710","152070","233204","233710","233149","53835","234262","46279","232648","4790","210756","Lexical Decision Task","89","72351","97","yes","1024"
"2.898725182","0","7","turl","non-word","91.83673469387755","91.83673469387755","744.8673469387755","744.8673469387755","black","no","legacy","legacy","legacy","0","uniform","1","undefined","undefined","undefined","1","f","0","0","0","0","97","0","0","0","97","0","93","97","93","0","93","3","97","0","97","Fri Feb 19 12:10:06 2021","The main experiment item","yes","Lexical_Decision_Task.osexp","/Users/abbiehobbs/Downloads","no","Andale Mono","no","18","no","white","no","yes","576","legacy","93","93","3","/Users/abbiehobbs/Downloads/subject-5203244.csv","legacy","Lentiform Loewenfeld","3.3.7","yes","yes","600bd7cfb6416f0113b04181","602110864497cf011d9c0822","0","f","NA","j","j","j","j","f","646","NA","3656","28513","6609","5328","646","2","legacy","1024","2","48000","-16","task","5203244","even","NA","48174","53835","50178","234823","4841","39981","33368","235326","152070","234820","235326","234766","53835","235973","46279","234266","4790","210756","Lexical Decision Task","90","72997","98","yes","1024"
"2.983324025","9.56","2","debt","word","91.91919191919192","91.91919191919192","743.5050505050505","743.5050505050505","black","no","legacy","legacy","legacy","0","uniform","1","undefined","undefined","undefined","1","j","0","0","0","0","98","0","0","0","98","0","94","98","94","0","94","3","98","0","98","Fri Feb 19 12:10:06 2021","The main experiment item","yes","Lexical_Decision_Task.osexp","/Users/abbiehobbs/Downloads","no","Andale Mono","no","18","no","white","no","yes","576","legacy","94","94","3","/Users/abbiehobbs/Downloads/subject-5203244.csv","legacy","Lentiform Loewenfeld","3.3.7","yes","yes","600bd7cfb6416f0113b04181","602110864497cf011d9c0822","0","j","NA","j","j","j","j","j","610","NA","3656","28513","6609","5328","610","2","legacy","1024","2","48000","-16","task","5203244","even","NA","48174","53835","50178","236535","4841","39981","33368","237038","152070","236533","237038","236477","53835","237650","46279","235977","4790","210756","Lexical Decision Task","91","73607","99","yes","1024"
"3.082307743","9.68","8","camp","word","92","92","741.57","741.57","black","no","legacy","legacy","legacy","0","uniform","1","undefined","undefined","undefined","1","j","0","0","0","0","99","0","0","0","99","0","95","99","95","0","95","3","99","0","99","Fri Feb 19 12:10:06 2021","The main experiment item","yes","Lexical_Decision_Task.osexp","/Users/abbiehobbs/Downloads","no","Andale Mono","no","18","no","white","no","yes","576","legacy","95","95","3","/Users/abbiehobbs/Downloads/subject-5203244.csv","legacy","Lentiform Loewenfeld","3.3.7","yes","yes","600bd7cfb6416f0113b04181","602110864497cf011d9c0822","0","j","NA","j","j","j","j","j","550","NA","3656","28513","6609","5328","550","2","legacy","1024","2","48000","-16","task","5203244","even","NA","48174","53835","50178","238213","4841","39981","33368","238716","152070","238210","238716","238154","53835","239267","46279","237654","4790","210756","Lexical Decision Task","92","74157","100","yes","1024"
"2.67699827","0","6","hulf","non-word","92.07920792079207","92.07920792079207","741.2772277227723","741.2772277227723","black","no","legacy","legacy","legacy","0","uniform","1","undefined","undefined","undefined","1","f","0","0","0","0","100","0","0","0","100","0","96","100","96","0","96","3","100","0","100","Fri Feb 19 12:10:06 2021","The main experiment item","yes","Lexical_Decision_Task.osexp","/Users/abbiehobbs/Downloads","no","Andale Mono","no","18","no","white","no","yes","576","legacy","96","96","3","/Users/abbiehobbs/Downloads/subject-5203244.csv","legacy","Lentiform Loewenfeld","3.3.7","yes","yes","600bd7cfb6416f0113b04181","602110864497cf011d9c0822","0","f","NA","j","j","j","j","f","712","NA","3656","28513","6609","5328","712","2","legacy","1024","2","48000","-16","task","5203244","even","NA","48174","53835","50178","239829","4841","39981","33368","240332","152070","239826","240332","239771","53835","241045","46279","239271","4790","210756","Lexical Decision Task","93","74869","101","yes","1024"
