"Log_BG","Log_Freq_HAL","Ortho_N","Stimulus","Type","acc","accuracy","average_response_time","avg_rt","background","bidi","canvas_backend","clock_backend","color_backend","compensation","coordinates","correct","correct_Experimental_intro","correct_Introduction","correct_Practice_intro","correct_experimenter_kb","correct_response","count_End_Of_Experiment","count_End_Of_Practice","count_Experimental_Loop","count_Experimental_intro","count_Fixation","count_Introduction","count_Practice_Loop","count_Practice_intro","count_Stimulus","count_block_break_feedback","count_experimental_sequence","count_experimenter_kb","count_increment_trial_count","count_init_trial_count","count_logger","count_practice_sequence","count_right","count_task","count_wrong","datetime","description","disable_garbage_collection","experiment_file","experiment_path","font_bold","font_family","font_italic","font_size","font_underline","foreground","form_clicks","fullscreen","height","keyboard_backend","live_row","live_row_Experimental_Loop","live_row_Practice_Loop","logfile","mouse_backend","opensesame_codename","opensesame_version","osf_always_upload_data","osf_always_upload_experiment","osf_datanode_id","osf_id","repeat_cycle","response","response_End_Of_Experiment","response_Experimental_intro","response_Introduction","response_Practice_intro","response_block_break_feedback","response_experimenter_kb","response_time","response_time_End_Of_Experiment","response_time_Experimental_intro","response_time_Introduction","response_time_Practice_intro","response_time_block_break_feedback","response_time_experimenter_kb","round_decimals","sampler_backend","sound_buf_size","sound_channels","sound_freq","sound_sample_size","start","subject_nr","subject_parity","time_End_Of_Experiment","time_End_Of_Practice","time_Experimental_Loop","time_Experimental_intro","time_Fixation","time_Introduction","time_Practice_Loop","time_Practice_intro","time_Stimulus","time_block_break_feedback","time_experimental_sequence","time_experimenter_kb","time_increment_trial_count","time_init_trial_count","time_logger","time_practice_sequence","time_right","time_task","time_wrong","title","total_correct","total_response_time","total_responses","uniform_coordinates","width"
"3.274543461","7.46","7","scar","word","80","80","803.6","803.6","black","no","legacy","legacy","legacy","0","uniform","1","undefined","undefined","undefined","1","j","0","0","0","0","4","0","0","0","4","NA","0","4","0","0","0","3","4","0","4","Fri Feb 19 12:23:01 2021","The main experiment item","yes","Lexical_Decision_Task.osexp","C:/Users/shone","no","Andale Mono","no","18","no","white","no","yes","576","legacy","0","0","3","C:/Users/shone/subject-5201252.csv","legacy","Lentiform Loewenfeld","3.3.7","yes","yes","600bd7cfb6416f0113b04181","602110864497cf011d9c0822","0","j","NA","space","d","space","NA","j","624","NA","4128","16943","10817","NA","624","2","legacy","1024","2","48000","-16","task","5201252","even","NA","39534","45664","41535","45700","2894","30658","19840","46202","NA","45699","46202","NA","45664","46827","37642","39015","2890","36085","Lexical Decision Task","4","4018","5","yes","1024"
"3.263399331","0","8","cour","non-word","83.33333333333333","83.33333333333333","797.1666666666666","797.1666666666666","black","no","legacy","legacy","legacy","0","uniform","1","undefined","undefined","undefined","1","f","0","0","0","0","5","0","0","0","5","NA","1","5","1","0","1","3","5","0","5","Fri Feb 19 12:23:01 2021","The main experiment item","yes","Lexical_Decision_Task.osexp","C:/Users/shone","no","Andale Mono","no","18","no","white","no","yes","576","legacy","1","1","3","C:/Users/shone/subject-5201252.csv","legacy","Lentiform Loewenfeld","3.3.7","yes","yes","600bd7cfb6416f0113b04181","602110864497cf011d9c0822","0","f","NA","space","d","space","NA","f","765","NA","4128","16943","10817","NA","765","2","legacy","1024","2","48000","-16","task","5201252","even","NA","39534","45664","41535","47638","2894","30658","19840","48140","NA","47637","48140","47463","45664","48905","37642","46963","2890","36085","Lexical Decision Task","5","4783","6","yes","1024"
"3.311895072","0","9","gung","non-word","85.71428571428571","85.71428571428571","834.2857142857143","834.2857142857143","black","no","legacy","legacy","legacy","0","uniform","1","undefined","undefined","undefined","1","f","0","0","0","0","6","0","0","0","6","NA","2","6","2","0","2","3","6","0","6","Fri Feb 19 12:23:01 2021","The main experiment item","yes","Lexical_Decision_Task.osexp","C:/Users/shone","no","Andale Mono","no","18","no","white","no","yes","576","legacy","2","2","3","C:/Users/shone/subject-5201252.csv","legacy","Lentiform Loewenfeld","3.3.7","yes","yes","600bd7cfb6416f0113b04181","602110864497cf011d9c0822","0","f","NA","space","d","space","NA","f","1057","NA","4128","16943","10817","NA","1057","2","legacy","1024","2","48000","-16","task","5201252","even","NA","39534","45664","41535","50677","2894","30658","19840","51178","NA","50676","51178","50624","45664","52236","37642","50124","2890","36085","Lexical Decision Task","6","5840","7","yes","1024"
"2.8162413","0","5","nusk","non-word","87.5","87.5","826.625","826.625","black","no","legacy","legacy","legacy","0","uniform","1","undefined","undefined","undefined","1","f","0","0","0","0","7","0","0","0","7","NA","3","7","3","0","3","3","7","0","7","Fri Feb 19 12:23:01 2021","The main experiment item","yes","Lexical_Decision_Task.osexp","C:/Users/shone","no","Andale Mono","no","18","no","white","no","yes","576","legacy","3","3","3","C:/Users/shone/subject-5201252.csv","legacy","Lentiform Loewenfeld","3.3.7","yes","yes","600bd7cfb6416f0113b04181","602110864497cf011d9c0822","0","f","NA","space","d","space","NA","f","773","NA","4128","16943","10817","NA","773","2","legacy","1024","2","48000","-16","task","5201252","even","NA","39534","45664","41535","54101","2894","30658","19840","54602","NA","54099","54602","54048","45664","55376","37642","53548","2890","36085","Lexical Decision Task","7","6613","8","yes","1024"
"3.194328374","9.42","6","harm","word","88.88888888888889","88.88888888888889","824.8888888888889","824.8888888888889","black","no","legacy","legacy","legacy","0","uniform","1","undefined","undefined","undefined","1","j","0","0","0","0","8","0","0","0","8","NA","4","8","4","0","4","3","8","0","8","Fri Feb 19 12:23:01 2021","The main experiment item","yes","Lexical_Decision_Task.osexp","C:/Users/shone","no","Andale Mono","no","18","no","white","no","yes","576","legacy","4","4","3","C:/Users/shone/subject-5201252.csv","legacy","Lentiform Loewenfeld","3.3.7","yes","yes","600bd7cfb6416f0113b04181","602110864497cf011d9c0822","0","j","NA","space","d","space","NA","j","811","NA","4128","16943","10817","NA","811","2","legacy","1024","2","48000","-16","task","5201252","even","NA","39534","45664","41535","56051","2894","30658","19840","56552","NA","56049","56552","55998","45664","57363","37642","55498","2890","36085","Lexical Decision Task","8","7424","9","yes","1024"
"3.374137706","10.21","4","tree","word","90","90","796.5","796.5","black","no","legacy","legacy","legacy","0","uniform","1","undefined","undefined","undefined","1","j","0","0","0","0","9","0","0","0","9","NA","5","9","5","0","5","3","9","0","9","Fri Feb 19 12:23:01 2021","The main experiment item","yes","Lexical_Decision_Task.osexp","C:/Users/shone","no","Andale Mono","no","18","no","white","no","yes","576","legacy","5","5","3","C:/Users/shone/subject-5201252.csv","legacy","Lentiform Loewenfeld","3.3.7","yes","yes","600bd7cfb6416f0113b04181","602110864497cf011d9c0822","0","j","NA","space","d","space","NA","j","541","NA","4128","16943","10817","NA","541","2","legacy","1024","2","48000","-16","task","5201252","even","NA","39534","45664","41535","58016","2894","30658","19840","58518","NA","58015","58518","57963","45664","59060","37642","57463","2890","36085","Lexical Decision Task","9","7965","10","yes","1024"
"2.82129731","6.72","5","plum","word","90.9090909090909","90.9090909090909","768.0909090909091","768.0909090909091","black","no","legacy","legacy","legacy","0","uniform","1","undefined","undefined","undefined","1","j","0","0","0","0","10","0","0","0","10","NA","6","10","6","0","6","3","10","0","10","Fri Feb 19 12:23:01 2021","The main experiment item","yes","Lexical_Decision_Task.osexp","C:/Users/shone","no","Andale Mono","no","18","no","white","no","yes","576","legacy","6","6","3","C:/Users/shone/subject-5201252.csv","legacy","Lentiform Loewenfeld","3.3.7","yes","yes","600bd7cfb6416f0113b04181","602110864497cf011d9c0822","0","j","NA","space","d","space","NA","j","484","NA","4128","16943","10817","NA","484","2","legacy","1024","2","48000","-16","task","5201252","even","NA","39534","45664","41535","59977","2894","30658","19840","60478","NA","59976","60478","59924","45664","60963","37642","59423","2890","36085","Lexical Decision Task","10","8449","11","yes","1024"
"2.893578687","8.69","3","surf","word","91.66666666666667","91.66666666666667","758.4166666666666","758.4166666666666","black","no","legacy","legacy","legacy","0","uniform","1","undefined","undefined","undefined","1","j","0","0","0","0","11","0","0","0","11","NA","7","11","7","0","7","3","11","0","11","Fri Feb 19 12:23:01 2021","The main experiment item","yes","Lexical_Decision_Task.osexp","C:/Users/shone","no","Andale Mono","no","18","no","white","no","yes","576","legacy","7","7","3","C:/Users/shone/subject-5201252.csv","legacy","Lentiform Loewenfeld","3.3.7","yes","yes","600bd7cfb6416f0113b04181","602110864497cf011d9c0822","0","j","NA","space","d","space","NA","j","652","NA","4128","16943","10817","NA","652","2","legacy","1024","2","48000","-16","task","5201252","even","NA","39534","45664","41535","62980","2894","30658","19840","63483","NA","62979","63483","62923","45664","64135","37642","62423","2890","36085","Lexical Decision Task","11","9101","12","yes","1024"
"2.937852093","0","7","bamp","non-word","92.3076923076923","92.3076923076923","756","756","black","no","legacy","legacy","legacy","0","uniform","1","undefined","undefined","undefined","1","f","0","0","0","0","12","0","0","0","12","NA","8","12","8","0","8","3","12","0","12","Fri Feb 19 12:23:01 2021","The main experiment item","yes","Lexical_Decision_Task.osexp","C:/Users/shone","no","Andale Mono","no","18","no","white","no","yes","576","legacy","8","8","3","C:/Users/shone/subject-5201252.csv","legacy","Lentiform Loewenfeld","3.3.7","yes","yes","600bd7cfb6416f0113b04181","602110864497cf011d9c0822","0","f","NA","space","d","space","NA","f","727","NA","4128","16943","10817","NA","727","2","legacy","1024","2","48000","-16","task","5201252","even","NA","39534","45664","41535","65168","2894","30658","19840","65670","NA","65166","65670","65111","45664","66397","37642","64611","2890","36085","Lexical Decision Task","12","9828","13","yes","1024"
"3.474361976","5.24","6","veer","word","85.71428571428571","85.71428571428571","755.8571428571429","755.8571428571429","black","no","legacy","legacy","legacy","0","uniform","0","undefined","undefined","undefined","0","j","0","0","0","0","13","0","0","0","13","NA","9","13","9","0","9","3","13","0","13","Fri Feb 19 12:23:01 2021","The main experiment item","yes","Lexical_Decision_Task.osexp","C:/Users/shone","no","Andale Mono","no","18","no","white","no","yes","576","legacy","9","9","3","C:/Users/shone/subject-5201252.csv","legacy","Lentiform Loewenfeld","3.3.7","yes","yes","600bd7cfb6416f0113b04181","602110864497cf011d9c0822","0","f","NA","space","d","space","NA","f","754","NA","4128","16943","10817","NA","754","2","legacy","1024","2","48000","-16","task","5201252","even","NA","39534","45664","41535","67011","2894","30658","19840","67513","NA","67010","67513","66950","45664","68267","37642","66450","2890","36085","Lexical Decision Task","12","10582","14","yes","1024"
"3.119255889","6.63","2","itch","word","86.66666666666667","86.66666666666667","743.3333333333334","743.3333333333334","black","no","legacy","legacy","legacy","0","uniform","1","undefined","undefined","undefined","1","j","0","0","0","0","14","0","0","0","14","NA","10","14","10","0","10","3","14","0","14","Fri Feb 19 12:23:01 2021","The main experiment item","yes","Lexical_Decision_Task.osexp","C:/Users/shone","no","Andale Mono","no","18","no","white","no","yes","576","legacy","10","10","3","C:/Users/shone/subject-5201252.csv","legacy","Lentiform Loewenfeld","3.3.7","yes","yes","600bd7cfb6416f0113b04181","602110864497cf011d9c0822","0","j","NA","space","d","space","NA","j","568","NA","4128","16943","10817","NA","568","2","legacy","1024","2","48000","-16","task","5201252","even","NA","39534","45664","41535","70468","2894","30658","19840","70969","NA","70467","70969","70415","45664","71538","37642","66450","2890","68915","Lexical Decision Task","13","11150","15","yes","1024"
"3.269668578","0","7","trag","non-word","87.5","87.5","743.8125","743.8125","black","no","legacy","legacy","legacy","0","uniform","1","undefined","undefined","undefined","1","f","0","0","0","0","15","0","0","0","15","NA","11","15","11","0","11","3","15","0","15","Fri Feb 19 12:23:01 2021","The main experiment item","yes","Lexical_Decision_Task.osexp","C:/Users/shone","no","Andale Mono","no","18","no","white","no","yes","576","legacy","11","11","3","C:/Users/shone/subject-5201252.csv","legacy","Lentiform Loewenfeld","3.3.7","yes","yes","600bd7cfb6416f0113b04181","602110864497cf011d9c0822","0","f","NA","space","d","space","NA","f","751","NA","4128","16943","10817","NA","751","2","legacy","1024","2","48000","-16","task","5201252","even","NA","39534","45664","41535","72666","2894","30658","19840","73168","NA","72665","73168","72612","45664","73921","37642","72112","2890","68915","Lexical Decision Task","14","11901","16","yes","1024"
"2.980306438","0","7","slun","non-word","88.23529411764706","88.23529411764706","734.1176470588235","734.1176470588235","black","no","legacy","legacy","legacy","0","uniform","1","undefined","undefined","undefined","1","f","0","0","0","0","16","0","0","0","16","NA","12","16","12","0","12","3","16","0","16","Fri Feb 19 12:23:01 2021","The main experiment item","yes","Lexical_Decision_Task.osexp","C:/Users/shone","no","Andale Mono","no","18","no","white","no","yes","576","legacy","12","12","3","C:/Users/shone/subject-5201252.csv","legacy","Lentiform Loewenfeld","3.3.7","yes","yes","600bd7cfb6416f0113b04181","602110864497cf011d9c0822","0","f","NA","space","d","space","NA","f","579","NA","4128","16943","10817","NA","579","2","legacy","1024","2","48000","-16","task","5201252","even","NA","39534","45664","41535","74710","2894","30658","19840","75211","NA","74709","75211","74658","45664","75791","37642","74158","2890","68915","Lexical Decision Task","15","12480","17","yes","1024"
"3.102203805","7.21","3","drip","word","88.88888888888889","88.88888888888889","728.7222222222222","728.7222222222222","black","no","legacy","legacy","legacy","0","uniform","1","undefined","undefined","undefined","1","j","0","0","0","0","17","0","0","0","17","NA","13","17","13","0","13","3","17","0","17","Fri Feb 19 12:23:01 2021","The main experiment item","yes","Lexical_Decision_Task.osexp","C:/Users/shone","no","Andale Mono","no","18","no","white","no","yes","576","legacy","13","13","3","C:/Users/shone/subject-5201252.csv","legacy","Lentiform Loewenfeld","3.3.7","yes","yes","600bd7cfb6416f0113b04181","602110864497cf011d9c0822","0","j","NA","space","d","space","NA","j","637","NA","4128","16943","10817","NA","637","2","legacy","1024","2","48000","-16","task","5201252","even","NA","39534","45664","41535","76468","2894","30658","19840","76969","NA","76467","76969","76404","45664","77606","37642","75904","2890","68915","Lexical Decision Task","16","13117","18","yes","1024"
"3.316948329","0","1","besc","non-word","89.47368421052632","89.47368421052632","722.2105263157895","722.2105263157895","black","no","legacy","legacy","legacy","0","uniform","1","undefined","undefined","undefined","1","f","0","0","0","0","18","0","0","0","18","NA","14","18","14","0","14","3","18","0","18","Fri Feb 19 12:23:01 2021","The main experiment item","yes","Lexical_Decision_Task.osexp","C:/Users/shone","no","Andale Mono","no","18","no","white","no","yes","576","legacy","14","14","3","C:/Users/shone/subject-5201252.csv","legacy","Lentiform Loewenfeld","3.3.7","yes","yes","600bd7cfb6416f0113b04181","602110864497cf011d9c0822","0","f","NA","space","d","space","NA","f","605","NA","4128","16943","10817","NA","605","2","legacy","1024","2","48000","-16","task","5201252","even","NA","39534","45664","41535","78273","2894","30658","19840","78774","NA","78272","78774","78221","45664","79380","37642","77721","2890","68915","Lexical Decision Task","17","13722","19","yes","1024"
"2.838639236","0","4","furg","non-word","90","90","722.7","722.7","black","no","legacy","legacy","legacy","0","uniform","1","undefined","undefined","undefined","1","f","0","0","0","0","19","0","0","0","19","NA","15","19","15","0","15","3","19","0","19","Fri Feb 19 12:23:01 2021","The main experiment item","yes","Lexical_Decision_Task.osexp","C:/Users/shone","no","Andale Mono","no","18","no","white","no","yes","576","legacy","15","15","3","C:/Users/shone/subject-5201252.csv","legacy","Lentiform Loewenfeld","3.3.7","yes","yes","600bd7cfb6416f0113b04181","602110864497cf011d9c0822","0","f","NA","space","d","space","NA","f","732","NA","4128","16943","10817","NA","732","2","legacy","1024","2","48000","-16","task","5201252","even","NA","39534","45664","41535","81467","2894","30658","19840","81968","NA","81466","81968","81416","45664","82701","37642","80916","2890","68915","Lexical Decision Task","18","14454","20","yes","1024"
"2.966923697","5.4","2","fume","word","90.47619047619048","90.47619047619048","738.047619047619","738.047619047619","black","no","legacy","legacy","legacy","0","uniform","1","undefined","undefined","undefined","1","j","0","0","0","0","20","0","0","0","20","NA","16","20","16","0","16","3","20","0","20","Fri Feb 19 12:23:01 2021","The main experiment item","yes","Lexical_Decision_Task.osexp","C:/Users/shone","no","Andale Mono","no","18","no","white","no","yes","576","legacy","16","16","3","C:/Users/shone/subject-5201252.csv","legacy","Lentiform Loewenfeld","3.3.7","yes","yes","600bd7cfb6416f0113b04181","602110864497cf011d9c0822","0","j","NA","space","d","space","NA","j","1045","NA","4128","16943","10817","NA","1045","2","legacy","1024","2","48000","-16","task","5201252","even","NA","39534","45664","41535","83379","2894","30658","19840","83880","NA","83378","83880","83323","45664","84926","37642","82822","2890","68915","Lexical Decision Task","19","15499","21","yes","1024"
"2.924968096","0","4","phim","non-word","90.9090909090909","90.9090909090909","730.5454545454545","730.5454545454545","black","no","legacy","legacy","legacy","0","uniform","1","undefined","undefined","undefined","1","f","0","0","0","0","21","0","0","0","21","NA","17","21","17","0","17","3","21","0","21","Fri Feb 19 12:23:01 2021","The main experiment item","yes","Lexical_Decision_Task.osexp","C:/Users/shone","no","Andale Mono","no","18","no","white","no","yes","576","legacy","17","17","3","C:/Users/shone/subject-5201252.csv","legacy","Lentiform Loewenfeld","3.3.7","yes","yes","600bd7cfb6416f0113b04181","602110864497cf011d9c0822","0","f","NA","space","d","space","NA","f","573","NA","4128","16943","10817","NA","573","2","legacy","1024","2","48000","-16","task","5201252","even","NA","39534","45664","41535","85856","2894","30658","19840","86357","NA","85854","86357","85804","45664","86931","37642","85304","2890","68915","Lexical Decision Task","20","16072","22","yes","1024"
"2.782472624","10.55","2","huge","word","91.30434782608695","91.30434782608695","722.2608695652174","722.2608695652174","black","no","legacy","legacy","legacy","0","uniform","1","undefined","undefined","undefined","1","j","0","0","0","0","22","0","0","0","22","NA","18","22","18","0","18","3","22","0","22","Fri Feb 19 12:23:01 2021","The main experiment item","yes","Lexical_Decision_Task.osexp","C:/Users/shone","no","Andale Mono","no","18","no","white","no","yes","576","legacy","18","18","3","C:/Users/shone/subject-5201252.csv","legacy","Lentiform Loewenfeld","3.3.7","yes","yes","600bd7cfb6416f0113b04181","602110864497cf011d9c0822","0","j","NA","space","d","space","NA","j","540","NA","4128","16943","10817","NA","540","2","legacy","1024","2","48000","-16","task","5201252","even","NA","39534","45664","41535","87582","2894","30658","19840","88084","NA","87581","88084","87524","45664","88625","37642","87023","2890","68915","Lexical Decision Task","21","16612","23","yes","1024"
"3.031408464","0","7","drow","non-word","87.5","87.5","719.5","719.5","black","no","legacy","legacy","legacy","0","uniform","0","undefined","undefined","undefined","0","f","0","0","0","0","23","0","0","0","23","NA","19","23","19","0","19","3","23","0","23","Fri Feb 19 12:23:01 2021","The main experiment item","yes","Lexical_Decision_Task.osexp","C:/Users/shone","no","Andale Mono","no","18","no","white","no","yes","576","legacy","19","19","3","C:/Users/shone/subject-5201252.csv","legacy","Lentiform Loewenfeld","3.3.7","yes","yes","600bd7cfb6416f0113b04181","602110864497cf011d9c0822","0","j","NA","space","d","space","NA","j","656","NA","4128","16943","10817","NA","656","2","legacy","1024","2","48000","-16","task","5201252","even","NA","39534","45664","41535","89528","2894","30658","19840","90030","NA","89527","90030","89477","45664","90686","37642","88977","2890","68915","Lexical Decision Task","21","17268","24","yes","1024"
"2.698100546","0","9","mulk","non-word","88","88","719.8","719.8","black","no","legacy","legacy","legacy","0","uniform","1","undefined","undefined","undefined","1","f","0","0","0","0","24","0","0","0","24","NA","20","24","20","0","20","3","24","0","24","Fri Feb 19 12:23:01 2021","The main experiment item","yes","Lexical_Decision_Task.osexp","C:/Users/shone","no","Andale Mono","no","18","no","white","no","yes","576","legacy","20","20","3","C:/Users/shone/subject-5201252.csv","legacy","Lentiform Loewenfeld","3.3.7","yes","yes","600bd7cfb6416f0113b04181","602110864497cf011d9c0822","0","f","NA","space","d","space","NA","f","727","NA","4128","16943","10817","NA","727","2","legacy","1024","2","48000","-16","task","5201252","even","NA","39534","45664","41535","92538","2894","30658","19840","93039","NA","92536","93039","92478","45664","93767","37642","88977","2890","90978","Lexical Decision Task","22","17995","25","yes","1024"
"3.20871002","7.15","8","cram","word","84.61538461538461","84.61538461538461","716.0384615384615","716.0384615384615","black","no","legacy","legacy","legacy","0","uniform","0","undefined","undefined","undefined","0","j","0","0","0","0","25","0","0","0","25","NA","21","25","21","0","21","3","25","0","25","Fri Feb 19 12:23:01 2021","The main experiment item","yes","Lexical_Decision_Task.osexp","C:/Users/shone","no","Andale Mono","no","18","no","white","no","yes","576","legacy","21","21","3","C:/Users/shone/subject-5201252.csv","legacy","Lentiform Loewenfeld","3.3.7","yes","yes","600bd7cfb6416f0113b04181","602110864497cf011d9c0822","0","f","NA","space","d","space","NA","f","622","NA","4128","16943","10817","NA","622","2","legacy","1024","2","48000","-16","task","5201252","even","NA","39534","45664","41535","95153","2894","30658","19840","95654","NA","95151","95654","95101","45664","96277","37642","94601","2890","90978","Lexical Decision Task","22","18617","26","yes","1024"
"2.594027722","9.08","8","skip","word","85.18518518518519","85.18518518518519","713.9629629629629","713.9629629629629","black","no","legacy","legacy","legacy","0","uniform","1","undefined","undefined","undefined","1","j","0","0","0","0","26","0","0","0","26","NA","22","26","22","0","22","3","26","0","26","Fri Feb 19 12:23:01 2021","The main experiment item","yes","Lexical_Decision_Task.osexp","C:/Users/shone","no","Andale Mono","no","18","no","white","no","yes","576","legacy","22","22","3","C:/Users/shone/subject-5201252.csv","legacy","Lentiform Loewenfeld","3.3.7","yes","yes","600bd7cfb6416f0113b04181","602110864497cf011d9c0822","0","j","NA","space","d","space","NA","j","660","NA","4128","16943","10817","NA","660","2","legacy","1024","2","48000","-16","task","5201252","even","NA","39534","45664","41535","97949","2894","30658","19840","98450","NA","97948","98450","97891","45664","99110","37642","94601","2890","96391","Lexical Decision Task","23","19277","27","yes","1024"
"3.068433376","8.09","2","bulb","word","85.71428571428571","85.71428571428571","710.6428571428571","710.6428571428571","black","no","legacy","legacy","legacy","0","uniform","1","undefined","undefined","undefined","1","j","0","0","0","0","27","0","0","0","27","NA","23","27","23","0","23","3","27","0","27","Fri Feb 19 12:23:01 2021","The main experiment item","yes","Lexical_Decision_Task.osexp","C:/Users/shone","no","Andale Mono","no","18","no","white","no","yes","576","legacy","23","23","3","C:/Users/shone/subject-5201252.csv","legacy","Lentiform Loewenfeld","3.3.7","yes","yes","600bd7cfb6416f0113b04181","602110864497cf011d9c0822","0","j","NA","space","d","space","NA","j","621","NA","4128","16943","10817","NA","621","2","legacy","1024","2","48000","-16","task","5201252","even","NA","39534","45664","41535","99953","2894","30658","19840","100454","NA","99952","100454","99901","45664","101075","37642","99401","2890","96391","Lexical Decision Task","24","19898","28","yes","1024"
"2.7084209","0","8","vump","non-word","86.20689655172414","86.20689655172414","713.9655172413793","713.9655172413793","black","no","legacy","legacy","legacy","0","uniform","1","undefined","undefined","undefined","1","f","0","0","0","0","28","0","0","0","28","NA","24","28","24","0","24","3","28","0","28","Fri Feb 19 12:23:01 2021","The main experiment item","yes","Lexical_Decision_Task.osexp","C:/Users/shone","no","Andale Mono","no","18","no","white","no","yes","576","legacy","24","24","3","C:/Users/shone/subject-5201252.csv","legacy","Lentiform Loewenfeld","3.3.7","yes","yes","600bd7cfb6416f0113b04181","602110864497cf011d9c0822","0","f","NA","space","d","space","NA","f","807","NA","4128","16943","10817","NA","807","2","legacy","1024","2","48000","-16","task","5201252","even","NA","39534","45664","41535","101751","2894","30658","19840","102252","NA","101750","102252","101698","45664","103059","37642","101198","2890","96391","Lexical Decision Task","25","20705","29","yes","1024"
"3.230789326","5.38","5","prim","word","83.33333333333333","83.33333333333333","717.6666666666666","717.6666666666666","black","no","legacy","legacy","legacy","0","uniform","0","undefined","undefined","undefined","0","j","0","0","0","0","29","0","0","0","29","NA","25","29","25","0","25","3","29","0","29","Fri Feb 19 12:23:01 2021","The main experiment item","yes","Lexical_Decision_Task.osexp","C:/Users/shone","no","Andale Mono","no","18","no","white","no","yes","576","legacy","25","25","3","C:/Users/shone/subject-5201252.csv","legacy","Lentiform Loewenfeld","3.3.7","yes","yes","600bd7cfb6416f0113b04181","602110864497cf011d9c0822","0","f","NA","space","d","space","NA","f","825","NA","4128","16943","10817","NA","825","2","legacy","1024","2","48000","-16","task","5201252","even","NA","39534","45664","41535","103672","2894","30658","19840","104173","NA","103670","104173","103620","45664","104999","37642","103120","2890","96391","Lexical Decision Task","25","21530","30","yes","1024"
"3.366547468","0","6","plat","non-word","83.87096774193549","83.87096774193549","737.0967741935484","737.0967741935484","black","no","legacy","legacy","legacy","0","uniform","1","undefined","undefined","undefined","1","f","0","0","0","0","30","0","0","0","30","NA","26","30","26","0","26","3","30","0","30","Fri Feb 19 12:23:01 2021","The main experiment item","yes","Lexical_Decision_Task.osexp","C:/Users/shone","no","Andale Mono","no","18","no","white","no","yes","576","legacy","26","26","3","C:/Users/shone/subject-5201252.csv","legacy","Lentiform Loewenfeld","3.3.7","yes","yes","600bd7cfb6416f0113b04181","602110864497cf011d9c0822","0","f","NA","space","d","space","NA","f","1320","NA","4128","16943","10817","NA","1320","2","legacy","1024","2","48000","-16","task","5201252","even","NA","39534","45664","41535","106652","2894","30658","19840","107153","NA","106651","107153","106601","45664","108474","37642","103120","2890","105101","Lexical Decision Task","26","22850","31","yes","1024"
"3.225825991","0","7","talm","non-word","84.375","84.375","741.75","741.75","black","no","legacy","legacy","legacy","0","uniform","1","undefined","undefined","undefined","1","f","0","0","0","0","31","0","0","0","31","NA","27","31","27","0","27","3","31","0","31","Fri Feb 19 12:23:01 2021","The main experiment item","yes","Lexical_Decision_Task.osexp","C:/Users/shone","no","Andale Mono","no","18","no","white","no","yes","576","legacy","27","27","3","C:/Users/shone/subject-5201252.csv","legacy","Lentiform Loewenfeld","3.3.7","yes","yes","600bd7cfb6416f0113b04181","602110864497cf011d9c0822","0","f","NA","space","d","space","NA","f","886","NA","4128","16943","10817","NA","886","2","legacy","1024","2","48000","-16","task","5201252","even","NA","39534","45664","41535","109117","2894","30658","19840","109619","NA","109116","109619","109062","45664","110505","37642","108562","2890","105101","Lexical Decision Task","27","23736","32","yes","1024"
"3.066077331","0","7","vorn","non-word","84.84848484848484","84.84848484848484","736.5454545454545","736.5454545454545","black","no","legacy","legacy","legacy","0","uniform","1","undefined","undefined","undefined","1","f","0","0","0","0","32","0","0","0","32","NA","28","32","28","0","28","3","32","0","32","Fri Feb 19 12:23:01 2021","The main experiment item","yes","Lexical_Decision_Task.osexp","C:/Users/shone","no","Andale Mono","no","18","no","white","no","yes","576","legacy","28","28","3","C:/Users/shone/subject-5201252.csv","legacy","Lentiform Loewenfeld","3.3.7","yes","yes","600bd7cfb6416f0113b04181","602110864497cf011d9c0822","0","f","NA","space","d","space","NA","f","570","NA","4128","16943","10817","NA","570","2","legacy","1024","2","48000","-16","task","5201252","even","NA","39534","45664","41535","112059","2894","30658","19840","112560","NA","112058","112560","112007","45664","113131","37642","111507","2890","105101","Lexical Decision Task","28","24306","33","yes","1024"
"3.259832699","0","9","flar","non-word","85.29411764705883","85.29411764705883","740.6176470588235","740.6176470588235","black","no","legacy","legacy","legacy","0","uniform","1","undefined","undefined","undefined","1","f","0","0","0","0","33","0","0","0","33","NA","29","33","29","0","29","3","33","0","33","Fri Feb 19 12:23:01 2021","The main experiment item","yes","Lexical_Decision_Task.osexp","C:/Users/shone","no","Andale Mono","no","18","no","white","no","yes","576","legacy","29","29","3","C:/Users/shone/subject-5201252.csv","legacy","Lentiform Loewenfeld","3.3.7","yes","yes","600bd7cfb6416f0113b04181","602110864497cf011d9c0822","0","f","NA","space","d","space","NA","f","875","NA","4128","16943","10817","NA","875","2","legacy","1024","2","48000","-16","task","5201252","even","NA","39534","45664","41535","113867","2894","30658","19840","114369","NA","113866","114369","113814","45664","115245","37642","113314","2890","105101","Lexical Decision Task","29","25181","34","yes","1024"
"3.132473155","0","4","glim","non-word","85.71428571428571","85.71428571428571","749.8","749.8","black","no","legacy","legacy","legacy","0","uniform","1","undefined","undefined","undefined","1","f","0","0","0","0","34","0","0","0","34","NA","30","34","30","0","30","3","34","0","34","Fri Feb 19 12:23:01 2021","The main experiment item","yes","Lexical_Decision_Task.osexp","C:/Users/shone","no","Andale Mono","no","18","no","white","no","yes","576","legacy","30","30","3","C:/Users/shone/subject-5201252.csv","legacy","Lentiform Loewenfeld","3.3.7","yes","yes","600bd7cfb6416f0113b04181","602110864497cf011d9c0822","0","f","NA","space","d","space","NA","f","1062","NA","4128","16943","10817","NA","1062","2","legacy","1024","2","48000","-16","task","5201252","even","NA","39534","45664","41535","115912","2894","30658","19840","116414","NA","115911","116414","115861","45664","117477","37642","115361","2890","105101","Lexical Decision Task","30","26243","35","yes","1024"
"3.363486562","6.93","9","lush","word","86.11111111111111","86.11111111111111","747.8611111111111","747.8611111111111","black","no","legacy","legacy","legacy","0","uniform","1","undefined","undefined","undefined","1","j","0","0","0","0","35","0","0","0","35","NA","31","35","31","0","31","3","35","0","35","Fri Feb 19 12:23:01 2021","The main experiment item","yes","Lexical_Decision_Task.osexp","C:/Users/shone","no","Andale Mono","no","18","no","white","no","yes","576","legacy","31","31","3","C:/Users/shone/subject-5201252.csv","legacy","Lentiform Loewenfeld","3.3.7","yes","yes","600bd7cfb6416f0113b04181","602110864497cf011d9c0822","0","j","NA","space","d","space","NA","j","680","NA","4128","16943","10817","NA","680","2","legacy","1024","2","48000","-16","task","5201252","even","NA","39534","45664","41535","118151","2894","30658","19840","118653","NA","118149","118653","118094","45664","119334","37642","117594","2890","105101","Lexical Decision Task","31","26923","36","yes","1024"
"2.713490543","0","3","feps","non-word","86.48648648648648","86.48648648648648","745.0540540540541","745.0540540540541","black","no","legacy","legacy","legacy","0","uniform","1","undefined","undefined","undefined","1","f","0","0","0","0","36","0","0","0","36","NA","32","36","32","0","32","3","36","0","36","Fri Feb 19 12:23:01 2021","The main experiment item","yes","Lexical_Decision_Task.osexp","C:/Users/shone","no","Andale Mono","no","18","no","white","no","yes","576","legacy","32","32","3","C:/Users/shone/subject-5201252.csv","legacy","Lentiform Loewenfeld","3.3.7","yes","yes","600bd7cfb6416f0113b04181","602110864497cf011d9c0822","0","f","NA","space","d","space","NA","f","644","NA","4128","16943","10817","NA","644","2","legacy","1024","2","48000","-16","task","5201252","even","NA","39534","45664","41535","120005","2894","30658","19840","120506","NA","120004","120506","119953","45664","121150","37642","119452","2890","105101","Lexical Decision Task","32","27567","37","yes","1024"
"3.168890155","0","6","thet","non-word","86.84210526315789","86.84210526315789","741.6578947368421","741.6578947368421","black","no","legacy","legacy","legacy","0","uniform","1","undefined","undefined","undefined","1","f","0","0","0","0","37","0","0","0","37","NA","33","37","33","0","33","3","37","0","37","Fri Feb 19 12:23:01 2021","The main experiment item","yes","Lexical_Decision_Task.osexp","C:/Users/shone","no","Andale Mono","no","18","no","white","no","yes","576","legacy","33","33","3","C:/Users/shone/subject-5201252.csv","legacy","Lentiform Loewenfeld","3.3.7","yes","yes","600bd7cfb6416f0113b04181","602110864497cf011d9c0822","0","f","NA","space","d","space","NA","f","616","NA","4128","16943","10817","NA","616","2","legacy","1024","2","48000","-16","task","5201252","even","NA","39534","45664","41535","121806","2894","30658","19840","122308","NA","121805","122308","121754","45664","122925","37642","121254","2890","105101","Lexical Decision Task","33","28183","38","yes","1024"
"2.719886232","7.98","2","quiz","word","87.17948717948718","87.17948717948718","737.5897435897435","737.5897435897435","black","no","legacy","legacy","legacy","0","uniform","1","undefined","undefined","undefined","1","j","0","0","0","0","38","0","0","0","38","NA","34","38","34","0","34","3","38","0","38","Fri Feb 19 12:23:01 2021","The main experiment item","yes","Lexical_Decision_Task.osexp","C:/Users/shone","no","Andale Mono","no","18","no","white","no","yes","576","legacy","34","34","3","C:/Users/shone/subject-5201252.csv","legacy","Lentiform Loewenfeld","3.3.7","yes","yes","600bd7cfb6416f0113b04181","602110864497cf011d9c0822","0","j","NA","space","d","space","NA","j","583","NA","4128","16943","10817","NA","583","2","legacy","1024","2","48000","-16","task","5201252","even","NA","39534","45664","41535","123934","2894","30658","19840","124435","NA","123932","124435","123878","45664","125018","37642","123378","2890","105101","Lexical Decision Task","34","28766","39","yes","1024"
"2.892836167","10.01","5","soft","word","87.5","87.5","732.55","732.55","black","no","legacy","legacy","legacy","0","uniform","1","undefined","undefined","undefined","1","j","0","0","0","0","39","0","0","0","39","NA","35","39","35","0","35","3","39","0","39","Fri Feb 19 12:23:01 2021","The main experiment item","yes","Lexical_Decision_Task.osexp","C:/Users/shone","no","Andale Mono","no","18","no","white","no","yes","576","legacy","35","35","3","C:/Users/shone/subject-5201252.csv","legacy","Lentiform Loewenfeld","3.3.7","yes","yes","600bd7cfb6416f0113b04181","602110864497cf011d9c0822","0","j","NA","space","d","space","NA","j","536","NA","4128","16943","10817","NA","536","2","legacy","1024","2","48000","-16","task","5201252","even","NA","39534","45664","41535","125620","2894","30658","19840","126121","NA","125619","126121","125569","45664","126658","37642","125069","2890","105101","Lexical Decision Task","35","29302","40","yes","1024"
"2.813801082","5.47","7","nook","word","85.36585365853658","85.36585365853658","731.1219512195122","731.1219512195122","black","no","legacy","legacy","legacy","0","uniform","0","undefined","undefined","undefined","0","j","0","0","0","0","40","0","0","0","40","NA","36","40","36","0","36","3","40","0","40","Fri Feb 19 12:23:01 2021","The main experiment item","yes","Lexical_Decision_Task.osexp","C:/Users/shone","no","Andale Mono","no","18","no","white","no","yes","576","legacy","36","36","3","C:/Users/shone/subject-5201252.csv","legacy","Lentiform Loewenfeld","3.3.7","yes","yes","600bd7cfb6416f0113b04181","602110864497cf011d9c0822","0","f","NA","space","d","space","NA","f","674","NA","4128","16943","10817","NA","674","2","legacy","1024","2","48000","-16","task","5201252","even","NA","39534","45664","41535","128143","2894","30658","19840","128645","NA","128142","128645","128092","45664","129320","37642","127592","2890","105101","Lexical Decision Task","35","29976","41","yes","1024"
"2.664011697","8.19","4","hawk","word","85.71428571428571","85.71428571428571","727.7380952380952","727.7380952380952","black","no","legacy","legacy","legacy","0","uniform","1","undefined","undefined","undefined","1","j","0","0","0","0","41","0","0","0","41","NA","37","41","37","0","37","3","41","0","41","Fri Feb 19 12:23:01 2021","The main experiment item","yes","Lexical_Decision_Task.osexp","C:/Users/shone","no","Andale Mono","no","18","no","white","no","yes","576","legacy","37","37","3","C:/Users/shone/subject-5201252.csv","legacy","Lentiform Loewenfeld","3.3.7","yes","yes","600bd7cfb6416f0113b04181","602110864497cf011d9c0822","0","j","NA","space","d","space","NA","j","589","NA","4128","16943","10817","NA","589","2","legacy","1024","2","48000","-16","task","5201252","even","NA","39534","45664","41535","131283","2894","30658","19840","131785","NA","131281","131785","131229","45664","132375","37642","127592","2890","129729","Lexical Decision Task","36","30565","42","yes","1024"
"3.15462682","0","6","noal","non-word","86.04651162790698","86.04651162790698","738.3488372093024","738.3488372093024","black","no","legacy","legacy","legacy","0","uniform","1","undefined","undefined","undefined","1","f","0","0","0","0","42","0","0","0","42","NA","38","42","38","0","38","3","42","0","42","Fri Feb 19 12:23:01 2021","The main experiment item","yes","Lexical_Decision_Task.osexp","C:/Users/shone","no","Andale Mono","no","18","no","white","no","yes","576","legacy","38","38","3","C:/Users/shone/subject-5201252.csv","legacy","Lentiform Loewenfeld","3.3.7","yes","yes","600bd7cfb6416f0113b04181","602110864497cf011d9c0822","0","f","NA","space","d","space","NA","f","1184","NA","4128","16943","10817","NA","1184","2","legacy","1024","2","48000","-16","task","5201252","even","NA","39534","45664","41535","133046","2894","30658","19840","133547","NA","133045","133547","132994","45664","134731","37642","132494","2890","129729","Lexical Decision Task","37","31749","43","yes","1024"
"3.165936429","0","7","leps","non-word","86.36363636363636","86.36363636363636","735.8409090909091","735.8409090909091","black","no","legacy","legacy","legacy","0","uniform","1","undefined","undefined","undefined","1","f","0","0","0","0","43","0","0","0","43","NA","39","43","39","0","39","3","43","0","43","Fri Feb 19 12:23:01 2021","The main experiment item","yes","Lexical_Decision_Task.osexp","C:/Users/shone","no","Andale Mono","no","18","no","white","no","yes","576","legacy","39","39","3","C:/Users/shone/subject-5201252.csv","legacy","Lentiform Loewenfeld","3.3.7","yes","yes","600bd7cfb6416f0113b04181","602110864497cf011d9c0822","0","f","NA","space","d","space","NA","f","628","NA","4128","16943","10817","NA","628","2","legacy","1024","2","48000","-16","task","5201252","even","NA","39534","45664","41535","136504","2894","30658","19840","137005","NA","136502","137005","136452","45664","137634","37642","135952","2890","129729","Lexical Decision Task","38","32377","44","yes","1024"
"2.972357144","0","5","dasp","non-word","86.66666666666667","86.66666666666667","735.5111111111111","735.5111111111111","black","no","legacy","legacy","legacy","0","uniform","1","undefined","undefined","undefined","1","f","0","0","0","0","44","0","0","0","44","NA","40","44","40","0","40","3","44","0","44","Fri Feb 19 12:23:01 2021","The main experiment item","yes","Lexical_Decision_Task.osexp","C:/Users/shone","no","Andale Mono","no","18","no","white","no","yes","576","legacy","40","40","3","C:/Users/shone/subject-5201252.csv","legacy","Lentiform Loewenfeld","3.3.7","yes","yes","600bd7cfb6416f0113b04181","602110864497cf011d9c0822","0","f","NA","space","d","space","NA","f","721","NA","4128","16943","10817","NA","721","2","legacy","1024","2","48000","-16","task","5201252","even","NA","39534","45664","41535","139407","2894","30658","19840","139909","NA","139406","139909","139356","45664","140631","37642","138856","2890","129729","Lexical Decision Task","39","33098","45","yes","1024"
"2.709837904","6.85","8","skim","word","86.95652173913044","86.95652173913044","734.695652173913","734.695652173913","black","no","legacy","legacy","legacy","0","uniform","1","undefined","undefined","undefined","1","j","0","0","0","0","45","0","0","0","45","NA","41","45","41","0","41","3","45","0","45","Fri Feb 19 12:23:01 2021","The main experiment item","yes","Lexical_Decision_Task.osexp","C:/Users/shone","no","Andale Mono","no","18","no","white","no","yes","576","legacy","41","41","3","C:/Users/shone/subject-5201252.csv","legacy","Lentiform Loewenfeld","3.3.7","yes","yes","600bd7cfb6416f0113b04181","602110864497cf011d9c0822","0","j","NA","space","d","space","NA","j","698","NA","4128","16943","10817","NA","698","2","legacy","1024","2","48000","-16","task","5201252","even","NA","39534","45664","41535","141831","2894","30658","19840","142332","NA","141830","142332","141779","45664","143031","37642","141279","2890","129729","Lexical Decision Task","40","33796","46","yes","1024"
"3.257359335","8","6","brew","word","87.23404255319149","87.23404255319149","730.9787234042553","730.9787234042553","black","no","legacy","legacy","legacy","0","uniform","1","undefined","undefined","undefined","1","j","0","0","0","0","46","0","0","0","46","NA","42","46","42","0","42","3","46","0","46","Fri Feb 19 12:23:01 2021","The main experiment item","yes","Lexical_Decision_Task.osexp","C:/Users/shone","no","Andale Mono","no","18","no","white","no","yes","576","legacy","42","42","3","C:/Users/shone/subject-5201252.csv","legacy","Lentiform Loewenfeld","3.3.7","yes","yes","600bd7cfb6416f0113b04181","602110864497cf011d9c0822","0","j","NA","space","d","space","NA","j","560","NA","4128","16943","10817","NA","560","2","legacy","1024","2","48000","-16","task","5201252","even","NA","39534","45664","41535","143706","2894","30658","19840","144207","NA","143705","144207","143649","45664","144767","37642","143149","2890","129729","Lexical Decision Task","41","34356","47","yes","1024"
"3.276537627","9.15","5","trap","word","87.5","87.5","726.0833333333334","726.0833333333334","black","no","legacy","legacy","legacy","0","uniform","1","undefined","undefined","undefined","1","j","0","0","0","0","47","0","0","0","47","NA","43","47","43","0","43","3","47","0","47","Fri Feb 19 12:23:01 2021","The main experiment item","yes","Lexical_Decision_Task.osexp","C:/Users/shone","no","Andale Mono","no","18","no","white","no","yes","576","legacy","43","43","3","C:/Users/shone/subject-5201252.csv","legacy","Lentiform Loewenfeld","3.3.7","yes","yes","600bd7cfb6416f0113b04181","602110864497cf011d9c0822","0","j","NA","space","d","space","NA","j","496","NA","4128","16943","10817","NA","496","2","legacy","1024","2","48000","-16","task","5201252","even","NA","39534","45664","41535","145812","2894","30658","19840","146313","NA","145811","146313","145760","45664","146810","37642","145260","2890","129729","Lexical Decision Task","42","34852","48","yes","1024"
"3.153104174","10.89","6","door","word","87.75510204081633","87.75510204081633","723","723","black","no","legacy","legacy","legacy","0","uniform","1","undefined","undefined","undefined","1","j","0","0","0","0","48","0","0","0","48","NA","44","48","44","0","44","3","48","0","48","Fri Feb 19 12:23:01 2021","The main experiment item","yes","Lexical_Decision_Task.osexp","C:/Users/shone","no","Andale Mono","no","18","no","white","no","yes","576","legacy","44","44","3","C:/Users/shone/subject-5201252.csv","legacy","Lentiform Loewenfeld","3.3.7","yes","yes","600bd7cfb6416f0113b04181","602110864497cf011d9c0822","0","j","NA","space","d","space","NA","j","575","NA","4128","16943","10817","NA","575","2","legacy","1024","2","48000","-16","task","5201252","even","NA","39534","45664","41535","147470","2894","30658","19840","147971","NA","147469","147971","147418","45664","148547","37642","146918","2890","129729","Lexical Decision Task","43","35427","49","yes","1024"
"2.767650507","0","6","yolt","non-word","88","88","725.18","725.18","black","no","legacy","legacy","legacy","0","uniform","1","undefined","undefined","undefined","1","f","0","0","0","0","49","0","0","0","49","NA","45","49","45","0","45","3","49","0","49","Fri Feb 19 12:23:01 2021","The main experiment item","yes","Lexical_Decision_Task.osexp","C:/Users/shone","no","Andale Mono","no","18","no","white","no","yes","576","legacy","45","45","3","C:/Users/shone/subject-5201252.csv","legacy","Lentiform Loewenfeld","3.3.7","yes","yes","600bd7cfb6416f0113b04181","602110864497cf011d9c0822","0","f","NA","space","d","space","NA","f","832","NA","4128","16943","10817","NA","832","2","legacy","1024","2","48000","-16","task","5201252","even","NA","39534","45664","41535","149210","2894","30658","19840","149712","NA","149209","149712","149157","45664","150545","37642","148657","2890","129729","Lexical Decision Task","44","36259","50","yes","1024"
"3.261341392","5.08","8","reek","word","86.27450980392157","86.27450980392157","725.0196078431372","725.0196078431372","black","no","legacy","legacy","legacy","0","uniform","0","undefined","undefined","undefined","0","j","0","0","0","0","50","0","0","0","50","NA","46","50","46","0","46","3","50","0","50","Fri Feb 19 12:23:01 2021","The main experiment item","yes","Lexical_Decision_Task.osexp","C:/Users/shone","no","Andale Mono","no","18","no","white","no","yes","576","legacy","46","46","3","C:/Users/shone/subject-5201252.csv","legacy","Lentiform Loewenfeld","3.3.7","yes","yes","600bd7cfb6416f0113b04181","602110864497cf011d9c0822","0","f","NA","space","d","space","NA","f","717","NA","4128","16943","10817","NA","717","2","legacy","1024","2","48000","-16","task","5201252","even","NA","39534","45664","41535","152248","2894","30658","19840","152750","NA","152247","152750","152188","45664","153468","37642","151688","2890","129729","Lexical Decision Task","44","36976","51","yes","1024"
"3.137775856","7.39","5","comb","word","84.61538461538461","84.61538461538461","724.9423076923077","724.9423076923077","black","no","legacy","legacy","legacy","0","uniform","0","undefined","undefined","undefined","0","j","0","0","0","0","51","0","0","0","51","NA","47","51","47","0","47","3","51","0","51","Fri Feb 19 12:23:01 2021","The main experiment item","yes","Lexical_Decision_Task.osexp","C:/Users/shone","no","Andale Mono","no","18","no","white","no","yes","576","legacy","47","47","3","C:/Users/shone/subject-5201252.csv","legacy","Lentiform Loewenfeld","3.3.7","yes","yes","600bd7cfb6416f0113b04181","602110864497cf011d9c0822","0","f","NA","space","d","space","NA","f","721","NA","4128","16943","10817","NA","721","2","legacy","1024","2","48000","-16","task","5201252","even","NA","39534","45664","41535","155137","2894","30658","19840","155638","NA","155136","155638","155085","45664","156360","37642","151688","2890","153585","Lexical Decision Task","44","37697","52","yes","1024"
"3.248054965","7.86","5","glow","word","84.90566037735849","84.90566037735849","720.6981132075472","720.6981132075472","black","no","legacy","legacy","legacy","0","uniform","1","undefined","undefined","undefined","1","j","0","0","0","0","52","0","0","0","52","NA","48","52","48","0","48","3","52","0","52","Fri Feb 19 12:23:01 2021","The main experiment item","yes","Lexical_Decision_Task.osexp","C:/Users/shone","no","Andale Mono","no","18","no","white","no","yes","576","legacy","48","48","3","C:/Users/shone/subject-5201252.csv","legacy","Lentiform Loewenfeld","3.3.7","yes","yes","600bd7cfb6416f0113b04181","602110864497cf011d9c0822","0","j","NA","space","d","space","NA","j","500","NA","4128","16943","10817","NA","500","2","legacy","1024","2","48000","-16","task","5201252","even","NA","39534","45664","41535","157991","2894","30658","19840","158492","NA","157990","158492","157929","45664","158994","37642","151688","2890","156429","Lexical Decision Task","45","38197","53","yes","1024"
"2.981215883","10.66","5","hair","word","85.18518518518519","85.18518518518519","717.9629629629629","717.9629629629629","black","no","legacy","legacy","legacy","0","uniform","1","undefined","undefined","undefined","1","j","0","0","0","0","53","0","0","0","53","NA","49","53","49","0","49","3","53","0","53","Fri Feb 19 12:23:01 2021","The main experiment item","yes","Lexical_Decision_Task.osexp","C:/Users/shone","no","Andale Mono","no","18","no","white","no","yes","576","legacy","49","49","3","C:/Users/shone/subject-5201252.csv","legacy","Lentiform Loewenfeld","3.3.7","yes","yes","600bd7cfb6416f0113b04181","602110864497cf011d9c0822","0","j","NA","space","d","space","NA","j","573","NA","4128","16943","10817","NA","573","2","legacy","1024","2","48000","-16","task","5201252","even","NA","39534","45664","41535","159802","2894","30658","19840","160303","NA","159800","160303","159750","45664","160877","37642","159250","2890","156429","Lexical Decision Task","46","38770","54","yes","1024"
"2.814027728","8.2","4","foam","word","85.45454545454545","85.45454545454545","713.5636363636364","713.5636363636364","black","no","legacy","legacy","legacy","0","uniform","1","undefined","undefined","undefined","1","j","0","0","0","0","54","0","0","0","54","0","50","54","50","0","50","3","54","0","54","Fri Feb 19 12:23:01 2021","The main experiment item","yes","Lexical_Decision_Task.osexp","C:/Users/shone","no","Andale Mono","no","18","no","white","no","yes","576","legacy","50","50","3","C:/Users/shone/subject-5201252.csv","legacy","Lentiform Loewenfeld","3.3.7","yes","yes","600bd7cfb6416f0113b04181","602110864497cf011d9c0822","0","j","NA","space","d","space","space","j","476","NA","4128","16943","10817","13304","476","2","legacy","1024","2","48000","-16","task","5201252","even","NA","39534","45664","41535","175307","2894","30658","19840","175808","161939","175305","175808","161897","45664","176285","37642","161397","2890","156429","Lexical Decision Task","47","39246","55","yes","1024"
"3.091901331","0","9","nipe","non-word","85.71428571428571","85.71428571428571","720.7678571428571","720.7678571428571","black","no","legacy","legacy","legacy","0","uniform","1","undefined","undefined","undefined","1","f","0","0","0","0","55","0","0","0","55","0","51","55","51","0","51","3","55","0","55","Fri Feb 19 12:23:01 2021","The main experiment item","yes","Lexical_Decision_Task.osexp","C:/Users/shone","no","Andale Mono","no","18","no","white","no","yes","576","legacy","51","51","3","C:/Users/shone/subject-5201252.csv","legacy","Lentiform Loewenfeld","3.3.7","yes","yes","600bd7cfb6416f0113b04181","602110864497cf011d9c0822","0","f","NA","space","d","space","space","f","1117","NA","4128","16943","10817","13304","1117","2","legacy","1024","2","48000","-16","task","5201252","even","NA","39534","45664","41535","176883","2894","30658","19840","177384","161939","176882","177384","176824","45664","178502","37642","176324","2890","156429","Lexical Decision Task","48","40363","56","yes","1024"
"2.979548375","8.71","4","soup","word","85.96491228070175","85.96491228070175","716.4736842105264","716.4736842105264","black","no","legacy","legacy","legacy","0","uniform","1","undefined","undefined","undefined","1","j","0","0","0","0","56","0","0","0","56","0","52","56","52","0","52","3","56","0","56","Fri Feb 19 12:23:01 2021","The main experiment item","yes","Lexical_Decision_Task.osexp","C:/Users/shone","no","Andale Mono","no","18","no","white","no","yes","576","legacy","52","52","3","C:/Users/shone/subject-5201252.csv","legacy","Lentiform Loewenfeld","3.3.7","yes","yes","600bd7cfb6416f0113b04181","602110864497cf011d9c0822","0","j","NA","space","d","space","space","j","476","NA","4128","16943","10817","13304","476","2","legacy","1024","2","48000","-16","task","5201252","even","NA","39534","45664","41535","179178","2894","30658","19840","179679","161939","179176","179679","179124","45664","180156","37642","178623","2890","156429","Lexical Decision Task","49","40839","57","yes","1024"
"2.68604012","0","4","pumb","non-word","84.48275862068965","84.48275862068965","714.2586206896551","714.2586206896551","black","no","legacy","legacy","legacy","0","uniform","0","undefined","undefined","undefined","0","f","0","0","0","0","57","0","0","0","57","0","53","57","53","0","53","3","57","0","57","Fri Feb 19 12:23:01 2021","The main experiment item","yes","Lexical_Decision_Task.osexp","C:/Users/shone","no","Andale Mono","no","18","no","white","no","yes","576","legacy","53","53","3","C:/Users/shone/subject-5201252.csv","legacy","Lentiform Loewenfeld","3.3.7","yes","yes","600bd7cfb6416f0113b04181","602110864497cf011d9c0822","0","j","NA","space","d","space","space","j","588","NA","4128","16943","10817","13304","588","2","legacy","1024","2","48000","-16","task","5201252","even","NA","39534","45664","41535","180813","2894","30658","19840","181314","161939","180812","181315","180760","45664","181904","37642","180260","2890","156429","Lexical Decision Task","49","41427","58","yes","1024"
"2.6599162","0","2","saff","non-word","84.7457627118644","84.7457627118644","715.8813559322034","715.8813559322034","black","no","legacy","legacy","legacy","0","uniform","1","undefined","undefined","undefined","1","f","0","0","0","0","58","0","0","0","58","0","54","58","54","0","54","3","58","0","58","Fri Feb 19 12:23:01 2021","The main experiment item","yes","Lexical_Decision_Task.osexp","C:/Users/shone","no","Andale Mono","no","18","no","white","no","yes","576","legacy","54","54","3","C:/Users/shone/subject-5201252.csv","legacy","Lentiform Loewenfeld","3.3.7","yes","yes","600bd7cfb6416f0113b04181","602110864497cf011d9c0822","0","f","NA","space","d","space","space","f","810","NA","4128","16943","10817","13304","810","2","legacy","1024","2","48000","-16","task","5201252","even","NA","39534","45664","41535","184031","2894","30658","19840","184532","161939","184030","184532","183979","45664","185343","37642","180260","2890","182479","Lexical Decision Task","50","42237","59","yes","1024"
"3.195807436","0","6","stup","non-word","85","85","715.8166666666667","715.8166666666667","black","no","legacy","legacy","legacy","0","uniform","1","undefined","undefined","undefined","1","f","0","0","0","0","59","0","0","0","59","0","55","59","55","0","55","3","59","0","59","Fri Feb 19 12:23:01 2021","The main experiment item","yes","Lexical_Decision_Task.osexp","C:/Users/shone","no","Andale Mono","no","18","no","white","no","yes","576","legacy","55","55","3","C:/Users/shone/subject-5201252.csv","legacy","Lentiform Loewenfeld","3.3.7","yes","yes","600bd7cfb6416f0113b04181","602110864497cf011d9c0822","0","f","NA","space","d","space","space","f","712","NA","4128","16943","10817","13304","712","2","legacy","1024","2","48000","-16","task","5201252","even","NA","39534","45664","41535","186504","2894","30658","19840","187005","161939","186503","187005","186452","45664","187718","37642","185952","2890","182479","Lexical Decision Task","51","42949","60","yes","1024"
"2.799799878","0","4","ciff","non-word","85.24590163934427","85.24590163934427","716.8196721311475","716.8196721311475","black","no","legacy","legacy","legacy","0","uniform","1","undefined","undefined","undefined","1","f","0","0","0","0","60","0","0","0","60","0","56","60","56","0","56","3","60","0","60","Fri Feb 19 12:23:01 2021","The main experiment item","yes","Lexical_Decision_Task.osexp","C:/Users/shone","no","Andale Mono","no","18","no","white","no","yes","576","legacy","56","56","3","C:/Users/shone/subject-5201252.csv","legacy","Lentiform Loewenfeld","3.3.7","yes","yes","600bd7cfb6416f0113b04181","602110864497cf011d9c0822","0","f","NA","space","d","space","space","f","777","NA","4128","16943","10817","13304","777","2","legacy","1024","2","48000","-16","task","5201252","even","NA","39534","45664","41535","188312","2894","30658","19840","188813","161939","188310","188813","188259","45664","189591","37642","187759","2890","182479","Lexical Decision Task","52","43726","61","yes","1024"
"3.031812271","6.52","3","gulp","word","83.87096774193549","83.87096774193549","717.1935483870968","717.1935483870968","black","no","legacy","legacy","legacy","0","uniform","0","undefined","undefined","undefined","0","j","0","0","0","0","61","0","0","0","61","0","57","61","57","0","57","3","61","0","61","Fri Feb 19 12:23:01 2021","The main experiment item","yes","Lexical_Decision_Task.osexp","C:/Users/shone","no","Andale Mono","no","18","no","white","no","yes","576","legacy","57","57","3","C:/Users/shone/subject-5201252.csv","legacy","Lentiform Loewenfeld","3.3.7","yes","yes","600bd7cfb6416f0113b04181","602110864497cf011d9c0822","0","f","NA","space","d","space","space","f","740","NA","4128","16943","10817","13304","740","2","legacy","1024","2","48000","-16","task","5201252","even","NA","39534","45664","41535","190987","2894","30658","19840","191489","161939","190986","191489","190926","45664","192230","37642","190425","2890","182479","Lexical Decision Task","52","44466","62","yes","1024"
"2.778633532","0","3","jurp","non-word","84.12698412698413","84.12698412698413","719.6666666666666","719.6666666666666","black","no","legacy","legacy","legacy","0","uniform","1","undefined","undefined","undefined","1","f","0","0","0","0","62","0","0","0","62","0","58","62","58","0","58","3","62","0","62","Fri Feb 19 12:23:01 2021","The main experiment item","yes","Lexical_Decision_Task.osexp","C:/Users/shone","no","Andale Mono","no","18","no","white","no","yes","576","legacy","58","58","3","C:/Users/shone/subject-5201252.csv","legacy","Lentiform Loewenfeld","3.3.7","yes","yes","600bd7cfb6416f0113b04181","602110864497cf011d9c0822","0","f","NA","space","d","space","space","f","873","NA","4128","16943","10817","13304","873","2","legacy","1024","2","48000","-16","task","5201252","even","NA","39534","45664","41535","194229","2894","30658","19840","194731","161939","194227","194731","194174","45664","195605","37642","190425","2890","192674","Lexical Decision Task","53","45339","63","yes","1024"
"3.100255637","0","6","brax","non-word","84.375","84.375","719","719","black","no","legacy","legacy","legacy","0","uniform","1","undefined","undefined","undefined","1","f","0","0","0","0","63","0","0","0","63","0","59","63","59","0","59","3","63","0","63","Fri Feb 19 12:23:01 2021","The main experiment item","yes","Lexical_Decision_Task.osexp","C:/Users/shone","no","Andale Mono","no","18","no","white","no","yes","576","legacy","59","59","3","C:/Users/shone/subject-5201252.csv","legacy","Lentiform Loewenfeld","3.3.7","yes","yes","600bd7cfb6416f0113b04181","602110864497cf011d9c0822","0","f","NA","space","d","space","space","f","677","NA","4128","16943","10817","13304","677","2","legacy","1024","2","48000","-16","task","5201252","even","NA","39534","45664","41535","196303","2894","30658","19840","196805","161939","196301","196805","196244","45664","197483","37642","195744","2890","192674","Lexical Decision Task","54","46016","64","yes","1024"
"3.282244367","0","6","fute","non-word","84.61538461538461","84.61538461538461","721.8153846153846","721.8153846153846","black","no","legacy","legacy","legacy","0","uniform","1","undefined","undefined","undefined","1","f","0","0","0","0","64","0","0","0","64","0","60","64","60","0","60","3","64","0","64","Fri Feb 19 12:23:01 2021","The main experiment item","yes","Lexical_Decision_Task.osexp","C:/Users/shone","no","Andale Mono","no","18","no","white","no","yes","576","legacy","60","60","3","C:/Users/shone/subject-5201252.csv","legacy","Lentiform Loewenfeld","3.3.7","yes","yes","600bd7cfb6416f0113b04181","602110864497cf011d9c0822","0","f","NA","space","d","space","space","f","902","NA","4128","16943","10817","13304","902","2","legacy","1024","2","48000","-16","task","5201252","even","NA","39534","45664","41535","198154","2894","30658","19840","198655","161939","198152","198655","198102","45664","199558","37642","197602","2890","192674","Lexical Decision Task","55","46918","65","yes","1024"
"3.039414119","0","9","meep","non-word","84.84848484848484","84.84848484848484","720.4545454545455","720.4545454545455","black","no","legacy","legacy","legacy","0","uniform","1","undefined","undefined","undefined","1","f","0","0","0","0","65","0","0","0","65","0","61","65","61","0","61","3","65","0","65","Fri Feb 19 12:23:01 2021","The main experiment item","yes","Lexical_Decision_Task.osexp","C:/Users/shone","no","Andale Mono","no","18","no","white","no","yes","576","legacy","61","61","3","C:/Users/shone/subject-5201252.csv","legacy","Lentiform Loewenfeld","3.3.7","yes","yes","600bd7cfb6416f0113b04181","602110864497cf011d9c0822","0","f","NA","space","d","space","space","f","632","NA","4128","16943","10817","13304","632","2","legacy","1024","2","48000","-16","task","5201252","even","NA","39534","45664","41535","200232","2894","30658","19840","200734","161939","200231","200734","200181","45664","201367","37642","199681","2890","192674","Lexical Decision Task","56","47550","66","yes","1024"
"3.131833513","7.66","4","limb","word","85.07462686567165","85.07462686567165","717.6865671641791","717.6865671641791","black","no","legacy","legacy","legacy","0","uniform","1","undefined","undefined","undefined","1","j","0","0","0","0","66","0","0","0","66","0","62","66","62","0","62","3","66","0","66","Fri Feb 19 12:23:01 2021","The main experiment item","yes","Lexical_Decision_Task.osexp","C:/Users/shone","no","Andale Mono","no","18","no","white","no","yes","576","legacy","62","62","3","C:/Users/shone/subject-5201252.csv","legacy","Lentiform Loewenfeld","3.3.7","yes","yes","600bd7cfb6416f0113b04181","602110864497cf011d9c0822","0","j","NA","space","d","space","space","j","535","NA","4128","16943","10817","13304","535","2","legacy","1024","2","48000","-16","task","5201252","even","NA","39534","45664","41535","202033","2894","30658","19840","202534","161939","202031","202534","201981","45664","203070","37642","201481","2890","192674","Lexical Decision Task","57","48085","67","yes","1024"
"2.873320602","0","4","lurg","non-word","85.29411764705883","85.29411764705883","717.6323529411765","717.6323529411765","black","no","legacy","legacy","legacy","0","uniform","1","undefined","undefined","undefined","1","f","0","0","0","0","67","0","0","0","67","0","63","67","63","0","63","3","67","0","67","Fri Feb 19 12:23:01 2021","The main experiment item","yes","Lexical_Decision_Task.osexp","C:/Users/shone","no","Andale Mono","no","18","no","white","no","yes","576","legacy","63","63","3","C:/Users/shone/subject-5201252.csv","legacy","Lentiform Loewenfeld","3.3.7","yes","yes","600bd7cfb6416f0113b04181","602110864497cf011d9c0822","0","f","NA","space","d","space","space","f","714","NA","4128","16943","10817","13304","714","2","legacy","1024","2","48000","-16","task","5201252","even","NA","39534","45664","41535","204749","2894","30658","19840","205250","161939","204748","205250","204685","45664","205965","37642","204185","2890","192674","Lexical Decision Task","58","48799","68","yes","1024"
"3.382617311","0","4","pret","non-word","85.5072463768116","85.5072463768116","715.9710144927536","715.9710144927536","black","no","legacy","legacy","legacy","0","uniform","1","undefined","undefined","undefined","1","f","0","0","0","0","68","0","0","0","68","0","64","68","64","0","64","3","68","0","68","Fri Feb 19 12:23:01 2021","The main experiment item","yes","Lexical_Decision_Task.osexp","C:/Users/shone","no","Andale Mono","no","18","no","white","no","yes","576","legacy","64","64","3","C:/Users/shone/subject-5201252.csv","legacy","Lentiform Loewenfeld","3.3.7","yes","yes","600bd7cfb6416f0113b04181","602110864497cf011d9c0822","0","f","NA","space","d","space","space","f","603","NA","4128","16943","10817","13304","603","2","legacy","1024","2","48000","-16","task","5201252","even","NA","39534","45664","41535","206634","2894","30658","19840","207136","161939","206633","207136","206581","45664","207740","37642","206081","2890","192674","Lexical Decision Task","59","49402","69","yes","1024"
"2.794720352","0","9","koot","non-word","85.71428571428571","85.71428571428571","713.1285714285714","713.1285714285714","black","no","legacy","legacy","legacy","0","uniform","1","undefined","undefined","undefined","1","f","0","0","0","0","69","0","0","0","69","0","65","69","65","0","65","3","69","0","69","Fri Feb 19 12:23:01 2021","The main experiment item","yes","Lexical_Decision_Task.osexp","C:/Users/shone","no","Andale Mono","no","18","no","white","no","yes","576","legacy","65","65","3","C:/Users/shone/subject-5201252.csv","legacy","Lentiform Loewenfeld","3.3.7","yes","yes","600bd7cfb6416f0113b04181","602110864497cf011d9c0822","0","f","NA","space","d","space","space","f","517","NA","4128","16943","10817","13304","517","2","legacy","1024","2","48000","-16","task","5201252","even","NA","39534","45664","41535","208424","2894","30658","19840","208925","161939","208423","208925","208372","45664","209444","37642","207872","2890","192674","Lexical Decision Task","60","49919","70","yes","1024"
"2.980911938","7.15","7","hoop","word","84.50704225352112","84.50704225352112","709.2394366197183","709.2394366197183","black","no","legacy","legacy","legacy","0","uniform","0","undefined","undefined","undefined","0","j","0","0","0","0","70","0","0","0","70","0","66","70","66","0","66","3","70","0","70","Fri Feb 19 12:23:01 2021","The main experiment item","yes","Lexical_Decision_Task.osexp","C:/Users/shone","no","Andale Mono","no","18","no","white","no","yes","576","legacy","66","66","3","C:/Users/shone/subject-5201252.csv","legacy","Lentiform Loewenfeld","3.3.7","yes","yes","600bd7cfb6416f0113b04181","602110864497cf011d9c0822","0","f","NA","space","d","space","space","f","437","NA","4128","16943","10817","13304","437","2","legacy","1024","2","48000","-16","task","5201252","even","NA","39534","45664","41535","210113","2894","30658","19840","210614","161939","210111","210614","210055","45664","211052","37642","209555","2890","192674","Lexical Decision Task","60","50356","71","yes","1024"
"3.218535505","7.85","7","goat","word","84.72222222222223","84.72222222222223","707.5416666666666","707.5416666666666","black","no","legacy","legacy","legacy","0","uniform","1","undefined","undefined","undefined","1","j","0","0","0","0","71","0","0","0","71","0","67","71","67","0","67","3","71","0","71","Fri Feb 19 12:23:01 2021","The main experiment item","yes","Lexical_Decision_Task.osexp","C:/Users/shone","no","Andale Mono","no","18","no","white","no","yes","576","legacy","67","67","3","C:/Users/shone/subject-5201252.csv","legacy","Lentiform Loewenfeld","3.3.7","yes","yes","600bd7cfb6416f0113b04181","602110864497cf011d9c0822","0","j","NA","space","d","space","space","j","587","NA","4128","16943","10817","13304","587","2","legacy","1024","2","48000","-16","task","5201252","even","NA","39534","45664","41535","212733","2894","30658","19840","213234","161939","212732","213234","212672","45664","213822","37642","209555","2890","211172","Lexical Decision Task","61","50943","72","yes","1024"
"3.010582609","0","2","drod","non-word","84.93150684931507","84.93150684931507","705.6849315068494","705.6849315068494","black","no","legacy","legacy","legacy","0","uniform","1","undefined","undefined","undefined","1","f","0","0","0","0","72","0","0","0","72","0","68","72","68","0","68","3","72","0","72","Fri Feb 19 12:23:01 2021","The main experiment item","yes","Lexical_Decision_Task.osexp","C:/Users/shone","no","Andale Mono","no","18","no","white","no","yes","576","legacy","68","68","3","C:/Users/shone/subject-5201252.csv","legacy","Lentiform Loewenfeld","3.3.7","yes","yes","600bd7cfb6416f0113b04181","602110864497cf011d9c0822","0","f","NA","space","d","space","space","f","572","NA","4128","16943","10817","13304","572","2","legacy","1024","2","48000","-16","task","5201252","even","NA","39534","45664","41535","215584","2894","30658","19840","216086","161939","215583","216086","215526","45664","216659","37642","215026","2890","211172","Lexical Decision Task","62","51515","73","yes","1024"
"3.088136089","8.32","9","worm","word","85.13513513513513","85.13513513513513","706.3243243243244","706.3243243243244","black","no","legacy","legacy","legacy","0","uniform","1","undefined","undefined","undefined","1","j","0","0","0","0","73","0","0","0","73","0","69","73","69","0","69","3","73","0","73","Fri Feb 19 12:23:01 2021","The main experiment item","yes","Lexical_Decision_Task.osexp","C:/Users/shone","no","Andale Mono","no","18","no","white","no","yes","576","legacy","69","69","3","C:/Users/shone/subject-5201252.csv","legacy","Lentiform Loewenfeld","3.3.7","yes","yes","600bd7cfb6416f0113b04181","602110864497cf011d9c0822","0","j","NA","space","d","space","space","j","753","NA","4128","16943","10817","13304","753","2","legacy","1024","2","48000","-16","task","5201252","even","NA","39534","45664","41535","217331","2894","30658","19840","217832","161939","217330","217832","217279","45664","218586","37642","216779","2890","211172","Lexical Decision Task","63","52268","74","yes","1024"
"3.397302518","7.01","2","knit","word","85.33333333333333","85.33333333333333","704.8266666666667","704.8266666666667","black","no","legacy","legacy","legacy","0","uniform","1","undefined","undefined","undefined","1","j","0","0","0","0","74","0","0","0","74","0","70","74","70","0","70","3","74","0","74","Fri Feb 19 12:23:01 2021","The main experiment item","yes","Lexical_Decision_Task.osexp","C:/Users/shone","no","Andale Mono","no","18","no","white","no","yes","576","legacy","70","70","3","C:/Users/shone/subject-5201252.csv","legacy","Lentiform Loewenfeld","3.3.7","yes","yes","600bd7cfb6416f0113b04181","602110864497cf011d9c0822","0","j","NA","space","d","space","space","j","594","NA","4128","16943","10817","13304","594","2","legacy","1024","2","48000","-16","task","5201252","even","NA","39534","45664","41535","220479","2894","30658","19840","220980","161939","220478","220980","220421","45664","221576","37642","219921","2890","211172","Lexical Decision Task","64","52862","75","yes","1024"
"2.6599162","0","6","flug","non-word","85.52631578947368","85.52631578947368","706.4868421052631","706.4868421052631","black","no","legacy","legacy","legacy","0","uniform","1","undefined","undefined","undefined","1","f","0","0","0","0","75","0","0","0","75","0","71","75","71","0","71","3","75","0","75","Fri Feb 19 12:23:01 2021","The main experiment item","yes","Lexical_Decision_Task.osexp","C:/Users/shone","no","Andale Mono","no","18","no","white","no","yes","576","legacy","71","71","3","C:/Users/shone/subject-5201252.csv","legacy","Lentiform Loewenfeld","3.3.7","yes","yes","600bd7cfb6416f0113b04181","602110864497cf011d9c0822","0","f","NA","space","d","space","space","f","831","NA","4128","16943","10817","13304","831","2","legacy","1024","2","48000","-16","task","5201252","even","NA","39534","45664","41535","222713","2894","30658","19840","223214","161939","222712","223214","222661","45664","224046","37642","222161","2890","211172","Lexical Decision Task","65","53693","76","yes","1024"
"3.037294994","8.64","7","roof","word","85.71428571428571","85.71428571428571","706.3506493506494","706.3506493506494","black","no","legacy","legacy","legacy","0","uniform","1","undefined","undefined","undefined","1","j","0","0","0","0","76","0","0","0","76","0","72","76","72","0","72","3","76","0","76","Fri Feb 19 12:23:01 2021","The main experiment item","yes","Lexical_Decision_Task.osexp","C:/Users/shone","no","Andale Mono","no","18","no","white","no","yes","576","legacy","72","72","3","C:/Users/shone/subject-5201252.csv","legacy","Lentiform Loewenfeld","3.3.7","yes","yes","600bd7cfb6416f0113b04181","602110864497cf011d9c0822","0","j","NA","space","d","space","space","j","696","NA","4128","16943","10817","13304","696","2","legacy","1024","2","48000","-16","task","5201252","even","NA","39534","45664","41535","224644","2894","30658","19840","225145","161939","224643","225145","224592","45664","225842","37642","224092","2890","211172","Lexical Decision Task","66","54389","77","yes","1024"
"2.86332286","6.71","2","feud","word","85.8974358974359","85.8974358974359","708.1153846153846","708.1153846153846","black","no","legacy","legacy","legacy","0","uniform","1","undefined","undefined","undefined","1","j","0","0","0","0","77","0","0","0","77","0","73","77","73","0","73","3","77","0","77","Fri Feb 19 12:23:01 2021","The main experiment item","yes","Lexical_Decision_Task.osexp","C:/Users/shone","no","Andale Mono","no","18","no","white","no","yes","576","legacy","73","73","3","C:/Users/shone/subject-5201252.csv","legacy","Lentiform Loewenfeld","3.3.7","yes","yes","600bd7cfb6416f0113b04181","602110864497cf011d9c0822","0","j","NA","space","d","space","space","j","844","NA","4128","16943","10817","13304","844","2","legacy","1024","2","48000","-16","task","5201252","even","NA","39534","45664","41535","226507","2894","30658","19840","227008","161939","226506","227008","226449","45664","227853","37642","225949","2890","211172","Lexical Decision Task","67","55233","78","yes","1024"
"3.431095062","5.74","9","perk","word","86.07594936708861","86.07594936708861","706.9620253164557","706.9620253164557","black","no","legacy","legacy","legacy","0","uniform","1","undefined","undefined","undefined","1","j","0","0","0","0","78","0","0","0","78","0","74","78","74","0","74","3","78","0","78","Fri Feb 19 12:23:01 2021","The main experiment item","yes","Lexical_Decision_Task.osexp","C:/Users/shone","no","Andale Mono","no","18","no","white","no","yes","576","legacy","74","74","3","C:/Users/shone/subject-5201252.csv","legacy","Lentiform Loewenfeld","3.3.7","yes","yes","600bd7cfb6416f0113b04181","602110864497cf011d9c0822","0","j","NA","space","d","space","space","j","617","NA","4128","16943","10817","13304","617","2","legacy","1024","2","48000","-16","task","5201252","even","NA","39534","45664","41535","228514","2894","30658","19840","229016","161939","228513","229016","228462","45664","229634","37642","227962","2890","211172","Lexical Decision Task","68","55850","79","yes","1024"
"2.895974732","6.65","5","sift","word","86.25","86.25","705.7125","705.7125","black","no","legacy","legacy","legacy","0","uniform","1","undefined","undefined","undefined","1","j","0","0","0","0","79","0","0","0","79","0","75","79","75","0","75","3","79","0","79","Fri Feb 19 12:23:01 2021","The main experiment item","yes","Lexical_Decision_Task.osexp","C:/Users/shone","no","Andale Mono","no","18","no","white","no","yes","576","legacy","75","75","3","C:/Users/shone/subject-5201252.csv","legacy","Lentiform Loewenfeld","3.3.7","yes","yes","600bd7cfb6416f0113b04181","602110864497cf011d9c0822","0","j","NA","space","d","space","space","j","607","NA","4128","16943","10817","13304","607","2","legacy","1024","2","48000","-16","task","5201252","even","NA","39534","45664","41535","230374","2894","30658","19840","230875","161939","230372","230875","230322","45664","231483","37642","229822","2890","211172","Lexical Decision Task","69","56457","80","yes","1024"
"2.858136002","0","4","phip","non-word","86.41975308641975","86.41975308641975","706.1728395061729","706.1728395061729","black","no","legacy","legacy","legacy","0","uniform","1","undefined","undefined","undefined","1","f","0","0","0","0","80","0","0","0","80","0","76","80","76","0","76","3","80","0","80","Fri Feb 19 12:23:01 2021","The main experiment item","yes","Lexical_Decision_Task.osexp","C:/Users/shone","no","Andale Mono","no","18","no","white","no","yes","576","legacy","76","76","3","C:/Users/shone/subject-5201252.csv","legacy","Lentiform Loewenfeld","3.3.7","yes","yes","600bd7cfb6416f0113b04181","602110864497cf011d9c0822","0","f","NA","space","d","space","space","f","743","NA","4128","16943","10817","13304","743","2","legacy","1024","2","48000","-16","task","5201252","even","NA","39534","45664","41535","232143","2894","30658","19840","232644","161939","232142","232644","232090","45664","233389","37642","231590","2890","211172","Lexical Decision Task","70","57200","81","yes","1024"
"2.708989954","9.28","9","bowl","word","86.58536585365853","86.58536585365853","704.5121951219512","704.5121951219512","black","no","legacy","legacy","legacy","0","uniform","1","undefined","undefined","undefined","1","j","0","0","0","0","81","0","0","0","81","0","77","81","77","0","77","3","81","0","81","Fri Feb 19 12:23:01 2021","The main experiment item","yes","Lexical_Decision_Task.osexp","C:/Users/shone","no","Andale Mono","no","18","no","white","no","yes","576","legacy","77","77","3","C:/Users/shone/subject-5201252.csv","legacy","Lentiform Loewenfeld","3.3.7","yes","yes","600bd7cfb6416f0113b04181","602110864497cf011d9c0822","0","j","NA","space","d","space","space","j","570","NA","4128","16943","10817","13304","570","2","legacy","1024","2","48000","-16","task","5201252","even","NA","39534","45664","41535","234046","2894","30658","19840","234547","161939","234045","234547","233993","45664","235118","37642","233493","2890","211172","Lexical Decision Task","71","57770","82","yes","1024"
"2.884795364","0","6","flob","non-word","86.74698795180723","86.74698795180723","705.5542168674699","705.5542168674699","black","no","legacy","legacy","legacy","0","uniform","1","undefined","undefined","undefined","1","f","0","0","0","0","82","0","0","0","82","0","78","82","78","0","78","3","82","0","82","Fri Feb 19 12:23:01 2021","The main experiment item","yes","Lexical_Decision_Task.osexp","C:/Users/shone","no","Andale Mono","no","18","no","white","no","yes","576","legacy","78","78","3","C:/Users/shone/subject-5201252.csv","legacy","Lentiform Loewenfeld","3.3.7","yes","yes","600bd7cfb6416f0113b04181","602110864497cf011d9c0822","0","f","NA","space","d","space","space","f","791","NA","4128","16943","10817","13304","791","2","legacy","1024","2","48000","-16","task","5201252","even","NA","39534","45664","41535","237091","2894","30658","19840","237592","161939","237090","237592","237037","45664","238384","37642","236537","2890","211172","Lexical Decision Task","72","58561","83","yes","1024"
"2.842815106","7.86","8","lump","word","86.9047619047619","86.9047619047619","702.9761904761905","702.9761904761905","black","no","legacy","legacy","legacy","0","uniform","1","undefined","undefined","undefined","1","j","0","0","0","0","83","0","0","0","83","0","79","83","79","0","79","3","83","0","83","Fri Feb 19 12:23:01 2021","The main experiment item","yes","Lexical_Decision_Task.osexp","C:/Users/shone","no","Andale Mono","no","18","no","white","no","yes","576","legacy","79","79","3","C:/Users/shone/subject-5201252.csv","legacy","Lentiform Loewenfeld","3.3.7","yes","yes","600bd7cfb6416f0113b04181","602110864497cf011d9c0822","0","j","NA","space","d","space","space","j","489","NA","4128","16943","10817","13304","489","2","legacy","1024","2","48000","-16","task","5201252","even","NA","39534","45664","41535","239353","2894","30658","19840","239854","161939","239351","239854","239301","45664","240344","37642","238801","2890","211172","Lexical Decision Task","73","59050","84","yes","1024"
"2.821076612","0","4","lult","non-word","87.05882352941177","87.05882352941177","701.9529411764706","701.9529411764706","black","no","legacy","legacy","legacy","0","uniform","1","undefined","undefined","undefined","1","f","0","0","0","0","84","0","0","0","84","0","80","84","80","0","80","3","84","0","84","Fri Feb 19 12:23:01 2021","The main experiment item","yes","Lexical_Decision_Task.osexp","C:/Users/shone","no","Andale Mono","no","18","no","white","no","yes","576","legacy","80","80","3","C:/Users/shone/subject-5201252.csv","legacy","Lentiform Loewenfeld","3.3.7","yes","yes","600bd7cfb6416f0113b04181","602110864497cf011d9c0822","0","f","NA","space","d","space","space","f","616","NA","4128","16943","10817","13304","616","2","legacy","1024","2","48000","-16","task","5201252","even","NA","39534","45664","41535","241007","2894","30658","19840","241508","161939","241006","241508","240956","45664","242125","37642","240456","2890","211172","Lexical Decision Task","74","59666","85","yes","1024"
"3.159867847","5.98","5","brim","word","87.20930232558139","87.20930232558139","700.9302325581396","700.9302325581396","black","no","legacy","legacy","legacy","0","uniform","1","undefined","undefined","undefined","1","j","0","0","0","0","85","0","0","0","85","0","81","85","81","0","81","3","85","0","85","Fri Feb 19 12:23:01 2021","The main experiment item","yes","Lexical_Decision_Task.osexp","C:/Users/shone","no","Andale Mono","no","18","no","white","no","yes","576","legacy","81","81","3","C:/Users/shone/subject-5201252.csv","legacy","Lentiform Loewenfeld","3.3.7","yes","yes","600bd7cfb6416f0113b04181","602110864497cf011d9c0822","0","j","NA","space","d","space","space","j","614","NA","4128","16943","10817","13304","614","2","legacy","1024","2","48000","-16","task","5201252","even","NA","39534","45664","41535","242865","2894","30658","19840","243366","161939","242864","243366","242810","45664","243981","37642","242310","2890","211172","Lexical Decision Task","75","60280","86","yes","1024"
"2.75025376","10.2","6","jump","word","87.35632183908046","87.35632183908046","700.1494252873563","700.1494252873563","black","no","legacy","legacy","legacy","0","uniform","1","undefined","undefined","undefined","1","j","0","0","0","0","86","0","0","0","86","0","82","86","82","0","82","3","86","0","86","Fri Feb 19 12:23:01 2021","The main experiment item","yes","Lexical_Decision_Task.osexp","C:/Users/shone","no","Andale Mono","no","18","no","white","no","yes","576","legacy","82","82","3","C:/Users/shone/subject-5201252.csv","legacy","Lentiform Loewenfeld","3.3.7","yes","yes","600bd7cfb6416f0113b04181","602110864497cf011d9c0822","0","j","NA","space","d","space","space","j","633","NA","4128","16943","10817","13304","633","2","legacy","1024","2","48000","-16","task","5201252","even","NA","39534","45664","41535","244826","2894","30658","19840","245327","161939","244825","245327","244770","45664","245961","37642","244270","2890","211172","Lexical Decision Task","76","60913","87","yes","1024"
"3.302475237","0","7","leel","non-word","87.5","87.5","699.4545454545455","699.4545454545455","black","no","legacy","legacy","legacy","0","uniform","1","undefined","undefined","undefined","1","f","0","0","0","0","87","0","0","0","87","0","83","87","83","0","83","3","87","0","87","Fri Feb 19 12:23:01 2021","The main experiment item","yes","Lexical_Decision_Task.osexp","C:/Users/shone","no","Andale Mono","no","18","no","white","no","yes","576","legacy","83","83","3","C:/Users/shone/subject-5201252.csv","legacy","Lentiform Loewenfeld","3.3.7","yes","yes","600bd7cfb6416f0113b04181","602110864497cf011d9c0822","0","f","NA","space","d","space","space","f","639","NA","4128","16943","10817","13304","639","2","legacy","1024","2","48000","-16","task","5201252","even","NA","39534","45664","41535","247291","2894","30658","19840","247792","161939","247290","247792","247239","45664","248432","37642","246739","2890","211172","Lexical Decision Task","77","61552","88","yes","1024"
"3.378276681","6.39","8","bran","word","87.64044943820225","87.64044943820225","699.5280898876405","699.5280898876405","black","no","legacy","legacy","legacy","0","uniform","1","undefined","undefined","undefined","1","j","0","0","0","0","88","0","0","0","88","0","84","88","84","0","84","3","88","0","88","Fri Feb 19 12:23:01 2021","The main experiment item","yes","Lexical_Decision_Task.osexp","C:/Users/shone","no","Andale Mono","no","18","no","white","no","yes","576","legacy","84","84","3","C:/Users/shone/subject-5201252.csv","legacy","Lentiform Loewenfeld","3.3.7","yes","yes","600bd7cfb6416f0113b04181","602110864497cf011d9c0822","0","j","NA","space","d","space","space","j","706","NA","4128","16943","10817","13304","706","2","legacy","1024","2","48000","-16","task","5201252","even","NA","39534","45664","41535","249014","2894","30658","19840","249515","161939","249013","249515","248959","45664","250222","37642","248459","2890","211172","Lexical Decision Task","78","62258","89","yes","1024"
"2.696356389","0","1","pizz","non-word","87.77777777777777","87.77777777777777","699.2666666666667","699.2666666666667","black","no","legacy","legacy","legacy","0","uniform","1","undefined","undefined","undefined","1","f","0","0","0","0","89","0","0","0","89","0","85","89","85","0","85","3","89","0","89","Fri Feb 19 12:23:01 2021","The main experiment item","yes","Lexical_Decision_Task.osexp","C:/Users/shone","no","Andale Mono","no","18","no","white","no","yes","576","legacy","85","85","3","C:/Users/shone/subject-5201252.csv","legacy","Lentiform Loewenfeld","3.3.7","yes","yes","600bd7cfb6416f0113b04181","602110864497cf011d9c0822","0","f","NA","space","d","space","space","f","676","NA","4128","16943","10817","13304","676","2","legacy","1024","2","48000","-16","task","5201252","even","NA","39534","45664","41535","251546","2894","30658","19840","252048","161939","251545","252048","251494","45664","252725","37642","250994","2890","211172","Lexical Decision Task","79","62934","90","yes","1024"
"2.843025032","0","9","pusk","non-word","87.91208791208791","87.91208791208791","699.2087912087912","699.2087912087912","black","no","legacy","legacy","legacy","0","uniform","1","undefined","undefined","undefined","1","f","0","0","0","0","90","0","0","0","90","0","86","90","86","0","86","3","90","0","90","Fri Feb 19 12:23:01 2021","The main experiment item","yes","Lexical_Decision_Task.osexp","C:/Users/shone","no","Andale Mono","no","18","no","white","no","yes","576","legacy","86","86","3","C:/Users/shone/subject-5201252.csv","legacy","Lentiform Loewenfeld","3.3.7","yes","yes","600bd7cfb6416f0113b04181","602110864497cf011d9c0822","0","f","NA","space","d","space","space","f","694","NA","4128","16943","10817","13304","694","2","legacy","1024","2","48000","-16","task","5201252","even","NA","39534","45664","41535","253389","2894","30658","19840","253890","161939","253388","253890","253334","45664","254585","37642","252834","2890","211172","Lexical Decision Task","80","63628","91","yes","1024"
"2.899638141","0","3","hapt","non-word","88.04347826086956","88.04347826086956","698.2826086956521","698.2826086956521","black","no","legacy","legacy","legacy","0","uniform","1","undefined","undefined","undefined","1","f","0","0","0","0","91","0","0","0","91","0","87","91","87","0","87","3","91","0","91","Fri Feb 19 12:23:01 2021","The main experiment item","yes","Lexical_Decision_Task.osexp","C:/Users/shone","no","Andale Mono","no","18","no","white","no","yes","576","legacy","87","87","3","C:/Users/shone/subject-5201252.csv","legacy","Lentiform Loewenfeld","3.3.7","yes","yes","600bd7cfb6416f0113b04181","602110864497cf011d9c0822","0","f","NA","space","d","space","space","f","614","NA","4128","16943","10817","13304","614","2","legacy","1024","2","48000","-16","task","5201252","even","NA","39534","45664","41535","255597","2894","30658","19840","256098","161939","255596","256098","255545","45664","256713","37642","255045","2890","211172","Lexical Decision Task","81","64242","92","yes","1024"
"3.140404328","10.66","9","deep","word","88.17204301075269","88.17204301075269","695.6236559139785","695.6236559139785","black","no","legacy","legacy","legacy","0","uniform","1","undefined","undefined","undefined","1","j","0","0","0","0","92","0","0","0","92","0","88","92","88","0","88","3","92","0","92","Fri Feb 19 12:23:01 2021","The main experiment item","yes","Lexical_Decision_Task.osexp","C:/Users/shone","no","Andale Mono","no","18","no","white","no","yes","576","legacy","88","88","3","C:/Users/shone/subject-5201252.csv","legacy","Lentiform Loewenfeld","3.3.7","yes","yes","600bd7cfb6416f0113b04181","602110864497cf011d9c0822","0","j","NA","space","d","space","space","j","451","NA","4128","16943","10817","13304","451","2","legacy","1024","2","48000","-16","task","5201252","even","NA","39534","45664","41535","258118","2894","30658","19840","258619","161939","258116","258619","258064","45664","259071","37642","257564","2890","211172","Lexical Decision Task","82","64693","93","yes","1024"
"2.675164031","8.57","6","glue","word","88.29787234042553","88.29787234042553","692.531914893617","692.531914893617","black","no","legacy","legacy","legacy","0","uniform","1","undefined","undefined","undefined","1","j","0","0","0","0","93","0","0","0","93","0","89","93","89","0","89","3","93","0","93","Fri Feb 19 12:23:01 2021","The main experiment item","yes","Lexical_Decision_Task.osexp","C:/Users/shone","no","Andale Mono","no","18","no","white","no","yes","576","legacy","89","89","3","C:/Users/shone/subject-5201252.csv","legacy","Lentiform Loewenfeld","3.3.7","yes","yes","600bd7cfb6416f0113b04181","602110864497cf011d9c0822","0","j","NA","space","d","space","space","j","405","NA","4128","16943","10817","13304","405","2","legacy","1024","2","48000","-16","task","5201252","even","NA","39534","45664","41535","260091","2894","30658","19840","260592","161939","260090","260592","260028","45664","260998","37642","259528","2890","211172","Lexical Decision Task","83","65098","94","yes","1024"
"3.120135028","0","3","vals","non-word","88.42105263157895","88.42105263157895","692","692","black","no","legacy","legacy","legacy","0","uniform","1","undefined","undefined","undefined","1","f","0","0","0","0","94","0","0","0","94","0","90","94","90","0","90","3","94","0","94","Fri Feb 19 12:23:01 2021","The main experiment item","yes","Lexical_Decision_Task.osexp","C:/Users/shone","no","Andale Mono","no","18","no","white","no","yes","576","legacy","90","90","3","C:/Users/shone/subject-5201252.csv","legacy","Lentiform Loewenfeld","3.3.7","yes","yes","600bd7cfb6416f0113b04181","602110864497cf011d9c0822","0","f","NA","space","d","space","space","f","642","NA","4128","16943","10817","13304","642","2","legacy","1024","2","48000","-16","task","5201252","even","NA","39534","45664","41535","262619","2894","30658","19840","263120","161939","262618","263120","262567","45664","263763","37642","262067","2890","211172","Lexical Decision Task","84","65740","95","yes","1024"
"3.121778632","0","9","sark","non-word","88.54166666666667","88.54166666666667","691.4375","691.4375","black","no","legacy","legacy","legacy","0","uniform","1","undefined","undefined","undefined","1","f","0","0","0","0","95","0","0","0","95","0","91","95","91","0","91","3","95","0","95","Fri Feb 19 12:23:01 2021","The main experiment item","yes","Lexical_Decision_Task.osexp","C:/Users/shone","no","Andale Mono","no","18","no","white","no","yes","576","legacy","91","91","3","C:/Users/shone/subject-5201252.csv","legacy","Lentiform Loewenfeld","3.3.7","yes","yes","600bd7cfb6416f0113b04181","602110864497cf011d9c0822","0","f","NA","space","d","space","space","f","638","NA","4128","16943","10817","13304","638","2","legacy","1024","2","48000","-16","task","5201252","even","NA","39534","45664","41535","264438","2894","30658","19840","264940","161939","264437","264940","264387","45664","265579","37642","263887","2890","211172","Lexical Decision Task","85","66378","96","yes","1024"
"2.898725182","0","7","turl","non-word","88.65979381443299","88.65979381443299","691.8762886597938","691.8762886597938","black","no","legacy","legacy","legacy","0","uniform","1","undefined","undefined","undefined","1","f","0","0","0","0","96","0","0","0","96","0","92","96","92","0","92","3","96","0","96","Fri Feb 19 12:23:01 2021","The main experiment item","yes","Lexical_Decision_Task.osexp","C:/Users/shone","no","Andale Mono","no","18","no","white","no","yes","576","legacy","92","92","3","C:/Users/shone/subject-5201252.csv","legacy","Lentiform Loewenfeld","3.3.7","yes","yes","600bd7cfb6416f0113b04181","602110864497cf011d9c0822","0","f","NA","space","d","space","space","f","734","NA","4128","16943","10817","13304","734","2","legacy","1024","2","48000","-16","task","5201252","even","NA","39534","45664","41535","266252","2894","30658","19840","266754","161939","266250","266754","266200","45664","267489","37642","265700","2890","211172","Lexical Decision Task","86","67112","97","yes","1024"
"2.809559715","8.44","4","volt","word","88.77551020408163","88.77551020408163","692.2448979591836","692.2448979591836","black","no","legacy","legacy","legacy","0","uniform","1","undefined","undefined","undefined","1","j","0","0","0","0","97","0","0","0","97","0","93","97","93","0","93","3","97","0","97","Fri Feb 19 12:23:01 2021","The main experiment item","yes","Lexical_Decision_Task.osexp","C:/Users/shone","no","Andale Mono","no","18","no","white","no","yes","576","legacy","93","93","3","C:/Users/shone/subject-5201252.csv","legacy","Lentiform Loewenfeld","3.3.7","yes","yes","600bd7cfb6416f0113b04181","602110864497cf011d9c0822","0","j","NA","space","d","space","space","j","728","NA","4128","16943","10817","13304","728","2","legacy","1024","2","48000","-16","task","5201252","even","NA","39534","45664","41535","268156","2894","30658","19840","268657","161939","268154","268657","268104","45664","269386","37642","267604","2890","211172","Lexical Decision Task","87","67840","98","yes","1024"
"3.481012421","8.34","5","teen","word","88.88888888888889","88.88888888888889","692.3434343434343","692.3434343434343","black","no","legacy","legacy","legacy","0","uniform","1","undefined","undefined","undefined","1","j","0","0","0","0","98","0","0","0","98","0","94","98","94","0","94","3","98","0","98","Fri Feb 19 12:23:01 2021","The main experiment item","yes","Lexical_Decision_Task.osexp","C:/Users/shone","no","Andale Mono","no","18","no","white","no","yes","576","legacy","94","94","3","C:/Users/shone/subject-5201252.csv","legacy","Lentiform Loewenfeld","3.3.7","yes","yes","600bd7cfb6416f0113b04181","602110864497cf011d9c0822","0","j","NA","space","d","space","space","j","702","NA","4128","16943","10817","13304","702","2","legacy","1024","2","48000","-16","task","5201252","even","NA","39534","45664","41535","270527","2894","30658","19840","271028","161939","270526","271028","270475","45664","271731","37642","269974","2890","211172","Lexical Decision Task","88","68542","99","yes","1024"
"2.64476673","0","5","moft","non-word","89","89","691.43","691.43","black","no","legacy","legacy","legacy","0","uniform","1","undefined","undefined","undefined","1","f","0","0","0","0","99","0","0","0","99","0","95","99","95","0","95","3","99","0","99","Fri Feb 19 12:23:01 2021","The main experiment item","yes","Lexical_Decision_Task.osexp","C:/Users/shone","no","Andale Mono","no","18","no","white","no","yes","576","legacy","95","95","3","C:/Users/shone/subject-5201252.csv","legacy","Lentiform Loewenfeld","3.3.7","yes","yes","600bd7cfb6416f0113b04181","602110864497cf011d9c0822","0","f","NA","space","d","space","space","f","601","NA","4128","16943","10817","13304","601","2","legacy","1024","2","48000","-16","task","5201252","even","NA","39534","45664","41535","272659","2894","30658","19840","273161","161939","272658","273161","272597","45664","273763","37642","272097","2890","211172","Lexical Decision Task","89","69143","100","yes","1024"
"3.347850856","10.51","2","rich","word","89.10891089108911","89.10891089108911","690.4158415841584","690.4158415841584","black","no","legacy","legacy","legacy","0","uniform","1","undefined","undefined","undefined","1","j","0","0","0","0","100","0","0","0","100","0","96","100","96","0","96","3","100","0","100","Fri Feb 19 12:23:01 2021","The main experiment item","yes","Lexical_Decision_Task.osexp","C:/Users/shone","no","Andale Mono","no","18","no","white","no","yes","576","legacy","96","96","3","C:/Users/shone/subject-5201252.csv","legacy","Lentiform Loewenfeld","3.3.7","yes","yes","600bd7cfb6416f0113b04181","602110864497cf011d9c0822","0","j","NA","space","d","space","space","j","589","NA","4128","16943","10817","13304","589","2","legacy","1024","2","48000","-16","task","5201252","even","NA","39534","45664","41535","274434","2894","30658","19840","274936","161939","274433","274936","274382","45664","275526","37642","273882","2890","211172","Lexical Decision Task","90","69732","101","yes","1024"
"2.793790385","5.67","9","swab","word","89.2156862745098","89.2156862745098","689.4215686274509","689.4215686274509","black","no","legacy","legacy","legacy","0","uniform","1","undefined","undefined","undefined","1","j","0","0","0","0","101","0","0","0","101","0","97","101","97","0","97","3","101","0","101","Fri Feb 19 12:23:01 2021","The main experiment item","yes","Lexical_Decision_Task.osexp","C:/Users/shone","no","Andale Mono","no","18","no","white","no","yes","576","legacy","97","97","3","C:/Users/shone/subject-5201252.csv","legacy","Lentiform Loewenfeld","3.3.7","yes","yes","600bd7cfb6416f0113b04181","602110864497cf011d9c0822","0","j","NA","space","d","space","space","j","589","NA","4128","16943","10817","13304","589","2","legacy","1024","2","48000","-16","task","5201252","even","NA","39534","45664","41535","276196","2894","30658","19840","276697","161939","276195","276697","276142","45664","277287","37642","275642","2890","211172","Lexical Decision Task","91","70321","102","yes","1024"
