"Log_BG","Log_Freq_HAL","Ortho_N","Stimulus","Type","acc","accuracy","average_response_time","avg_rt","background","bidi","canvas_backend","clock_backend","color_backend","compensation","coordinates","correct","correct_Experimental_intro","correct_Introduction","correct_Practice_intro","correct_experimenter_kb","correct_response","count_End_Of_Experiment","count_End_Of_Practice","count_Experimental_Loop","count_Experimental_intro","count_Fixation","count_Introduction","count_Practice_Loop","count_Practice_intro","count_Stimulus","count_block_break_feedback","count_experimental_sequence","count_experimenter_kb","count_increment_trial_count","count_init_trial_count","count_logger","count_practice_sequence","count_right","count_task","count_wrong","datetime","description","disable_garbage_collection","experiment_file","experiment_path","font_bold","font_family","font_italic","font_size","font_underline","foreground","form_clicks","fullscreen","height","keyboard_backend","live_row","live_row_Experimental_Loop","live_row_Practice_Loop","logfile","mouse_backend","opensesame_codename","opensesame_version","osf_always_upload_data","osf_always_upload_experiment","osf_datanode_id","osf_id","repeat_cycle","response","response_End_Of_Experiment","response_Experimental_intro","response_Introduction","response_Practice_intro","response_block_break_feedback","response_experimenter_kb","response_time","response_time_End_Of_Experiment","response_time_Experimental_intro","response_time_Introduction","response_time_Practice_intro","response_time_block_break_feedback","response_time_experimenter_kb","round_decimals","sampler_backend","sound_buf_size","sound_channels","sound_freq","sound_sample_size","start","subject_nr","subject_parity","time_End_Of_Experiment","time_End_Of_Practice","time_Experimental_Loop","time_Experimental_intro","time_Fixation","time_Introduction","time_Practice_Loop","time_Practice_intro","time_Stimulus","time_block_break_feedback","time_experimental_sequence","time_experimenter_kb","time_increment_trial_count","time_init_trial_count","time_logger","time_practice_sequence","time_right","time_task","time_wrong","title","total_correct","total_response_time","total_responses","uniform_coordinates","width"
"3.382617311","0","4","pret","non-word","60","60","1550.6","1550.6","black","no","legacy","legacy","legacy","0","uniform","0","undefined","undefined","undefined","0","f","0","0","0","0","4","0","0","0","4","NA","0","4","0","0","0","3","4","0","4","Thu Feb 18 19:18:54 2021","The main experiment item","yes","Lexical_Decision_Task.osexp","/Users/ola","no","Andale Mono","no","18","no","white","no","yes","576","legacy","0","0","3","/Users/ola/subject-5209261.csv","legacy","Lentiform Loewenfeld","3.3.7","yes","yes","600bd7cfb6416f0113b04181","602110864497cf011d9c0822","0","j","NA","space","space","space","NA","j","1187","NA","3999","89543","8264","NA","1187","2","legacy","1024","2","48000","-16","task","5209261","odd","NA","111975","117983","113983","118004","2291","100126","91849","118513","NA","118001","118513","NA","117983","119700","110112","111444","2248","103665","Lexical Decision Task","3","7753","5","yes","1024"
"3.384413096","10.15","3","glad","word","66.66666666666667","66.66666666666667","1401.3333333333333","1401.3333333333333","black","no","legacy","legacy","legacy","0","uniform","1","undefined","undefined","undefined","1","j","0","0","0","0","5","0","0","0","5","NA","1","5","1","0","1","3","5","0","5","Thu Feb 18 19:18:54 2021","The main experiment item","yes","Lexical_Decision_Task.osexp","/Users/ola","no","Andale Mono","no","18","no","white","no","yes","576","legacy","1","1","3","/Users/ola/subject-5209261.csv","legacy","Lentiform Loewenfeld","3.3.7","yes","yes","600bd7cfb6416f0113b04181","602110864497cf011d9c0822","0","j","NA","space","space","space","NA","j","655","NA","3999","89543","8264","NA","655","2","legacy","1024","2","48000","-16","task","5209261","odd","NA","111975","117983","113983","121269","2291","100126","91849","121777","NA","121265","121777","121206","117983","122433","110112","111444","2248","119706","Lexical Decision Task","4","8408","6","yes","1024"
"2.719886232","7.98","2","quiz","word","71.42857142857143","71.42857142857143","1295.2857142857142","1295.2857142857142","black","no","legacy","legacy","legacy","0","uniform","1","undefined","undefined","undefined","1","j","0","0","0","0","6","0","0","0","6","NA","2","6","2","0","2","3","6","0","6","Thu Feb 18 19:18:54 2021","The main experiment item","yes","Lexical_Decision_Task.osexp","/Users/ola","no","Andale Mono","no","18","no","white","no","yes","576","legacy","2","2","3","/Users/ola/subject-5209261.csv","legacy","Lentiform Loewenfeld","3.3.7","yes","yes","600bd7cfb6416f0113b04181","602110864497cf011d9c0822","0","j","NA","space","space","space","NA","j","659","NA","3999","89543","8264","NA","659","2","legacy","1024","2","48000","-16","task","5209261","odd","NA","111975","117983","113983","122992","2291","100126","91849","123498","NA","122988","123498","122937","117983","124158","110112","122437","2248","119706","Lexical Decision Task","5","9067","7","yes","1024"
"3.492014979","0","9","yine","non-word","75","75","1234.375","1234.375","black","no","legacy","legacy","legacy","0","uniform","1","undefined","undefined","undefined","1","f","0","0","0","0","7","0","0","0","7","NA","3","7","3","0","3","3","7","0","7","Thu Feb 18 19:18:54 2021","The main experiment item","yes","Lexical_Decision_Task.osexp","/Users/ola","no","Andale Mono","no","18","no","white","no","yes","576","legacy","3","3","3","/Users/ola/subject-5209261.csv","legacy","Lentiform Loewenfeld","3.3.7","yes","yes","600bd7cfb6416f0113b04181","602110864497cf011d9c0822","0","f","NA","space","space","space","NA","f","808","NA","3999","89543","8264","NA","808","2","legacy","1024","2","48000","-16","task","5209261","odd","NA","111975","117983","113983","124716","2291","100126","91849","125223","NA","124712","125223","124662","117983","126032","110112","124161","2248","119706","Lexical Decision Task","6","9875","8","yes","1024"
"2.898725182","0","7","turl","non-word","77.77777777777777","77.77777777777777","1186.5555555555557","1186.5555555555557","black","no","legacy","legacy","legacy","0","uniform","1","undefined","undefined","undefined","1","f","0","0","0","0","8","0","0","0","8","NA","4","8","4","0","4","3","8","0","8","Thu Feb 18 19:18:54 2021","The main experiment item","yes","Lexical_Decision_Task.osexp","/Users/ola","no","Andale Mono","no","18","no","white","no","yes","576","legacy","4","4","3","/Users/ola/subject-5209261.csv","legacy","Lentiform Loewenfeld","3.3.7","yes","yes","600bd7cfb6416f0113b04181","602110864497cf011d9c0822","0","f","NA","space","space","space","NA","f","804","NA","3999","89543","8264","NA","804","2","legacy","1024","2","48000","-16","task","5209261","odd","NA","111975","117983","113983","126590","2291","100126","91849","127098","NA","126586","127098","126536","117983","127903","110112","126036","2248","119706","Lexical Decision Task","7","10679","9","yes","1024"
"3.230789326","5.38","5","prim","word","80","80","1138.4","1138.4","black","no","legacy","legacy","legacy","0","uniform","1","undefined","undefined","undefined","1","j","0","0","0","0","9","0","0","0","9","NA","5","9","5","0","5","3","9","0","9","Thu Feb 18 19:18:54 2021","The main experiment item","yes","Lexical_Decision_Task.osexp","/Users/ola","no","Andale Mono","no","18","no","white","no","yes","576","legacy","5","5","3","/Users/ola/subject-5209261.csv","legacy","Lentiform Loewenfeld","3.3.7","yes","yes","600bd7cfb6416f0113b04181","602110864497cf011d9c0822","0","j","NA","space","space","space","NA","j","705","NA","3999","89543","8264","NA","705","2","legacy","1024","2","48000","-16","task","5209261","odd","NA","111975","117983","113983","128461","2291","100126","91849","128968","NA","128456","128968","128407","117983","129673","110112","127907","2248","119706","Lexical Decision Task","8","11384","10","yes","1024"
"3.153001286","8.7","5","palm","word","81.81818181818181","81.81818181818181","1091.2727272727273","1091.2727272727273","black","no","legacy","legacy","legacy","0","uniform","1","undefined","undefined","undefined","1","j","0","0","0","0","10","0","0","0","10","NA","6","10","6","0","6","3","10","0","10","Thu Feb 18 19:18:54 2021","The main experiment item","yes","Lexical_Decision_Task.osexp","/Users/ola","no","Andale Mono","no","18","no","white","no","yes","576","legacy","6","6","3","/Users/ola/subject-5209261.csv","legacy","Lentiform Loewenfeld","3.3.7","yes","yes","600bd7cfb6416f0113b04181","602110864497cf011d9c0822","0","j","NA","space","space","space","NA","j","620","NA","3999","89543","8264","NA","620","2","legacy","1024","2","48000","-16","task","5209261","odd","NA","111975","117983","113983","130230","2291","100126","91849","130738","NA","130226","130739","130177","117983","131360","110112","129677","2248","119706","Lexical Decision Task","9","12004","11","yes","1024"
"3.194328374","9.42","6","harm","word","75","75","1043.1666666666667","1043.1666666666667","black","no","legacy","legacy","legacy","0","uniform","0","undefined","undefined","undefined","0","j","0","0","0","0","11","0","0","0","11","NA","7","11","7","0","7","3","11","0","11","Thu Feb 18 19:18:54 2021","The main experiment item","yes","Lexical_Decision_Task.osexp","/Users/ola","no","Andale Mono","no","18","no","white","no","yes","576","legacy","7","7","3","/Users/ola/subject-5209261.csv","legacy","Lentiform Loewenfeld","3.3.7","yes","yes","600bd7cfb6416f0113b04181","602110864497cf011d9c0822","0","f","NA","space","space","space","NA","f","514","NA","3999","89543","8264","NA","514","2","legacy","1024","2","48000","-16","task","5209261","odd","NA","111975","117983","113983","131918","2291","100126","91849","132426","NA","131914","132427","131864","117983","132941","110112","131364","2248","119706","Lexical Decision Task","9","12518","12","yes","1024"
"3.168890155","0","6","thet","non-word","76.92307692307692","76.92307692307692","1038.2307692307693","1038.2307692307693","black","no","legacy","legacy","legacy","0","uniform","1","undefined","undefined","undefined","1","f","0","0","0","0","12","0","0","0","12","NA","8","12","8","0","8","3","12","0","12","Thu Feb 18 19:18:54 2021","The main experiment item","yes","Lexical_Decision_Task.osexp","/Users/ola","no","Andale Mono","no","18","no","white","no","yes","576","legacy","8","8","3","/Users/ola/subject-5209261.csv","legacy","Lentiform Loewenfeld","3.3.7","yes","yes","600bd7cfb6416f0113b04181","602110864497cf011d9c0822","0","f","NA","space","space","space","NA","f","979","NA","3999","89543","8264","NA","979","2","legacy","1024","2","48000","-16","task","5209261","odd","NA","111975","117983","113983","134505","2291","100126","91849","135013","NA","134501","135013","134445","117983","135993","110112","131364","2248","132945","Lexical Decision Task","10","13497","13","yes","1024"
"2.981215883","10.66","5","hair","word","78.57142857142857","78.57142857142857","1008.2142857142857","1008.2142857142857","black","no","legacy","legacy","legacy","0","uniform","1","undefined","undefined","undefined","1","j","0","0","0","0","13","0","0","0","13","NA","9","13","9","0","9","3","13","0","13","Thu Feb 18 19:18:54 2021","The main experiment item","yes","Lexical_Decision_Task.osexp","/Users/ola","no","Andale Mono","no","18","no","white","no","yes","576","legacy","9","9","3","/Users/ola/subject-5209261.csv","legacy","Lentiform Loewenfeld","3.3.7","yes","yes","600bd7cfb6416f0113b04181","602110864497cf011d9c0822","0","j","NA","space","space","space","NA","j","618","NA","3999","89543","8264","NA","618","2","legacy","1024","2","48000","-16","task","5209261","odd","NA","111975","117983","113983","136555","2291","100126","91849","137063","NA","136551","137063","136497","117983","137682","110112","135997","2248","132945","Lexical Decision Task","11","14115","14","yes","1024"
"3.066077331","0","7","vorn","non-word","80","80","999.5333333333333","999.5333333333333","black","no","legacy","legacy","legacy","0","uniform","1","undefined","undefined","undefined","1","f","0","0","0","0","14","0","0","0","14","NA","10","14","10","0","10","3","14","0","14","Thu Feb 18 19:18:54 2021","The main experiment item","yes","Lexical_Decision_Task.osexp","/Users/ola","no","Andale Mono","no","18","no","white","no","yes","576","legacy","10","10","3","/Users/ola/subject-5209261.csv","legacy","Lentiform Loewenfeld","3.3.7","yes","yes","600bd7cfb6416f0113b04181","602110864497cf011d9c0822","0","f","NA","space","space","space","NA","f","878","NA","3999","89543","8264","NA","878","2","legacy","1024","2","48000","-16","task","5209261","odd","NA","111975","117983","113983","138241","2291","100126","91849","138748","NA","138236","138748","138186","117983","139626","110112","137686","2248","132945","Lexical Decision Task","12","14993","15","yes","1024"
"3.003891166","8.05","2","frog","word","81.25","81.25","974.8125","974.8125","black","no","legacy","legacy","legacy","0","uniform","1","undefined","undefined","undefined","1","j","0","0","0","0","15","0","0","0","15","NA","11","15","11","0","11","3","15","0","15","Thu Feb 18 19:18:54 2021","The main experiment item","yes","Lexical_Decision_Task.osexp","/Users/ola","no","Andale Mono","no","18","no","white","no","yes","576","legacy","11","11","3","/Users/ola/subject-5209261.csv","legacy","Lentiform Loewenfeld","3.3.7","yes","yes","600bd7cfb6416f0113b04181","602110864497cf011d9c0822","0","j","NA","space","space","space","NA","j","604","NA","3999","89543","8264","NA","604","2","legacy","1024","2","48000","-16","task","5209261","odd","NA","111975","117983","113983","140184","2291","100126","91849","140693","NA","140180","140693","140130","117983","141297","110112","139630","2248","132945","Lexical Decision Task","13","15597","16","yes","1024"
"3.049218023","7.4","9","robe","word","82.3529411764706","82.3529411764706","955.7647058823529","955.7647058823529","black","no","legacy","legacy","legacy","0","uniform","1","undefined","undefined","undefined","1","j","0","0","0","0","16","0","0","0","16","NA","12","16","12","0","12","3","16","0","16","Thu Feb 18 19:18:54 2021","The main experiment item","yes","Lexical_Decision_Task.osexp","/Users/ola","no","Andale Mono","no","18","no","white","no","yes","576","legacy","12","12","3","/Users/ola/subject-5209261.csv","legacy","Lentiform Loewenfeld","3.3.7","yes","yes","600bd7cfb6416f0113b04181","602110864497cf011d9c0822","0","j","NA","space","space","space","NA","j","651","NA","3999","89543","8264","NA","651","2","legacy","1024","2","48000","-16","task","5209261","odd","NA","111975","117983","113983","141861","2291","100126","91849","142368","NA","141856","142368","141801","117983","143019","110112","141301","2248","132945","Lexical Decision Task","14","16248","17","yes","1024"
"3.274157849","0","8","leet","non-word","83.33333333333333","83.33333333333333","943.5555555555555","943.5555555555555","black","no","legacy","legacy","legacy","0","uniform","1","undefined","undefined","undefined","1","f","0","0","0","0","17","0","0","0","17","NA","13","17","13","0","13","3","17","0","17","Thu Feb 18 19:18:54 2021","The main experiment item","yes","Lexical_Decision_Task.osexp","/Users/ola","no","Andale Mono","no","18","no","white","no","yes","576","legacy","13","13","3","/Users/ola/subject-5209261.csv","legacy","Lentiform Loewenfeld","3.3.7","yes","yes","600bd7cfb6416f0113b04181","602110864497cf011d9c0822","0","f","NA","space","space","space","NA","f","736","NA","3999","89543","8264","NA","736","2","legacy","1024","2","48000","-16","task","5209261","odd","NA","111975","117983","113983","143578","2291","100126","91849","144086","NA","143574","144086","143523","117983","144823","110112","143023","2248","132945","Lexical Decision Task","15","16984","18","yes","1024"
"2.839898939","8.99","6","soap","word","84.21052631578948","84.21052631578948","923.2105263157895","923.2105263157895","black","no","legacy","legacy","legacy","0","uniform","1","undefined","undefined","undefined","1","j","0","0","0","0","18","0","0","0","18","NA","14","18","14","0","14","3","18","0","18","Thu Feb 18 19:18:54 2021","The main experiment item","yes","Lexical_Decision_Task.osexp","/Users/ola","no","Andale Mono","no","18","no","white","no","yes","576","legacy","14","14","3","/Users/ola/subject-5209261.csv","legacy","Lentiform Loewenfeld","3.3.7","yes","yes","600bd7cfb6416f0113b04181","602110864497cf011d9c0822","0","j","NA","space","space","space","NA","j","557","NA","3999","89543","8264","NA","557","2","legacy","1024","2","48000","-16","task","5209261","odd","NA","111975","117983","113983","145381","2291","100126","91849","145888","NA","145376","145888","145327","117983","146445","110112","144827","2248","132945","Lexical Decision Task","16","17541","19","yes","1024"
"2.809559715","8.44","4","volt","word","85","85","919.6","919.6","black","no","legacy","legacy","legacy","0","uniform","1","undefined","undefined","undefined","1","j","0","0","0","0","19","0","0","0","19","NA","15","19","15","0","15","3","19","0","19","Thu Feb 18 19:18:54 2021","The main experiment item","yes","Lexical_Decision_Task.osexp","/Users/ola","no","Andale Mono","no","18","no","white","no","yes","576","legacy","15","15","3","/Users/ola/subject-5209261.csv","legacy","Lentiform Loewenfeld","3.3.7","yes","yes","600bd7cfb6416f0113b04181","602110864497cf011d9c0822","0","j","NA","space","space","space","NA","j","851","NA","3999","89543","8264","NA","851","2","legacy","1024","2","48000","-16","task","5209261","odd","NA","111975","117983","113983","147003","2291","100126","91849","147510","NA","146999","147510","146949","117983","148361","110112","146449","2248","132945","Lexical Decision Task","17","18392","20","yes","1024"
"3.299579929","0","2","flis","non-word","85.71428571428571","85.71428571428571","915.047619047619","915.047619047619","black","no","legacy","legacy","legacy","0","uniform","1","undefined","undefined","undefined","1","f","0","0","0","0","20","0","0","0","20","NA","16","20","16","0","16","3","20","0","20","Thu Feb 18 19:18:54 2021","The main experiment item","yes","Lexical_Decision_Task.osexp","/Users/ola","no","Andale Mono","no","18","no","white","no","yes","576","legacy","16","16","3","/Users/ola/subject-5209261.csv","legacy","Lentiform Loewenfeld","3.3.7","yes","yes","600bd7cfb6416f0113b04181","602110864497cf011d9c0822","0","f","NA","space","space","space","NA","f","824","NA","3999","89543","8264","NA","824","2","legacy","1024","2","48000","-16","task","5209261","odd","NA","111975","117983","113983","148920","2291","100126","91849","149428","NA","148916","149428","148865","117983","150253","110112","148365","2248","132945","Lexical Decision Task","18","19216","21","yes","1024"
"3.082307743","9.68","8","camp","word","86.36363636363636","86.36363636363636","905.5","905.5","black","no","legacy","legacy","legacy","0","uniform","1","undefined","undefined","undefined","1","j","0","0","0","0","21","0","0","0","21","NA","17","21","17","0","17","3","21","0","21","Thu Feb 18 19:18:54 2021","The main experiment item","yes","Lexical_Decision_Task.osexp","/Users/ola","no","Andale Mono","no","18","no","white","no","yes","576","legacy","17","17","3","/Users/ola/subject-5209261.csv","legacy","Lentiform Loewenfeld","3.3.7","yes","yes","600bd7cfb6416f0113b04181","602110864497cf011d9c0822","0","j","NA","space","space","space","NA","j","705","NA","3999","89543","8264","NA","705","2","legacy","1024","2","48000","-16","task","5209261","odd","NA","111975","117983","113983","150806","2291","100126","91849","151314","NA","150802","151314","150757","117983","152019","110112","150257","2248","132945","Lexical Decision Task","19","19921","22","yes","1024"
"3.259832699","0","9","flar","non-word","82.6086956521739","82.6086956521739","902.5217391304348","902.5217391304348","black","no","legacy","legacy","legacy","0","uniform","0","undefined","undefined","undefined","0","f","0","0","0","0","22","0","0","0","22","NA","18","22","18","0","18","3","22","0","22","Thu Feb 18 19:18:54 2021","The main experiment item","yes","Lexical_Decision_Task.osexp","/Users/ola","no","Andale Mono","no","18","no","white","no","yes","576","legacy","18","18","3","/Users/ola/subject-5209261.csv","legacy","Lentiform Loewenfeld","3.3.7","yes","yes","600bd7cfb6416f0113b04181","602110864497cf011d9c0822","0","j","NA","space","space","space","NA","j","837","NA","3999","89543","8264","NA","837","2","legacy","1024","2","48000","-16","task","5209261","odd","NA","111975","117983","113983","152581","2291","100126","91849","153088","NA","152577","153088","152523","117983","153926","110112","152023","2248","132945","Lexical Decision Task","19","20758","23","yes","1024"
"3.037294994","8.64","7","roof","word","83.33333333333333","83.33333333333333","893.75","893.75","black","no","legacy","legacy","legacy","0","uniform","1","undefined","undefined","undefined","1","j","0","0","0","0","23","0","0","0","23","NA","19","23","19","0","19","3","23","0","23","Thu Feb 18 19:18:54 2021","The main experiment item","yes","Lexical_Decision_Task.osexp","/Users/ola","no","Andale Mono","no","18","no","white","no","yes","576","legacy","19","19","3","/Users/ola/subject-5209261.csv","legacy","Lentiform Loewenfeld","3.3.7","yes","yes","600bd7cfb6416f0113b04181","602110864497cf011d9c0822","0","j","NA","space","space","space","NA","j","692","NA","3999","89543","8264","NA","692","2","legacy","1024","2","48000","-16","task","5209261","odd","NA","111975","117983","113983","155490","2291","100126","91849","155998","NA","155486","155998","155429","117983","156690","110112","152023","2248","153929","Lexical Decision Task","20","21450","24","yes","1024"
"2.868644438","10.52","4","town","word","84","84","884","884","black","no","legacy","legacy","legacy","0","uniform","1","undefined","undefined","undefined","1","j","0","0","0","0","24","0","0","0","24","NA","20","24","20","0","20","3","24","0","24","Thu Feb 18 19:18:54 2021","The main experiment item","yes","Lexical_Decision_Task.osexp","/Users/ola","no","Andale Mono","no","18","no","white","no","yes","576","legacy","20","20","3","/Users/ola/subject-5209261.csv","legacy","Lentiform Loewenfeld","3.3.7","yes","yes","600bd7cfb6416f0113b04181","602110864497cf011d9c0822","0","j","NA","space","space","space","NA","j","650","NA","3999","89543","8264","NA","650","2","legacy","1024","2","48000","-16","task","5209261","odd","NA","111975","117983","113983","157253","2291","100126","91849","157760","NA","157249","157761","157194","117983","158412","110112","156694","2248","153929","Lexical Decision Task","21","22100","25","yes","1024"
"3.481012421","8.34","5","teen","word","84.61538461538461","84.61538461538461","875.8846153846154","875.8846153846154","black","no","legacy","legacy","legacy","0","uniform","1","undefined","undefined","undefined","1","j","0","0","0","0","25","0","0","0","25","NA","21","25","21","0","21","3","25","0","25","Thu Feb 18 19:18:54 2021","The main experiment item","yes","Lexical_Decision_Task.osexp","/Users/ola","no","Andale Mono","no","18","no","white","no","yes","576","legacy","21","21","3","/Users/ola/subject-5209261.csv","legacy","Lentiform Loewenfeld","3.3.7","yes","yes","600bd7cfb6416f0113b04181","602110864497cf011d9c0822","0","j","NA","space","space","space","NA","j","673","NA","3999","89543","8264","NA","673","2","legacy","1024","2","48000","-16","task","5209261","odd","NA","111975","117983","113983","158969","2291","100126","91849","159476","NA","158965","159476","158915","117983","160150","110112","158415","2248","153929","Lexical Decision Task","22","22773","26","yes","1024"
"3.460446784","0","5","dess","non-word","85.18518518518519","85.18518518518519","876.2962962962963","876.2962962962963","black","no","legacy","legacy","legacy","0","uniform","1","undefined","undefined","undefined","1","f","0","0","0","0","26","0","0","0","26","NA","22","26","22","0","22","3","26","0","26","Thu Feb 18 19:18:54 2021","The main experiment item","yes","Lexical_Decision_Task.osexp","/Users/ola","no","Andale Mono","no","18","no","white","no","yes","576","legacy","22","22","3","/Users/ola/subject-5209261.csv","legacy","Lentiform Loewenfeld","3.3.7","yes","yes","600bd7cfb6416f0113b04181","602110864497cf011d9c0822","0","f","NA","space","space","space","NA","f","887","NA","3999","89543","8264","NA","887","2","legacy","1024","2","48000","-16","task","5209261","odd","NA","111975","117983","113983","160707","2291","100126","91849","161214","NA","160703","161215","160653","117983","162102","110112","160153","2248","153929","Lexical Decision Task","23","23660","27","yes","1024"
"3.197740804","6.74","3","ache","word","85.71428571428571","85.71428571428571","871.4642857142857","871.4642857142857","black","no","legacy","legacy","legacy","0","uniform","1","undefined","undefined","undefined","1","j","0","0","0","0","27","0","0","0","27","NA","23","27","23","0","23","3","27","0","27","Thu Feb 18 19:18:54 2021","The main experiment item","yes","Lexical_Decision_Task.osexp","/Users/ola","no","Andale Mono","no","18","no","white","no","yes","576","legacy","23","23","3","/Users/ola/subject-5209261.csv","legacy","Lentiform Loewenfeld","3.3.7","yes","yes","600bd7cfb6416f0113b04181","602110864497cf011d9c0822","0","j","NA","space","space","space","NA","j","741","NA","3999","89543","8264","NA","741","2","legacy","1024","2","48000","-16","task","5209261","odd","NA","111975","117983","113983","162657","2291","100126","91849","163165","NA","162653","163165","162606","117983","163907","110112","162106","2248","153929","Lexical Decision Task","24","24401","28","yes","1024"
"3.252447662","9.67","9","boat","word","86.20689655172414","86.20689655172414","862.3448275862069","862.3448275862069","black","no","legacy","legacy","legacy","0","uniform","1","undefined","undefined","undefined","1","j","0","0","0","0","28","0","0","0","28","NA","24","28","24","0","24","3","28","0","28","Thu Feb 18 19:18:54 2021","The main experiment item","yes","Lexical_Decision_Task.osexp","/Users/ola","no","Andale Mono","no","18","no","white","no","yes","576","legacy","24","24","3","/Users/ola/subject-5209261.csv","legacy","Lentiform Loewenfeld","3.3.7","yes","yes","600bd7cfb6416f0113b04181","602110864497cf011d9c0822","0","j","NA","space","space","space","NA","j","607","NA","3999","89543","8264","NA","607","2","legacy","1024","2","48000","-16","task","5209261","odd","NA","111975","117983","113983","164457","2291","100126","91849","164964","NA","164453","164964","164410","117983","165572","110112","163910","2248","153929","Lexical Decision Task","25","25008","29","yes","1024"
"2.884795364","0","6","flob","non-word","86.66666666666667","86.66666666666667","871.4666666666667","871.4666666666667","black","no","legacy","legacy","legacy","0","uniform","1","undefined","undefined","undefined","1","f","0","0","0","0","29","0","0","0","29","NA","25","29","25","0","25","3","29","0","29","Thu Feb 18 19:18:54 2021","The main experiment item","yes","Lexical_Decision_Task.osexp","/Users/ola","no","Andale Mono","no","18","no","white","no","yes","576","legacy","25","25","3","/Users/ola/subject-5209261.csv","legacy","Lentiform Loewenfeld","3.3.7","yes","yes","600bd7cfb6416f0113b04181","602110864497cf011d9c0822","0","f","NA","space","space","space","NA","f","1136","NA","3999","89543","8264","NA","1136","2","legacy","1024","2","48000","-16","task","5209261","odd","NA","111975","117983","113983","166127","2291","100126","91849","166635","NA","166123","166635","166075","117983","167771","110112","165575","2248","153929","Lexical Decision Task","26","26144","30","yes","1024"
"3.031812271","6.52","3","gulp","word","87.09677419354838","87.09677419354838","867.741935483871","867.741935483871","black","no","legacy","legacy","legacy","0","uniform","1","undefined","undefined","undefined","1","j","0","0","0","0","30","0","0","0","30","NA","26","30","26","0","26","3","30","0","30","Thu Feb 18 19:18:54 2021","The main experiment item","yes","Lexical_Decision_Task.osexp","/Users/ola","no","Andale Mono","no","18","no","white","no","yes","576","legacy","26","26","3","/Users/ola/subject-5209261.csv","legacy","Lentiform Loewenfeld","3.3.7","yes","yes","600bd7cfb6416f0113b04181","602110864497cf011d9c0822","0","j","NA","space","space","space","NA","j","756","NA","3999","89543","8264","NA","756","2","legacy","1024","2","48000","-16","task","5209261","odd","NA","111975","117983","113983","168328","2291","100126","91849","168836","NA","168324","168837","168275","117983","169594","110112","167775","2248","153929","Lexical Decision Task","27","26900","31","yes","1024"
"2.9737419","7.69","7","claw","word","87.5","87.5","860.25","860.25","black","no","legacy","legacy","legacy","0","uniform","1","undefined","undefined","undefined","1","j","0","0","0","0","31","0","0","0","31","NA","27","31","27","0","27","3","31","0","31","Thu Feb 18 19:18:54 2021","The main experiment item","yes","Lexical_Decision_Task.osexp","/Users/ola","no","Andale Mono","no","18","no","white","no","yes","576","legacy","27","27","3","/Users/ola/subject-5209261.csv","legacy","Lentiform Loewenfeld","3.3.7","yes","yes","600bd7cfb6416f0113b04181","602110864497cf011d9c0822","0","j","NA","space","space","space","NA","j","628","NA","3999","89543","8264","NA","628","2","legacy","1024","2","48000","-16","task","5209261","odd","NA","111975","117983","113983","170155","2291","100126","91849","170664","NA","170151","170664","170097","117983","171293","110112","169597","2248","153929","Lexical Decision Task","28","27528","32","yes","1024"
"3.495914186","0","4","peng","non-word","84.84848484848484","84.84848484848484","857.3939393939394","857.3939393939394","black","no","legacy","legacy","legacy","0","uniform","0","undefined","undefined","undefined","0","f","0","0","0","0","32","0","0","0","32","NA","28","32","28","0","28","3","32","0","32","Thu Feb 18 19:18:54 2021","The main experiment item","yes","Lexical_Decision_Task.osexp","/Users/ola","no","Andale Mono","no","18","no","white","no","yes","576","legacy","28","28","3","/Users/ola/subject-5209261.csv","legacy","Lentiform Loewenfeld","3.3.7","yes","yes","600bd7cfb6416f0113b04181","602110864497cf011d9c0822","0","j","NA","space","space","space","NA","j","766","NA","3999","89543","8264","NA","766","2","legacy","1024","2","48000","-16","task","5209261","odd","NA","111975","117983","113983","171851","2291","100126","91849","172362","NA","171847","172362","171796","117983","173129","110112","171296","2248","153929","Lexical Decision Task","28","28294","33","yes","1024"
"3.488597715","0","9","nain","non-word","85.29411764705883","85.29411764705883","857.9705882352941","857.9705882352941","black","no","legacy","legacy","legacy","0","uniform","1","undefined","undefined","undefined","1","f","0","0","0","0","33","0","0","0","33","NA","29","33","29","0","29","3","33","0","33","Thu Feb 18 19:18:54 2021","The main experiment item","yes","Lexical_Decision_Task.osexp","/Users/ola","no","Andale Mono","no","18","no","white","no","yes","576","legacy","29","29","3","/Users/ola/subject-5209261.csv","legacy","Lentiform Loewenfeld","3.3.7","yes","yes","600bd7cfb6416f0113b04181","602110864497cf011d9c0822","0","f","NA","space","space","space","NA","f","877","NA","3999","89543","8264","NA","877","2","legacy","1024","2","48000","-16","task","5209261","odd","NA","111975","117983","113983","174694","2291","100126","91849","175201","NA","174689","175202","174633","117983","176080","110112","171296","2248","173133","Lexical Decision Task","29","29171","34","yes","1024"
"3.397302518","7.01","2","knit","word","82.85714285714286","82.85714285714286","860.5714285714286","860.5714285714286","black","no","legacy","legacy","legacy","0","uniform","0","undefined","undefined","undefined","0","j","0","0","0","0","34","0","0","0","34","NA","30","34","30","0","30","3","34","0","34","Thu Feb 18 19:18:54 2021","The main experiment item","yes","Lexical_Decision_Task.osexp","/Users/ola","no","Andale Mono","no","18","no","white","no","yes","576","legacy","30","30","3","/Users/ola/subject-5209261.csv","legacy","Lentiform Loewenfeld","3.3.7","yes","yes","600bd7cfb6416f0113b04181","602110864497cf011d9c0822","0","f","NA","space","space","space","NA","f","949","NA","3999","89543","8264","NA","949","2","legacy","1024","2","48000","-16","task","5209261","odd","NA","111975","117983","113983","176637","2291","100126","91849","177144","NA","176633","177144","176584","117983","178094","110112","176084","2248","173133","Lexical Decision Task","29","30120","35","yes","1024"
"3.216517684","10.87","3","film","word","83.33333333333333","83.33333333333333","852.0555555555555","852.0555555555555","black","no","legacy","legacy","legacy","0","uniform","1","undefined","undefined","undefined","1","j","0","0","0","0","35","0","0","0","35","NA","31","35","31","0","31","3","35","0","35","Thu Feb 18 19:18:54 2021","The main experiment item","yes","Lexical_Decision_Task.osexp","/Users/ola","no","Andale Mono","no","18","no","white","no","yes","576","legacy","31","31","3","/Users/ola/subject-5209261.csv","legacy","Lentiform Loewenfeld","3.3.7","yes","yes","600bd7cfb6416f0113b04181","602110864497cf011d9c0822","0","j","NA","space","space","space","NA","j","554","NA","3999","89543","8264","NA","554","2","legacy","1024","2","48000","-16","task","5209261","odd","NA","111975","117983","113983","179659","2291","100126","91849","180167","NA","179655","180167","179598","117983","180722","110112","176084","2248","178098","Lexical Decision Task","30","30674","36","yes","1024"
"3.705778213","0","6","stin","non-word","83.78378378378379","83.78378378378379","851.4864864864865","851.4864864864865","black","no","legacy","legacy","legacy","0","uniform","1","undefined","undefined","undefined","1","f","0","0","0","0","36","0","0","0","36","NA","32","36","32","0","32","3","36","0","36","Thu Feb 18 19:18:54 2021","The main experiment item","yes","Lexical_Decision_Task.osexp","/Users/ola","no","Andale Mono","no","18","no","white","no","yes","576","legacy","32","32","3","/Users/ola/subject-5209261.csv","legacy","Lentiform Loewenfeld","3.3.7","yes","yes","600bd7cfb6416f0113b04181","602110864497cf011d9c0822","0","f","NA","space","space","space","NA","f","831","NA","3999","89543","8264","NA","831","2","legacy","1024","2","48000","-16","task","5209261","odd","NA","111975","117983","113983","181280","2291","100126","91849","181791","NA","181276","181791","181225","117983","182623","110112","180725","2248","178098","Lexical Decision Task","31","31505","37","yes","1024"
"2.813801082","5.47","7","nook","word","81.57894736842105","81.57894736842105","849.078947368421","849.078947368421","black","no","legacy","legacy","legacy","0","uniform","0","undefined","undefined","undefined","0","j","0","0","0","0","37","0","0","0","37","NA","33","37","33","0","33","3","37","0","37","Thu Feb 18 19:18:54 2021","The main experiment item","yes","Lexical_Decision_Task.osexp","/Users/ola","no","Andale Mono","no","18","no","white","no","yes","576","legacy","33","33","3","/Users/ola/subject-5209261.csv","legacy","Lentiform Loewenfeld","3.3.7","yes","yes","600bd7cfb6416f0113b04181","602110864497cf011d9c0822","0","f","NA","space","space","space","NA","f","760","NA","3999","89543","8264","NA","760","2","legacy","1024","2","48000","-16","task","5209261","odd","NA","111975","117983","113983","183178","2291","100126","91849","183687","NA","183174","183687","183126","117983","184448","110112","182626","2248","178098","Lexical Decision Task","31","32265","38","yes","1024"
"3.307211407","6.07","7","honk","word","82.05128205128206","82.05128205128206","844.5641025641025","844.5641025641025","black","no","legacy","legacy","legacy","0","uniform","1","undefined","undefined","undefined","1","j","0","0","0","0","38","0","0","0","38","NA","34","38","34","0","34","3","38","0","38","Thu Feb 18 19:18:54 2021","The main experiment item","yes","Lexical_Decision_Task.osexp","/Users/ola","no","Andale Mono","no","18","no","white","no","yes","576","legacy","34","34","3","/Users/ola/subject-5209261.csv","legacy","Lentiform Loewenfeld","3.3.7","yes","yes","600bd7cfb6416f0113b04181","602110864497cf011d9c0822","0","j","NA","space","space","space","NA","j","673","NA","3999","89543","8264","NA","673","2","legacy","1024","2","48000","-16","task","5209261","odd","NA","111975","117983","113983","186005","2291","100126","91849","186512","NA","186002","186512","185951","117983","187186","110112","182626","2248","184451","Lexical Decision Task","32","32938","39","yes","1024"
"2.696356389","0","1","pizz","non-word","82.5","82.5","847.825","847.825","black","no","legacy","legacy","legacy","0","uniform","1","undefined","undefined","undefined","1","f","0","0","0","0","39","0","0","0","39","NA","35","39","35","0","35","3","39","0","39","Thu Feb 18 19:18:54 2021","The main experiment item","yes","Lexical_Decision_Task.osexp","/Users/ola","no","Andale Mono","no","18","no","white","no","yes","576","legacy","35","35","3","/Users/ola/subject-5209261.csv","legacy","Lentiform Loewenfeld","3.3.7","yes","yes","600bd7cfb6416f0113b04181","602110864497cf011d9c0822","0","f","NA","space","space","space","NA","f","975","NA","3999","89543","8264","NA","975","2","legacy","1024","2","48000","-16","task","5209261","odd","NA","111975","117983","113983","187742","2291","100126","91849","188250","NA","187738","188250","187689","117983","189226","110112","187189","2248","184451","Lexical Decision Task","33","33913","40","yes","1024"
"3.302475237","0","7","leel","non-word","82.92682926829268","82.92682926829268","851.2682926829268","851.2682926829268","black","no","legacy","legacy","legacy","0","uniform","1","undefined","undefined","undefined","1","f","0","0","0","0","40","0","0","0","40","NA","36","40","36","0","36","3","40","0","40","Thu Feb 18 19:18:54 2021","The main experiment item","yes","Lexical_Decision_Task.osexp","/Users/ola","no","Andale Mono","no","18","no","white","no","yes","576","legacy","36","36","3","/Users/ola/subject-5209261.csv","legacy","Lentiform Loewenfeld","3.3.7","yes","yes","600bd7cfb6416f0113b04181","602110864497cf011d9c0822","0","f","NA","space","space","space","NA","f","989","NA","3999","89543","8264","NA","989","2","legacy","1024","2","48000","-16","task","5209261","odd","NA","111975","117983","113983","189783","2291","100126","91849","190291","NA","189779","190292","189729","117983","191282","110112","189229","2248","184451","Lexical Decision Task","34","34902","41","yes","1024"
"2.95456409","0","4","taud","non-word","83.33333333333333","83.33333333333333","848.2142857142857","848.2142857142857","black","no","legacy","legacy","legacy","0","uniform","1","undefined","undefined","undefined","1","f","0","0","0","0","41","0","0","0","41","NA","37","41","37","0","37","3","41","0","41","Thu Feb 18 19:18:54 2021","The main experiment item","yes","Lexical_Decision_Task.osexp","/Users/ola","no","Andale Mono","no","18","no","white","no","yes","576","legacy","37","37","3","/Users/ola/subject-5209261.csv","legacy","Lentiform Loewenfeld","3.3.7","yes","yes","600bd7cfb6416f0113b04181","602110864497cf011d9c0822","0","f","NA","space","space","space","NA","f","723","NA","3999","89543","8264","NA","723","2","legacy","1024","2","48000","-16","task","5209261","odd","NA","111975","117983","113983","191840","2291","100126","91849","192348","NA","191836","192348","191785","117983","193072","110112","191285","2248","184451","Lexical Decision Task","35","35625","42","yes","1024"
"3.529815197","0","3","lerm","non-word","83.72093023255815","83.72093023255815","855.5348837209302","855.5348837209302","black","no","legacy","legacy","legacy","0","uniform","1","undefined","undefined","undefined","1","f","0","0","0","0","42","0","0","0","42","NA","38","42","38","0","38","3","42","0","42","Thu Feb 18 19:18:54 2021","The main experiment item","yes","Lexical_Decision_Task.osexp","/Users/ola","no","Andale Mono","no","18","no","white","no","yes","576","legacy","38","38","3","/Users/ola/subject-5209261.csv","legacy","Lentiform Loewenfeld","3.3.7","yes","yes","600bd7cfb6416f0113b04181","602110864497cf011d9c0822","0","f","NA","space","space","space","NA","f","1163","NA","3999","89543","8264","NA","1163","2","legacy","1024","2","48000","-16","task","5209261","odd","NA","111975","117983","113983","193631","2291","100126","91849","194138","NA","193626","194138","193576","117983","195302","110112","193076","2248","184451","Lexical Decision Task","36","36788","43","yes","1024"
"2.75025376","10.2","6","jump","word","84.0909090909091","84.0909090909091","881.3181818181819","881.3181818181819","black","no","legacy","legacy","legacy","0","uniform","1","undefined","undefined","undefined","1","j","0","0","0","0","43","0","0","0","43","NA","39","43","39","0","39","3","43","0","43","Thu Feb 18 19:18:54 2021","The main experiment item","yes","Lexical_Decision_Task.osexp","/Users/ola","no","Andale Mono","no","18","no","white","no","yes","576","legacy","39","39","3","/Users/ola/subject-5209261.csv","legacy","Lentiform Loewenfeld","3.3.7","yes","yes","600bd7cfb6416f0113b04181","602110864497cf011d9c0822","0","j","NA","space","space","space","NA","j","1990","NA","3999","89543","8264","NA","1990","2","legacy","1024","2","48000","-16","task","5209261","odd","NA","111975","117983","113983","195861","2291","100126","91849","196371","NA","195857","196371","195805","117983","198362","110112","195305","2248","184451","Lexical Decision Task","37","38778","44","yes","1024"
"3.347850856","10.51","2","rich","word","84.44444444444444","84.44444444444444","874.4666666666667","874.4666666666667","black","no","legacy","legacy","legacy","0","uniform","1","undefined","undefined","undefined","1","j","0","0","0","0","44","0","0","0","44","NA","40","44","40","0","40","3","44","0","44","Thu Feb 18 19:18:54 2021","The main experiment item","yes","Lexical_Decision_Task.osexp","/Users/ola","no","Andale Mono","no","18","no","white","no","yes","576","legacy","40","40","3","/Users/ola/subject-5209261.csv","legacy","Lentiform Loewenfeld","3.3.7","yes","yes","600bd7cfb6416f0113b04181","602110864497cf011d9c0822","0","j","NA","space","space","space","NA","j","573","NA","3999","89543","8264","NA","573","2","legacy","1024","2","48000","-16","task","5209261","odd","NA","111975","117983","113983","198909","2291","100126","91849","199417","NA","198906","199417","198866","117983","199991","110112","198366","2248","184451","Lexical Decision Task","38","39351","45","yes","1024"
"3.20996159","0","4","clee","non-word","84.78260869565217","84.78260869565217","870.3695652173913","870.3695652173913","black","no","legacy","legacy","legacy","0","uniform","1","undefined","undefined","undefined","1","f","0","0","0","0","45","0","0","0","45","NA","41","45","41","0","41","3","45","0","45","Thu Feb 18 19:18:54 2021","The main experiment item","yes","Lexical_Decision_Task.osexp","/Users/ola","no","Andale Mono","no","18","no","white","no","yes","576","legacy","41","41","3","/Users/ola/subject-5209261.csv","legacy","Lentiform Loewenfeld","3.3.7","yes","yes","600bd7cfb6416f0113b04181","602110864497cf011d9c0822","0","f","NA","space","space","space","NA","f","686","NA","3999","89543","8264","NA","686","2","legacy","1024","2","48000","-16","task","5209261","odd","NA","111975","117983","113983","200550","2291","100126","91849","201057","NA","200545","201057","200495","117983","201744","110112","199995","2248","184451","Lexical Decision Task","39","40037","46","yes","1024"
"3.039414119","0","9","meep","non-word","85.1063829787234","85.1063829787234","867.1489361702128","867.1489361702128","black","no","legacy","legacy","legacy","0","uniform","1","undefined","undefined","undefined","1","f","0","0","0","0","46","0","0","0","46","NA","42","46","42","0","42","3","46","0","46","Thu Feb 18 19:18:54 2021","The main experiment item","yes","Lexical_Decision_Task.osexp","/Users/ola","no","Andale Mono","no","18","no","white","no","yes","576","legacy","42","42","3","/Users/ola/subject-5209261.csv","legacy","Lentiform Loewenfeld","3.3.7","yes","yes","600bd7cfb6416f0113b04181","602110864497cf011d9c0822","0","f","NA","space","space","space","NA","f","719","NA","3999","89543","8264","NA","719","2","legacy","1024","2","48000","-16","task","5209261","odd","NA","111975","117983","113983","202292","2291","100126","91849","202800","NA","202289","202800","202248","117983","203520","110112","201748","2248","184451","Lexical Decision Task","40","40756","47","yes","1024"
"3.218535505","7.85","7","goat","word","85.41666666666667","85.41666666666667","865.875","865.875","black","no","legacy","legacy","legacy","0","uniform","1","undefined","undefined","undefined","1","j","0","0","0","0","47","0","0","0","47","NA","43","47","43","0","43","3","47","0","47","Thu Feb 18 19:18:54 2021","The main experiment item","yes","Lexical_Decision_Task.osexp","/Users/ola","no","Andale Mono","no","18","no","white","no","yes","576","legacy","43","43","3","/Users/ola/subject-5209261.csv","legacy","Lentiform Loewenfeld","3.3.7","yes","yes","600bd7cfb6416f0113b04181","602110864497cf011d9c0822","0","j","NA","space","space","space","NA","j","806","NA","3999","89543","8264","NA","806","2","legacy","1024","2","48000","-16","task","5209261","odd","NA","111975","117983","113983","204078","2291","100126","91849","204586","NA","204074","204586","204024","117983","205393","110112","203524","2248","184451","Lexical Decision Task","41","41562","48","yes","1024"
"3.094121596","0","8","fode","non-word","83.6734693877551","83.6734693877551","863.265306122449","863.265306122449","black","no","legacy","legacy","legacy","0","uniform","0","undefined","undefined","undefined","0","f","0","0","0","0","48","0","0","0","48","NA","44","48","44","0","44","3","48","0","48","Thu Feb 18 19:18:54 2021","The main experiment item","yes","Lexical_Decision_Task.osexp","/Users/ola","no","Andale Mono","no","18","no","white","no","yes","576","legacy","44","44","3","/Users/ola/subject-5209261.csv","legacy","Lentiform Loewenfeld","3.3.7","yes","yes","600bd7cfb6416f0113b04181","602110864497cf011d9c0822","0","j","NA","space","space","space","NA","j","738","NA","3999","89543","8264","NA","738","2","legacy","1024","2","48000","-16","task","5209261","odd","NA","111975","117983","113983","205957","2291","100126","91849","206464","NA","205952","206464","205896","117983","207203","110112","205396","2248","184451","Lexical Decision Task","41","42300","49","yes","1024"
"3.303771854","0","9","dath","non-word","84","84","865.58","865.58","black","no","legacy","legacy","legacy","0","uniform","1","undefined","undefined","undefined","1","f","0","0","0","0","49","0","0","0","49","NA","45","49","45","0","45","3","49","0","49","Thu Feb 18 19:18:54 2021","The main experiment item","yes","Lexical_Decision_Task.osexp","/Users/ola","no","Andale Mono","no","18","no","white","no","yes","576","legacy","45","45","3","/Users/ola/subject-5209261.csv","legacy","Lentiform Loewenfeld","3.3.7","yes","yes","600bd7cfb6416f0113b04181","602110864497cf011d9c0822","0","f","NA","space","space","space","NA","f","979","NA","3999","89543","8264","NA","979","2","legacy","1024","2","48000","-16","task","5209261","odd","NA","111975","117983","113983","208766","2291","100126","91849","209273","NA","208762","209273","208707","117983","210253","110112","205396","2248","207207","Lexical Decision Task","42","43279","50","yes","1024"
"3.363486562","6.93","9","lush","word","84.31372549019608","84.31372549019608","861.2352941176471","861.2352941176471","black","no","legacy","legacy","legacy","0","uniform","1","undefined","undefined","undefined","1","j","0","0","0","0","50","0","0","0","50","NA","46","50","46","0","46","3","50","0","50","Thu Feb 18 19:18:54 2021","The main experiment item","yes","Lexical_Decision_Task.osexp","/Users/ola","no","Andale Mono","no","18","no","white","no","yes","576","legacy","46","46","3","/Users/ola/subject-5209261.csv","legacy","Lentiform Loewenfeld","3.3.7","yes","yes","600bd7cfb6416f0113b04181","602110864497cf011d9c0822","0","j","NA","space","space","space","NA","j","644","NA","3999","89543","8264","NA","644","2","legacy","1024","2","48000","-16","task","5209261","odd","NA","111975","117983","113983","210811","2291","100126","91849","211319","NA","210807","211319","210757","117983","211963","110112","210257","2248","207207","Lexical Decision Task","43","43923","51","yes","1024"
"2.812467698","0","7","hafe","non-word","84.61538461538461","84.61538461538461","863","863","black","no","legacy","legacy","legacy","0","uniform","1","undefined","undefined","undefined","1","f","0","0","0","0","51","0","0","0","51","NA","47","51","47","0","47","3","51","0","51","Thu Feb 18 19:18:54 2021","The main experiment item","yes","Lexical_Decision_Task.osexp","/Users/ola","no","Andale Mono","no","18","no","white","no","yes","576","legacy","47","47","3","/Users/ola/subject-5209261.csv","legacy","Lentiform Loewenfeld","3.3.7","yes","yes","600bd7cfb6416f0113b04181","602110864497cf011d9c0822","0","f","NA","space","space","space","NA","f","953","NA","3999","89543","8264","NA","953","2","legacy","1024","2","48000","-16","task","5209261","odd","NA","111975","117983","113983","212521","2291","100126","91849","213029","NA","212517","213029","212467","117983","213983","110112","211967","2248","207207","Lexical Decision Task","44","44876","52","yes","1024"
"2.68604012","0","3","mulb","non-word","84.90566037735849","84.90566037735849","865.7547169811321","865.7547169811321","black","no","legacy","legacy","legacy","0","uniform","1","undefined","undefined","undefined","1","f","0","0","0","0","52","0","0","0","52","NA","48","52","48","0","48","3","52","0","52","Thu Feb 18 19:18:54 2021","The main experiment item","yes","Lexical_Decision_Task.osexp","/Users/ola","no","Andale Mono","no","18","no","white","no","yes","576","legacy","48","48","3","/Users/ola/subject-5209261.csv","legacy","Lentiform Loewenfeld","3.3.7","yes","yes","600bd7cfb6416f0113b04181","602110864497cf011d9c0822","0","f","NA","space","space","space","NA","f","1009","NA","3999","89543","8264","NA","1009","2","legacy","1024","2","48000","-16","task","5209261","odd","NA","111975","117983","113983","214542","2291","100126","91849","215050","NA","214538","215050","214487","117983","216060","110112","213987","2248","207207","Lexical Decision Task","45","45885","53","yes","1024"
"2.814027728","8.2","4","foam","word","85.18518518518519","85.18518518518519","868.9629629629629","868.9629629629629","black","no","legacy","legacy","legacy","0","uniform","1","undefined","undefined","undefined","1","j","0","0","0","0","53","0","0","0","53","NA","49","53","49","0","49","3","53","0","53","Thu Feb 18 19:18:54 2021","The main experiment item","yes","Lexical_Decision_Task.osexp","/Users/ola","no","Andale Mono","no","18","no","white","no","yes","576","legacy","49","49","3","/Users/ola/subject-5209261.csv","legacy","Lentiform Loewenfeld","3.3.7","yes","yes","600bd7cfb6416f0113b04181","602110864497cf011d9c0822","0","j","NA","space","space","space","NA","j","1039","NA","3999","89543","8264","NA","1039","2","legacy","1024","2","48000","-16","task","5209261","odd","NA","111975","117983","113983","216618","2291","100126","91849","217126","NA","216614","217126","216564","117983","218166","110112","216064","2248","207207","Lexical Decision Task","46","46924","54","yes","1024"
"2.937852093","0","7","bamp","non-word","85.45454545454545","85.45454545454545","878.3818181818182","878.3818181818182","black","no","legacy","legacy","legacy","0","uniform","1","undefined","undefined","undefined","1","f","0","0","0","0","54","0","0","0","54","0","50","54","50","0","50","3","54","0","54","Thu Feb 18 19:18:54 2021","The main experiment item","yes","Lexical_Decision_Task.osexp","/Users/ola","no","Andale Mono","no","18","no","white","no","yes","576","legacy","50","50","3","/Users/ola/subject-5209261.csv","legacy","Lentiform Loewenfeld","3.3.7","yes","yes","600bd7cfb6416f0113b04181","602110864497cf011d9c0822","0","f","NA","space","space","space","space","f","1387","NA","3999","89543","8264","77859","1387","2","legacy","1024","2","48000","-16","task","5209261","odd","NA","111975","117983","113983","296601","2291","100126","91849","297113","218710","296598","297113","218669","117983","298501","110112","218169","2248","207207","Lexical Decision Task","47","48311","55","yes","1024"
"2.778633532","0","3","jurp","non-word","85.71428571428571","85.71428571428571","876.4285714285714","876.4285714285714","black","no","legacy","legacy","legacy","0","uniform","1","undefined","undefined","undefined","1","f","0","0","0","0","55","0","0","0","55","0","51","55","51","0","51","3","55","0","55","Thu Feb 18 19:18:54 2021","The main experiment item","yes","Lexical_Decision_Task.osexp","/Users/ola","no","Andale Mono","no","18","no","white","no","yes","576","legacy","51","51","3","/Users/ola/subject-5209261.csv","legacy","Lentiform Loewenfeld","3.3.7","yes","yes","600bd7cfb6416f0113b04181","602110864497cf011d9c0822","0","f","NA","space","space","space","space","f","769","NA","3999","89543","8264","77859","769","2","legacy","1024","2","48000","-16","task","5209261","odd","NA","111975","117983","113983","299056","2291","100126","91849","299562","218710","299052","299562","299005","117983","300332","110112","298505","2248","207207","Lexical Decision Task","48","49080","56","yes","1024"
"2.875447132","0","9","jelt","non-word","85.96491228070175","85.96491228070175","873.6315789473684","873.6315789473684","black","no","legacy","legacy","legacy","0","uniform","1","undefined","undefined","undefined","1","f","0","0","0","0","56","0","0","0","56","0","52","56","52","0","52","3","56","0","56","Thu Feb 18 19:18:54 2021","The main experiment item","yes","Lexical_Decision_Task.osexp","/Users/ola","no","Andale Mono","no","18","no","white","no","yes","576","legacy","52","52","3","/Users/ola/subject-5209261.csv","legacy","Lentiform Loewenfeld","3.3.7","yes","yes","600bd7cfb6416f0113b04181","602110864497cf011d9c0822","0","f","NA","space","space","space","space","f","717","NA","3999","89543","8264","77859","717","2","legacy","1024","2","48000","-16","task","5209261","odd","NA","111975","117983","113983","300893","2291","100126","91849","301400","218710","300888","301400","300835","117983","302118","110112","300335","2248","207207","Lexical Decision Task","49","49797","57","yes","1024"
"3.137775856","7.39","5","comb","word","84.48275862068965","84.48275862068965","869.3620689655172","869.3620689655172","black","no","legacy","legacy","legacy","0","uniform","0","undefined","undefined","undefined","0","j","0","0","0","0","57","0","0","0","57","0","53","57","53","0","53","3","57","0","57","Thu Feb 18 19:18:54 2021","The main experiment item","yes","Lexical_Decision_Task.osexp","/Users/ola","no","Andale Mono","no","18","no","white","no","yes","576","legacy","53","53","3","/Users/ola/subject-5209261.csv","legacy","Lentiform Loewenfeld","3.3.7","yes","yes","600bd7cfb6416f0113b04181","602110864497cf011d9c0822","0","f","NA","space","space","space","space","f","626","NA","3999","89543","8264","77859","626","2","legacy","1024","2","48000","-16","task","5209261","odd","NA","111975","117983","113983","302677","2291","100126","91849","303185","218710","302673","303185","302622","117983","303812","110112","302122","2248","207207","Lexical Decision Task","49","50423","58","yes","1024"
"3.208978517","10.33","4","fish","word","84.7457627118644","84.7457627118644","882.3050847457627","882.3050847457627","black","no","legacy","legacy","legacy","0","uniform","1","undefined","undefined","undefined","1","j","0","0","0","0","58","0","0","0","58","0","54","58","54","0","54","3","58","0","58","Thu Feb 18 19:18:54 2021","The main experiment item","yes","Lexical_Decision_Task.osexp","/Users/ola","no","Andale Mono","no","18","no","white","no","yes","576","legacy","54","54","3","/Users/ola/subject-5209261.csv","legacy","Lentiform Loewenfeld","3.3.7","yes","yes","600bd7cfb6416f0113b04181","602110864497cf011d9c0822","0","j","NA","space","space","space","space","j","1633","NA","3999","89543","8264","77859","1633","2","legacy","1024","2","48000","-16","task","5209261","odd","NA","111975","117983","113983","305370","2291","100126","91849","305878","218710","305366","305878","305315","117983","307512","110112","302122","2248","303815","Lexical Decision Task","50","52056","59","yes","1024"
"3.121778632","0","9","sark","non-word","85","85","880.9666666666667","880.9666666666667","black","no","legacy","legacy","legacy","0","uniform","1","undefined","undefined","undefined","1","f","0","0","0","0","59","0","0","0","59","0","55","59","55","0","55","3","59","0","59","Thu Feb 18 19:18:54 2021","The main experiment item","yes","Lexical_Decision_Task.osexp","/Users/ola","no","Andale Mono","no","18","no","white","no","yes","576","legacy","55","55","3","/Users/ola/subject-5209261.csv","legacy","Lentiform Loewenfeld","3.3.7","yes","yes","600bd7cfb6416f0113b04181","602110864497cf011d9c0822","0","f","NA","space","space","space","space","f","802","NA","3999","89543","8264","77859","802","2","legacy","1024","2","48000","-16","task","5209261","odd","NA","111975","117983","113983","308069","2291","100126","91849","308576","218710","308065","308576","308015","117983","309379","110112","307515","2248","303815","Lexical Decision Task","51","52858","60","yes","1024"
"2.695770526","7.34","6","pawn","word","85.24590163934427","85.24590163934427","877.1475409836065","877.1475409836065","black","no","legacy","legacy","legacy","0","uniform","1","undefined","undefined","undefined","1","j","0","0","0","0","60","0","0","0","60","0","56","60","56","0","56","3","60","0","60","Thu Feb 18 19:18:54 2021","The main experiment item","yes","Lexical_Decision_Task.osexp","/Users/ola","no","Andale Mono","no","18","no","white","no","yes","576","legacy","56","56","3","/Users/ola/subject-5209261.csv","legacy","Lentiform Loewenfeld","3.3.7","yes","yes","600bd7cfb6416f0113b04181","602110864497cf011d9c0822","0","j","NA","space","space","space","space","j","648","NA","3999","89543","8264","77859","648","2","legacy","1024","2","48000","-16","task","5209261","odd","NA","111975","117983","113983","309940","2291","100126","91849","310447","218710","309935","310447","309883","117983","311096","110112","309383","2248","303815","Lexical Decision Task","52","53506","61","yes","1024"
"3.090140555","5.81","8","pout","word","85.48387096774194","85.48387096774194","875.3870967741935","875.3870967741935","black","no","legacy","legacy","legacy","0","uniform","1","undefined","undefined","undefined","1","j","0","0","0","0","61","0","0","0","61","0","57","61","57","0","57","3","61","0","61","Thu Feb 18 19:18:54 2021","The main experiment item","yes","Lexical_Decision_Task.osexp","/Users/ola","no","Andale Mono","no","18","no","white","no","yes","576","legacy","57","57","3","/Users/ola/subject-5209261.csv","legacy","Lentiform Loewenfeld","3.3.7","yes","yes","600bd7cfb6416f0113b04181","602110864497cf011d9c0822","0","j","NA","space","space","space","space","j","768","NA","3999","89543","8264","77859","768","2","legacy","1024","2","48000","-16","task","5209261","odd","NA","111975","117983","113983","311657","2291","100126","91849","312164","218710","311653","312164","311599","117983","312932","110112","311099","2248","303815","Lexical Decision Task","53","54274","62","yes","1024"
"3.100255637","0","6","brax","non-word","85.71428571428571","85.71428571428571","875.7777777777778","875.7777777777778","black","no","legacy","legacy","legacy","0","uniform","1","undefined","undefined","undefined","1","f","0","0","0","0","62","0","0","0","62","0","58","62","58","0","58","3","62","0","62","Thu Feb 18 19:18:54 2021","The main experiment item","yes","Lexical_Decision_Task.osexp","/Users/ola","no","Andale Mono","no","18","no","white","no","yes","576","legacy","58","58","3","/Users/ola/subject-5209261.csv","legacy","Lentiform Loewenfeld","3.3.7","yes","yes","600bd7cfb6416f0113b04181","602110864497cf011d9c0822","0","f","NA","space","space","space","space","f","900","NA","3999","89543","8264","77859","900","2","legacy","1024","2","48000","-16","task","5209261","odd","NA","111975","117983","113983","313490","2291","100126","91849","313998","218710","313486","313998","313436","117983","314899","110112","312936","2248","303815","Lexical Decision Task","54","55174","63","yes","1024"
"3.248054965","7.86","5","glow","word","85.9375","85.9375","870.375","870.375","black","no","legacy","legacy","legacy","0","uniform","1","undefined","undefined","undefined","1","j","0","0","0","0","63","0","0","0","63","0","59","63","59","0","59","3","63","0","63","Thu Feb 18 19:18:54 2021","The main experiment item","yes","Lexical_Decision_Task.osexp","/Users/ola","no","Andale Mono","no","18","no","white","no","yes","576","legacy","59","59","3","/Users/ola/subject-5209261.csv","legacy","Lentiform Loewenfeld","3.3.7","yes","yes","600bd7cfb6416f0113b04181","602110864497cf011d9c0822","0","j","NA","space","space","space","space","j","530","NA","3999","89543","8264","77859","530","2","legacy","1024","2","48000","-16","task","5209261","odd","NA","111975","117983","113983","315451","2291","100126","91849","315959","218710","315447","315959","315403","117983","316490","110112","314903","2248","303815","Lexical Decision Task","55","55704","64","yes","1024"
"3.068433376","8.09","2","bulb","word","86.15384615384616","86.15384615384616","865.3230769230769","865.3230769230769","black","no","legacy","legacy","legacy","0","uniform","1","undefined","undefined","undefined","1","j","0","0","0","0","64","0","0","0","64","0","60","64","60","0","60","3","64","0","64","Thu Feb 18 19:18:54 2021","The main experiment item","yes","Lexical_Decision_Task.osexp","/Users/ola","no","Andale Mono","no","18","no","white","no","yes","576","legacy","60","60","3","/Users/ola/subject-5209261.csv","legacy","Lentiform Loewenfeld","3.3.7","yes","yes","600bd7cfb6416f0113b04181","602110864497cf011d9c0822","0","j","NA","space","space","space","space","j","542","NA","3999","89543","8264","77859","542","2","legacy","1024","2","48000","-16","task","5209261","odd","NA","111975","117983","113983","317049","2291","100126","91849","317559","218710","317045","317559","316994","117983","318102","110112","316494","2248","303815","Lexical Decision Task","56","56246","65","yes","1024"
"3.165936429","0","7","leps","non-word","84.84848484848484","84.84848484848484","867.4242424242424","867.4242424242424","black","no","legacy","legacy","legacy","0","uniform","0","undefined","undefined","undefined","0","f","0","0","0","0","65","0","0","0","65","0","61","65","61","0","61","3","65","0","65","Thu Feb 18 19:18:54 2021","The main experiment item","yes","Lexical_Decision_Task.osexp","/Users/ola","no","Andale Mono","no","18","no","white","no","yes","576","legacy","61","61","3","/Users/ola/subject-5209261.csv","legacy","Lentiform Loewenfeld","3.3.7","yes","yes","600bd7cfb6416f0113b04181","602110864497cf011d9c0822","0","j","NA","space","space","space","space","j","1004","NA","3999","89543","8264","77859","1004","2","legacy","1024","2","48000","-16","task","5209261","odd","NA","111975","117983","113983","318666","2291","100126","91849","319174","218710","318661","319174","318606","117983","320179","110112","318106","2248","303815","Lexical Decision Task","56","57250","66","yes","1024"
"2.892836167","10.01","5","soft","word","85.07462686567165","85.07462686567165","863.1343283582089","863.1343283582089","black","no","legacy","legacy","legacy","0","uniform","1","undefined","undefined","undefined","1","j","0","0","0","0","66","0","0","0","66","0","62","66","62","0","62","3","66","0","66","Thu Feb 18 19:18:54 2021","The main experiment item","yes","Lexical_Decision_Task.osexp","/Users/ola","no","Andale Mono","no","18","no","white","no","yes","576","legacy","62","62","3","/Users/ola/subject-5209261.csv","legacy","Lentiform Loewenfeld","3.3.7","yes","yes","600bd7cfb6416f0113b04181","602110864497cf011d9c0822","0","j","NA","space","space","space","space","j","580","NA","3999","89543","8264","77859","580","2","legacy","1024","2","48000","-16","task","5209261","odd","NA","111975","117983","113983","321746","2291","100126","91849","322254","218710","321739","322254","321683","117983","322835","110112","318106","2248","320183","Lexical Decision Task","57","57830","67","yes","1024"
"3.064581521","5.51","6","cask","word","83.82352941176471","83.82352941176471","866.6617647058823","866.6617647058823","black","no","legacy","legacy","legacy","0","uniform","0","undefined","undefined","undefined","0","j","0","0","0","0","67","0","0","0","67","0","63","67","63","0","63","3","67","0","67","Thu Feb 18 19:18:54 2021","The main experiment item","yes","Lexical_Decision_Task.osexp","/Users/ola","no","Andale Mono","no","18","no","white","no","yes","576","legacy","63","63","3","/Users/ola/subject-5209261.csv","legacy","Lentiform Loewenfeld","3.3.7","yes","yes","600bd7cfb6416f0113b04181","602110864497cf011d9c0822","0","f","NA","space","space","space","space","f","1103","NA","3999","89543","8264","77859","1103","2","legacy","1024","2","48000","-16","task","5209261","odd","NA","111975","117983","113983","323393","2291","100126","91849","323900","218710","323389","323901","323338","117983","325005","110112","322838","2248","320183","Lexical Decision Task","57","58933","68","yes","1024"
"3.14849993","10.75","7","hour","word","84.05797101449275","84.05797101449275","862.0869565217391","862.0869565217391","black","no","legacy","legacy","legacy","0","uniform","1","undefined","undefined","undefined","1","j","0","0","0","0","68","0","0","0","68","0","64","68","64","0","64","3","68","0","68","Thu Feb 18 19:18:54 2021","The main experiment item","yes","Lexical_Decision_Task.osexp","/Users/ola","no","Andale Mono","no","18","no","white","no","yes","576","legacy","64","64","3","/Users/ola/subject-5209261.csv","legacy","Lentiform Loewenfeld","3.3.7","yes","yes","600bd7cfb6416f0113b04181","602110864497cf011d9c0822","0","j","NA","space","space","space","space","j","551","NA","3999","89543","8264","77859","551","2","legacy","1024","2","48000","-16","task","5209261","odd","NA","111975","117983","113983","326571","2291","100126","91849","327079","218710","326566","327079","326508","117983","327630","110112","322838","2248","325008","Lexical Decision Task","58","59484","69","yes","1024"
"3.368162872","0","4","ferk","non-word","84.28571428571429","84.28571428571429","860.3428571428572","860.3428571428572","black","no","legacy","legacy","legacy","0","uniform","1","undefined","undefined","undefined","1","f","0","0","0","0","69","0","0","0","69","0","65","69","65","0","65","3","69","0","69","Thu Feb 18 19:18:54 2021","The main experiment item","yes","Lexical_Decision_Task.osexp","/Users/ola","no","Andale Mono","no","18","no","white","no","yes","576","legacy","65","65","3","/Users/ola/subject-5209261.csv","legacy","Lentiform Loewenfeld","3.3.7","yes","yes","600bd7cfb6416f0113b04181","602110864497cf011d9c0822","0","f","NA","space","space","space","space","f","740","NA","3999","89543","8264","77859","740","2","legacy","1024","2","48000","-16","task","5209261","odd","NA","111975","117983","113983","328191","2291","100126","91849","328699","218710","328187","328699","328134","117983","329439","110112","327634","2248","325008","Lexical Decision Task","59","60224","70","yes","1024"
"2.8162413","0","5","nusk","non-word","84.50704225352112","84.50704225352112","859.169014084507","859.169014084507","black","no","legacy","legacy","legacy","0","uniform","1","undefined","undefined","undefined","1","f","0","0","0","0","70","0","0","0","70","0","66","70","66","0","66","3","70","0","70","Thu Feb 18 19:18:54 2021","The main experiment item","yes","Lexical_Decision_Task.osexp","/Users/ola","no","Andale Mono","no","18","no","white","no","yes","576","legacy","66","66","3","/Users/ola/subject-5209261.csv","legacy","Lentiform Loewenfeld","3.3.7","yes","yes","600bd7cfb6416f0113b04181","602110864497cf011d9c0822","0","f","NA","space","space","space","space","f","777","NA","3999","89543","8264","77859","777","2","legacy","1024","2","48000","-16","task","5209261","odd","NA","111975","117983","113983","329998","2291","100126","91849","330506","218710","329994","330506","329943","117983","331283","110112","329443","2248","325008","Lexical Decision Task","60","61001","71","yes","1024"
"3.067193647","6.73","6","raft","word","84.72222222222223","84.72222222222223","855.75","855.75","black","no","legacy","legacy","legacy","0","uniform","1","undefined","undefined","undefined","1","j","0","0","0","0","71","0","0","0","71","0","67","71","67","0","67","3","71","0","71","Thu Feb 18 19:18:54 2021","The main experiment item","yes","Lexical_Decision_Task.osexp","/Users/ola","no","Andale Mono","no","18","no","white","no","yes","576","legacy","67","67","3","/Users/ola/subject-5209261.csv","legacy","Lentiform Loewenfeld","3.3.7","yes","yes","600bd7cfb6416f0113b04181","602110864497cf011d9c0822","0","j","NA","space","space","space","space","j","613","NA","3999","89543","8264","77859","613","2","legacy","1024","2","48000","-16","task","5209261","odd","NA","111975","117983","113983","331841","2291","100126","91849","332348","218710","331837","332348","331787","117983","332962","110112","331287","2248","325008","Lexical Decision Task","61","61614","72","yes","1024"
"3.102203805","7.21","3","drip","word","84.93150684931507","84.93150684931507","852.6164383561644","852.6164383561644","black","no","legacy","legacy","legacy","0","uniform","1","undefined","undefined","undefined","1","j","0","0","0","0","72","0","0","0","72","0","68","72","68","0","68","3","72","0","72","Thu Feb 18 19:18:54 2021","The main experiment item","yes","Lexical_Decision_Task.osexp","/Users/ola","no","Andale Mono","no","18","no","white","no","yes","576","legacy","68","68","3","/Users/ola/subject-5209261.csv","legacy","Lentiform Loewenfeld","3.3.7","yes","yes","600bd7cfb6416f0113b04181","602110864497cf011d9c0822","0","j","NA","space","space","space","space","j","627","NA","3999","89543","8264","77859","627","2","legacy","1024","2","48000","-16","task","5209261","odd","NA","111975","117983","113983","333519","2291","100126","91849","334027","218710","333514","334027","333465","117983","334654","110112","332965","2248","325008","Lexical Decision Task","62","62241","73","yes","1024"
"2.972819734","0","4","scew","non-word","83.78378378378379","83.78378378378379","849.0135135135135","849.0135135135135","black","no","legacy","legacy","legacy","0","uniform","0","undefined","undefined","undefined","0","f","0","0","0","0","73","0","0","0","73","0","69","73","69","0","69","3","73","0","73","Thu Feb 18 19:18:54 2021","The main experiment item","yes","Lexical_Decision_Task.osexp","/Users/ola","no","Andale Mono","no","18","no","white","no","yes","576","legacy","69","69","3","/Users/ola/subject-5209261.csv","legacy","Lentiform Loewenfeld","3.3.7","yes","yes","600bd7cfb6416f0113b04181","602110864497cf011d9c0822","0","j","NA","space","space","space","space","j","586","NA","3999","89543","8264","77859","586","2","legacy","1024","2","48000","-16","task","5209261","odd","NA","111975","117983","113983","335203","2291","100126","91849","335711","218710","335200","335712","335158","117983","336299","110112","334658","2248","325008","Lexical Decision Task","62","62827","74","yes","1024"
"3.276537627","9.15","5","trap","word","84","84","845.6266666666667","845.6266666666667","black","no","legacy","legacy","legacy","0","uniform","1","undefined","undefined","undefined","1","j","0","0","0","0","74","0","0","0","74","0","70","74","70","0","70","3","74","0","74","Thu Feb 18 19:18:54 2021","The main experiment item","yes","Lexical_Decision_Task.osexp","/Users/ola","no","Andale Mono","no","18","no","white","no","yes","576","legacy","70","70","3","/Users/ola/subject-5209261.csv","legacy","Lentiform Loewenfeld","3.3.7","yes","yes","600bd7cfb6416f0113b04181","602110864497cf011d9c0822","0","j","NA","space","space","space","space","j","595","NA","3999","89543","8264","77859","595","2","legacy","1024","2","48000","-16","task","5209261","odd","NA","111975","117983","113983","337863","2291","100126","91849","338372","218710","337859","338372","337802","117983","338968","110112","334658","2248","336302","Lexical Decision Task","63","63422","75","yes","1024"
"2.838639236","0","4","furg","non-word","84.21052631578948","84.21052631578948","845.6578947368421","845.6578947368421","black","no","legacy","legacy","legacy","0","uniform","1","undefined","undefined","undefined","1","f","0","0","0","0","75","0","0","0","75","0","71","75","71","0","71","3","75","0","75","Thu Feb 18 19:18:54 2021","The main experiment item","yes","Lexical_Decision_Task.osexp","/Users/ola","no","Andale Mono","no","18","no","white","no","yes","576","legacy","71","71","3","/Users/ola/subject-5209261.csv","legacy","Lentiform Loewenfeld","3.3.7","yes","yes","600bd7cfb6416f0113b04181","602110864497cf011d9c0822","0","f","NA","space","space","space","space","f","848","NA","3999","89543","8264","77859","848","2","legacy","1024","2","48000","-16","task","5209261","odd","NA","111975","117983","113983","339526","2291","100126","91849","340033","218710","339521","340033","339471","117983","340882","110112","338971","2248","336302","Lexical Decision Task","64","64270","76","yes","1024"
"3.378276681","6.39","8","bran","word","83.11688311688312","83.11688311688312","845.7662337662338","845.7662337662338","black","no","legacy","legacy","legacy","0","uniform","0","undefined","undefined","undefined","0","j","0","0","0","0","76","0","0","0","76","0","72","76","72","0","72","3","76","0","76","Thu Feb 18 19:18:54 2021","The main experiment item","yes","Lexical_Decision_Task.osexp","/Users/ola","no","Andale Mono","no","18","no","white","no","yes","576","legacy","72","72","3","/Users/ola/subject-5209261.csv","legacy","Lentiform Loewenfeld","3.3.7","yes","yes","600bd7cfb6416f0113b04181","602110864497cf011d9c0822","0","f","NA","space","space","space","space","f","854","NA","3999","89543","8264","77859","854","2","legacy","1024","2","48000","-16","task","5209261","odd","NA","111975","117983","113983","341440","2291","100126","91849","341948","218710","341436","341948","341385","117983","342803","110112","340885","2248","336302","Lexical Decision Task","64","65124","77","yes","1024"
"2.746890964","9.67","3","plug","word","83.33333333333333","83.33333333333333","841.9230769230769","841.9230769230769","black","no","legacy","legacy","legacy","0","uniform","1","undefined","undefined","undefined","1","j","0","0","0","0","77","0","0","0","77","0","73","77","73","0","73","3","77","0","77","Thu Feb 18 19:18:54 2021","The main experiment item","yes","Lexical_Decision_Task.osexp","/Users/ola","no","Andale Mono","no","18","no","white","no","yes","576","legacy","73","73","3","/Users/ola/subject-5209261.csv","legacy","Lentiform Loewenfeld","3.3.7","yes","yes","600bd7cfb6416f0113b04181","602110864497cf011d9c0822","0","j","NA","space","space","space","space","j","546","NA","3999","89543","8264","77859","546","2","legacy","1024","2","48000","-16","task","5209261","odd","NA","111975","117983","113983","344366","2291","100126","91849","344873","218710","344362","344873","344306","117983","345420","110112","340885","2248","342806","Lexical Decision Task","65","65670","78","yes","1024"
"3.440331212","7.35","6","stew","word","83.54430379746836","83.54430379746836","839.5316455696203","839.5316455696203","black","no","legacy","legacy","legacy","0","uniform","1","undefined","undefined","undefined","1","j","0","0","0","0","78","0","0","0","78","0","74","78","74","0","74","3","78","0","78","Thu Feb 18 19:18:54 2021","The main experiment item","yes","Lexical_Decision_Task.osexp","/Users/ola","no","Andale Mono","no","18","no","white","no","yes","576","legacy","74","74","3","/Users/ola/subject-5209261.csv","legacy","Lentiform Loewenfeld","3.3.7","yes","yes","600bd7cfb6416f0113b04181","602110864497cf011d9c0822","0","j","NA","space","space","space","space","j","653","NA","3999","89543","8264","77859","653","2","legacy","1024","2","48000","-16","task","5209261","odd","NA","111975","117983","113983","345976","2291","100126","91849","346483","218710","345972","346483","345923","117983","347137","110112","345423","2248","342806","Lexical Decision Task","66","66323","79","yes","1024"
"2.708989954","9.28","9","bowl","word","83.75","83.75","835.6125","835.6125","black","no","legacy","legacy","legacy","0","uniform","1","undefined","undefined","undefined","1","j","0","0","0","0","79","0","0","0","79","0","75","79","75","0","75","3","79","0","79","Thu Feb 18 19:18:54 2021","The main experiment item","yes","Lexical_Decision_Task.osexp","/Users/ola","no","Andale Mono","no","18","no","white","no","yes","576","legacy","75","75","3","/Users/ola/subject-5209261.csv","legacy","Lentiform Loewenfeld","3.3.7","yes","yes","600bd7cfb6416f0113b04181","602110864497cf011d9c0822","0","j","NA","space","space","space","space","j","526","NA","3999","89543","8264","77859","526","2","legacy","1024","2","48000","-16","task","5209261","odd","NA","111975","117983","113983","347697","2291","100126","91849","348204","218710","347692","348204","347640","117983","348731","110112","347140","2248","342806","Lexical Decision Task","67","66849","80","yes","1024"
"3.443783828","7.65","3","verb","word","83.95061728395062","83.95061728395062","831.7283950617284","831.7283950617284","black","no","legacy","legacy","legacy","0","uniform","1","undefined","undefined","undefined","1","j","0","0","0","0","80","0","0","0","80","0","76","80","76","0","76","3","80","0","80","Thu Feb 18 19:18:54 2021","The main experiment item","yes","Lexical_Decision_Task.osexp","/Users/ola","no","Andale Mono","no","18","no","white","no","yes","576","legacy","76","76","3","/Users/ola/subject-5209261.csv","legacy","Lentiform Loewenfeld","3.3.7","yes","yes","600bd7cfb6416f0113b04181","602110864497cf011d9c0822","0","j","NA","space","space","space","space","j","521","NA","3999","89543","8264","77859","521","2","legacy","1024","2","48000","-16","task","5209261","odd","NA","111975","117983","113983","349291","2291","100126","91849","349799","218710","349287","349799","349234","117983","350321","110112","348734","2248","342806","Lexical Decision Task","68","67370","81","yes","1024"
"3.474361976","5.24","6","veer","word","82.92682926829268","82.92682926829268","830.9878048780488","830.9878048780488","black","no","legacy","legacy","legacy","0","uniform","0","undefined","undefined","undefined","0","j","0","0","0","0","81","0","0","0","81","0","77","81","77","0","77","3","81","0","81","Thu Feb 18 19:18:54 2021","The main experiment item","yes","Lexical_Decision_Task.osexp","/Users/ola","no","Andale Mono","no","18","no","white","no","yes","576","legacy","77","77","3","/Users/ola/subject-5209261.csv","legacy","Lentiform Loewenfeld","3.3.7","yes","yes","600bd7cfb6416f0113b04181","602110864497cf011d9c0822","0","f","NA","space","space","space","space","f","771","NA","3999","89543","8264","77859","771","2","legacy","1024","2","48000","-16","task","5209261","odd","NA","111975","117983","113983","350879","2291","100126","91849","351386","218710","350875","351386","350825","117983","352158","110112","350325","2248","342806","Lexical Decision Task","68","68141","82","yes","1024"
"2.897810299","0","5","glur","non-word","81.92771084337349","81.92771084337349","834.1325301204819","834.1325301204819","black","no","legacy","legacy","legacy","0","uniform","0","undefined","undefined","undefined","0","f","0","0","0","0","82","0","0","0","82","0","78","82","78","0","78","3","82","0","82","Thu Feb 18 19:18:54 2021","The main experiment item","yes","Lexical_Decision_Task.osexp","/Users/ola","no","Andale Mono","no","18","no","white","no","yes","576","legacy","78","78","3","/Users/ola/subject-5209261.csv","legacy","Lentiform Loewenfeld","3.3.7","yes","yes","600bd7cfb6416f0113b04181","602110864497cf011d9c0822","0","j","NA","space","space","space","space","j","1092","NA","3999","89543","8264","77859","1092","2","legacy","1024","2","48000","-16","task","5209261","odd","NA","111975","117983","113983","353722","2291","100126","91849","354231","218710","353717","354232","353661","117983","355325","110112","350325","2248","352161","Lexical Decision Task","68","69233","83","yes","1024"
"3.010582609","0","2","drod","non-word","82.14285714285714","82.14285714285714","832.4285714285714","832.4285714285714","black","no","legacy","legacy","legacy","0","uniform","1","undefined","undefined","undefined","1","f","0","0","0","0","83","0","0","0","83","0","79","83","79","0","79","3","83","0","83","Thu Feb 18 19:18:54 2021","The main experiment item","yes","Lexical_Decision_Task.osexp","/Users/ola","no","Andale Mono","no","18","no","white","no","yes","576","legacy","79","79","3","/Users/ola/subject-5209261.csv","legacy","Lentiform Loewenfeld","3.3.7","yes","yes","600bd7cfb6416f0113b04181","602110864497cf011d9c0822","0","f","NA","space","space","space","space","f","691","NA","3999","89543","8264","77859","691","2","legacy","1024","2","48000","-16","task","5209261","odd","NA","111975","117983","113983","356894","2291","100126","91849","357402","218710","356889","357402","356829","117983","358094","110112","350325","2248","355329","Lexical Decision Task","69","69924","84","yes","1024"
"3.134602053","0","8","jart","non-word","82.3529411764706","82.3529411764706","831.0823529411765","831.0823529411765","black","no","legacy","legacy","legacy","0","uniform","1","undefined","undefined","undefined","1","f","0","0","0","0","84","0","0","0","84","0","80","84","80","0","80","3","84","0","84","Thu Feb 18 19:18:54 2021","The main experiment item","yes","Lexical_Decision_Task.osexp","/Users/ola","no","Andale Mono","no","18","no","white","no","yes","576","legacy","80","80","3","/Users/ola/subject-5209261.csv","legacy","Lentiform Loewenfeld","3.3.7","yes","yes","600bd7cfb6416f0113b04181","602110864497cf011d9c0822","0","f","NA","space","space","space","space","f","718","NA","3999","89543","8264","77859","718","2","legacy","1024","2","48000","-16","task","5209261","odd","NA","111975","117983","113983","358652","2291","100126","91849","359159","218710","358647","359160","358597","117983","359879","110112","358097","2248","355329","Lexical Decision Task","70","70642","85","yes","1024"
"2.7084209","0","8","vump","non-word","82.55813953488372","82.55813953488372","833.6860465116279","833.6860465116279","black","no","legacy","legacy","legacy","0","uniform","1","undefined","undefined","undefined","1","f","0","0","0","0","85","0","0","0","85","0","81","85","81","0","81","3","85","0","85","Thu Feb 18 19:18:54 2021","The main experiment item","yes","Lexical_Decision_Task.osexp","/Users/ola","no","Andale Mono","no","18","no","white","no","yes","576","legacy","81","81","3","/Users/ola/subject-5209261.csv","legacy","Lentiform Loewenfeld","3.3.7","yes","yes","600bd7cfb6416f0113b04181","602110864497cf011d9c0822","0","f","NA","space","space","space","space","f","1055","NA","3999","89543","8264","77859","1055","2","legacy","1024","2","48000","-16","task","5209261","odd","NA","111975","117983","113983","360438","2291","100126","91849","360945","218710","360433","360946","360383","117983","362002","110112","359883","2248","355329","Lexical Decision Task","71","71697","86","yes","1024"
"2.664011697","8.19","4","hawk","word","82.75862068965517","82.75862068965517","830.9080459770115","830.9080459770115","black","no","legacy","legacy","legacy","0","uniform","1","undefined","undefined","undefined","1","j","0","0","0","0","86","0","0","0","86","0","82","86","82","0","82","3","86","0","86","Thu Feb 18 19:18:54 2021","The main experiment item","yes","Lexical_Decision_Task.osexp","/Users/ola","no","Andale Mono","no","18","no","white","no","yes","576","legacy","82","82","3","/Users/ola/subject-5209261.csv","legacy","Lentiform Loewenfeld","3.3.7","yes","yes","600bd7cfb6416f0113b04181","602110864497cf011d9c0822","0","j","NA","space","space","space","space","j","592","NA","3999","89543","8264","77859","592","2","legacy","1024","2","48000","-16","task","5209261","odd","NA","111975","117983","113983","362559","2291","100126","91849","363066","218710","362554","363067","362505","117983","363660","110112","362005","2248","355329","Lexical Decision Task","72","72289","87","yes","1024"
"2.86332286","6.71","2","feud","word","82.95454545454545","82.95454545454545","830.0113636363636","830.0113636363636","black","no","legacy","legacy","legacy","0","uniform","1","undefined","undefined","undefined","1","j","0","0","0","0","87","0","0","0","87","0","83","87","83","0","83","3","87","0","87","Thu Feb 18 19:18:54 2021","The main experiment item","yes","Lexical_Decision_Task.osexp","/Users/ola","no","Andale Mono","no","18","no","white","no","yes","576","legacy","83","83","3","/Users/ola/subject-5209261.csv","legacy","Lentiform Loewenfeld","3.3.7","yes","yes","600bd7cfb6416f0113b04181","602110864497cf011d9c0822","0","j","NA","space","space","space","space","j","752","NA","3999","89543","8264","77859","752","2","legacy","1024","2","48000","-16","task","5209261","odd","NA","111975","117983","113983","364220","2291","100126","91849","364726","218710","364216","364726","364164","117983","365479","110112","363663","2248","355329","Lexical Decision Task","73","73041","88","yes","1024"
"2.803231716","5.26","3","kiln","word","82.02247191011236","82.02247191011236","832.7191011235955","832.7191011235955","black","no","legacy","legacy","legacy","0","uniform","0","undefined","undefined","undefined","0","j","0","0","0","0","88","0","0","0","88","0","84","88","84","0","84","3","88","0","88","Thu Feb 18 19:18:54 2021","The main experiment item","yes","Lexical_Decision_Task.osexp","/Users/ola","no","Andale Mono","no","18","no","white","no","yes","576","legacy","84","84","3","/Users/ola/subject-5209261.csv","legacy","Lentiform Loewenfeld","3.3.7","yes","yes","600bd7cfb6416f0113b04181","602110864497cf011d9c0822","0","f","NA","space","space","space","space","f","1071","NA","3999","89543","8264","77859","1071","2","legacy","1024","2","48000","-16","task","5209261","odd","NA","111975","117983","113983","366036","2291","100126","91849","366544","218710","366032","366544","365982","117983","367616","110112","365482","2248","355329","Lexical Decision Task","73","74112","89","yes","1024"
"2.845304797","0","6","buct","non-word","82.22222222222223","82.22222222222223","831.3111111111111","831.3111111111111","black","no","legacy","legacy","legacy","0","uniform","1","undefined","undefined","undefined","1","f","0","0","0","0","89","0","0","0","89","0","85","89","85","0","85","3","89","0","89","Thu Feb 18 19:18:54 2021","The main experiment item","yes","Lexical_Decision_Task.osexp","/Users/ola","no","Andale Mono","no","18","no","white","no","yes","576","legacy","85","85","3","/Users/ola/subject-5209261.csv","legacy","Lentiform Loewenfeld","3.3.7","yes","yes","600bd7cfb6416f0113b04181","602110864497cf011d9c0822","0","f","NA","space","space","space","space","f","706","NA","3999","89543","8264","77859","706","2","legacy","1024","2","48000","-16","task","5209261","odd","NA","111975","117983","113983","369176","2291","100126","91849","369683","218710","369172","369683","369119","117983","370390","110112","365482","2248","367619","Lexical Decision Task","74","74818","90","yes","1024"
"3.261341392","5.08","8","reek","word","82.41758241758242","82.41758241758242","830.4725274725274","830.4725274725274","black","no","legacy","legacy","legacy","0","uniform","1","undefined","undefined","undefined","1","j","0","0","0","0","90","0","0","0","90","0","86","90","86","0","86","3","90","0","90","Thu Feb 18 19:18:54 2021","The main experiment item","yes","Lexical_Decision_Task.osexp","/Users/ola","no","Andale Mono","no","18","no","white","no","yes","576","legacy","86","86","3","/Users/ola/subject-5209261.csv","legacy","Lentiform Loewenfeld","3.3.7","yes","yes","600bd7cfb6416f0113b04181","602110864497cf011d9c0822","0","j","NA","space","space","space","space","j","755","NA","3999","89543","8264","77859","755","2","legacy","1024","2","48000","-16","task","5209261","odd","NA","111975","117983","113983","370945","2291","100126","91849","371453","218710","370941","371453","370894","117983","372209","110112","370394","2248","367619","Lexical Decision Task","75","75573","91","yes","1024"
"2.714888338","0","3","brug","non-word","81.52173913043478","81.52173913043478","833.945652173913","833.945652173913","black","no","legacy","legacy","legacy","0","uniform","0","undefined","undefined","undefined","0","f","0","0","0","0","91","0","0","0","91","0","87","91","87","0","87","3","91","0","91","Thu Feb 18 19:18:54 2021","The main experiment item","yes","Lexical_Decision_Task.osexp","/Users/ola","no","Andale Mono","no","18","no","white","no","yes","576","legacy","87","87","3","/Users/ola/subject-5209261.csv","legacy","Lentiform Loewenfeld","3.3.7","yes","yes","600bd7cfb6416f0113b04181","602110864497cf011d9c0822","0","j","NA","space","space","space","space","j","1150","NA","3999","89543","8264","77859","1150","2","legacy","1024","2","48000","-16","task","5209261","odd","NA","111975","117983","113983","372768","2291","100126","91849","373276","218710","372764","373277","372713","117983","374428","110112","372213","2248","367619","Lexical Decision Task","75","76723","92","yes","1024"
"2.771097306","0","9","jold","non-word","81.72043010752688","81.72043010752688","833.4408602150538","833.4408602150538","black","no","legacy","legacy","legacy","0","uniform","1","undefined","undefined","undefined","1","f","0","0","0","0","92","0","0","0","92","0","88","92","88","0","88","3","92","0","92","Thu Feb 18 19:18:54 2021","The main experiment item","yes","Lexical_Decision_Task.osexp","/Users/ola","no","Andale Mono","no","18","no","white","no","yes","576","legacy","88","88","3","/Users/ola/subject-5209261.csv","legacy","Lentiform Loewenfeld","3.3.7","yes","yes","600bd7cfb6416f0113b04181","602110864497cf011d9c0822","0","f","NA","space","space","space","space","f","787","NA","3999","89543","8264","77859","787","2","legacy","1024","2","48000","-16","task","5209261","odd","NA","111975","117983","113983","375994","2291","100126","91849","376501","218710","375989","376501","375932","117983","377289","110112","372213","2248","374432","Lexical Decision Task","76","77510","93","yes","1024"
"2.744553742","0","2","nawk","non-word","81.91489361702128","81.91489361702128","830.8723404255319","830.8723404255319","black","no","legacy","legacy","legacy","0","uniform","1","undefined","undefined","undefined","1","f","0","0","0","0","93","0","0","0","93","0","89","93","89","0","89","3","93","0","93","Thu Feb 18 19:18:54 2021","The main experiment item","yes","Lexical_Decision_Task.osexp","/Users/ola","no","Andale Mono","no","18","no","white","no","yes","576","legacy","89","89","3","/Users/ola/subject-5209261.csv","legacy","Lentiform Loewenfeld","3.3.7","yes","yes","600bd7cfb6416f0113b04181","602110864497cf011d9c0822","0","f","NA","space","space","space","space","f","592","NA","3999","89543","8264","77859","592","2","legacy","1024","2","48000","-16","task","5209261","odd","NA","111975","117983","113983","377846","2291","100126","91849","378353","218710","377842","378353","377792","117983","378945","110112","377292","2248","374432","Lexical Decision Task","77","78102","94","yes","1024"
"2.980306438","0","7","slun","non-word","81.05263157894737","81.05263157894737","836.3789473684211","836.3789473684211","black","no","legacy","legacy","legacy","0","uniform","0","undefined","undefined","undefined","0","f","0","0","0","0","94","0","0","0","94","0","90","94","90","0","90","3","94","0","94","Thu Feb 18 19:18:54 2021","The main experiment item","yes","Lexical_Decision_Task.osexp","/Users/ola","no","Andale Mono","no","18","no","white","no","yes","576","legacy","90","90","3","/Users/ola/subject-5209261.csv","legacy","Lentiform Loewenfeld","3.3.7","yes","yes","600bd7cfb6416f0113b04181","602110864497cf011d9c0822","0","j","NA","space","space","space","space","j","1354","NA","3999","89543","8264","77859","1354","2","legacy","1024","2","48000","-16","task","5209261","odd","NA","111975","117983","113983","379503","2291","100126","91849","380010","218710","379499","380010","379449","117983","381365","110112","378949","2248","374432","Lexical Decision Task","77","79456","95","yes","1024"
"2.986323777","10.85","8","ship","word","81.25","81.25","836.1666666666666","836.1666666666666","black","no","legacy","legacy","legacy","0","uniform","1","undefined","undefined","undefined","1","j","0","0","0","0","95","0","0","0","95","0","91","95","91","0","91","3","95","0","95","Thu Feb 18 19:18:54 2021","The main experiment item","yes","Lexical_Decision_Task.osexp","/Users/ola","no","Andale Mono","no","18","no","white","no","yes","576","legacy","91","91","3","/Users/ola/subject-5209261.csv","legacy","Lentiform Loewenfeld","3.3.7","yes","yes","600bd7cfb6416f0113b04181","602110864497cf011d9c0822","0","j","NA","space","space","space","space","j","816","NA","3999","89543","8264","77859","816","2","legacy","1024","2","48000","-16","task","5209261","odd","NA","111975","117983","113983","382930","2291","100126","91849","383433","218710","382925","383433","382869","117983","384250","110112","378949","2248","381369","Lexical Decision Task","78","80272","96","yes","1024"
"2.668385917","5.48","4","twig","word","81.44329896907216","81.44329896907216","834.1546391752578","834.1546391752578","black","no","legacy","legacy","legacy","0","uniform","1","undefined","undefined","undefined","1","j","0","0","0","0","96","0","0","0","96","0","92","96","92","0","92","3","96","0","96","Thu Feb 18 19:18:54 2021","The main experiment item","yes","Lexical_Decision_Task.osexp","/Users/ola","no","Andale Mono","no","18","no","white","no","yes","576","legacy","92","92","3","/Users/ola/subject-5209261.csv","legacy","Lentiform Loewenfeld","3.3.7","yes","yes","600bd7cfb6416f0113b04181","602110864497cf011d9c0822","0","j","NA","space","space","space","space","j","641","NA","3999","89543","8264","77859","641","2","legacy","1024","2","48000","-16","task","5209261","odd","NA","111975","117983","113983","384807","2291","100126","91849","385314","218710","384803","385314","384754","117983","385956","110112","384254","2248","381369","Lexical Decision Task","79","80913","97","yes","1024"
"3.132473155","0","4","glim","non-word","80.61224489795919","80.61224489795919","831.7755102040817","831.7755102040817","black","no","legacy","legacy","legacy","0","uniform","0","undefined","undefined","undefined","0","f","0","0","0","0","97","0","0","0","97","0","93","97","93","0","93","3","97","0","97","Thu Feb 18 19:18:54 2021","The main experiment item","yes","Lexical_Decision_Task.osexp","/Users/ola","no","Andale Mono","no","18","no","white","no","yes","576","legacy","93","93","3","/Users/ola/subject-5209261.csv","legacy","Lentiform Loewenfeld","3.3.7","yes","yes","600bd7cfb6416f0113b04181","602110864497cf011d9c0822","0","j","NA","space","space","space","space","j","601","NA","3999","89543","8264","77859","601","2","legacy","1024","2","48000","-16","task","5209261","odd","NA","111975","117983","113983","386514","2291","100126","91849","387022","218710","386509","387022","386460","117983","387624","110112","385960","2248","381369","Lexical Decision Task","79","81514","98","yes","1024"
"2.980911938","7.15","7","hoop","word","80.8080808080808","80.8080808080808","831.030303030303","831.030303030303","black","no","legacy","legacy","legacy","0","uniform","1","undefined","undefined","undefined","1","j","0","0","0","0","98","0","0","0","98","0","94","98","94","0","94","3","98","0","98","Thu Feb 18 19:18:54 2021","The main experiment item","yes","Lexical_Decision_Task.osexp","/Users/ola","no","Andale Mono","no","18","no","white","no","yes","576","legacy","94","94","3","/Users/ola/subject-5209261.csv","legacy","Lentiform Loewenfeld","3.3.7","yes","yes","600bd7cfb6416f0113b04181","602110864497cf011d9c0822","0","j","NA","space","space","space","space","j","758","NA","3999","89543","8264","77859","758","2","legacy","1024","2","48000","-16","task","5209261","odd","NA","111975","117983","113983","389192","2291","100126","91849","389699","218710","389188","389699","389128","117983","390458","110112","385960","2248","387628","Lexical Decision Task","80","82272","99","yes","1024"
"3.209246849","0","7","slem","non-word","81","81","833","833","black","no","legacy","legacy","legacy","0","uniform","1","undefined","undefined","undefined","1","f","0","0","0","0","99","0","0","0","99","0","95","99","95","0","95","3","99","0","99","Thu Feb 18 19:18:54 2021","The main experiment item","yes","Lexical_Decision_Task.osexp","/Users/ola","no","Andale Mono","no","18","no","white","no","yes","576","legacy","95","95","3","/Users/ola/subject-5209261.csv","legacy","Lentiform Loewenfeld","3.3.7","yes","yes","600bd7cfb6416f0113b04181","602110864497cf011d9c0822","0","f","NA","space","space","space","space","f","1028","NA","3999","89543","8264","77859","1028","2","legacy","1024","2","48000","-16","task","5209261","odd","NA","111975","117983","113983","391010","2291","100126","91849","391518","218710","391006","391518","390961","117983","392547","110112","390461","2248","387628","Lexical Decision Task","81","83300","100","yes","1024"
"2.952953801","0","8","clax","non-word","81.18811881188118","81.18811881188118","835.5346534653465","835.5346534653465","black","no","legacy","legacy","legacy","0","uniform","1","undefined","undefined","undefined","1","f","0","0","0","0","100","0","0","0","100","0","96","100","96","0","96","3","100","0","100","Thu Feb 18 19:18:54 2021","The main experiment item","yes","Lexical_Decision_Task.osexp","/Users/ola","no","Andale Mono","no","18","no","white","no","yes","576","legacy","96","96","3","/Users/ola/subject-5209261.csv","legacy","Lentiform Loewenfeld","3.3.7","yes","yes","600bd7cfb6416f0113b04181","602110864497cf011d9c0822","0","f","NA","space","space","space","space","f","1089","NA","3999","89543","8264","77859","1089","2","legacy","1024","2","48000","-16","task","5209261","odd","NA","111975","117983","113983","393106","2291","100126","91849","393614","218710","393101","393614","393051","117983","394704","110112","392551","2248","387628","Lexical Decision Task","82","84389","101","yes","1024"
"2.895974732","6.65","5","sift","word","80.3921568627451","80.3921568627451","846.4019607843137","846.4019607843137","black","no","legacy","legacy","legacy","0","uniform","0","undefined","undefined","undefined","0","j","0","0","0","0","101","0","0","0","101","0","97","101","97","0","97","3","101","0","101","Thu Feb 18 19:18:54 2021","The main experiment item","yes","Lexical_Decision_Task.osexp","/Users/ola","no","Andale Mono","no","18","no","white","no","yes","576","legacy","97","97","3","/Users/ola/subject-5209261.csv","legacy","Lentiform Loewenfeld","3.3.7","yes","yes","600bd7cfb6416f0113b04181","602110864497cf011d9c0822","0","f","NA","space","space","space","space","f","1944","NA","3999","89543","8264","77859","1944","2","legacy","1024","2","48000","-16","task","5209261","odd","NA","111975","117983","113983","395264","2291","100126","91849","395773","218710","395259","395773","395208","117983","397718","110112","394708","2248","387628","Lexical Decision Task","82","86333","102","yes","1024"
