"Log_BG","Log_Freq_HAL","Ortho_N","Stimulus","Type","acc","accuracy","average_response_time","avg_rt","background","bidi","canvas_backend","clock_backend","color_backend","compensation","coordinates","correct","correct_Experimental_intro","correct_Introduction","correct_Practice_intro","correct_experimenter_kb","correct_response","count_End_Of_Experiment","count_End_Of_Practice","count_Experimental_Loop","count_Experimental_intro","count_Fixation","count_Introduction","count_Practice_Loop","count_Practice_intro","count_Stimulus","count_block_break_feedback","count_experimental_sequence","count_experimenter_kb","count_increment_trial_count","count_init_trial_count","count_logger","count_practice_sequence","count_right","count_task","count_wrong","datetime","description","disable_garbage_collection","experiment_file","experiment_path","font_bold","font_family","font_italic","font_size","font_underline","foreground","form_clicks","fullscreen","height","keyboard_backend","live_row","live_row_Experimental_Loop","live_row_Practice_Loop","logfile","mouse_backend","opensesame_codename","opensesame_version","osf_always_upload_data","osf_always_upload_experiment","osf_datanode_id","osf_id","repeat_cycle","response","response_End_Of_Experiment","response_Experimental_intro","response_Introduction","response_Practice_intro","response_block_break_feedback","response_experimenter_kb","response_time","response_time_End_Of_Experiment","response_time_Experimental_intro","response_time_Introduction","response_time_Practice_intro","response_time_block_break_feedback","response_time_experimenter_kb","round_decimals","sampler_backend","sound_buf_size","sound_channels","sound_freq","sound_sample_size","start","subject_nr","subject_parity","time_End_Of_Experiment","time_End_Of_Practice","time_Experimental_Loop","time_Experimental_intro","time_Fixation","time_Introduction","time_Practice_Loop","time_Practice_intro","time_Stimulus","time_block_break_feedback","time_experimental_sequence","time_experimenter_kb","time_increment_trial_count","time_init_trial_count","time_logger","time_practice_sequence","time_right","time_task","time_wrong","title","total_correct","total_response_time","total_responses","uniform_coordinates","width"
"2.990042563","6.64","9","plow","word","80","80","1575.2","1575.2","black","no","legacy","legacy","legacy","0","uniform","0","undefined","undefined","undefined","0","j","0","0","0","0","4","0","0","0","4","NA","0","4","0","0","0","3","4","0","4","Wed Feb 17 13:08:00 2021","The main experiment item","yes","Lexical_Decision_Task.osexp","C:/Users/sarah/OneDrive/Documents/Psychology/Year 2/Semester 2/Cognition & Language/Assignment","no","Andale Mono","no","18","no","white","no","yes","576","legacy","0","0","3","C:/Users/sarah/OneDrive/Documents/Psychology/Year 2/Semester 2/Cognition & Language/Assignment/subject-5207178.csv","legacy","Lentiform Loewenfeld","3.3.7","yes","yes","600bd7cfb6416f0113b04181","602110864497cf011d9c0822","0","f","NA","return","return","return","NA","f","2155","NA","3563","187991","5503","NA","2155","2","legacy","1024","2","48000","-16","task","5207178","even","NA","206268","211835","208272","211870","2774","196270","190767","212371","NA","211869","212371","NA","211835","214526","204073","205740","2765","NA","Lexical Decision Task","4","7876","5","yes","1024"
"3.431095062","5.74","9","perk","word","83.33333333333333","83.33333333333333","1486.6666666666667","1486.6666666666667","black","no","legacy","legacy","legacy","0","uniform","1","undefined","undefined","undefined","1","j","0","0","0","0","5","0","0","0","5","NA","1","5","1","0","1","3","5","0","5","Wed Feb 17 13:08:00 2021","The main experiment item","yes","Lexical_Decision_Task.osexp","C:/Users/sarah/OneDrive/Documents/Psychology/Year 2/Semester 2/Cognition & Language/Assignment","no","Andale Mono","no","18","no","white","no","yes","576","legacy","1","1","3","C:/Users/sarah/OneDrive/Documents/Psychology/Year 2/Semester 2/Cognition & Language/Assignment/subject-5207178.csv","legacy","Lentiform Loewenfeld","3.3.7","yes","yes","600bd7cfb6416f0113b04181","602110864497cf011d9c0822","0","j","NA","return","return","return","NA","j","1044","NA","3563","187991","5503","NA","1044","2","legacy","1024","2","48000","-16","task","5207178","even","NA","206268","211835","208272","216102","2774","196270","190767","216605","NA","216100","216605","216039","211835","217650","204073","205740","2765","214539","Lexical Decision Task","5","8920","6","yes","1024"
"3.261341392","5.08","8","reek","word","85.71428571428571","85.71428571428571","1569.857142857143","1569.857142857143","black","no","legacy","legacy","legacy","0","uniform","1","undefined","undefined","undefined","1","j","0","0","0","0","6","0","0","0","6","NA","2","6","2","0","2","3","6","0","6","Wed Feb 17 13:08:00 2021","The main experiment item","yes","Lexical_Decision_Task.osexp","C:/Users/sarah/OneDrive/Documents/Psychology/Year 2/Semester 2/Cognition & Language/Assignment","no","Andale Mono","no","18","no","white","no","yes","576","legacy","2","2","3","C:/Users/sarah/OneDrive/Documents/Psychology/Year 2/Semester 2/Cognition & Language/Assignment/subject-5207178.csv","legacy","Lentiform Loewenfeld","3.3.7","yes","yes","600bd7cfb6416f0113b04181","602110864497cf011d9c0822","0","j","NA","return","return","return","NA","j","2069","NA","3563","187991","5503","NA","2069","2","legacy","1024","2","48000","-16","task","5207178","even","NA","206268","211835","208272","218221","2774","196270","190767","218723","NA","218220","218723","218161","211835","220792","204073","217661","2765","214539","Lexical Decision Task","6","10989","7","yes","1024"
"2.728085817","10.02","9","bike","word","87.5","87.5","1455.125","1455.125","black","no","legacy","legacy","legacy","0","uniform","1","undefined","undefined","undefined","1","j","0","0","0","0","7","0","0","0","7","NA","3","7","3","0","3","3","7","0","7","Wed Feb 17 13:08:00 2021","The main experiment item","yes","Lexical_Decision_Task.osexp","C:/Users/sarah/OneDrive/Documents/Psychology/Year 2/Semester 2/Cognition & Language/Assignment","no","Andale Mono","no","18","no","white","no","yes","576","legacy","3","3","3","C:/Users/sarah/OneDrive/Documents/Psychology/Year 2/Semester 2/Cognition & Language/Assignment/subject-5207178.csv","legacy","Lentiform Loewenfeld","3.3.7","yes","yes","600bd7cfb6416f0113b04181","602110864497cf011d9c0822","0","j","NA","return","return","return","NA","j","652","NA","3563","187991","5503","NA","652","2","legacy","1024","2","48000","-16","task","5207178","even","NA","206268","211835","208272","221351","2774","196270","190767","221854","NA","221350","221854","221300","211835","222506","204073","220800","2765","214539","Lexical Decision Task","7","11641","8","yes","1024"
"3.140404328","10.66","9","deep","word","88.88888888888889","88.88888888888889","1370.5555555555557","1370.5555555555557","black","no","legacy","legacy","legacy","0","uniform","1","undefined","undefined","undefined","1","j","0","0","0","0","8","0","0","0","8","NA","4","8","4","0","4","3","8","0","8","Wed Feb 17 13:08:00 2021","The main experiment item","yes","Lexical_Decision_Task.osexp","C:/Users/sarah/OneDrive/Documents/Psychology/Year 2/Semester 2/Cognition & Language/Assignment","no","Andale Mono","no","18","no","white","no","yes","576","legacy","4","4","3","C:/Users/sarah/OneDrive/Documents/Psychology/Year 2/Semester 2/Cognition & Language/Assignment/subject-5207178.csv","legacy","Lentiform Loewenfeld","3.3.7","yes","yes","600bd7cfb6416f0113b04181","602110864497cf011d9c0822","0","j","NA","return","return","return","NA","j","694","NA","3563","187991","5503","NA","694","2","legacy","1024","2","48000","-16","task","5207178","even","NA","206268","211835","208272","223065","2774","196270","190767","223567","NA","223064","223567","223014","211835","224261","204073","222514","2765","214539","Lexical Decision Task","8","12335","9","yes","1024"
"3.028977705","0","7","frow","non-word","90","90","1491.6","1491.6","black","no","legacy","legacy","legacy","0","uniform","1","undefined","undefined","undefined","1","f","0","0","0","0","9","0","0","0","9","NA","5","9","5","0","5","3","9","0","9","Wed Feb 17 13:08:00 2021","The main experiment item","yes","Lexical_Decision_Task.osexp","C:/Users/sarah/OneDrive/Documents/Psychology/Year 2/Semester 2/Cognition & Language/Assignment","no","Andale Mono","no","18","no","white","no","yes","576","legacy","5","5","3","C:/Users/sarah/OneDrive/Documents/Psychology/Year 2/Semester 2/Cognition & Language/Assignment/subject-5207178.csv","legacy","Lentiform Loewenfeld","3.3.7","yes","yes","600bd7cfb6416f0113b04181","602110864497cf011d9c0822","0","f","NA","return","return","return","NA","f","2581","NA","3563","187991","5503","NA","2581","2","legacy","1024","2","48000","-16","task","5207178","even","NA","206268","211835","208272","224833","2774","196270","190767","225334","NA","224831","225334","224771","211835","227916","204073","224271","2765","214539","Lexical Decision Task","9","14916","10","yes","1024"
"3.049218023","7.4","9","robe","word","90.9090909090909","90.9090909090909","1526","1526","black","no","legacy","legacy","legacy","0","uniform","1","undefined","undefined","undefined","1","j","0","0","0","0","10","0","0","0","10","NA","6","10","6","0","6","3","10","0","10","Wed Feb 17 13:08:00 2021","The main experiment item","yes","Lexical_Decision_Task.osexp","C:/Users/sarah/OneDrive/Documents/Psychology/Year 2/Semester 2/Cognition & Language/Assignment","no","Andale Mono","no","18","no","white","no","yes","576","legacy","6","6","3","C:/Users/sarah/OneDrive/Documents/Psychology/Year 2/Semester 2/Cognition & Language/Assignment/subject-5207178.csv","legacy","Lentiform Loewenfeld","3.3.7","yes","yes","600bd7cfb6416f0113b04181","602110864497cf011d9c0822","0","j","NA","return","return","return","NA","j","1870","NA","3563","187991","5503","NA","1870","2","legacy","1024","2","48000","-16","task","5207178","even","NA","206268","211835","208272","228469","2774","196270","190767","228972","NA","228467","228972","228419","211835","230843","204073","227919","2765","214539","Lexical Decision Task","10","16786","11","yes","1024"
"3.492014979","0","9","yine","non-word","91.66666666666667","91.66666666666667","1599.3333333333333","1599.3333333333333","black","no","legacy","legacy","legacy","0","uniform","1","undefined","undefined","undefined","1","f","0","0","0","0","11","0","0","0","11","NA","7","11","7","0","7","3","11","0","11","Wed Feb 17 13:08:00 2021","The main experiment item","yes","Lexical_Decision_Task.osexp","C:/Users/sarah/OneDrive/Documents/Psychology/Year 2/Semester 2/Cognition & Language/Assignment","no","Andale Mono","no","18","no","white","no","yes","576","legacy","7","7","3","C:/Users/sarah/OneDrive/Documents/Psychology/Year 2/Semester 2/Cognition & Language/Assignment/subject-5207178.csv","legacy","Lentiform Loewenfeld","3.3.7","yes","yes","600bd7cfb6416f0113b04181","602110864497cf011d9c0822","0","f","NA","return","return","return","NA","f","2406","NA","3563","187991","5503","NA","2406","2","legacy","1024","2","48000","-16","task","5207178","even","NA","206268","211835","208272","231414","2774","196270","190767","231918","NA","231413","231918","231351","211835","234324","204073","230851","2765","214539","Lexical Decision Task","11","19192","12","yes","1024"
"3.068433376","8.09","2","bulb","word","92.3076923076923","92.3076923076923","1555.2307692307693","1555.2307692307693","black","no","legacy","legacy","legacy","0","uniform","1","undefined","undefined","undefined","1","j","0","0","0","0","12","0","0","0","12","NA","8","12","8","0","8","3","12","0","12","Wed Feb 17 13:08:00 2021","The main experiment item","yes","Lexical_Decision_Task.osexp","C:/Users/sarah/OneDrive/Documents/Psychology/Year 2/Semester 2/Cognition & Language/Assignment","no","Andale Mono","no","18","no","white","no","yes","576","legacy","8","8","3","C:/Users/sarah/OneDrive/Documents/Psychology/Year 2/Semester 2/Cognition & Language/Assignment/subject-5207178.csv","legacy","Lentiform Loewenfeld","3.3.7","yes","yes","600bd7cfb6416f0113b04181","602110864497cf011d9c0822","0","j","NA","return","return","return","NA","j","1026","NA","3563","187991","5503","NA","1026","2","legacy","1024","2","48000","-16","task","5207178","even","NA","206268","211835","208272","234885","2774","196270","190767","235386","NA","234884","235386","234827","211835","236413","204073","234327","2765","214539","Lexical Decision Task","12","20218","13","yes","1024"
"2.813801082","5.47","7","nook","word","92.85714285714286","92.85714285714286","1507.2857142857142","1507.2857142857142","black","no","legacy","legacy","legacy","0","uniform","1","undefined","undefined","undefined","1","j","0","0","0","0","13","0","0","0","13","NA","9","13","9","0","9","3","13","0","13","Wed Feb 17 13:08:00 2021","The main experiment item","yes","Lexical_Decision_Task.osexp","C:/Users/sarah/OneDrive/Documents/Psychology/Year 2/Semester 2/Cognition & Language/Assignment","no","Andale Mono","no","18","no","white","no","yes","576","legacy","9","9","3","C:/Users/sarah/OneDrive/Documents/Psychology/Year 2/Semester 2/Cognition & Language/Assignment/subject-5207178.csv","legacy","Lentiform Loewenfeld","3.3.7","yes","yes","600bd7cfb6416f0113b04181","602110864497cf011d9c0822","0","j","NA","return","return","return","NA","j","884","NA","3563","187991","5503","NA","884","2","legacy","1024","2","48000","-16","task","5207178","even","NA","206268","211835","208272","236983","2774","196270","190767","237484","NA","236981","237484","236923","211835","238368","204073","236423","2765","214539","Lexical Decision Task","13","21102","14","yes","1024"
"3.299579929","0","2","flis","non-word","93.33333333333333","93.33333333333333","1475.2666666666667","1475.2666666666667","black","no","legacy","legacy","legacy","0","uniform","1","undefined","undefined","undefined","1","f","0","0","0","0","14","0","0","0","14","NA","10","14","10","0","10","3","14","0","14","Wed Feb 17 13:08:00 2021","The main experiment item","yes","Lexical_Decision_Task.osexp","C:/Users/sarah/OneDrive/Documents/Psychology/Year 2/Semester 2/Cognition & Language/Assignment","no","Andale Mono","no","18","no","white","no","yes","576","legacy","10","10","3","C:/Users/sarah/OneDrive/Documents/Psychology/Year 2/Semester 2/Cognition & Language/Assignment/subject-5207178.csv","legacy","Lentiform Loewenfeld","3.3.7","yes","yes","600bd7cfb6416f0113b04181","602110864497cf011d9c0822","0","f","NA","return","return","return","NA","f","1027","NA","3563","187991","5503","NA","1027","2","legacy","1024","2","48000","-16","task","5207178","even","NA","206268","211835","208272","238927","2774","196270","190767","239428","NA","238926","239428","238878","211835","240455","204073","238378","2765","214539","Lexical Decision Task","14","22129","15","yes","1024"
"2.771097306","0","9","jold","non-word","93.75","93.75","1442.5","1442.5","black","no","legacy","legacy","legacy","0","uniform","1","undefined","undefined","undefined","1","f","0","0","0","0","15","0","0","0","15","NA","11","15","11","0","11","3","15","0","15","Wed Feb 17 13:08:00 2021","The main experiment item","yes","Lexical_Decision_Task.osexp","C:/Users/sarah/OneDrive/Documents/Psychology/Year 2/Semester 2/Cognition & Language/Assignment","no","Andale Mono","no","18","no","white","no","yes","576","legacy","11","11","3","C:/Users/sarah/OneDrive/Documents/Psychology/Year 2/Semester 2/Cognition & Language/Assignment/subject-5207178.csv","legacy","Lentiform Loewenfeld","3.3.7","yes","yes","600bd7cfb6416f0113b04181","602110864497cf011d9c0822","0","f","NA","return","return","return","NA","f","951","NA","3563","187991","5503","NA","951","2","legacy","1024","2","48000","-16","task","5207178","even","NA","206268","211835","208272","241015","2774","196270","190767","241516","NA","241014","241516","240963","211835","242467","204073","240463","2765","214539","Lexical Decision Task","15","23080","16","yes","1024"
"2.920123326","7.43","4","duel","word","94.11764705882354","94.11764705882354","1400.1764705882354","1400.1764705882354","black","no","legacy","legacy","legacy","0","uniform","1","undefined","undefined","undefined","1","j","0","0","0","0","16","0","0","0","16","NA","12","16","12","0","12","3","16","0","16","Wed Feb 17 13:08:00 2021","The main experiment item","yes","Lexical_Decision_Task.osexp","C:/Users/sarah/OneDrive/Documents/Psychology/Year 2/Semester 2/Cognition & Language/Assignment","no","Andale Mono","no","18","no","white","no","yes","576","legacy","12","12","3","C:/Users/sarah/OneDrive/Documents/Psychology/Year 2/Semester 2/Cognition & Language/Assignment/subject-5207178.csv","legacy","Lentiform Loewenfeld","3.3.7","yes","yes","600bd7cfb6416f0113b04181","602110864497cf011d9c0822","0","j","NA","return","return","return","NA","j","723","NA","3563","187991","5503","NA","723","2","legacy","1024","2","48000","-16","task","5207178","even","NA","206268","211835","208272","243030","2774","196270","190767","243531","NA","243029","243531","242977","211835","244254","204073","242477","2765","214539","Lexical Decision Task","16","23803","17","yes","1024"
"2.64476673","0","5","moft","non-word","94.44444444444444","94.44444444444444","1384.111111111111","1384.111111111111","black","no","legacy","legacy","legacy","0","uniform","1","undefined","undefined","undefined","1","f","0","0","0","0","17","0","0","0","17","NA","13","17","13","0","13","3","17","0","17","Wed Feb 17 13:08:00 2021","The main experiment item","yes","Lexical_Decision_Task.osexp","C:/Users/sarah/OneDrive/Documents/Psychology/Year 2/Semester 2/Cognition & Language/Assignment","no","Andale Mono","no","18","no","white","no","yes","576","legacy","13","13","3","C:/Users/sarah/OneDrive/Documents/Psychology/Year 2/Semester 2/Cognition & Language/Assignment/subject-5207178.csv","legacy","Lentiform Loewenfeld","3.3.7","yes","yes","600bd7cfb6416f0113b04181","602110864497cf011d9c0822","0","f","NA","return","return","return","NA","f","1111","NA","3563","187991","5503","NA","1111","2","legacy","1024","2","48000","-16","task","5207178","even","NA","206268","211835","208272","244818","2774","196270","190767","245320","NA","244817","245320","244762","211835","246431","204073","244262","2765","214539","Lexical Decision Task","17","24914","18","yes","1024"
"2.907588697","8.91","9","mood","word","94.73684210526316","94.73684210526316","1343.421052631579","1343.421052631579","black","no","legacy","legacy","legacy","0","uniform","1","undefined","undefined","undefined","1","j","0","0","0","0","18","0","0","0","18","NA","14","18","14","0","14","3","18","0","18","Wed Feb 17 13:08:00 2021","The main experiment item","yes","Lexical_Decision_Task.osexp","C:/Users/sarah/OneDrive/Documents/Psychology/Year 2/Semester 2/Cognition & Language/Assignment","no","Andale Mono","no","18","no","white","no","yes","576","legacy","14","14","3","C:/Users/sarah/OneDrive/Documents/Psychology/Year 2/Semester 2/Cognition & Language/Assignment/subject-5207178.csv","legacy","Lentiform Loewenfeld","3.3.7","yes","yes","600bd7cfb6416f0113b04181","602110864497cf011d9c0822","0","j","NA","return","return","return","NA","j","611","NA","3563","187991","5503","NA","611","2","legacy","1024","2","48000","-16","task","5207178","even","NA","206268","211835","208272","247001","2774","196270","190767","247502","NA","246999","247502","246939","211835","248113","204073","246439","2765","214539","Lexical Decision Task","18","25525","19","yes","1024"
"3.474361976","5.24","6","veer","word","95","95","1369.25","1369.25","black","no","legacy","legacy","legacy","0","uniform","1","undefined","undefined","undefined","1","j","0","0","0","0","19","0","0","0","19","NA","15","19","15","0","15","3","19","0","19","Wed Feb 17 13:08:00 2021","The main experiment item","yes","Lexical_Decision_Task.osexp","C:/Users/sarah/OneDrive/Documents/Psychology/Year 2/Semester 2/Cognition & Language/Assignment","no","Andale Mono","no","18","no","white","no","yes","576","legacy","15","15","3","C:/Users/sarah/OneDrive/Documents/Psychology/Year 2/Semester 2/Cognition & Language/Assignment/subject-5207178.csv","legacy","Lentiform Loewenfeld","3.3.7","yes","yes","600bd7cfb6416f0113b04181","602110864497cf011d9c0822","0","j","NA","return","return","return","NA","j","1860","NA","3563","187991","5503","NA","1860","2","legacy","1024","2","48000","-16","task","5207178","even","NA","206268","211835","208272","248674","2774","196270","190767","249175","NA","248672","249175","248620","211835","251035","204073","248120","2765","214539","Lexical Decision Task","19","27385","20","yes","1024"
"3.165936429","0","7","leps","non-word","95.23809523809524","95.23809523809524","1342.6190476190477","1342.6190476190477","black","no","legacy","legacy","legacy","0","uniform","1","undefined","undefined","undefined","1","f","0","0","0","0","20","0","0","0","20","NA","16","20","16","0","16","3","20","0","20","Wed Feb 17 13:08:00 2021","The main experiment item","yes","Lexical_Decision_Task.osexp","C:/Users/sarah/OneDrive/Documents/Psychology/Year 2/Semester 2/Cognition & Language/Assignment","no","Andale Mono","no","18","no","white","no","yes","576","legacy","16","16","3","C:/Users/sarah/OneDrive/Documents/Psychology/Year 2/Semester 2/Cognition & Language/Assignment/subject-5207178.csv","legacy","Lentiform Loewenfeld","3.3.7","yes","yes","600bd7cfb6416f0113b04181","602110864497cf011d9c0822","0","f","NA","return","return","return","NA","f","810","NA","3563","187991","5503","NA","810","2","legacy","1024","2","48000","-16","task","5207178","even","NA","206268","211835","208272","251605","2774","196270","190767","252106","NA","251603","252106","251545","211835","252916","204073","251044","2765","214539","Lexical Decision Task","20","28195","21","yes","1024"
"3.134602053","0","8","jart","non-word","95.45454545454545","95.45454545454545","1328.4545454545455","1328.4545454545455","black","no","legacy","legacy","legacy","0","uniform","1","undefined","undefined","undefined","1","f","0","0","0","0","21","0","0","0","21","NA","17","21","17","0","17","3","21","0","21","Wed Feb 17 13:08:00 2021","The main experiment item","yes","Lexical_Decision_Task.osexp","C:/Users/sarah/OneDrive/Documents/Psychology/Year 2/Semester 2/Cognition & Language/Assignment","no","Andale Mono","no","18","no","white","no","yes","576","legacy","17","17","3","C:/Users/sarah/OneDrive/Documents/Psychology/Year 2/Semester 2/Cognition & Language/Assignment/subject-5207178.csv","legacy","Lentiform Loewenfeld","3.3.7","yes","yes","600bd7cfb6416f0113b04181","602110864497cf011d9c0822","0","f","NA","return","return","return","NA","f","1031","NA","3563","187991","5503","NA","1031","2","legacy","1024","2","48000","-16","task","5207178","even","NA","206268","211835","208272","253476","2774","196270","190767","253977","NA","253474","253977","253426","211835","255008","204073","252926","2765","214539","Lexical Decision Task","21","29226","22","yes","1024"
"3.481012421","8.34","5","teen","word","95.65217391304348","95.65217391304348","1312.4347826086957","1312.4347826086957","black","no","legacy","legacy","legacy","0","uniform","1","undefined","undefined","undefined","1","j","0","0","0","0","22","0","0","0","22","NA","18","22","18","0","18","3","22","0","22","Wed Feb 17 13:08:00 2021","The main experiment item","yes","Lexical_Decision_Task.osexp","C:/Users/sarah/OneDrive/Documents/Psychology/Year 2/Semester 2/Cognition & Language/Assignment","no","Andale Mono","no","18","no","white","no","yes","576","legacy","18","18","3","C:/Users/sarah/OneDrive/Documents/Psychology/Year 2/Semester 2/Cognition & Language/Assignment/subject-5207178.csv","legacy","Lentiform Loewenfeld","3.3.7","yes","yes","600bd7cfb6416f0113b04181","602110864497cf011d9c0822","0","j","NA","return","return","return","NA","j","960","NA","3563","187991","5503","NA","960","2","legacy","1024","2","48000","-16","task","5207178","even","NA","206268","211835","208272","255579","2774","196270","190767","256080","NA","255578","256080","255516","211835","257041","204073","255016","2765","214539","Lexical Decision Task","22","30186","23","yes","1024"
"2.839898939","8.99","6","soap","word","95.83333333333333","95.83333333333333","1286.8333333333333","1286.8333333333333","black","no","legacy","legacy","legacy","0","uniform","1","undefined","undefined","undefined","1","j","0","0","0","0","23","0","0","0","23","NA","19","23","19","0","19","3","23","0","23","Wed Feb 17 13:08:00 2021","The main experiment item","yes","Lexical_Decision_Task.osexp","C:/Users/sarah/OneDrive/Documents/Psychology/Year 2/Semester 2/Cognition & Language/Assignment","no","Andale Mono","no","18","no","white","no","yes","576","legacy","19","19","3","C:/Users/sarah/OneDrive/Documents/Psychology/Year 2/Semester 2/Cognition & Language/Assignment/subject-5207178.csv","legacy","Lentiform Loewenfeld","3.3.7","yes","yes","600bd7cfb6416f0113b04181","602110864497cf011d9c0822","0","j","NA","return","return","return","NA","j","698","NA","3563","187991","5503","NA","698","2","legacy","1024","2","48000","-16","task","5207178","even","NA","206268","211835","208272","257607","2774","196270","190767","258109","NA","257606","258109","257550","211835","258808","204073","257050","2765","214539","Lexical Decision Task","23","30884","24","yes","1024"
"2.75025376","10.2","6","jump","word","96","96","1260.72","1260.72","black","no","legacy","legacy","legacy","0","uniform","1","undefined","undefined","undefined","1","j","0","0","0","0","24","0","0","0","24","NA","20","24","20","0","20","3","24","0","24","Wed Feb 17 13:08:00 2021","The main experiment item","yes","Lexical_Decision_Task.osexp","C:/Users/sarah/OneDrive/Documents/Psychology/Year 2/Semester 2/Cognition & Language/Assignment","no","Andale Mono","no","18","no","white","no","yes","576","legacy","20","20","3","C:/Users/sarah/OneDrive/Documents/Psychology/Year 2/Semester 2/Cognition & Language/Assignment/subject-5207178.csv","legacy","Lentiform Loewenfeld","3.3.7","yes","yes","600bd7cfb6416f0113b04181","602110864497cf011d9c0822","0","j","NA","return","return","return","NA","j","634","NA","3563","187991","5503","NA","634","2","legacy","1024","2","48000","-16","task","5207178","even","NA","206268","211835","208272","259376","2774","196270","190767","259879","NA","259374","259879","259318","211835","260513","204073","258818","2765","214539","Lexical Decision Task","24","31518","25","yes","1024"
"2.784379519","0","2","snaf","non-word","96.15384615384616","96.15384615384616","1240.3076923076924","1240.3076923076924","black","no","legacy","legacy","legacy","0","uniform","1","undefined","undefined","undefined","1","f","0","0","0","0","25","0","0","0","25","NA","21","25","21","0","21","3","25","0","25","Wed Feb 17 13:08:00 2021","The main experiment item","yes","Lexical_Decision_Task.osexp","C:/Users/sarah/OneDrive/Documents/Psychology/Year 2/Semester 2/Cognition & Language/Assignment","no","Andale Mono","no","18","no","white","no","yes","576","legacy","21","21","3","C:/Users/sarah/OneDrive/Documents/Psychology/Year 2/Semester 2/Cognition & Language/Assignment/subject-5207178.csv","legacy","Lentiform Loewenfeld","3.3.7","yes","yes","600bd7cfb6416f0113b04181","602110864497cf011d9c0822","0","f","NA","return","return","return","NA","f","730","NA","3563","187991","5503","NA","730","2","legacy","1024","2","48000","-16","task","5207178","even","NA","206268","211835","208272","261073","2774","196270","190767","261574","NA","261072","261574","261023","211835","262304","204073","260522","2765","214539","Lexical Decision Task","25","32248","26","yes","1024"
"2.868644438","10.52","4","town","word","96.29629629629629","96.29629629629629","1218","1218","black","no","legacy","legacy","legacy","0","uniform","1","undefined","undefined","undefined","1","j","0","0","0","0","26","0","0","0","26","NA","22","26","22","0","22","3","26","0","26","Wed Feb 17 13:08:00 2021","The main experiment item","yes","Lexical_Decision_Task.osexp","C:/Users/sarah/OneDrive/Documents/Psychology/Year 2/Semester 2/Cognition & Language/Assignment","no","Andale Mono","no","18","no","white","no","yes","576","legacy","22","22","3","C:/Users/sarah/OneDrive/Documents/Psychology/Year 2/Semester 2/Cognition & Language/Assignment/subject-5207178.csv","legacy","Lentiform Loewenfeld","3.3.7","yes","yes","600bd7cfb6416f0113b04181","602110864497cf011d9c0822","0","j","NA","return","return","return","NA","j","638","NA","3563","187991","5503","NA","638","2","legacy","1024","2","48000","-16","task","5207178","even","NA","206268","211835","208272","262862","2774","196270","190767","263363","NA","262860","263363","262812","211835","264002","204073","262312","2765","214539","Lexical Decision Task","26","32886","27","yes","1024"
"2.807758206","6.25","4","hurl","word","96.42857142857143","96.42857142857143","1205","1205","black","no","legacy","legacy","legacy","0","uniform","1","undefined","undefined","undefined","1","j","0","0","0","0","27","0","0","0","27","NA","23","27","23","0","23","3","27","0","27","Wed Feb 17 13:08:00 2021","The main experiment item","yes","Lexical_Decision_Task.osexp","C:/Users/sarah/OneDrive/Documents/Psychology/Year 2/Semester 2/Cognition & Language/Assignment","no","Andale Mono","no","18","no","white","no","yes","576","legacy","23","23","3","C:/Users/sarah/OneDrive/Documents/Psychology/Year 2/Semester 2/Cognition & Language/Assignment/subject-5207178.csv","legacy","Lentiform Loewenfeld","3.3.7","yes","yes","600bd7cfb6416f0113b04181","602110864497cf011d9c0822","0","j","NA","return","return","return","NA","j","854","NA","3563","187991","5503","NA","854","2","legacy","1024","2","48000","-16","task","5207178","even","NA","206268","211835","208272","264573","2774","196270","190767","265074","NA","264572","265074","264512","211835","265929","204073","264012","2765","214539","Lexical Decision Task","27","33740","28","yes","1024"
"3.495914186","0","4","peng","non-word","93.10344827586206","93.10344827586206","1222.7241379310344","1222.7241379310344","black","no","legacy","legacy","legacy","0","uniform","0","undefined","undefined","undefined","0","f","0","0","0","0","28","0","0","0","28","NA","24","28","24","0","24","3","28","0","28","Wed Feb 17 13:08:00 2021","The main experiment item","yes","Lexical_Decision_Task.osexp","C:/Users/sarah/OneDrive/Documents/Psychology/Year 2/Semester 2/Cognition & Language/Assignment","no","Andale Mono","no","18","no","white","no","yes","576","legacy","24","24","3","C:/Users/sarah/OneDrive/Documents/Psychology/Year 2/Semester 2/Cognition & Language/Assignment/subject-5207178.csv","legacy","Lentiform Loewenfeld","3.3.7","yes","yes","600bd7cfb6416f0113b04181","602110864497cf011d9c0822","0","j","NA","return","return","return","NA","j","1719","NA","3563","187991","5503","NA","1719","2","legacy","1024","2","48000","-16","task","5207178","even","NA","206268","211835","208272","266499","2774","196270","190767","267002","NA","266498","267002","266437","211835","268721","204073","265937","2765","214539","Lexical Decision Task","27","35459","29","yes","1024"
"3.010582609","0","2","drod","non-word","93.33333333333333","93.33333333333333","1246.7333333333333","1246.7333333333333","black","no","legacy","legacy","legacy","0","uniform","1","undefined","undefined","undefined","1","f","0","0","0","0","29","0","0","0","29","NA","25","29","25","0","25","3","29","0","29","Wed Feb 17 13:08:00 2021","The main experiment item","yes","Lexical_Decision_Task.osexp","C:/Users/sarah/OneDrive/Documents/Psychology/Year 2/Semester 2/Cognition & Language/Assignment","no","Andale Mono","no","18","no","white","no","yes","576","legacy","25","25","3","C:/Users/sarah/OneDrive/Documents/Psychology/Year 2/Semester 2/Cognition & Language/Assignment/subject-5207178.csv","legacy","Lentiform Loewenfeld","3.3.7","yes","yes","600bd7cfb6416f0113b04181","602110864497cf011d9c0822","0","f","NA","return","return","return","NA","f","1943","NA","3563","187991","5503","NA","1943","2","legacy","1024","2","48000","-16","task","5207178","even","NA","206268","211835","208272","270298","2774","196270","190767","270801","NA","270296","270801","270231","211835","272744","204073","265937","2765","268731","Lexical Decision Task","28","37402","30","yes","1024"
"2.971428938","9.86","7","spot","word","93.54838709677419","93.54838709677419","1230.0645161290322","1230.0645161290322","black","no","legacy","legacy","legacy","0","uniform","1","undefined","undefined","undefined","1","j","0","0","0","0","30","0","0","0","30","NA","26","30","26","0","26","3","30","0","30","Wed Feb 17 13:08:00 2021","The main experiment item","yes","Lexical_Decision_Task.osexp","C:/Users/sarah/OneDrive/Documents/Psychology/Year 2/Semester 2/Cognition & Language/Assignment","no","Andale Mono","no","18","no","white","no","yes","576","legacy","26","26","3","C:/Users/sarah/OneDrive/Documents/Psychology/Year 2/Semester 2/Cognition & Language/Assignment/subject-5207178.csv","legacy","Lentiform Loewenfeld","3.3.7","yes","yes","600bd7cfb6416f0113b04181","602110864497cf011d9c0822","0","j","NA","return","return","return","NA","j","730","NA","3563","187991","5503","NA","730","2","legacy","1024","2","48000","-16","task","5207178","even","NA","206268","211835","208272","273314","2774","196270","190767","273815","NA","273313","273815","273252","211835","274546","204073","272752","2765","268731","Lexical Decision Task","29","38132","31","yes","1024"
"2.696644658","5.78","2","yolk","word","93.75","93.75","1219.375","1219.375","black","no","legacy","legacy","legacy","0","uniform","1","undefined","undefined","undefined","1","j","0","0","0","0","31","0","0","0","31","NA","27","31","27","0","27","3","31","0","31","Wed Feb 17 13:08:00 2021","The main experiment item","yes","Lexical_Decision_Task.osexp","C:/Users/sarah/OneDrive/Documents/Psychology/Year 2/Semester 2/Cognition & Language/Assignment","no","Andale Mono","no","18","no","white","no","yes","576","legacy","27","27","3","C:/Users/sarah/OneDrive/Documents/Psychology/Year 2/Semester 2/Cognition & Language/Assignment/subject-5207178.csv","legacy","Lentiform Loewenfeld","3.3.7","yes","yes","600bd7cfb6416f0113b04181","602110864497cf011d9c0822","0","j","NA","return","return","return","NA","j","888","NA","3563","187991","5503","NA","888","2","legacy","1024","2","48000","-16","task","5207178","even","NA","206268","211835","208272","275113","2774","196270","190767","275614","NA","275112","275614","275056","211835","276502","204073","274556","2765","268731","Lexical Decision Task","30","39020","32","yes","1024"
"2.858136002","0","4","phip","non-word","93.93939393939394","93.93939393939394","1210.1515151515152","1210.1515151515152","black","no","legacy","legacy","legacy","0","uniform","1","undefined","undefined","undefined","1","f","0","0","0","0","32","0","0","0","32","NA","28","32","28","0","28","3","32","0","32","Wed Feb 17 13:08:00 2021","The main experiment item","yes","Lexical_Decision_Task.osexp","C:/Users/sarah/OneDrive/Documents/Psychology/Year 2/Semester 2/Cognition & Language/Assignment","no","Andale Mono","no","18","no","white","no","yes","576","legacy","28","28","3","C:/Users/sarah/OneDrive/Documents/Psychology/Year 2/Semester 2/Cognition & Language/Assignment/subject-5207178.csv","legacy","Lentiform Loewenfeld","3.3.7","yes","yes","600bd7cfb6416f0113b04181","602110864497cf011d9c0822","0","f","NA","return","return","return","NA","f","915","NA","3563","187991","5503","NA","915","2","legacy","1024","2","48000","-16","task","5207178","even","NA","206268","211835","208272","277073","2774","196270","190767","277575","NA","277072","277575","277010","211835","278490","204073","276510","2765","268731","Lexical Decision Task","31","39935","33","yes","1024"
"3.29439347","8.6","9","wand","word","94.11764705882354","94.11764705882354","1260.0588235294117","1260.0588235294117","black","no","legacy","legacy","legacy","0","uniform","1","undefined","undefined","undefined","1","j","0","0","0","0","33","0","0","0","33","NA","29","33","29","0","29","3","33","0","33","Wed Feb 17 13:08:00 2021","The main experiment item","yes","Lexical_Decision_Task.osexp","C:/Users/sarah/OneDrive/Documents/Psychology/Year 2/Semester 2/Cognition & Language/Assignment","no","Andale Mono","no","18","no","white","no","yes","576","legacy","29","29","3","C:/Users/sarah/OneDrive/Documents/Psychology/Year 2/Semester 2/Cognition & Language/Assignment/subject-5207178.csv","legacy","Lentiform Loewenfeld","3.3.7","yes","yes","600bd7cfb6416f0113b04181","602110864497cf011d9c0822","0","j","NA","return","return","return","NA","j","2907","NA","3563","187991","5503","NA","2907","2","legacy","1024","2","48000","-16","task","5207178","even","NA","206268","211835","208272","279060","2774","196270","190767","279561","NA","279059","279561","278999","211835","282468","204073","278499","2765","268731","Lexical Decision Task","32","42842","34","yes","1024"
"3.218535505","7.85","7","goat","word","94.28571428571429","94.28571428571429","1242.0857142857142","1242.0857142857142","black","no","legacy","legacy","legacy","0","uniform","1","undefined","undefined","undefined","1","j","0","0","0","0","34","0","0","0","34","NA","30","34","30","0","30","3","34","0","34","Wed Feb 17 13:08:00 2021","The main experiment item","yes","Lexical_Decision_Task.osexp","C:/Users/sarah/OneDrive/Documents/Psychology/Year 2/Semester 2/Cognition & Language/Assignment","no","Andale Mono","no","18","no","white","no","yes","576","legacy","30","30","3","C:/Users/sarah/OneDrive/Documents/Psychology/Year 2/Semester 2/Cognition & Language/Assignment/subject-5207178.csv","legacy","Lentiform Loewenfeld","3.3.7","yes","yes","600bd7cfb6416f0113b04181","602110864497cf011d9c0822","0","j","NA","return","return","return","NA","j","631","NA","3563","187991","5503","NA","631","2","legacy","1024","2","48000","-16","task","5207178","even","NA","206268","211835","208272","283038","2774","196270","190767","283539","NA","283036","283539","282977","211835","284170","204073","282477","2765","268731","Lexical Decision Task","33","43473","35","yes","1024"
"2.895974732","6.65","5","sift","word","91.66666666666667","91.66666666666667","1230.4722222222222","1230.4722222222222","black","no","legacy","legacy","legacy","0","uniform","0","undefined","undefined","undefined","0","j","0","0","0","0","35","0","0","0","35","NA","31","35","31","0","31","3","35","0","35","Wed Feb 17 13:08:00 2021","The main experiment item","yes","Lexical_Decision_Task.osexp","C:/Users/sarah/OneDrive/Documents/Psychology/Year 2/Semester 2/Cognition & Language/Assignment","no","Andale Mono","no","18","no","white","no","yes","576","legacy","31","31","3","C:/Users/sarah/OneDrive/Documents/Psychology/Year 2/Semester 2/Cognition & Language/Assignment/subject-5207178.csv","legacy","Lentiform Loewenfeld","3.3.7","yes","yes","600bd7cfb6416f0113b04181","602110864497cf011d9c0822","0","f","NA","return","return","return","NA","f","824","NA","3563","187991","5503","NA","824","2","legacy","1024","2","48000","-16","task","5207178","even","NA","206268","211835","208272","284740","2774","196270","190767","285241","NA","284738","285241","284680","211835","286066","204073","284180","2765","268731","Lexical Decision Task","33","44297","36","yes","1024"
"3.208978517","10.33","4","fish","word","91.89189189189189","91.89189189189189","1213.972972972973","1213.972972972973","black","no","legacy","legacy","legacy","0","uniform","1","undefined","undefined","undefined","1","j","0","0","0","0","36","0","0","0","36","NA","32","36","32","0","32","3","36","0","36","Wed Feb 17 13:08:00 2021","The main experiment item","yes","Lexical_Decision_Task.osexp","C:/Users/sarah/OneDrive/Documents/Psychology/Year 2/Semester 2/Cognition & Language/Assignment","no","Andale Mono","no","18","no","white","no","yes","576","legacy","32","32","3","C:/Users/sarah/OneDrive/Documents/Psychology/Year 2/Semester 2/Cognition & Language/Assignment/subject-5207178.csv","legacy","Lentiform Loewenfeld","3.3.7","yes","yes","600bd7cfb6416f0113b04181","602110864497cf011d9c0822","0","j","NA","return","return","return","NA","j","620","NA","3563","187991","5503","NA","620","2","legacy","1024","2","48000","-16","task","5207178","even","NA","206268","211835","208272","287627","2774","196270","190767","288128","NA","287626","288128","287574","211835","288749","204073","284180","2765","286074","Lexical Decision Task","34","44917","37","yes","1024"
"3.039414119","0","9","meep","non-word","92.10526315789474","92.10526315789474","1212.4473684210527","1212.4473684210527","black","no","legacy","legacy","legacy","0","uniform","1","undefined","undefined","undefined","1","f","0","0","0","0","37","0","0","0","37","NA","33","37","33","0","33","3","37","0","37","Wed Feb 17 13:08:00 2021","The main experiment item","yes","Lexical_Decision_Task.osexp","C:/Users/sarah/OneDrive/Documents/Psychology/Year 2/Semester 2/Cognition & Language/Assignment","no","Andale Mono","no","18","no","white","no","yes","576","legacy","33","33","3","C:/Users/sarah/OneDrive/Documents/Psychology/Year 2/Semester 2/Cognition & Language/Assignment/subject-5207178.csv","legacy","Lentiform Loewenfeld","3.3.7","yes","yes","600bd7cfb6416f0113b04181","602110864497cf011d9c0822","0","f","NA","return","return","return","NA","f","1156","NA","3563","187991","5503","NA","1156","2","legacy","1024","2","48000","-16","task","5207178","even","NA","206268","211835","208272","289320","2774","196270","190767","289824","NA","289319","289824","289257","211835","290981","204073","288757","2765","286074","Lexical Decision Task","35","46073","38","yes","1024"
"2.937852093","0","7","bamp","non-word","92.3076923076923","92.3076923076923","1207.179487179487","1207.179487179487","black","no","legacy","legacy","legacy","0","uniform","1","undefined","undefined","undefined","1","f","0","0","0","0","38","0","0","0","38","NA","34","38","34","0","34","3","38","0","38","Wed Feb 17 13:08:00 2021","The main experiment item","yes","Lexical_Decision_Task.osexp","C:/Users/sarah/OneDrive/Documents/Psychology/Year 2/Semester 2/Cognition & Language/Assignment","no","Andale Mono","no","18","no","white","no","yes","576","legacy","34","34","3","C:/Users/sarah/OneDrive/Documents/Psychology/Year 2/Semester 2/Cognition & Language/Assignment/subject-5207178.csv","legacy","Lentiform Loewenfeld","3.3.7","yes","yes","600bd7cfb6416f0113b04181","602110864497cf011d9c0822","0","f","NA","return","return","return","NA","f","1007","NA","3563","187991","5503","NA","1007","2","legacy","1024","2","48000","-16","task","5207178","even","NA","206268","211835","208272","291548","2774","196270","190767","292051","NA","291547","292051","291489","211835","293058","204073","290989","2765","286074","Lexical Decision Task","36","47080","39","yes","1024"
"2.880623071","0","9","curp","non-word","92.5","92.5","1209.9","1209.9","black","no","legacy","legacy","legacy","0","uniform","1","undefined","undefined","undefined","1","f","0","0","0","0","39","0","0","0","39","NA","35","39","35","0","35","3","39","0","39","Wed Feb 17 13:08:00 2021","The main experiment item","yes","Lexical_Decision_Task.osexp","C:/Users/sarah/OneDrive/Documents/Psychology/Year 2/Semester 2/Cognition & Language/Assignment","no","Andale Mono","no","18","no","white","no","yes","576","legacy","35","35","3","C:/Users/sarah/OneDrive/Documents/Psychology/Year 2/Semester 2/Cognition & Language/Assignment/subject-5207178.csv","legacy","Lentiform Loewenfeld","3.3.7","yes","yes","600bd7cfb6416f0113b04181","602110864497cf011d9c0822","0","f","NA","return","return","return","NA","f","1316","NA","3563","187991","5503","NA","1316","2","legacy","1024","2","48000","-16","task","5207178","even","NA","206268","211835","208272","293617","2774","196270","190767","294118","NA","293615","294118","293567","211835","295435","204073","293067","2765","286074","Lexical Decision Task","37","48396","40","yes","1024"
"2.80048796","0","8","pife","non-word","92.6829268292683","92.6829268292683","1205.7073170731708","1205.7073170731708","black","no","legacy","legacy","legacy","0","uniform","1","undefined","undefined","undefined","1","f","0","0","0","0","40","0","0","0","40","NA","36","40","36","0","36","3","40","0","40","Wed Feb 17 13:08:00 2021","The main experiment item","yes","Lexical_Decision_Task.osexp","C:/Users/sarah/OneDrive/Documents/Psychology/Year 2/Semester 2/Cognition & Language/Assignment","no","Andale Mono","no","18","no","white","no","yes","576","legacy","36","36","3","C:/Users/sarah/OneDrive/Documents/Psychology/Year 2/Semester 2/Cognition & Language/Assignment/subject-5207178.csv","legacy","Lentiform Loewenfeld","3.3.7","yes","yes","600bd7cfb6416f0113b04181","602110864497cf011d9c0822","0","f","NA","return","return","return","NA","f","1038","NA","3563","187991","5503","NA","1038","2","legacy","1024","2","48000","-16","task","5207178","even","NA","206268","211835","208272","295993","2774","196270","190767","296494","NA","295991","296494","295943","211835","297533","204073","295443","2765","286074","Lexical Decision Task","38","49434","41","yes","1024"
"2.767650507","0","6","yolt","non-word","92.85714285714286","92.85714285714286","1211.9761904761904","1211.9761904761904","black","no","legacy","legacy","legacy","0","uniform","1","undefined","undefined","undefined","1","f","0","0","0","0","41","0","0","0","41","NA","37","41","37","0","37","3","41","0","41","Wed Feb 17 13:08:00 2021","The main experiment item","yes","Lexical_Decision_Task.osexp","C:/Users/sarah/OneDrive/Documents/Psychology/Year 2/Semester 2/Cognition & Language/Assignment","no","Andale Mono","no","18","no","white","no","yes","576","legacy","37","37","3","C:/Users/sarah/OneDrive/Documents/Psychology/Year 2/Semester 2/Cognition & Language/Assignment/subject-5207178.csv","legacy","Lentiform Loewenfeld","3.3.7","yes","yes","600bd7cfb6416f0113b04181","602110864497cf011d9c0822","0","f","NA","return","return","return","NA","f","1469","NA","3563","187991","5503","NA","1469","2","legacy","1024","2","48000","-16","task","5207178","even","NA","206268","211835","208272","298095","2774","196270","190767","298596","NA","298094","298596","298041","211835","300065","204073","297541","2765","286074","Lexical Decision Task","39","50903","42","yes","1024"
"3.316948329","0","1","besc","non-word","93.02325581395348","93.02325581395348","1203.860465116279","1203.860465116279","black","no","legacy","legacy","legacy","0","uniform","1","undefined","undefined","undefined","1","f","0","0","0","0","42","0","0","0","42","NA","38","42","38","0","38","3","42","0","42","Wed Feb 17 13:08:00 2021","The main experiment item","yes","Lexical_Decision_Task.osexp","C:/Users/sarah/OneDrive/Documents/Psychology/Year 2/Semester 2/Cognition & Language/Assignment","no","Andale Mono","no","18","no","white","no","yes","576","legacy","38","38","3","C:/Users/sarah/OneDrive/Documents/Psychology/Year 2/Semester 2/Cognition & Language/Assignment/subject-5207178.csv","legacy","Lentiform Loewenfeld","3.3.7","yes","yes","600bd7cfb6416f0113b04181","602110864497cf011d9c0822","0","f","NA","return","return","return","NA","f","863","NA","3563","187991","5503","NA","863","2","legacy","1024","2","48000","-16","task","5207178","even","NA","206268","211835","208272","300633","2774","196270","190767","301137","NA","300632","301137","300573","211835","302001","204073","300073","2765","286074","Lexical Decision Task","40","51766","43","yes","1024"
"2.979548375","8.71","4","soup","word","93.18181818181819","93.18181818181819","1190.840909090909","1190.840909090909","black","no","legacy","legacy","legacy","0","uniform","1","undefined","undefined","undefined","1","j","0","0","0","0","43","0","0","0","43","NA","39","43","39","0","39","3","43","0","43","Wed Feb 17 13:08:00 2021","The main experiment item","yes","Lexical_Decision_Task.osexp","C:/Users/sarah/OneDrive/Documents/Psychology/Year 2/Semester 2/Cognition & Language/Assignment","no","Andale Mono","no","18","no","white","no","yes","576","legacy","39","39","3","C:/Users/sarah/OneDrive/Documents/Psychology/Year 2/Semester 2/Cognition & Language/Assignment/subject-5207178.csv","legacy","Lentiform Loewenfeld","3.3.7","yes","yes","600bd7cfb6416f0113b04181","602110864497cf011d9c0822","0","j","NA","return","return","return","NA","j","631","NA","3563","187991","5503","NA","631","2","legacy","1024","2","48000","-16","task","5207178","even","NA","206268","211835","208272","302565","2774","196270","190767","303066","NA","302564","303066","302508","211835","303697","204073","302008","2765","286074","Lexical Decision Task","41","52397","44","yes","1024"
"2.842815106","7.86","8","lump","word","93.33333333333333","93.33333333333333","1180.2444444444445","1180.2444444444445","black","no","legacy","legacy","legacy","0","uniform","1","undefined","undefined","undefined","1","j","0","0","0","0","44","0","0","0","44","NA","40","44","40","0","40","3","44","0","44","Wed Feb 17 13:08:00 2021","The main experiment item","yes","Lexical_Decision_Task.osexp","C:/Users/sarah/OneDrive/Documents/Psychology/Year 2/Semester 2/Cognition & Language/Assignment","no","Andale Mono","no","18","no","white","no","yes","576","legacy","40","40","3","C:/Users/sarah/OneDrive/Documents/Psychology/Year 2/Semester 2/Cognition & Language/Assignment/subject-5207178.csv","legacy","Lentiform Loewenfeld","3.3.7","yes","yes","600bd7cfb6416f0113b04181","602110864497cf011d9c0822","0","j","NA","return","return","return","NA","j","714","NA","3563","187991","5503","NA","714","2","legacy","1024","2","48000","-16","task","5207178","even","NA","206268","211835","208272","304264","2774","196270","190767","304765","NA","304263","304765","304205","211835","305480","204073","303705","2765","286074","Lexical Decision Task","42","53111","45","yes","1024"
"3.16326079","0","5","parg","non-word","93.47826086956522","93.47826086956522","1170.1521739130435","1170.1521739130435","black","no","legacy","legacy","legacy","0","uniform","1","undefined","undefined","undefined","1","f","0","0","0","0","45","0","0","0","45","NA","41","45","41","0","41","3","45","0","45","Wed Feb 17 13:08:00 2021","The main experiment item","yes","Lexical_Decision_Task.osexp","C:/Users/sarah/OneDrive/Documents/Psychology/Year 2/Semester 2/Cognition & Language/Assignment","no","Andale Mono","no","18","no","white","no","yes","576","legacy","41","41","3","C:/Users/sarah/OneDrive/Documents/Psychology/Year 2/Semester 2/Cognition & Language/Assignment/subject-5207178.csv","legacy","Lentiform Loewenfeld","3.3.7","yes","yes","600bd7cfb6416f0113b04181","602110864497cf011d9c0822","0","f","NA","return","return","return","NA","f","716","NA","3563","187991","5503","NA","716","2","legacy","1024","2","48000","-16","task","5207178","even","NA","206268","211835","208272","306050","2774","196270","190767","306554","NA","306049","306554","305988","211835","307271","204073","305488","2765","286074","Lexical Decision Task","43","53827","46","yes","1024"
"3.153104174","10.89","6","door","word","93.61702127659575","93.61702127659575","1157.1063829787233","1157.1063829787233","black","no","legacy","legacy","legacy","0","uniform","1","undefined","undefined","undefined","1","j","0","0","0","0","46","0","0","0","46","NA","42","46","42","0","42","3","46","0","46","Wed Feb 17 13:08:00 2021","The main experiment item","yes","Lexical_Decision_Task.osexp","C:/Users/sarah/OneDrive/Documents/Psychology/Year 2/Semester 2/Cognition & Language/Assignment","no","Andale Mono","no","18","no","white","no","yes","576","legacy","42","42","3","C:/Users/sarah/OneDrive/Documents/Psychology/Year 2/Semester 2/Cognition & Language/Assignment/subject-5207178.csv","legacy","Lentiform Loewenfeld","3.3.7","yes","yes","600bd7cfb6416f0113b04181","602110864497cf011d9c0822","0","j","NA","return","return","return","NA","j","557","NA","3563","187991","5503","NA","557","2","legacy","1024","2","48000","-16","task","5207178","even","NA","206268","211835","208272","307832","2774","196270","190767","308335","NA","307830","308335","307774","211835","308892","204073","307274","2765","286074","Lexical Decision Task","44","54384","47","yes","1024"
"2.706148589","0","4","hube","non-word","93.75","93.75","1182.25","1182.25","black","no","legacy","legacy","legacy","0","uniform","1","undefined","undefined","undefined","1","f","0","0","0","0","47","0","0","0","47","NA","43","47","43","0","43","3","47","0","47","Wed Feb 17 13:08:00 2021","The main experiment item","yes","Lexical_Decision_Task.osexp","C:/Users/sarah/OneDrive/Documents/Psychology/Year 2/Semester 2/Cognition & Language/Assignment","no","Andale Mono","no","18","no","white","no","yes","576","legacy","43","43","3","C:/Users/sarah/OneDrive/Documents/Psychology/Year 2/Semester 2/Cognition & Language/Assignment/subject-5207178.csv","legacy","Lentiform Loewenfeld","3.3.7","yes","yes","600bd7cfb6416f0113b04181","602110864497cf011d9c0822","0","f","NA","return","return","return","NA","f","2364","NA","3563","187991","5503","NA","2364","2","legacy","1024","2","48000","-16","task","5207178","even","NA","206268","211835","208272","309448","2774","196270","190767","309952","NA","309447","309952","309400","211835","312316","204073","308900","2765","286074","Lexical Decision Task","45","56748","48","yes","1024"
"2.698387659","6.66","7","skid","word","93.87755102040816","93.87755102040816","1173.1632653061224","1173.1632653061224","black","no","legacy","legacy","legacy","0","uniform","1","undefined","undefined","undefined","1","j","0","0","0","0","48","0","0","0","48","NA","44","48","44","0","44","3","48","0","48","Wed Feb 17 13:08:00 2021","The main experiment item","yes","Lexical_Decision_Task.osexp","C:/Users/sarah/OneDrive/Documents/Psychology/Year 2/Semester 2/Cognition & Language/Assignment","no","Andale Mono","no","18","no","white","no","yes","576","legacy","44","44","3","C:/Users/sarah/OneDrive/Documents/Psychology/Year 2/Semester 2/Cognition & Language/Assignment/subject-5207178.csv","legacy","Lentiform Loewenfeld","3.3.7","yes","yes","600bd7cfb6416f0113b04181","602110864497cf011d9c0822","0","j","NA","return","return","return","NA","j","737","NA","3563","187991","5503","NA","737","2","legacy","1024","2","48000","-16","task","5207178","even","NA","206268","211835","208272","312884","2774","196270","190767","313385","NA","312882","313385","312824","211835","314122","204073","312324","2765","286074","Lexical Decision Task","46","57485","49","yes","1024"
"3.037294994","8.64","7","roof","word","94","94","1161.6","1161.6","black","no","legacy","legacy","legacy","0","uniform","1","undefined","undefined","undefined","1","j","0","0","0","0","49","0","0","0","49","NA","45","49","45","0","45","3","49","0","49","Wed Feb 17 13:08:00 2021","The main experiment item","yes","Lexical_Decision_Task.osexp","C:/Users/sarah/OneDrive/Documents/Psychology/Year 2/Semester 2/Cognition & Language/Assignment","no","Andale Mono","no","18","no","white","no","yes","576","legacy","45","45","3","C:/Users/sarah/OneDrive/Documents/Psychology/Year 2/Semester 2/Cognition & Language/Assignment/subject-5207178.csv","legacy","Lentiform Loewenfeld","3.3.7","yes","yes","600bd7cfb6416f0113b04181","602110864497cf011d9c0822","0","j","NA","return","return","return","NA","j","595","NA","3563","187991","5503","NA","595","2","legacy","1024","2","48000","-16","task","5207178","even","NA","206268","211835","208272","314690","2774","196270","190767","315193","NA","314689","315193","314630","211835","315789","204073","314130","2765","286074","Lexical Decision Task","47","58080","50","yes","1024"
"3.382617311","0","4","pret","non-word","94.11764705882354","94.11764705882354","1184.9411764705883","1184.9411764705883","black","no","legacy","legacy","legacy","0","uniform","1","undefined","undefined","undefined","1","f","0","0","0","0","50","0","0","0","50","NA","46","50","46","0","46","3","50","0","50","Wed Feb 17 13:08:00 2021","The main experiment item","yes","Lexical_Decision_Task.osexp","C:/Users/sarah/OneDrive/Documents/Psychology/Year 2/Semester 2/Cognition & Language/Assignment","no","Andale Mono","no","18","no","white","no","yes","576","legacy","46","46","3","C:/Users/sarah/OneDrive/Documents/Psychology/Year 2/Semester 2/Cognition & Language/Assignment/subject-5207178.csv","legacy","Lentiform Loewenfeld","3.3.7","yes","yes","600bd7cfb6416f0113b04181","602110864497cf011d9c0822","0","f","NA","return","return","return","NA","f","2352","NA","3563","187991","5503","NA","2352","2","legacy","1024","2","48000","-16","task","5207178","even","NA","206268","211835","208272","316361","2774","196270","190767","316864","NA","316359","316864","316299","211835","319217","204073","315799","2765","286074","Lexical Decision Task","48","60432","51","yes","1024"
"3.081107167","0","6","chot","non-word","94.23076923076923","94.23076923076923","1189.5384615384614","1189.5384615384614","black","no","legacy","legacy","legacy","0","uniform","1","undefined","undefined","undefined","1","f","0","0","0","0","51","0","0","0","51","NA","47","51","47","0","47","3","51","0","51","Wed Feb 17 13:08:00 2021","The main experiment item","yes","Lexical_Decision_Task.osexp","C:/Users/sarah/OneDrive/Documents/Psychology/Year 2/Semester 2/Cognition & Language/Assignment","no","Andale Mono","no","18","no","white","no","yes","576","legacy","47","47","3","C:/Users/sarah/OneDrive/Documents/Psychology/Year 2/Semester 2/Cognition & Language/Assignment/subject-5207178.csv","legacy","Lentiform Loewenfeld","3.3.7","yes","yes","600bd7cfb6416f0113b04181","602110864497cf011d9c0822","0","f","NA","return","return","return","NA","f","1424","NA","3563","187991","5503","NA","1424","2","legacy","1024","2","48000","-16","task","5207178","even","NA","206268","211835","208272","319779","2774","196270","190767","320280","NA","319777","320280","319728","211835","321704","204073","319228","2765","286074","Lexical Decision Task","49","61856","52","yes","1024"
"3.066077331","0","7","vorn","non-word","94.33962264150944","94.33962264150944","1186.9056603773586","1186.9056603773586","black","no","legacy","legacy","legacy","0","uniform","1","undefined","undefined","undefined","1","f","0","0","0","0","52","0","0","0","52","NA","48","52","48","0","48","3","52","0","52","Wed Feb 17 13:08:00 2021","The main experiment item","yes","Lexical_Decision_Task.osexp","C:/Users/sarah/OneDrive/Documents/Psychology/Year 2/Semester 2/Cognition & Language/Assignment","no","Andale Mono","no","18","no","white","no","yes","576","legacy","48","48","3","C:/Users/sarah/OneDrive/Documents/Psychology/Year 2/Semester 2/Cognition & Language/Assignment/subject-5207178.csv","legacy","Lentiform Loewenfeld","3.3.7","yes","yes","600bd7cfb6416f0113b04181","602110864497cf011d9c0822","0","f","NA","return","return","return","NA","f","1050","NA","3563","187991","5503","NA","1050","2","legacy","1024","2","48000","-16","task","5207178","even","NA","206268","211835","208272","322277","2774","196270","190767","322781","NA","322275","322781","322212","211835","323832","204073","321712","2765","286074","Lexical Decision Task","50","62906","53","yes","1024"
"2.819763221","0","2","durp","non-word","94.44444444444444","94.44444444444444","1185.0925925925926","1185.0925925925926","black","no","legacy","legacy","legacy","0","uniform","1","undefined","undefined","undefined","1","f","0","0","0","0","53","0","0","0","53","NA","49","53","49","0","49","3","53","0","53","Wed Feb 17 13:08:00 2021","The main experiment item","yes","Lexical_Decision_Task.osexp","C:/Users/sarah/OneDrive/Documents/Psychology/Year 2/Semester 2/Cognition & Language/Assignment","no","Andale Mono","no","18","no","white","no","yes","576","legacy","49","49","3","C:/Users/sarah/OneDrive/Documents/Psychology/Year 2/Semester 2/Cognition & Language/Assignment/subject-5207178.csv","legacy","Lentiform Loewenfeld","3.3.7","yes","yes","600bd7cfb6416f0113b04181","602110864497cf011d9c0822","0","f","NA","return","return","return","NA","f","1089","NA","3563","187991","5503","NA","1089","2","legacy","1024","2","48000","-16","task","5207178","even","NA","206268","211835","208272","324397","2774","196270","190767","324899","NA","324396","324899","324342","211835","325989","204073","323842","2765","286074","Lexical Decision Task","51","63995","54","yes","1024"
"3.311895072","0","9","gung","non-word","92.72727272727273","92.72727272727273","1218.090909090909","1218.090909090909","black","no","legacy","legacy","legacy","0","uniform","0","undefined","undefined","undefined","0","f","0","0","0","0","54","0","0","0","54","0","50","54","50","0","50","3","54","0","54","Wed Feb 17 13:08:00 2021","The main experiment item","yes","Lexical_Decision_Task.osexp","C:/Users/sarah/OneDrive/Documents/Psychology/Year 2/Semester 2/Cognition & Language/Assignment","no","Andale Mono","no","18","no","white","no","yes","576","legacy","50","50","3","C:/Users/sarah/OneDrive/Documents/Psychology/Year 2/Semester 2/Cognition & Language/Assignment/subject-5207178.csv","legacy","Lentiform Loewenfeld","3.3.7","yes","yes","600bd7cfb6416f0113b04181","602110864497cf011d9c0822","0","None","NA","return","return","return","return","None","3000","NA","3563","187991","5503","11114","3000","2","legacy","1024","2","48000","-16","task","5207178","even","NA","206268","211835","208272","337692","2774","196270","190767","338196","326525","337690","338196","326497","211835","341196","204073","325997","2765","286074","Lexical Decision Task","51","66995","55","yes","1024"
"2.972357144","0","5","dasp","non-word","91.07142857142857","91.07142857142857","1249.9107142857142","1249.9107142857142","black","no","legacy","legacy","legacy","0","uniform","0","undefined","undefined","undefined","0","f","0","0","0","0","55","0","0","0","55","0","51","55","51","0","51","3","55","0","55","Wed Feb 17 13:08:00 2021","The main experiment item","yes","Lexical_Decision_Task.osexp","C:/Users/sarah/OneDrive/Documents/Psychology/Year 2/Semester 2/Cognition & Language/Assignment","no","Andale Mono","no","18","no","white","no","yes","576","legacy","51","51","3","C:/Users/sarah/OneDrive/Documents/Psychology/Year 2/Semester 2/Cognition & Language/Assignment/subject-5207178.csv","legacy","Lentiform Loewenfeld","3.3.7","yes","yes","600bd7cfb6416f0113b04181","602110864497cf011d9c0822","0","None","NA","return","return","return","return","None","3000","NA","3563","187991","5503","11114","3000","2","legacy","1024","2","48000","-16","task","5207178","even","NA","206268","211835","208272","342771","2774","196270","190767","343274","326525","342770","343274","342706","211835","346274","204073","325997","2765","341205","Lexical Decision Task","51","69995","56","yes","1024"
"2.703007489","8.37","3","pulp","word","91.2280701754386","91.2280701754386","1248.5964912280701","1248.5964912280701","black","no","legacy","legacy","legacy","0","uniform","1","undefined","undefined","undefined","1","j","0","0","0","0","56","0","0","0","56","0","52","56","52","0","52","3","56","0","56","Wed Feb 17 13:08:00 2021","The main experiment item","yes","Lexical_Decision_Task.osexp","C:/Users/sarah/OneDrive/Documents/Psychology/Year 2/Semester 2/Cognition & Language/Assignment","no","Andale Mono","no","18","no","white","no","yes","576","legacy","52","52","3","C:/Users/sarah/OneDrive/Documents/Psychology/Year 2/Semester 2/Cognition & Language/Assignment/subject-5207178.csv","legacy","Lentiform Loewenfeld","3.3.7","yes","yes","600bd7cfb6416f0113b04181","602110864497cf011d9c0822","0","j","NA","return","return","return","return","j","1175","NA","3563","187991","5503","11114","1175","2","legacy","1024","2","48000","-16","task","5207178","even","NA","206268","211835","208272","347836","2774","196270","190767","348340","326525","347834","348340","347782","211835","349516","204073","325997","2765","346282","Lexical Decision Task","52","71170","57","yes","1024"
"3.14849993","10.75","7","hour","word","91.37931034482759","91.37931034482759","1239.8275862068965","1239.8275862068965","black","no","legacy","legacy","legacy","0","uniform","1","undefined","undefined","undefined","1","j","0","0","0","0","57","0","0","0","57","0","53","57","53","0","53","3","57","0","57","Wed Feb 17 13:08:00 2021","The main experiment item","yes","Lexical_Decision_Task.osexp","C:/Users/sarah/OneDrive/Documents/Psychology/Year 2/Semester 2/Cognition & Language/Assignment","no","Andale Mono","no","18","no","white","no","yes","576","legacy","53","53","3","C:/Users/sarah/OneDrive/Documents/Psychology/Year 2/Semester 2/Cognition & Language/Assignment/subject-5207178.csv","legacy","Lentiform Loewenfeld","3.3.7","yes","yes","600bd7cfb6416f0113b04181","602110864497cf011d9c0822","0","j","NA","return","return","return","return","j","740","NA","3563","187991","5503","11114","740","2","legacy","1024","2","48000","-16","task","5207178","even","NA","206268","211835","208272","350076","2774","196270","190767","350577","326525","350075","350577","350024","211835","351317","204073","349524","2765","346282","Lexical Decision Task","53","71910","58","yes","1024"
"3.366547468","0","6","plat","non-word","91.52542372881356","91.52542372881356","1243.4237288135594","1243.4237288135594","black","no","legacy","legacy","legacy","0","uniform","1","undefined","undefined","undefined","1","f","0","0","0","0","58","0","0","0","58","0","54","58","54","0","54","3","58","0","58","Wed Feb 17 13:08:00 2021","The main experiment item","yes","Lexical_Decision_Task.osexp","C:/Users/sarah/OneDrive/Documents/Psychology/Year 2/Semester 2/Cognition & Language/Assignment","no","Andale Mono","no","18","no","white","no","yes","576","legacy","54","54","3","C:/Users/sarah/OneDrive/Documents/Psychology/Year 2/Semester 2/Cognition & Language/Assignment/subject-5207178.csv","legacy","Lentiform Loewenfeld","3.3.7","yes","yes","600bd7cfb6416f0113b04181","602110864497cf011d9c0822","0","f","NA","return","return","return","return","f","1452","NA","3563","187991","5503","11114","1452","2","legacy","1024","2","48000","-16","task","5207178","even","NA","206268","211835","208272","351882","2774","196270","190767","352383","326525","351880","352383","351827","211835","353835","204073","351327","2765","346282","Lexical Decision Task","54","73362","59","yes","1024"
"2.69019608","9.01","2","myth","word","91.66666666666667","91.66666666666667","1234.8666666666666","1234.8666666666666","black","no","legacy","legacy","legacy","0","uniform","1","undefined","undefined","undefined","1","j","0","0","0","0","59","0","0","0","59","0","55","59","55","0","55","3","59","0","59","Wed Feb 17 13:08:00 2021","The main experiment item","yes","Lexical_Decision_Task.osexp","C:/Users/sarah/OneDrive/Documents/Psychology/Year 2/Semester 2/Cognition & Language/Assignment","no","Andale Mono","no","18","no","white","no","yes","576","legacy","55","55","3","C:/Users/sarah/OneDrive/Documents/Psychology/Year 2/Semester 2/Cognition & Language/Assignment/subject-5207178.csv","legacy","Lentiform Loewenfeld","3.3.7","yes","yes","600bd7cfb6416f0113b04181","602110864497cf011d9c0822","0","j","NA","return","return","return","return","j","730","NA","3563","187991","5503","11114","730","2","legacy","1024","2","48000","-16","task","5207178","even","NA","206268","211835","208272","354396","2774","196270","190767","354896","326525","354394","354896","354344","211835","355627","204073","353843","2765","346282","Lexical Decision Task","55","74092","60","yes","1024"
"2.746890964","9.67","3","plug","word","91.80327868852459","91.80327868852459","1226.311475409836","1226.311475409836","black","no","legacy","legacy","legacy","0","uniform","1","undefined","undefined","undefined","1","j","0","0","0","0","60","0","0","0","60","0","56","60","56","0","56","3","60","0","60","Wed Feb 17 13:08:00 2021","The main experiment item","yes","Lexical_Decision_Task.osexp","C:/Users/sarah/OneDrive/Documents/Psychology/Year 2/Semester 2/Cognition & Language/Assignment","no","Andale Mono","no","18","no","white","no","yes","576","legacy","56","56","3","C:/Users/sarah/OneDrive/Documents/Psychology/Year 2/Semester 2/Cognition & Language/Assignment/subject-5207178.csv","legacy","Lentiform Loewenfeld","3.3.7","yes","yes","600bd7cfb6416f0113b04181","602110864497cf011d9c0822","0","j","NA","return","return","return","return","j","713","NA","3563","187991","5503","11114","713","2","legacy","1024","2","48000","-16","task","5207178","even","NA","206268","211835","208272","356194","2774","196270","190767","356695","326525","356193","356695","356135","211835","357408","204073","355635","2765","346282","Lexical Decision Task","56","74805","61","yes","1024"
"3.197740804","6.74","3","ache","word","91.93548387096774","91.93548387096774","1217.1451612903227","1217.1451612903227","black","no","legacy","legacy","legacy","0","uniform","1","undefined","undefined","undefined","1","j","0","0","0","0","61","0","0","0","61","0","57","61","57","0","57","3","61","0","61","Wed Feb 17 13:08:00 2021","The main experiment item","yes","Lexical_Decision_Task.osexp","C:/Users/sarah/OneDrive/Documents/Psychology/Year 2/Semester 2/Cognition & Language/Assignment","no","Andale Mono","no","18","no","white","no","yes","576","legacy","57","57","3","C:/Users/sarah/OneDrive/Documents/Psychology/Year 2/Semester 2/Cognition & Language/Assignment/subject-5207178.csv","legacy","Lentiform Loewenfeld","3.3.7","yes","yes","600bd7cfb6416f0113b04181","602110864497cf011d9c0822","0","j","NA","return","return","return","return","j","658","NA","3563","187991","5503","11114","658","2","legacy","1024","2","48000","-16","task","5207178","even","NA","206268","211835","208272","357970","2774","196270","190767","358471","326525","357969","358471","357916","211835","359130","204073","357416","2765","346282","Lexical Decision Task","57","75463","62","yes","1024"
"2.838639236","0","4","furg","non-word","92.06349206349206","92.06349206349206","1210.4761904761904","1210.4761904761904","black","no","legacy","legacy","legacy","0","uniform","1","undefined","undefined","undefined","1","f","0","0","0","0","62","0","0","0","62","0","58","62","58","0","58","3","62","0","62","Wed Feb 17 13:08:00 2021","The main experiment item","yes","Lexical_Decision_Task.osexp","C:/Users/sarah/OneDrive/Documents/Psychology/Year 2/Semester 2/Cognition & Language/Assignment","no","Andale Mono","no","18","no","white","no","yes","576","legacy","58","58","3","C:/Users/sarah/OneDrive/Documents/Psychology/Year 2/Semester 2/Cognition & Language/Assignment/subject-5207178.csv","legacy","Lentiform Loewenfeld","3.3.7","yes","yes","600bd7cfb6416f0113b04181","602110864497cf011d9c0822","0","f","NA","return","return","return","return","f","797","NA","3563","187991","5503","11114","797","2","legacy","1024","2","48000","-16","task","5207178","even","NA","206268","211835","208272","359686","2774","196270","190767","360189","326525","359684","360189","359637","211835","360986","204073","359137","2765","346282","Lexical Decision Task","58","76260","63","yes","1024"
"3.149629599","0","2","cleb","non-word","92.1875","92.1875","1206.265625","1206.265625","black","no","legacy","legacy","legacy","0","uniform","1","undefined","undefined","undefined","1","f","0","0","0","0","63","0","0","0","63","0","59","63","59","0","59","3","63","0","63","Wed Feb 17 13:08:00 2021","The main experiment item","yes","Lexical_Decision_Task.osexp","C:/Users/sarah/OneDrive/Documents/Psychology/Year 2/Semester 2/Cognition & Language/Assignment","no","Andale Mono","no","18","no","white","no","yes","576","legacy","59","59","3","C:/Users/sarah/OneDrive/Documents/Psychology/Year 2/Semester 2/Cognition & Language/Assignment/subject-5207178.csv","legacy","Lentiform Loewenfeld","3.3.7","yes","yes","600bd7cfb6416f0113b04181","602110864497cf011d9c0822","0","f","NA","return","return","return","return","f","941","NA","3563","187991","5503","11114","941","2","legacy","1024","2","48000","-16","task","5207178","even","NA","206268","211835","208272","361548","2774","196270","190767","362051","326525","361547","362051","361496","211835","362993","204073","360995","2765","346282","Lexical Decision Task","59","77201","64","yes","1024"
"3.133964479","0","8","graw","non-word","92.3076923076923","92.3076923076923","1201.6461538461538","1201.6461538461538","black","no","legacy","legacy","legacy","0","uniform","1","undefined","undefined","undefined","1","f","0","0","0","0","64","0","0","0","64","0","60","64","60","0","60","3","64","0","64","Wed Feb 17 13:08:00 2021","The main experiment item","yes","Lexical_Decision_Task.osexp","C:/Users/sarah/OneDrive/Documents/Psychology/Year 2/Semester 2/Cognition & Language/Assignment","no","Andale Mono","no","18","no","white","no","yes","576","legacy","60","60","3","C:/Users/sarah/OneDrive/Documents/Psychology/Year 2/Semester 2/Cognition & Language/Assignment/subject-5207178.csv","legacy","Lentiform Loewenfeld","3.3.7","yes","yes","600bd7cfb6416f0113b04181","602110864497cf011d9c0822","0","f","NA","return","return","return","return","f","906","NA","3563","187991","5503","11114","906","2","legacy","1024","2","48000","-16","task","5207178","even","NA","206268","211835","208272","363552","2774","196270","190767","364054","326525","363551","364054","363502","211835","364961","204073","363002","2765","346282","Lexical Decision Task","60","78107","65","yes","1024"
"2.794720352","0","9","koot","non-word","92.42424242424242","92.42424242424242","1196.1666666666667","1196.1666666666667","black","no","legacy","legacy","legacy","0","uniform","1","undefined","undefined","undefined","1","f","0","0","0","0","65","0","0","0","65","0","61","65","61","0","61","3","65","0","65","Wed Feb 17 13:08:00 2021","The main experiment item","yes","Lexical_Decision_Task.osexp","C:/Users/sarah/OneDrive/Documents/Psychology/Year 2/Semester 2/Cognition & Language/Assignment","no","Andale Mono","no","18","no","white","no","yes","576","legacy","61","61","3","C:/Users/sarah/OneDrive/Documents/Psychology/Year 2/Semester 2/Cognition & Language/Assignment/subject-5207178.csv","legacy","Lentiform Loewenfeld","3.3.7","yes","yes","600bd7cfb6416f0113b04181","602110864497cf011d9c0822","0","f","NA","return","return","return","return","f","840","NA","3563","187991","5503","11114","840","2","legacy","1024","2","48000","-16","task","5207178","even","NA","206268","211835","208272","365530","2774","196270","190767","366031","326525","365529","366031","365469","211835","366871","204073","364969","2765","346282","Lexical Decision Task","61","78947","66","yes","1024"
"2.799799878","0","4","ciff","non-word","92.53731343283582","92.53731343283582","1191.597014925373","1191.597014925373","black","no","legacy","legacy","legacy","0","uniform","1","undefined","undefined","undefined","1","f","0","0","0","0","66","0","0","0","66","0","62","66","62","0","62","3","66","0","66","Wed Feb 17 13:08:00 2021","The main experiment item","yes","Lexical_Decision_Task.osexp","C:/Users/sarah/OneDrive/Documents/Psychology/Year 2/Semester 2/Cognition & Language/Assignment","no","Andale Mono","no","18","no","white","no","yes","576","legacy","62","62","3","C:/Users/sarah/OneDrive/Documents/Psychology/Year 2/Semester 2/Cognition & Language/Assignment/subject-5207178.csv","legacy","Lentiform Loewenfeld","3.3.7","yes","yes","600bd7cfb6416f0113b04181","602110864497cf011d9c0822","0","f","NA","return","return","return","return","f","890","NA","3563","187991","5503","11114","890","2","legacy","1024","2","48000","-16","task","5207178","even","NA","206268","211835","208272","367432","2774","196270","190767","367933","326525","367430","367933","367381","211835","368823","204073","366881","2765","346282","Lexical Decision Task","62","79837","67","yes","1024"
"2.664328519","0","4","plux","non-word","92.6470588235294","92.6470588235294","1188.264705882353","1188.264705882353","black","no","legacy","legacy","legacy","0","uniform","1","undefined","undefined","undefined","1","f","0","0","0","0","67","0","0","0","67","0","63","67","63","0","63","3","67","0","67","Wed Feb 17 13:08:00 2021","The main experiment item","yes","Lexical_Decision_Task.osexp","C:/Users/sarah/OneDrive/Documents/Psychology/Year 2/Semester 2/Cognition & Language/Assignment","no","Andale Mono","no","18","no","white","no","yes","576","legacy","63","63","3","C:/Users/sarah/OneDrive/Documents/Psychology/Year 2/Semester 2/Cognition & Language/Assignment/subject-5207178.csv","legacy","Lentiform Loewenfeld","3.3.7","yes","yes","600bd7cfb6416f0113b04181","602110864497cf011d9c0822","0","f","NA","return","return","return","return","f","965","NA","3563","187991","5503","11114","965","2","legacy","1024","2","48000","-16","task","5207178","even","NA","206268","211835","208272","369395","2774","196270","190767","369896","326525","369394","369896","369334","211835","370861","204073","368833","2765","346282","Lexical Decision Task","63","80802","68","yes","1024"
"3.076883066","0","8","mout","non-word","91.30434782608695","91.30434782608695","1180.3333333333333","1180.3333333333333","black","no","legacy","legacy","legacy","0","uniform","0","undefined","undefined","undefined","0","f","0","0","0","0","68","0","0","0","68","0","64","68","64","0","64","3","68","0","68","Wed Feb 17 13:08:00 2021","The main experiment item","yes","Lexical_Decision_Task.osexp","C:/Users/sarah/OneDrive/Documents/Psychology/Year 2/Semester 2/Cognition & Language/Assignment","no","Andale Mono","no","18","no","white","no","yes","576","legacy","64","64","3","C:/Users/sarah/OneDrive/Documents/Psychology/Year 2/Semester 2/Cognition & Language/Assignment/subject-5207178.csv","legacy","Lentiform Loewenfeld","3.3.7","yes","yes","600bd7cfb6416f0113b04181","602110864497cf011d9c0822","0","j","NA","return","return","return","return","j","641","NA","3563","187991","5503","11114","641","2","legacy","1024","2","48000","-16","task","5207178","even","NA","206268","211835","208272","371418","2774","196270","190767","371919","326525","371417","371919","371369","211835","372560","204073","370869","2765","346282","Lexical Decision Task","63","81443","69","yes","1024"
"3.397302518","7.01","2","knit","word","91.42857142857143","91.42857142857143","1175.8428571428572","1175.8428571428572","black","no","legacy","legacy","legacy","0","uniform","1","undefined","undefined","undefined","1","j","0","0","0","0","69","0","0","0","69","0","65","69","65","0","65","3","69","0","69","Wed Feb 17 13:08:00 2021","The main experiment item","yes","Lexical_Decision_Task.osexp","C:/Users/sarah/OneDrive/Documents/Psychology/Year 2/Semester 2/Cognition & Language/Assignment","no","Andale Mono","no","18","no","white","no","yes","576","legacy","65","65","3","C:/Users/sarah/OneDrive/Documents/Psychology/Year 2/Semester 2/Cognition & Language/Assignment/subject-5207178.csv","legacy","Lentiform Loewenfeld","3.3.7","yes","yes","600bd7cfb6416f0113b04181","602110864497cf011d9c0822","0","j","NA","return","return","return","return","j","866","NA","3563","187991","5503","11114","866","2","legacy","1024","2","48000","-16","task","5207178","even","NA","206268","211835","208272","374135","2774","196270","190767","374639","326525","374134","374639","374069","211835","375505","204073","370869","2765","372569","Lexical Decision Task","64","82309","70","yes","1024"
"2.924968096","0","4","phim","non-word","91.54929577464789","91.54929577464789","1169.4084507042253","1169.4084507042253","black","no","legacy","legacy","legacy","0","uniform","1","undefined","undefined","undefined","1","f","0","0","0","0","70","0","0","0","70","0","66","70","66","0","66","3","70","0","70","Wed Feb 17 13:08:00 2021","The main experiment item","yes","Lexical_Decision_Task.osexp","C:/Users/sarah/OneDrive/Documents/Psychology/Year 2/Semester 2/Cognition & Language/Assignment","no","Andale Mono","no","18","no","white","no","yes","576","legacy","66","66","3","C:/Users/sarah/OneDrive/Documents/Psychology/Year 2/Semester 2/Cognition & Language/Assignment/subject-5207178.csv","legacy","Lentiform Loewenfeld","3.3.7","yes","yes","600bd7cfb6416f0113b04181","602110864497cf011d9c0822","0","f","NA","return","return","return","return","f","719","NA","3563","187991","5503","11114","719","2","legacy","1024","2","48000","-16","task","5207178","even","NA","206268","211835","208272","376076","2774","196270","190767","376577","326525","376074","376577","376015","211835","377297","204073","375515","2765","372569","Lexical Decision Task","65","83028","71","yes","1024"
"3.531734309","0","6","lerd","non-word","91.66666666666667","91.66666666666667","1163.986111111111","1163.986111111111","black","no","legacy","legacy","legacy","0","uniform","1","undefined","undefined","undefined","1","f","0","0","0","0","71","0","0","0","71","0","67","71","67","0","67","3","71","0","71","Wed Feb 17 13:08:00 2021","The main experiment item","yes","Lexical_Decision_Task.osexp","C:/Users/sarah/OneDrive/Documents/Psychology/Year 2/Semester 2/Cognition & Language/Assignment","no","Andale Mono","no","18","no","white","no","yes","576","legacy","67","67","3","C:/Users/sarah/OneDrive/Documents/Psychology/Year 2/Semester 2/Cognition & Language/Assignment/subject-5207178.csv","legacy","Lentiform Loewenfeld","3.3.7","yes","yes","600bd7cfb6416f0113b04181","602110864497cf011d9c0822","0","f","NA","return","return","return","return","f","779","NA","3563","187991","5503","11114","779","2","legacy","1024","2","48000","-16","task","5207178","even","NA","206268","211835","208272","377856","2774","196270","190767","378359","326525","377855","378359","377807","211835","379138","204073","377307","2765","372569","Lexical Decision Task","66","83807","72","yes","1024"
"2.8162413","0","5","nusk","non-word","91.78082191780823","91.78082191780823","1163.4794520547946","1163.4794520547946","black","no","legacy","legacy","legacy","0","uniform","1","undefined","undefined","undefined","1","f","0","0","0","0","72","0","0","0","72","0","68","72","68","0","68","3","72","0","72","Wed Feb 17 13:08:00 2021","The main experiment item","yes","Lexical_Decision_Task.osexp","C:/Users/sarah/OneDrive/Documents/Psychology/Year 2/Semester 2/Cognition & Language/Assignment","no","Andale Mono","no","18","no","white","no","yes","576","legacy","68","68","3","C:/Users/sarah/OneDrive/Documents/Psychology/Year 2/Semester 2/Cognition & Language/Assignment/subject-5207178.csv","legacy","Lentiform Loewenfeld","3.3.7","yes","yes","600bd7cfb6416f0113b04181","602110864497cf011d9c0822","0","f","NA","return","return","return","return","f","1127","NA","3563","187991","5503","11114","1127","2","legacy","1024","2","48000","-16","task","5207178","even","NA","206268","211835","208272","379706","2774","196270","190767","380209","326525","379704","380209","379647","211835","381336","204073","379147","2765","372569","Lexical Decision Task","67","84934","73","yes","1024"
"3.20871002","7.15","8","cram","word","91.89189189189189","91.89189189189189","1158.081081081081","1158.081081081081","black","no","legacy","legacy","legacy","0","uniform","1","undefined","undefined","undefined","1","j","0","0","0","0","73","0","0","0","73","0","69","73","69","0","69","3","73","0","73","Wed Feb 17 13:08:00 2021","The main experiment item","yes","Lexical_Decision_Task.osexp","C:/Users/sarah/OneDrive/Documents/Psychology/Year 2/Semester 2/Cognition & Language/Assignment","no","Andale Mono","no","18","no","white","no","yes","576","legacy","69","69","3","C:/Users/sarah/OneDrive/Documents/Psychology/Year 2/Semester 2/Cognition & Language/Assignment/subject-5207178.csv","legacy","Lentiform Loewenfeld","3.3.7","yes","yes","600bd7cfb6416f0113b04181","602110864497cf011d9c0822","0","j","NA","return","return","return","return","j","764","NA","3563","187991","5503","11114","764","2","legacy","1024","2","48000","-16","task","5207178","even","NA","206268","211835","208272","381898","2774","196270","190767","382399","326525","381897","382399","381846","211835","383163","204073","381346","2765","372569","Lexical Decision Task","68","85698","74","yes","1024"
"3.440331212","7.35","6","stew","word","92","92","1151.28","1151.28","black","no","legacy","legacy","legacy","0","uniform","1","undefined","undefined","undefined","1","j","0","0","0","0","74","0","0","0","74","0","70","74","70","0","70","3","74","0","74","Wed Feb 17 13:08:00 2021","The main experiment item","yes","Lexical_Decision_Task.osexp","C:/Users/sarah/OneDrive/Documents/Psychology/Year 2/Semester 2/Cognition & Language/Assignment","no","Andale Mono","no","18","no","white","no","yes","576","legacy","70","70","3","C:/Users/sarah/OneDrive/Documents/Psychology/Year 2/Semester 2/Cognition & Language/Assignment/subject-5207178.csv","legacy","Lentiform Loewenfeld","3.3.7","yes","yes","600bd7cfb6416f0113b04181","602110864497cf011d9c0822","0","j","NA","return","return","return","return","j","648","NA","3563","187991","5503","11114","648","2","legacy","1024","2","48000","-16","task","5207178","even","NA","206268","211835","208272","383734","2774","196270","190767","384235","326525","383732","384235","383673","211835","384884","204073","383173","2765","372569","Lexical Decision Task","69","86346","75","yes","1024"
"3.209246849","0","7","slem","non-word","92.10526315789474","92.10526315789474","1146.6052631578948","1146.6052631578948","black","no","legacy","legacy","legacy","0","uniform","1","undefined","undefined","undefined","1","f","0","0","0","0","75","0","0","0","75","0","71","75","71","0","71","3","75","0","75","Wed Feb 17 13:08:00 2021","The main experiment item","yes","Lexical_Decision_Task.osexp","C:/Users/sarah/OneDrive/Documents/Psychology/Year 2/Semester 2/Cognition & Language/Assignment","no","Andale Mono","no","18","no","white","no","yes","576","legacy","71","71","3","C:/Users/sarah/OneDrive/Documents/Psychology/Year 2/Semester 2/Cognition & Language/Assignment/subject-5207178.csv","legacy","Lentiform Loewenfeld","3.3.7","yes","yes","600bd7cfb6416f0113b04181","602110864497cf011d9c0822","0","f","NA","return","return","return","return","f","796","NA","3563","187991","5503","11114","796","2","legacy","1024","2","48000","-16","task","5207178","even","NA","206268","211835","208272","385443","2774","196270","190767","385944","326525","385442","385944","385392","211835","386741","204073","384892","2765","372569","Lexical Decision Task","70","87142","76","yes","1024"
"2.713490543","0","3","feps","non-word","92.20779220779221","92.20779220779221","1141.2727272727273","1141.2727272727273","black","no","legacy","legacy","legacy","0","uniform","1","undefined","undefined","undefined","1","f","0","0","0","0","76","0","0","0","76","0","72","76","72","0","72","3","76","0","76","Wed Feb 17 13:08:00 2021","The main experiment item","yes","Lexical_Decision_Task.osexp","C:/Users/sarah/OneDrive/Documents/Psychology/Year 2/Semester 2/Cognition & Language/Assignment","no","Andale Mono","no","18","no","white","no","yes","576","legacy","72","72","3","C:/Users/sarah/OneDrive/Documents/Psychology/Year 2/Semester 2/Cognition & Language/Assignment/subject-5207178.csv","legacy","Lentiform Loewenfeld","3.3.7","yes","yes","600bd7cfb6416f0113b04181","602110864497cf011d9c0822","0","f","NA","return","return","return","return","f","736","NA","3563","187991","5503","11114","736","2","legacy","1024","2","48000","-16","task","5207178","even","NA","206268","211835","208272","387300","2774","196270","190767","387801","326525","387299","387801","387249","211835","388538","204073","386749","2765","372569","Lexical Decision Task","71","87878","77","yes","1024"
"3.384413096","10.15","3","glad","word","92.3076923076923","92.3076923076923","1134.628205128205","1134.628205128205","black","no","legacy","legacy","legacy","0","uniform","1","undefined","undefined","undefined","1","j","0","0","0","0","77","0","0","0","77","0","73","77","73","0","73","3","77","0","77","Wed Feb 17 13:08:00 2021","The main experiment item","yes","Lexical_Decision_Task.osexp","C:/Users/sarah/OneDrive/Documents/Psychology/Year 2/Semester 2/Cognition & Language/Assignment","no","Andale Mono","no","18","no","white","no","yes","576","legacy","73","73","3","C:/Users/sarah/OneDrive/Documents/Psychology/Year 2/Semester 2/Cognition & Language/Assignment/subject-5207178.csv","legacy","Lentiform Loewenfeld","3.3.7","yes","yes","600bd7cfb6416f0113b04181","602110864497cf011d9c0822","0","j","NA","return","return","return","return","j","623","NA","3563","187991","5503","11114","623","2","legacy","1024","2","48000","-16","task","5207178","even","NA","206268","211835","208272","389099","2774","196270","190767","389601","326525","389098","389601","389046","211835","390224","204073","388546","2765","372569","Lexical Decision Task","72","88501","78","yes","1024"
"2.839268497","0","8","maft","non-word","92.40506329113924","92.40506329113924","1134.5443037974683","1134.5443037974683","black","no","legacy","legacy","legacy","0","uniform","1","undefined","undefined","undefined","1","f","0","0","0","0","78","0","0","0","78","0","74","78","74","0","74","3","78","0","78","Wed Feb 17 13:08:00 2021","The main experiment item","yes","Lexical_Decision_Task.osexp","C:/Users/sarah/OneDrive/Documents/Psychology/Year 2/Semester 2/Cognition & Language/Assignment","no","Andale Mono","no","18","no","white","no","yes","576","legacy","74","74","3","C:/Users/sarah/OneDrive/Documents/Psychology/Year 2/Semester 2/Cognition & Language/Assignment/subject-5207178.csv","legacy","Lentiform Loewenfeld","3.3.7","yes","yes","600bd7cfb6416f0113b04181","602110864497cf011d9c0822","0","f","NA","return","return","return","return","f","1128","NA","3563","187991","5503","11114","1128","2","legacy","1024","2","48000","-16","task","5207178","even","NA","206268","211835","208272","390781","2774","196270","190767","391282","326525","390780","391282","390732","211835","392411","204073","390232","2765","372569","Lexical Decision Task","73","89629","79","yes","1024"
"2.714888338","0","3","brug","non-word","92.5","92.5","1130.65","1130.65","black","no","legacy","legacy","legacy","0","uniform","1","undefined","undefined","undefined","1","f","0","0","0","0","79","0","0","0","79","0","75","79","75","0","75","3","79","0","79","Wed Feb 17 13:08:00 2021","The main experiment item","yes","Lexical_Decision_Task.osexp","C:/Users/sarah/OneDrive/Documents/Psychology/Year 2/Semester 2/Cognition & Language/Assignment","no","Andale Mono","no","18","no","white","no","yes","576","legacy","75","75","3","C:/Users/sarah/OneDrive/Documents/Psychology/Year 2/Semester 2/Cognition & Language/Assignment/subject-5207178.csv","legacy","Lentiform Loewenfeld","3.3.7","yes","yes","600bd7cfb6416f0113b04181","602110864497cf011d9c0822","0","f","NA","return","return","return","return","f","823","NA","3563","187991","5503","11114","823","2","legacy","1024","2","48000","-16","task","5207178","even","NA","206268","211835","208272","392969","2774","196270","190767","393470","326525","392967","393470","392919","211835","394293","204073","392419","2765","372569","Lexical Decision Task","74","90452","80","yes","1024"
"2.778633532","0","3","jurp","non-word","92.5925925925926","92.5925925925926","1129.7777777777778","1129.7777777777778","black","no","legacy","legacy","legacy","0","uniform","1","undefined","undefined","undefined","1","f","0","0","0","0","80","0","0","0","80","0","76","80","76","0","76","3","80","0","80","Wed Feb 17 13:08:00 2021","The main experiment item","yes","Lexical_Decision_Task.osexp","C:/Users/sarah/OneDrive/Documents/Psychology/Year 2/Semester 2/Cognition & Language/Assignment","no","Andale Mono","no","18","no","white","no","yes","576","legacy","76","76","3","C:/Users/sarah/OneDrive/Documents/Psychology/Year 2/Semester 2/Cognition & Language/Assignment/subject-5207178.csv","legacy","Lentiform Loewenfeld","3.3.7","yes","yes","600bd7cfb6416f0113b04181","602110864497cf011d9c0822","0","f","NA","return","return","return","return","f","1060","NA","3563","187991","5503","11114","1060","2","legacy","1024","2","48000","-16","task","5207178","even","NA","206268","211835","208272","394853","2774","196270","190767","395354","326525","394852","395354","394797","211835","396415","204073","394296","2765","372569","Lexical Decision Task","75","91512","81","yes","1024"
"3.363486562","6.93","9","lush","word","92.6829268292683","92.6829268292683","1123.939024390244","1123.939024390244","black","no","legacy","legacy","legacy","0","uniform","1","undefined","undefined","undefined","1","j","0","0","0","0","81","0","0","0","81","0","77","81","77","0","77","3","81","0","81","Wed Feb 17 13:08:00 2021","The main experiment item","yes","Lexical_Decision_Task.osexp","C:/Users/sarah/OneDrive/Documents/Psychology/Year 2/Semester 2/Cognition & Language/Assignment","no","Andale Mono","no","18","no","white","no","yes","576","legacy","77","77","3","C:/Users/sarah/OneDrive/Documents/Psychology/Year 2/Semester 2/Cognition & Language/Assignment/subject-5207178.csv","legacy","Lentiform Loewenfeld","3.3.7","yes","yes","600bd7cfb6416f0113b04181","602110864497cf011d9c0822","0","j","NA","return","return","return","return","j","651","NA","3563","187991","5503","11114","651","2","legacy","1024","2","48000","-16","task","5207178","even","NA","206268","211835","208272","396986","2774","196270","190767","397489","326525","396984","397490","396925","211835","398142","204073","396425","2765","372569","Lexical Decision Task","76","92163","82","yes","1024"
"2.996511672","0","7","hoil","non-word","92.7710843373494","92.7710843373494","1121.1686746987953","1121.1686746987953","black","no","legacy","legacy","legacy","0","uniform","1","undefined","undefined","undefined","1","f","0","0","0","0","82","0","0","0","82","0","78","82","78","0","78","3","82","0","82","Wed Feb 17 13:08:00 2021","The main experiment item","yes","Lexical_Decision_Task.osexp","C:/Users/sarah/OneDrive/Documents/Psychology/Year 2/Semester 2/Cognition & Language/Assignment","no","Andale Mono","no","18","no","white","no","yes","576","legacy","78","78","3","C:/Users/sarah/OneDrive/Documents/Psychology/Year 2/Semester 2/Cognition & Language/Assignment/subject-5207178.csv","legacy","Lentiform Loewenfeld","3.3.7","yes","yes","600bd7cfb6416f0113b04181","602110864497cf011d9c0822","0","f","NA","return","return","return","return","f","894","NA","3563","187991","5503","11114","894","2","legacy","1024","2","48000","-16","task","5207178","even","NA","206268","211835","208272","398712","2774","196270","190767","399214","326525","398710","399214","398652","211835","400109","204073","398152","2765","372569","Lexical Decision Task","77","93057","83","yes","1024"
"2.892836167","10.01","5","soft","word","92.85714285714286","92.85714285714286","1115.202380952381","1115.202380952381","black","no","legacy","legacy","legacy","0","uniform","1","undefined","undefined","undefined","1","j","0","0","0","0","83","0","0","0","83","0","79","83","79","0","79","3","83","0","83","Wed Feb 17 13:08:00 2021","The main experiment item","yes","Lexical_Decision_Task.osexp","C:/Users/sarah/OneDrive/Documents/Psychology/Year 2/Semester 2/Cognition & Language/Assignment","no","Andale Mono","no","18","no","white","no","yes","576","legacy","79","79","3","C:/Users/sarah/OneDrive/Documents/Psychology/Year 2/Semester 2/Cognition & Language/Assignment/subject-5207178.csv","legacy","Lentiform Loewenfeld","3.3.7","yes","yes","600bd7cfb6416f0113b04181","602110864497cf011d9c0822","0","j","NA","return","return","return","return","j","620","NA","3563","187991","5503","11114","620","2","legacy","1024","2","48000","-16","task","5207178","even","NA","206268","211835","208272","400668","2774","196270","190767","401169","326525","400667","401169","400618","211835","401790","204073","400118","2765","372569","Lexical Decision Task","78","93677","84","yes","1024"
"2.893578687","8.69","3","surf","word","92.94117647058823","92.94117647058823","1110.5529411764705","1110.5529411764705","black","no","legacy","legacy","legacy","0","uniform","1","undefined","undefined","undefined","1","j","0","0","0","0","84","0","0","0","84","0","80","84","80","0","80","3","84","0","84","Wed Feb 17 13:08:00 2021","The main experiment item","yes","Lexical_Decision_Task.osexp","C:/Users/sarah/OneDrive/Documents/Psychology/Year 2/Semester 2/Cognition & Language/Assignment","no","Andale Mono","no","18","no","white","no","yes","576","legacy","80","80","3","C:/Users/sarah/OneDrive/Documents/Psychology/Year 2/Semester 2/Cognition & Language/Assignment/subject-5207178.csv","legacy","Lentiform Loewenfeld","3.3.7","yes","yes","600bd7cfb6416f0113b04181","602110864497cf011d9c0822","0","j","NA","return","return","return","return","j","720","NA","3563","187991","5503","11114","720","2","legacy","1024","2","48000","-16","task","5207178","even","NA","206268","211835","208272","402350","2774","196270","190767","402851","326525","402348","402851","402300","211835","403572","204073","401800","2765","372569","Lexical Decision Task","79","94397","85","yes","1024"
"3.347850856","10.51","2","rich","word","93.02325581395348","93.02325581395348","1104.5581395348838","1104.5581395348838","black","no","legacy","legacy","legacy","0","uniform","1","undefined","undefined","undefined","1","j","0","0","0","0","85","0","0","0","85","0","81","85","81","0","81","3","85","0","85","Wed Feb 17 13:08:00 2021","The main experiment item","yes","Lexical_Decision_Task.osexp","C:/Users/sarah/OneDrive/Documents/Psychology/Year 2/Semester 2/Cognition & Language/Assignment","no","Andale Mono","no","18","no","white","no","yes","576","legacy","81","81","3","C:/Users/sarah/OneDrive/Documents/Psychology/Year 2/Semester 2/Cognition & Language/Assignment/subject-5207178.csv","legacy","Lentiform Loewenfeld","3.3.7","yes","yes","600bd7cfb6416f0113b04181","602110864497cf011d9c0822","0","j","NA","return","return","return","return","j","595","NA","3563","187991","5503","11114","595","2","legacy","1024","2","48000","-16","task","5207178","even","NA","206268","211835","208272","404139","2774","196270","190767","404643","326525","404138","404643","404080","211835","405238","204073","403579","2765","372569","Lexical Decision Task","80","94992","86","yes","1024"
"3.216517684","10.87","3","film","word","93.10344827586206","93.10344827586206","1115.0919540229886","1115.0919540229886","black","no","legacy","legacy","legacy","0","uniform","1","undefined","undefined","undefined","1","j","0","0","0","0","86","0","0","0","86","0","82","86","82","0","82","3","86","0","86","Wed Feb 17 13:08:00 2021","The main experiment item","yes","Lexical_Decision_Task.osexp","C:/Users/sarah/OneDrive/Documents/Psychology/Year 2/Semester 2/Cognition & Language/Assignment","no","Andale Mono","no","18","no","white","no","yes","576","legacy","82","82","3","C:/Users/sarah/OneDrive/Documents/Psychology/Year 2/Semester 2/Cognition & Language/Assignment/subject-5207178.csv","legacy","Lentiform Loewenfeld","3.3.7","yes","yes","600bd7cfb6416f0113b04181","602110864497cf011d9c0822","0","j","NA","return","return","return","return","j","2021","NA","3563","187991","5503","11114","2021","2","legacy","1024","2","48000","-16","task","5207178","even","NA","206268","211835","208272","405795","2774","196270","190767","406298","326525","405794","406299","405746","211835","408321","204073","405246","2765","372569","Lexical Decision Task","81","97013","87","yes","1024"
