"Log_BG","Log_Freq_HAL","Ortho_N","Stimulus","Type","acc","accuracy","average_response_time","avg_rt","background","bidi","canvas_backend","clock_backend","color_backend","compensation","coordinates","correct","correct_Experimental_intro","correct_Introduction","correct_Practice_intro","correct_experimenter_kb","correct_response","count_End_Of_Experiment","count_End_Of_Practice","count_Experimental_Loop","count_Experimental_intro","count_Fixation","count_Introduction","count_Practice_Loop","count_Practice_intro","count_Stimulus","count_block_break_feedback","count_experimental_sequence","count_experimenter_kb","count_increment_trial_count","count_init_trial_count","count_logger","count_practice_sequence","count_right","count_task","count_wrong","datetime","description","disable_garbage_collection","experiment_file","experiment_path","font_bold","font_family","font_italic","font_size","font_underline","foreground","form_clicks","fullscreen","height","keyboard_backend","live_row","live_row_Experimental_Loop","live_row_Practice_Loop","logfile","mouse_backend","opensesame_codename","opensesame_version","osf_always_upload_data","osf_always_upload_experiment","osf_datanode_id","osf_id","repeat_cycle","response","response_End_Of_Experiment","response_Experimental_intro","response_Introduction","response_Practice_intro","response_block_break_feedback","response_experimenter_kb","response_time","response_time_End_Of_Experiment","response_time_Experimental_intro","response_time_Introduction","response_time_Practice_intro","response_time_block_break_feedback","response_time_experimenter_kb","round_decimals","sampler_backend","sound_buf_size","sound_channels","sound_freq","sound_sample_size","start","subject_nr","subject_parity","time_End_Of_Experiment","time_End_Of_Practice","time_Experimental_Loop","time_Experimental_intro","time_Fixation","time_Introduction","time_Practice_Loop","time_Practice_intro","time_Stimulus","time_block_break_feedback","time_experimental_sequence","time_experimenter_kb","time_increment_trial_count","time_init_trial_count","time_logger","time_practice_sequence","time_right","time_task","time_wrong","title","total_correct","total_response_time","total_responses","uniform_coordinates","width"
"3.316948329","0","1","besc","non-word","100","100","864","864","black","no","legacy","legacy","legacy","0","uniform","1","undefined","undefined","undefined","1","f","0","0","0","0","4","0","0","0","4","NA","0","4","0","0","0","3","4","0","4","Sat Mar 13 00:40:07 2021","The main experiment item","yes","Lexical_Decision_Task.osexp","C:/Users/Admin/Desktop/CyberPsych 2/CAL","no","Andale Mono","no","18","no","white","no","yes","576","legacy","0","0","3","C:/Users/Admin/Desktop/CyberPsych 2/CAL/subject-5226167.csv","legacy","Lentiform Loewenfeld","3.3.7","yes","yes","600bd7cfb6416f0113b04181","602110864497cf011d9c0822","0","f","NA","space","j","space","NA","f","738","NA","6429","20062","9798","NA","738","2","legacy","1024","2","48000","-16","task","5226167","odd","NA","43975","52405","45976","52446","6215","36077","26279","52947","NA","52444","52947","NA","52405","53686","42090","43455","6206","NA","Lexical Decision Task","5","4320","5","yes","1024"
"3.077974404","10.41","8","tool","word","100","100","820.6666666666666","820.6666666666666","black","no","legacy","legacy","legacy","0","uniform","1","undefined","undefined","undefined","1","j","0","0","0","0","5","0","0","0","5","NA","1","5","1","0","1","3","5","0","5","Sat Mar 13 00:40:07 2021","The main experiment item","yes","Lexical_Decision_Task.osexp","C:/Users/Admin/Desktop/CyberPsych 2/CAL","no","Andale Mono","no","18","no","white","no","yes","576","legacy","1","1","3","C:/Users/Admin/Desktop/CyberPsych 2/CAL/subject-5226167.csv","legacy","Lentiform Loewenfeld","3.3.7","yes","yes","600bd7cfb6416f0113b04181","602110864497cf011d9c0822","0","j","NA","space","j","space","NA","j","604","NA","6429","20062","9798","NA","604","2","legacy","1024","2","48000","-16","task","5226167","odd","NA","43975","52405","45976","54292","6215","36077","26279","54793","NA","54290","54793","54194","52405","55397","42090","53694","6206","NA","Lexical Decision Task","6","4924","6","yes","1024"
"2.937852093","0","7","bamp","non-word","100","100","815.5714285714286","815.5714285714286","black","no","legacy","legacy","legacy","0","uniform","1","undefined","undefined","undefined","1","f","0","0","0","0","6","0","0","0","6","NA","2","6","2","0","2","3","6","0","6","Sat Mar 13 00:40:07 2021","The main experiment item","yes","Lexical_Decision_Task.osexp","C:/Users/Admin/Desktop/CyberPsych 2/CAL","no","Andale Mono","no","18","no","white","no","yes","576","legacy","2","2","3","C:/Users/Admin/Desktop/CyberPsych 2/CAL/subject-5226167.csv","legacy","Lentiform Loewenfeld","3.3.7","yes","yes","600bd7cfb6416f0113b04181","602110864497cf011d9c0822","0","f","NA","space","j","space","NA","f","785","NA","6429","20062","9798","NA","785","2","legacy","1024","2","48000","-16","task","5226167","odd","NA","43975","52405","45976","55959","6215","36077","26279","56460","NA","55957","56460","55902","52405","57245","42090","55402","6206","NA","Lexical Decision Task","7","5709","7","yes","1024"
"2.68604012","0","3","mulb","non-word","100","100","813.75","813.75","black","no","legacy","legacy","legacy","0","uniform","1","undefined","undefined","undefined","1","f","0","0","0","0","7","0","0","0","7","NA","3","7","3","0","3","3","7","0","7","Sat Mar 13 00:40:07 2021","The main experiment item","yes","Lexical_Decision_Task.osexp","C:/Users/Admin/Desktop/CyberPsych 2/CAL","no","Andale Mono","no","18","no","white","no","yes","576","legacy","3","3","3","C:/Users/Admin/Desktop/CyberPsych 2/CAL/subject-5226167.csv","legacy","Lentiform Loewenfeld","3.3.7","yes","yes","600bd7cfb6416f0113b04181","602110864497cf011d9c0822","0","f","NA","space","j","space","NA","f","801","NA","6429","20062","9798","NA","801","2","legacy","1024","2","48000","-16","task","5226167","odd","NA","43975","52405","45976","57807","6215","36077","26279","58308","NA","57805","58308","57750","52405","59109","42090","57250","6206","NA","Lexical Decision Task","8","6510","8","yes","1024"
"3.064581521","5.51","6","cask","word","88.88888888888889","88.88888888888889","828.3333333333334","828.3333333333334","black","no","legacy","legacy","legacy","0","uniform","0","undefined","undefined","undefined","0","j","0","0","0","0","8","0","0","0","8","NA","4","8","4","0","4","3","8","0","8","Sat Mar 13 00:40:07 2021","The main experiment item","yes","Lexical_Decision_Task.osexp","C:/Users/Admin/Desktop/CyberPsych 2/CAL","no","Andale Mono","no","18","no","white","no","yes","576","legacy","4","4","3","C:/Users/Admin/Desktop/CyberPsych 2/CAL/subject-5226167.csv","legacy","Lentiform Loewenfeld","3.3.7","yes","yes","600bd7cfb6416f0113b04181","602110864497cf011d9c0822","0","f","NA","space","j","space","NA","f","945","NA","6429","20062","9798","NA","945","2","legacy","1024","2","48000","-16","task","5226167","odd","NA","43975","52405","45976","59670","6215","36077","26279","60171","NA","59668","60171","59614","52405","61117","42090","59114","6206","NA","Lexical Decision Task","8","7455","9","yes","1024"
"3.705778213","0","6","stin","non-word","90","90","827","827","black","no","legacy","legacy","legacy","0","uniform","1","undefined","undefined","undefined","1","f","0","0","0","0","9","0","0","0","9","NA","5","9","5","0","5","3","9","0","9","Sat Mar 13 00:40:07 2021","The main experiment item","yes","Lexical_Decision_Task.osexp","C:/Users/Admin/Desktop/CyberPsych 2/CAL","no","Andale Mono","no","18","no","white","no","yes","576","legacy","5","5","3","C:/Users/Admin/Desktop/CyberPsych 2/CAL/subject-5226167.csv","legacy","Lentiform Loewenfeld","3.3.7","yes","yes","600bd7cfb6416f0113b04181","602110864497cf011d9c0822","0","f","NA","space","j","space","NA","f","815","NA","6429","20062","9798","NA","815","2","legacy","1024","2","48000","-16","task","5226167","odd","NA","43975","52405","45976","62681","6215","36077","26279","63182","NA","62679","63182","62623","52405","63998","42090","59114","6206","61123","Lexical Decision Task","9","8270","10","yes","1024"
"3.230789326","5.38","5","prim","word","90.9090909090909","90.9090909090909","820.2727272727273","820.2727272727273","black","no","legacy","legacy","legacy","0","uniform","1","undefined","undefined","undefined","1","j","0","0","0","0","10","0","0","0","10","NA","6","10","6","0","6","3","10","0","10","Sat Mar 13 00:40:07 2021","The main experiment item","yes","Lexical_Decision_Task.osexp","C:/Users/Admin/Desktop/CyberPsych 2/CAL","no","Andale Mono","no","18","no","white","no","yes","576","legacy","6","6","3","C:/Users/Admin/Desktop/CyberPsych 2/CAL/subject-5226167.csv","legacy","Lentiform Loewenfeld","3.3.7","yes","yes","600bd7cfb6416f0113b04181","602110864497cf011d9c0822","0","j","NA","space","j","space","NA","j","753","NA","6429","20062","9798","NA","753","2","legacy","1024","2","48000","-16","task","5226167","odd","NA","43975","52405","45976","64558","6215","36077","26279","65059","NA","64556","65059","64501","52405","65813","42090","64001","6206","61123","Lexical Decision Task","10","9023","11","yes","1024"
"3.378276681","6.39","8","bran","word","91.66666666666667","91.66666666666667","848.5","848.5","black","no","legacy","legacy","legacy","0","uniform","1","undefined","undefined","undefined","1","j","0","0","0","0","11","0","0","0","11","NA","7","11","7","0","7","3","11","0","11","Sat Mar 13 00:40:07 2021","The main experiment item","yes","Lexical_Decision_Task.osexp","C:/Users/Admin/Desktop/CyberPsych 2/CAL","no","Andale Mono","no","18","no","white","no","yes","576","legacy","7","7","3","C:/Users/Admin/Desktop/CyberPsych 2/CAL/subject-5226167.csv","legacy","Lentiform Loewenfeld","3.3.7","yes","yes","600bd7cfb6416f0113b04181","602110864497cf011d9c0822","0","j","NA","space","j","space","NA","j","1159","NA","6429","20062","9798","NA","1159","2","legacy","1024","2","48000","-16","task","5226167","odd","NA","43975","52405","45976","66376","6215","36077","26279","66878","NA","66375","66878","66320","52405","68038","42090","65819","6206","61123","Lexical Decision Task","11","10182","12","yes","1024"
"3.16326079","0","5","parg","non-word","92.3076923076923","92.3076923076923","844.3076923076923","844.3076923076923","black","no","legacy","legacy","legacy","0","uniform","1","undefined","undefined","undefined","1","f","0","0","0","0","12","0","0","0","12","NA","8","12","8","0","8","3","12","0","12","Sat Mar 13 00:40:07 2021","The main experiment item","yes","Lexical_Decision_Task.osexp","C:/Users/Admin/Desktop/CyberPsych 2/CAL","no","Andale Mono","no","18","no","white","no","yes","576","legacy","8","8","3","C:/Users/Admin/Desktop/CyberPsych 2/CAL/subject-5226167.csv","legacy","Lentiform Loewenfeld","3.3.7","yes","yes","600bd7cfb6416f0113b04181","602110864497cf011d9c0822","0","f","NA","space","j","space","NA","f","794","NA","6429","20062","9798","NA","794","2","legacy","1024","2","48000","-16","task","5226167","odd","NA","43975","52405","45976","68597","6215","36077","26279","69098","NA","68595","69098","68541","52405","69893","42090","68041","6206","61123","Lexical Decision Task","12","10976","13","yes","1024"
"3.274157849","0","8","leet","non-word","92.85714285714286","92.85714285714286","838.7857142857143","838.7857142857143","black","no","legacy","legacy","legacy","0","uniform","1","undefined","undefined","undefined","1","f","0","0","0","0","13","0","0","0","13","NA","9","13","9","0","9","3","13","0","13","Sat Mar 13 00:40:07 2021","The main experiment item","yes","Lexical_Decision_Task.osexp","C:/Users/Admin/Desktop/CyberPsych 2/CAL","no","Andale Mono","no","18","no","white","no","yes","576","legacy","9","9","3","C:/Users/Admin/Desktop/CyberPsych 2/CAL/subject-5226167.csv","legacy","Lentiform Loewenfeld","3.3.7","yes","yes","600bd7cfb6416f0113b04181","602110864497cf011d9c0822","0","f","NA","space","j","space","NA","f","767","NA","6429","20062","9798","NA","767","2","legacy","1024","2","48000","-16","task","5226167","odd","NA","43975","52405","45976","70457","6215","36077","26279","70958","NA","70455","70958","70400","52405","71725","42090","69900","6206","61123","Lexical Decision Task","13","11743","14","yes","1024"
"3.531734309","0","6","lerd","non-word","93.33333333333333","93.33333333333333","838.4666666666667","838.4666666666667","black","no","legacy","legacy","legacy","0","uniform","1","undefined","undefined","undefined","1","f","0","0","0","0","14","0","0","0","14","NA","10","14","10","0","10","3","14","0","14","Sat Mar 13 00:40:07 2021","The main experiment item","yes","Lexical_Decision_Task.osexp","C:/Users/Admin/Desktop/CyberPsych 2/CAL","no","Andale Mono","no","18","no","white","no","yes","576","legacy","10","10","3","C:/Users/Admin/Desktop/CyberPsych 2/CAL/subject-5226167.csv","legacy","Lentiform Loewenfeld","3.3.7","yes","yes","600bd7cfb6416f0113b04181","602110864497cf011d9c0822","0","f","NA","space","j","space","NA","f","834","NA","6429","20062","9798","NA","834","2","legacy","1024","2","48000","-16","task","5226167","odd","NA","43975","52405","45976","72286","6215","36077","26279","72787","NA","72284","72787","72230","52405","73621","42090","71730","6206","61123","Lexical Decision Task","14","12577","15","yes","1024"
"2.771097306","0","9","jold","non-word","87.5","87.5","830.875","830.875","black","no","legacy","legacy","legacy","0","uniform","0","undefined","undefined","undefined","0","f","0","0","0","0","15","0","0","0","15","NA","11","15","11","0","11","3","15","0","15","Sat Mar 13 00:40:07 2021","The main experiment item","yes","Lexical_Decision_Task.osexp","C:/Users/Admin/Desktop/CyberPsych 2/CAL","no","Andale Mono","no","18","no","white","no","yes","576","legacy","11","11","3","C:/Users/Admin/Desktop/CyberPsych 2/CAL/subject-5226167.csv","legacy","Lentiform Loewenfeld","3.3.7","yes","yes","600bd7cfb6416f0113b04181","602110864497cf011d9c0822","0","j","NA","space","j","space","NA","j","717","NA","6429","20062","9798","NA","717","2","legacy","1024","2","48000","-16","task","5226167","odd","NA","43975","52405","45976","74187","6215","36077","26279","74688","NA","74185","74688","74128","52405","75406","42090","73628","6206","61123","Lexical Decision Task","14","13294","16","yes","1024"
"2.952953801","0","8","clax","non-word","88.23529411764706","88.23529411764706","820.5882352941177","820.5882352941177","black","no","legacy","legacy","legacy","0","uniform","1","undefined","undefined","undefined","1","f","0","0","0","0","16","0","0","0","16","NA","12","16","12","0","12","3","16","0","16","Sat Mar 13 00:40:07 2021","The main experiment item","yes","Lexical_Decision_Task.osexp","C:/Users/Admin/Desktop/CyberPsych 2/CAL","no","Andale Mono","no","18","no","white","no","yes","576","legacy","12","12","3","C:/Users/Admin/Desktop/CyberPsych 2/CAL/subject-5226167.csv","legacy","Lentiform Loewenfeld","3.3.7","yes","yes","600bd7cfb6416f0113b04181","602110864497cf011d9c0822","0","f","NA","space","j","space","NA","f","656","NA","6429","20062","9798","NA","656","2","legacy","1024","2","48000","-16","task","5226167","odd","NA","43975","52405","45976","76967","6215","36077","26279","77468","NA","76965","77468","76910","52405","78125","42090","73628","6206","75410","Lexical Decision Task","15","13950","17","yes","1024"
"2.845304797","0","6","buct","non-word","88.88888888888889","88.88888888888889","812.4444444444445","812.4444444444445","black","no","legacy","legacy","legacy","0","uniform","1","undefined","undefined","undefined","1","f","0","0","0","0","17","0","0","0","17","NA","13","17","13","0","13","3","17","0","17","Sat Mar 13 00:40:07 2021","The main experiment item","yes","Lexical_Decision_Task.osexp","C:/Users/Admin/Desktop/CyberPsych 2/CAL","no","Andale Mono","no","18","no","white","no","yes","576","legacy","13","13","3","C:/Users/Admin/Desktop/CyberPsych 2/CAL/subject-5226167.csv","legacy","Lentiform Loewenfeld","3.3.7","yes","yes","600bd7cfb6416f0113b04181","602110864497cf011d9c0822","0","f","NA","space","j","space","NA","f","674","NA","6429","20062","9798","NA","674","2","legacy","1024","2","48000","-16","task","5226167","odd","NA","43975","52405","45976","78686","6215","36077","26279","79187","NA","78684","79187","78628","52405","79861","42090","78128","6206","75410","Lexical Decision Task","16","14624","18","yes","1024"
"2.664011697","8.19","4","hawk","word","89.47368421052632","89.47368421052632","799.8947368421053","799.8947368421053","black","no","legacy","legacy","legacy","0","uniform","1","undefined","undefined","undefined","1","j","0","0","0","0","18","0","0","0","18","NA","14","18","14","0","14","3","18","0","18","Sat Mar 13 00:40:07 2021","The main experiment item","yes","Lexical_Decision_Task.osexp","C:/Users/Admin/Desktop/CyberPsych 2/CAL","no","Andale Mono","no","18","no","white","no","yes","576","legacy","14","14","3","C:/Users/Admin/Desktop/CyberPsych 2/CAL/subject-5226167.csv","legacy","Lentiform Loewenfeld","3.3.7","yes","yes","600bd7cfb6416f0113b04181","602110864497cf011d9c0822","0","j","NA","space","j","space","NA","j","574","NA","6429","20062","9798","NA","574","2","legacy","1024","2","48000","-16","task","5226167","odd","NA","43975","52405","45976","80425","6215","36077","26279","80926","NA","80423","80926","80366","52405","81501","42090","79866","6206","75410","Lexical Decision Task","17","15198","19","yes","1024"
"2.8162413","0","5","nusk","non-word","90","90","801.15","801.15","black","no","legacy","legacy","legacy","0","uniform","1","undefined","undefined","undefined","1","f","0","0","0","0","19","0","0","0","19","NA","15","19","15","0","15","3","19","0","19","Sat Mar 13 00:40:07 2021","The main experiment item","yes","Lexical_Decision_Task.osexp","C:/Users/Admin/Desktop/CyberPsych 2/CAL","no","Andale Mono","no","18","no","white","no","yes","576","legacy","15","15","3","C:/Users/Admin/Desktop/CyberPsych 2/CAL/subject-5226167.csv","legacy","Lentiform Loewenfeld","3.3.7","yes","yes","600bd7cfb6416f0113b04181","602110864497cf011d9c0822","0","f","NA","space","j","space","NA","f","825","NA","6429","20062","9798","NA","825","2","legacy","1024","2","48000","-16","task","5226167","odd","NA","43975","52405","45976","82063","6215","36077","26279","82564","NA","82061","82564","82005","52405","83389","42090","81505","6206","75410","Lexical Decision Task","18","16023","20","yes","1024"
"3.137775856","7.39","5","comb","word","90.47619047619048","90.47619047619048","790.8571428571429","790.8571428571429","black","no","legacy","legacy","legacy","0","uniform","1","undefined","undefined","undefined","1","j","0","0","0","0","20","0","0","0","20","NA","16","20","16","0","16","3","20","0","20","Sat Mar 13 00:40:07 2021","The main experiment item","yes","Lexical_Decision_Task.osexp","C:/Users/Admin/Desktop/CyberPsych 2/CAL","no","Andale Mono","no","18","no","white","no","yes","576","legacy","16","16","3","C:/Users/Admin/Desktop/CyberPsych 2/CAL/subject-5226167.csv","legacy","Lentiform Loewenfeld","3.3.7","yes","yes","600bd7cfb6416f0113b04181","602110864497cf011d9c0822","0","j","NA","space","j","space","NA","j","585","NA","6429","20062","9798","NA","585","2","legacy","1024","2","48000","-16","task","5226167","odd","NA","43975","52405","45976","83951","6215","36077","26279","84452","NA","83949","84452","83894","52405","85037","42090","83394","6206","75410","Lexical Decision Task","19","16608","21","yes","1024"
"2.708989954","9.28","9","bowl","word","90.9090909090909","90.9090909090909","783.6363636363636","783.6363636363636","black","no","legacy","legacy","legacy","0","uniform","1","undefined","undefined","undefined","1","j","0","0","0","0","21","0","0","0","21","NA","17","21","17","0","17","3","21","0","21","Sat Mar 13 00:40:07 2021","The main experiment item","yes","Lexical_Decision_Task.osexp","C:/Users/Admin/Desktop/CyberPsych 2/CAL","no","Andale Mono","no","18","no","white","no","yes","576","legacy","17","17","3","C:/Users/Admin/Desktop/CyberPsych 2/CAL/subject-5226167.csv","legacy","Lentiform Loewenfeld","3.3.7","yes","yes","600bd7cfb6416f0113b04181","602110864497cf011d9c0822","0","j","NA","space","j","space","NA","j","632","NA","6429","20062","9798","NA","632","2","legacy","1024","2","48000","-16","task","5226167","odd","NA","43975","52405","45976","85599","6215","36077","26279","86100","NA","85597","86101","85543","52405","86733","42090","85043","6206","75410","Lexical Decision Task","20","17240","22","yes","1024"
"2.953276337","6.32","4","thaw","word","91.30434782608695","91.30434782608695","792.5217391304348","792.5217391304348","black","no","legacy","legacy","legacy","0","uniform","1","undefined","undefined","undefined","1","j","0","0","0","0","22","0","0","0","22","NA","18","22","18","0","18","3","22","0","22","Sat Mar 13 00:40:07 2021","The main experiment item","yes","Lexical_Decision_Task.osexp","C:/Users/Admin/Desktop/CyberPsych 2/CAL","no","Andale Mono","no","18","no","white","no","yes","576","legacy","18","18","3","C:/Users/Admin/Desktop/CyberPsych 2/CAL/subject-5226167.csv","legacy","Lentiform Loewenfeld","3.3.7","yes","yes","600bd7cfb6416f0113b04181","602110864497cf011d9c0822","0","j","NA","space","j","space","NA","j","988","NA","6429","20062","9798","NA","988","2","legacy","1024","2","48000","-16","task","5226167","odd","NA","43975","52405","45976","87299","6215","36077","26279","87800","NA","87297","87800","87238","52405","88789","42090","86738","6206","75410","Lexical Decision Task","21","18228","23","yes","1024"
"3.031408464","0","7","drow","non-word","91.66666666666667","91.66666666666667","794.5833333333334","794.5833333333334","black","no","legacy","legacy","legacy","0","uniform","1","undefined","undefined","undefined","1","f","0","0","0","0","23","0","0","0","23","NA","19","23","19","0","19","3","23","0","23","Sat Mar 13 00:40:07 2021","The main experiment item","yes","Lexical_Decision_Task.osexp","C:/Users/Admin/Desktop/CyberPsych 2/CAL","no","Andale Mono","no","18","no","white","no","yes","576","legacy","19","19","3","C:/Users/Admin/Desktop/CyberPsych 2/CAL/subject-5226167.csv","legacy","Lentiform Loewenfeld","3.3.7","yes","yes","600bd7cfb6416f0113b04181","602110864497cf011d9c0822","0","f","NA","space","j","space","NA","f","842","NA","6429","20062","9798","NA","842","2","legacy","1024","2","48000","-16","task","5226167","odd","NA","43975","52405","45976","89349","6215","36077","26279","89850","NA","89348","89850","89293","52405","90693","42090","88793","6206","75410","Lexical Decision Task","22","19070","24","yes","1024"
"3.159867847","5.98","5","brim","word","92","92","787.44","787.44","black","no","legacy","legacy","legacy","0","uniform","1","undefined","undefined","undefined","1","j","0","0","0","0","24","0","0","0","24","NA","20","24","20","0","20","3","24","0","24","Sat Mar 13 00:40:07 2021","The main experiment item","yes","Lexical_Decision_Task.osexp","C:/Users/Admin/Desktop/CyberPsych 2/CAL","no","Andale Mono","no","18","no","white","no","yes","576","legacy","20","20","3","C:/Users/Admin/Desktop/CyberPsych 2/CAL/subject-5226167.csv","legacy","Lentiform Loewenfeld","3.3.7","yes","yes","600bd7cfb6416f0113b04181","602110864497cf011d9c0822","0","j","NA","space","j","space","NA","j","616","NA","6429","20062","9798","NA","616","2","legacy","1024","2","48000","-16","task","5226167","odd","NA","43975","52405","45976","91255","6215","36077","26279","91756","NA","91253","91756","91198","52405","92373","42090","90698","6206","75410","Lexical Decision Task","23","19686","25","yes","1024"
"2.907588697","8.91","9","mood","word","92.3076923076923","92.3076923076923","777.8461538461538","777.8461538461538","black","no","legacy","legacy","legacy","0","uniform","1","undefined","undefined","undefined","1","j","0","0","0","0","25","0","0","0","25","NA","21","25","21","0","21","3","25","0","25","Sat Mar 13 00:40:07 2021","The main experiment item","yes","Lexical_Decision_Task.osexp","C:/Users/Admin/Desktop/CyberPsych 2/CAL","no","Andale Mono","no","18","no","white","no","yes","576","legacy","21","21","3","C:/Users/Admin/Desktop/CyberPsych 2/CAL/subject-5226167.csv","legacy","Lentiform Loewenfeld","3.3.7","yes","yes","600bd7cfb6416f0113b04181","602110864497cf011d9c0822","0","j","NA","space","j","space","NA","j","538","NA","6429","20062","9798","NA","538","2","legacy","1024","2","48000","-16","task","5226167","odd","NA","43975","52405","45976","92934","6215","36077","26279","93435","NA","92932","93435","92878","52405","93973","42090","92378","6206","75410","Lexical Decision Task","24","20224","26","yes","1024"
"3.120135028","0","3","vals","non-word","92.5925925925926","92.5925925925926","777.2962962962963","777.2962962962963","black","no","legacy","legacy","legacy","0","uniform","1","undefined","undefined","undefined","1","f","0","0","0","0","26","0","0","0","26","NA","22","26","22","0","22","3","26","0","26","Sat Mar 13 00:40:07 2021","The main experiment item","yes","Lexical_Decision_Task.osexp","C:/Users/Admin/Desktop/CyberPsych 2/CAL","no","Andale Mono","no","18","no","white","no","yes","576","legacy","22","22","3","C:/Users/Admin/Desktop/CyberPsych 2/CAL/subject-5226167.csv","legacy","Lentiform Loewenfeld","3.3.7","yes","yes","600bd7cfb6416f0113b04181","602110864497cf011d9c0822","0","f","NA","space","j","space","NA","f","763","NA","6429","20062","9798","NA","763","2","legacy","1024","2","48000","-16","task","5226167","odd","NA","43975","52405","45976","94533","6215","36077","26279","95034","NA","94531","95034","94477","52405","95798","42090","93977","6206","75410","Lexical Decision Task","25","20987","27","yes","1024"
"3.168890155","0","6","thet","non-word","92.85714285714286","92.85714285714286","775.5714285714286","775.5714285714286","black","no","legacy","legacy","legacy","0","uniform","1","undefined","undefined","undefined","1","f","0","0","0","0","27","0","0","0","27","NA","23","27","23","0","23","3","27","0","27","Sat Mar 13 00:40:07 2021","The main experiment item","yes","Lexical_Decision_Task.osexp","C:/Users/Admin/Desktop/CyberPsych 2/CAL","no","Andale Mono","no","18","no","white","no","yes","576","legacy","23","23","3","C:/Users/Admin/Desktop/CyberPsych 2/CAL/subject-5226167.csv","legacy","Lentiform Loewenfeld","3.3.7","yes","yes","600bd7cfb6416f0113b04181","602110864497cf011d9c0822","0","f","NA","space","j","space","NA","f","729","NA","6429","20062","9798","NA","729","2","legacy","1024","2","48000","-16","task","5226167","odd","NA","43975","52405","45976","96358","6215","36077","26279","96859","NA","96356","96859","96301","52405","97589","42090","95801","6206","75410","Lexical Decision Task","26","21716","28","yes","1024"
"3.303771854","0","9","dath","non-word","93.10344827586206","93.10344827586206","771.4137931034483","771.4137931034483","black","no","legacy","legacy","legacy","0","uniform","1","undefined","undefined","undefined","1","f","0","0","0","0","28","0","0","0","28","NA","24","28","24","0","24","3","28","0","28","Sat Mar 13 00:40:07 2021","The main experiment item","yes","Lexical_Decision_Task.osexp","C:/Users/Admin/Desktop/CyberPsych 2/CAL","no","Andale Mono","no","18","no","white","no","yes","576","legacy","24","24","3","C:/Users/Admin/Desktop/CyberPsych 2/CAL/subject-5226167.csv","legacy","Lentiform Loewenfeld","3.3.7","yes","yes","600bd7cfb6416f0113b04181","602110864497cf011d9c0822","0","f","NA","space","j","space","NA","f","655","NA","6429","20062","9798","NA","655","2","legacy","1024","2","48000","-16","task","5226167","odd","NA","43975","52405","45976","98153","6215","36077","26279","98654","NA","98151","98654","98093","52405","99309","42090","97593","6206","75410","Lexical Decision Task","27","22371","29","yes","1024"
"3.067070856","9.39","3","loud","word","93.33333333333333","93.33333333333333","764.7","764.7","black","no","legacy","legacy","legacy","0","uniform","1","undefined","undefined","undefined","1","j","0","0","0","0","29","0","0","0","29","NA","25","29","25","0","25","3","29","0","29","Sat Mar 13 00:40:07 2021","The main experiment item","yes","Lexical_Decision_Task.osexp","C:/Users/Admin/Desktop/CyberPsych 2/CAL","no","Andale Mono","no","18","no","white","no","yes","576","legacy","25","25","3","C:/Users/Admin/Desktop/CyberPsych 2/CAL/subject-5226167.csv","legacy","Lentiform Loewenfeld","3.3.7","yes","yes","600bd7cfb6416f0113b04181","602110864497cf011d9c0822","0","j","NA","space","j","space","NA","j","570","NA","6429","20062","9798","NA","570","2","legacy","1024","2","48000","-16","task","5226167","odd","NA","43975","52405","45976","99869","6215","36077","26279","100370","NA","99867","100370","99813","52405","100941","42090","99313","6206","75410","Lexical Decision Task","28","22941","30","yes","1024"
"3.259832699","0","9","flar","non-word","93.54838709677419","93.54838709677419","768","768","black","no","legacy","legacy","legacy","0","uniform","1","undefined","undefined","undefined","1","f","0","0","0","0","30","0","0","0","30","NA","26","30","26","0","26","3","30","0","30","Sat Mar 13 00:40:07 2021","The main experiment item","yes","Lexical_Decision_Task.osexp","C:/Users/Admin/Desktop/CyberPsych 2/CAL","no","Andale Mono","no","18","no","white","no","yes","576","legacy","26","26","3","C:/Users/Admin/Desktop/CyberPsych 2/CAL/subject-5226167.csv","legacy","Lentiform Loewenfeld","3.3.7","yes","yes","600bd7cfb6416f0113b04181","602110864497cf011d9c0822","0","f","NA","space","j","space","NA","f","867","NA","6429","20062","9798","NA","867","2","legacy","1024","2","48000","-16","task","5226167","odd","NA","43975","52405","45976","101501","6215","36077","26279","102002","NA","101499","102002","101444","52405","102870","42090","100944","6206","75410","Lexical Decision Task","29","23808","31","yes","1024"
"3.374198258","0","8","vist","non-word","90.625","90.625","760.53125","760.53125","black","no","legacy","legacy","legacy","0","uniform","0","undefined","undefined","undefined","0","f","0","0","0","0","31","0","0","0","31","NA","27","31","27","0","27","3","31","0","31","Sat Mar 13 00:40:07 2021","The main experiment item","yes","Lexical_Decision_Task.osexp","C:/Users/Admin/Desktop/CyberPsych 2/CAL","no","Andale Mono","no","18","no","white","no","yes","576","legacy","27","27","3","C:/Users/Admin/Desktop/CyberPsych 2/CAL/subject-5226167.csv","legacy","Lentiform Loewenfeld","3.3.7","yes","yes","600bd7cfb6416f0113b04181","602110864497cf011d9c0822","0","j","NA","space","j","space","NA","j","529","NA","6429","20062","9798","NA","529","2","legacy","1024","2","48000","-16","task","5226167","odd","NA","43975","52405","45976","103430","6215","36077","26279","103931","NA","103428","103932","103374","52405","104461","42090","102874","6206","75410","Lexical Decision Task","29","24337","32","yes","1024"
"2.990042563","6.64","9","plow","word","90.9090909090909","90.9090909090909","765.6969696969697","765.6969696969697","black","no","legacy","legacy","legacy","0","uniform","1","undefined","undefined","undefined","1","j","0","0","0","0","32","0","0","0","32","NA","28","32","28","0","28","3","32","0","32","Sat Mar 13 00:40:07 2021","The main experiment item","yes","Lexical_Decision_Task.osexp","C:/Users/Admin/Desktop/CyberPsych 2/CAL","no","Andale Mono","no","18","no","white","no","yes","576","legacy","28","28","3","C:/Users/Admin/Desktop/CyberPsych 2/CAL/subject-5226167.csv","legacy","Lentiform Loewenfeld","3.3.7","yes","yes","600bd7cfb6416f0113b04181","602110864497cf011d9c0822","0","j","NA","space","j","space","NA","j","931","NA","6429","20062","9798","NA","931","2","legacy","1024","2","48000","-16","task","5226167","odd","NA","43975","52405","45976","106021","6215","36077","26279","106522","NA","106019","106522","105966","52405","107454","42090","102874","6206","104466","Lexical Decision Task","30","25268","33","yes","1024"
"2.696644658","5.78","2","yolk","word","91.17647058823529","91.17647058823529","764.8235294117648","764.8235294117648","black","no","legacy","legacy","legacy","0","uniform","1","undefined","undefined","undefined","1","j","0","0","0","0","33","0","0","0","33","NA","29","33","29","0","29","3","33","0","33","Sat Mar 13 00:40:07 2021","The main experiment item","yes","Lexical_Decision_Task.osexp","C:/Users/Admin/Desktop/CyberPsych 2/CAL","no","Andale Mono","no","18","no","white","no","yes","576","legacy","29","29","3","C:/Users/Admin/Desktop/CyberPsych 2/CAL/subject-5226167.csv","legacy","Lentiform Loewenfeld","3.3.7","yes","yes","600bd7cfb6416f0113b04181","602110864497cf011d9c0822","0","j","NA","space","j","space","NA","j","736","NA","6429","20062","9798","NA","736","2","legacy","1024","2","48000","-16","task","5226167","odd","NA","43975","52405","45976","108016","6215","36077","26279","108517","NA","108014","108517","107959","52405","109253","42090","107459","6206","104466","Lexical Decision Task","31","26004","34","yes","1024"
"3.269668578","0","7","trag","non-word","91.42857142857143","91.42857142857143","768.4","768.4","black","no","legacy","legacy","legacy","0","uniform","1","undefined","undefined","undefined","1","f","0","0","0","0","34","0","0","0","34","NA","30","34","30","0","30","3","34","0","34","Sat Mar 13 00:40:07 2021","The main experiment item","yes","Lexical_Decision_Task.osexp","C:/Users/Admin/Desktop/CyberPsych 2/CAL","no","Andale Mono","no","18","no","white","no","yes","576","legacy","30","30","3","C:/Users/Admin/Desktop/CyberPsych 2/CAL/subject-5226167.csv","legacy","Lentiform Loewenfeld","3.3.7","yes","yes","600bd7cfb6416f0113b04181","602110864497cf011d9c0822","0","f","NA","space","j","space","NA","f","890","NA","6429","20062","9798","NA","890","2","legacy","1024","2","48000","-16","task","5226167","odd","NA","43975","52405","45976","109822","6215","36077","26279","110323","NA","109821","110323","109766","52405","111214","42090","109266","6206","104466","Lexical Decision Task","32","26894","35","yes","1024"
"2.971428938","9.86","7","spot","word","91.66666666666667","91.66666666666667","763.5","763.5","black","no","legacy","legacy","legacy","0","uniform","1","undefined","undefined","undefined","1","j","0","0","0","0","35","0","0","0","35","NA","31","35","31","0","31","3","35","0","35","Sat Mar 13 00:40:07 2021","The main experiment item","yes","Lexical_Decision_Task.osexp","C:/Users/Admin/Desktop/CyberPsych 2/CAL","no","Andale Mono","no","18","no","white","no","yes","576","legacy","31","31","3","C:/Users/Admin/Desktop/CyberPsych 2/CAL/subject-5226167.csv","legacy","Lentiform Loewenfeld","3.3.7","yes","yes","600bd7cfb6416f0113b04181","602110864497cf011d9c0822","0","j","NA","space","j","space","NA","j","592","NA","6429","20062","9798","NA","592","2","legacy","1024","2","48000","-16","task","5226167","odd","NA","43975","52405","45976","111776","6215","36077","26279","112277","NA","111774","112277","111719","52405","112869","42090","111219","6206","104466","Lexical Decision Task","33","27486","36","yes","1024"
"2.594027722","9.08","8","skip","word","91.89189189189189","91.89189189189189","765.1351351351351","765.1351351351351","black","no","legacy","legacy","legacy","0","uniform","1","undefined","undefined","undefined","1","j","0","0","0","0","36","0","0","0","36","NA","32","36","32","0","32","3","36","0","36","Sat Mar 13 00:40:07 2021","The main experiment item","yes","Lexical_Decision_Task.osexp","C:/Users/Admin/Desktop/CyberPsych 2/CAL","no","Andale Mono","no","18","no","white","no","yes","576","legacy","32","32","3","C:/Users/Admin/Desktop/CyberPsych 2/CAL/subject-5226167.csv","legacy","Lentiform Loewenfeld","3.3.7","yes","yes","600bd7cfb6416f0113b04181","602110864497cf011d9c0822","0","j","NA","space","j","space","NA","j","824","NA","6429","20062","9798","NA","824","2","legacy","1024","2","48000","-16","task","5226167","odd","NA","43975","52405","45976","113432","6215","36077","26279","113933","NA","113431","113933","113377","52405","114757","42090","112877","6206","104466","Lexical Decision Task","34","28310","37","yes","1024"
"3.208172527","10.27","7","deck","word","92.10526315789474","92.10526315789474","767.0526315789474","767.0526315789474","black","no","legacy","legacy","legacy","0","uniform","1","undefined","undefined","undefined","1","j","0","0","0","0","37","0","0","0","37","NA","33","37","33","0","33","3","37","0","37","Sat Mar 13 00:40:07 2021","The main experiment item","yes","Lexical_Decision_Task.osexp","C:/Users/Admin/Desktop/CyberPsych 2/CAL","no","Andale Mono","no","18","no","white","no","yes","576","legacy","33","33","3","C:/Users/Admin/Desktop/CyberPsych 2/CAL/subject-5226167.csv","legacy","Lentiform Loewenfeld","3.3.7","yes","yes","600bd7cfb6416f0113b04181","602110864497cf011d9c0822","0","j","NA","space","j","space","NA","j","838","NA","6429","20062","9798","NA","838","2","legacy","1024","2","48000","-16","task","5226167","odd","NA","43975","52405","45976","115322","6215","36077","26279","115823","NA","115320","115823","115265","52405","116661","42090","114764","6206","104466","Lexical Decision Task","35","29148","38","yes","1024"
"2.986323777","10.85","8","ship","word","92.3076923076923","92.3076923076923","765.1538461538462","765.1538461538462","black","no","legacy","legacy","legacy","0","uniform","1","undefined","undefined","undefined","1","j","0","0","0","0","38","0","0","0","38","NA","34","38","34","0","34","3","38","0","38","Sat Mar 13 00:40:07 2021","The main experiment item","yes","Lexical_Decision_Task.osexp","C:/Users/Admin/Desktop/CyberPsych 2/CAL","no","Andale Mono","no","18","no","white","no","yes","576","legacy","34","34","3","C:/Users/Admin/Desktop/CyberPsych 2/CAL/subject-5226167.csv","legacy","Lentiform Loewenfeld","3.3.7","yes","yes","600bd7cfb6416f0113b04181","602110864497cf011d9c0822","0","j","NA","space","j","space","NA","j","693","NA","6429","20062","9798","NA","693","2","legacy","1024","2","48000","-16","task","5226167","odd","NA","43975","52405","45976","117226","6215","36077","26279","117727","NA","117224","117727","117169","52405","118421","42090","116669","6206","104466","Lexical Decision Task","36","29841","39","yes","1024"
"2.980911938","7.15","7","hoop","word","92.5","92.5","760.875","760.875","black","no","legacy","legacy","legacy","0","uniform","1","undefined","undefined","undefined","1","j","0","0","0","0","39","0","0","0","39","NA","35","39","35","0","35","3","39","0","39","Sat Mar 13 00:40:07 2021","The main experiment item","yes","Lexical_Decision_Task.osexp","C:/Users/Admin/Desktop/CyberPsych 2/CAL","no","Andale Mono","no","18","no","white","no","yes","576","legacy","35","35","3","C:/Users/Admin/Desktop/CyberPsych 2/CAL/subject-5226167.csv","legacy","Lentiform Loewenfeld","3.3.7","yes","yes","600bd7cfb6416f0113b04181","602110864497cf011d9c0822","0","j","NA","space","j","space","NA","j","594","NA","6429","20062","9798","NA","594","2","legacy","1024","2","48000","-16","task","5226167","odd","NA","43975","52405","45976","118982","6215","36077","26279","119483","NA","118981","119483","118927","52405","120078","42090","118427","6206","104466","Lexical Decision Task","37","30435","40","yes","1024"
"3.307211407","6.07","7","honk","word","92.6829268292683","92.6829268292683","756.7317073170732","756.7317073170732","black","no","legacy","legacy","legacy","0","uniform","1","undefined","undefined","undefined","1","j","0","0","0","0","40","0","0","0","40","NA","36","40","36","0","36","3","40","0","40","Sat Mar 13 00:40:07 2021","The main experiment item","yes","Lexical_Decision_Task.osexp","C:/Users/Admin/Desktop/CyberPsych 2/CAL","no","Andale Mono","no","18","no","white","no","yes","576","legacy","36","36","3","C:/Users/Admin/Desktop/CyberPsych 2/CAL/subject-5226167.csv","legacy","Lentiform Loewenfeld","3.3.7","yes","yes","600bd7cfb6416f0113b04181","602110864497cf011d9c0822","0","j","NA","space","j","space","NA","j","591","NA","6429","20062","9798","NA","591","2","legacy","1024","2","48000","-16","task","5226167","odd","NA","43975","52405","45976","120640","6215","36077","26279","121141","NA","120638","121141","120583","52405","121733","42090","120083","6206","104466","Lexical Decision Task","38","31026","41","yes","1024"
"3.366547468","0","6","plat","non-word","92.85714285714286","92.85714285714286","758.952380952381","758.952380952381","black","no","legacy","legacy","legacy","0","uniform","1","undefined","undefined","undefined","1","f","0","0","0","0","41","0","0","0","41","NA","37","41","37","0","37","3","41","0","41","Sat Mar 13 00:40:07 2021","The main experiment item","yes","Lexical_Decision_Task.osexp","C:/Users/Admin/Desktop/CyberPsych 2/CAL","no","Andale Mono","no","18","no","white","no","yes","576","legacy","37","37","3","C:/Users/Admin/Desktop/CyberPsych 2/CAL/subject-5226167.csv","legacy","Lentiform Loewenfeld","3.3.7","yes","yes","600bd7cfb6416f0113b04181","602110864497cf011d9c0822","0","f","NA","space","j","space","NA","f","850","NA","6429","20062","9798","NA","850","2","legacy","1024","2","48000","-16","task","5226167","odd","NA","43975","52405","45976","122294","6215","36077","26279","122795","NA","122292","122795","122239","52405","123646","42090","121739","6206","104466","Lexical Decision Task","39","31876","42","yes","1024"
"2.838639236","0","4","furg","non-word","93.02325581395348","93.02325581395348","760.2790697674419","760.2790697674419","black","no","legacy","legacy","legacy","0","uniform","1","undefined","undefined","undefined","1","f","0","0","0","0","42","0","0","0","42","NA","38","42","38","0","38","3","42","0","42","Sat Mar 13 00:40:07 2021","The main experiment item","yes","Lexical_Decision_Task.osexp","C:/Users/Admin/Desktop/CyberPsych 2/CAL","no","Andale Mono","no","18","no","white","no","yes","576","legacy","38","38","3","C:/Users/Admin/Desktop/CyberPsych 2/CAL/subject-5226167.csv","legacy","Lentiform Loewenfeld","3.3.7","yes","yes","600bd7cfb6416f0113b04181","602110864497cf011d9c0822","0","f","NA","space","j","space","NA","f","816","NA","6429","20062","9798","NA","816","2","legacy","1024","2","48000","-16","task","5226167","odd","NA","43975","52405","45976","124208","6215","36077","26279","124709","NA","124207","124709","124152","52405","125526","42090","123652","6206","104466","Lexical Decision Task","40","32692","43","yes","1024"
"2.698387659","6.66","7","skid","word","93.18181818181819","93.18181818181819","760.7954545454545","760.7954545454545","black","no","legacy","legacy","legacy","0","uniform","1","undefined","undefined","undefined","1","j","0","0","0","0","43","0","0","0","43","NA","39","43","39","0","39","3","43","0","43","Sat Mar 13 00:40:07 2021","The main experiment item","yes","Lexical_Decision_Task.osexp","C:/Users/Admin/Desktop/CyberPsych 2/CAL","no","Andale Mono","no","18","no","white","no","yes","576","legacy","39","39","3","C:/Users/Admin/Desktop/CyberPsych 2/CAL/subject-5226167.csv","legacy","Lentiform Loewenfeld","3.3.7","yes","yes","600bd7cfb6416f0113b04181","602110864497cf011d9c0822","0","j","NA","space","j","space","NA","j","783","NA","6429","20062","9798","NA","783","2","legacy","1024","2","48000","-16","task","5226167","odd","NA","43975","52405","45976","126088","6215","36077","26279","126590","NA","126087","126590","126032","52405","127374","42090","125532","6206","104466","Lexical Decision Task","41","33475","44","yes","1024"
"2.843025032","0","9","pusk","non-word","93.33333333333333","93.33333333333333","761.5111111111111","761.5111111111111","black","no","legacy","legacy","legacy","0","uniform","1","undefined","undefined","undefined","1","f","0","0","0","0","44","0","0","0","44","NA","40","44","40","0","40","3","44","0","44","Sat Mar 13 00:40:07 2021","The main experiment item","yes","Lexical_Decision_Task.osexp","C:/Users/Admin/Desktop/CyberPsych 2/CAL","no","Andale Mono","no","18","no","white","no","yes","576","legacy","40","40","3","C:/Users/Admin/Desktop/CyberPsych 2/CAL/subject-5226167.csv","legacy","Lentiform Loewenfeld","3.3.7","yes","yes","600bd7cfb6416f0113b04181","602110864497cf011d9c0822","0","f","NA","space","j","space","NA","f","793","NA","6429","20062","9798","NA","793","2","legacy","1024","2","48000","-16","task","5226167","odd","NA","43975","52405","45976","127935","6215","36077","26279","128436","NA","127934","128436","127880","52405","129230","42090","127380","6206","104466","Lexical Decision Task","42","34268","45","yes","1024"
"2.616654026","9.37","5","gift","word","93.47826086956522","93.47826086956522","762.5217391304348","762.5217391304348","black","no","legacy","legacy","legacy","0","uniform","1","undefined","undefined","undefined","1","j","0","0","0","0","45","0","0","0","45","NA","41","45","41","0","41","3","45","0","45","Sat Mar 13 00:40:07 2021","The main experiment item","yes","Lexical_Decision_Task.osexp","C:/Users/Admin/Desktop/CyberPsych 2/CAL","no","Andale Mono","no","18","no","white","no","yes","576","legacy","41","41","3","C:/Users/Admin/Desktop/CyberPsych 2/CAL/subject-5226167.csv","legacy","Lentiform Loewenfeld","3.3.7","yes","yes","600bd7cfb6416f0113b04181","602110864497cf011d9c0822","0","j","NA","space","j","space","NA","j","808","NA","6429","20062","9798","NA","808","2","legacy","1024","2","48000","-16","task","5226167","odd","NA","43975","52405","45976","129792","6215","36077","26279","130293","NA","129791","130293","129737","52405","131102","42090","129237","6206","104466","Lexical Decision Task","43","35076","46","yes","1024"
"2.80048796","0","8","pife","non-word","93.61702127659575","93.61702127659575","761.7659574468086","761.7659574468086","black","no","legacy","legacy","legacy","0","uniform","1","undefined","undefined","undefined","1","f","0","0","0","0","46","0","0","0","46","NA","42","46","42","0","42","3","46","0","46","Sat Mar 13 00:40:07 2021","The main experiment item","yes","Lexical_Decision_Task.osexp","C:/Users/Admin/Desktop/CyberPsych 2/CAL","no","Andale Mono","no","18","no","white","no","yes","576","legacy","42","42","3","C:/Users/Admin/Desktop/CyberPsych 2/CAL/subject-5226167.csv","legacy","Lentiform Loewenfeld","3.3.7","yes","yes","600bd7cfb6416f0113b04181","602110864497cf011d9c0822","0","f","NA","space","j","space","NA","f","727","NA","6429","20062","9798","NA","727","2","legacy","1024","2","48000","-16","task","5226167","odd","NA","43975","52405","45976","131665","6215","36077","26279","132166","NA","131663","132166","131609","52405","132893","42090","131108","6206","104466","Lexical Decision Task","44","35803","47","yes","1024"
"3.037294994","8.64","7","roof","word","93.75","93.75","761.1041666666666","761.1041666666666","black","no","legacy","legacy","legacy","0","uniform","1","undefined","undefined","undefined","1","j","0","0","0","0","47","0","0","0","47","NA","43","47","43","0","43","3","47","0","47","Sat Mar 13 00:40:07 2021","The main experiment item","yes","Lexical_Decision_Task.osexp","C:/Users/Admin/Desktop/CyberPsych 2/CAL","no","Andale Mono","no","18","no","white","no","yes","576","legacy","43","43","3","C:/Users/Admin/Desktop/CyberPsych 2/CAL/subject-5226167.csv","legacy","Lentiform Loewenfeld","3.3.7","yes","yes","600bd7cfb6416f0113b04181","602110864497cf011d9c0822","0","j","NA","space","j","space","NA","j","730","NA","6429","20062","9798","NA","730","2","legacy","1024","2","48000","-16","task","5226167","odd","NA","43975","52405","45976","133454","6215","36077","26279","133955","NA","133452","133955","133398","52405","134686","42090","132898","6206","104466","Lexical Decision Task","45","36533","48","yes","1024"
"2.703007489","8.37","3","pulp","word","91.83673469387755","91.83673469387755","764.3469387755102","764.3469387755102","black","no","legacy","legacy","legacy","0","uniform","0","undefined","undefined","undefined","0","j","0","0","0","0","48","0","0","0","48","NA","44","48","44","0","44","3","48","0","48","Sat Mar 13 00:40:07 2021","The main experiment item","yes","Lexical_Decision_Task.osexp","C:/Users/Admin/Desktop/CyberPsych 2/CAL","no","Andale Mono","no","18","no","white","no","yes","576","legacy","44","44","3","C:/Users/Admin/Desktop/CyberPsych 2/CAL/subject-5226167.csv","legacy","Lentiform Loewenfeld","3.3.7","yes","yes","600bd7cfb6416f0113b04181","602110864497cf011d9c0822","0","f","NA","space","j","space","NA","f","920","NA","6429","20062","9798","NA","920","2","legacy","1024","2","48000","-16","task","5226167","odd","NA","43975","52405","45976","135248","6215","36077","26279","135749","NA","135246","135749","135191","52405","136669","42090","134691","6206","104466","Lexical Decision Task","45","37453","49","yes","1024"
"3.15462682","0","6","noal","non-word","92","92","763.6","763.6","black","no","legacy","legacy","legacy","0","uniform","1","undefined","undefined","undefined","1","f","0","0","0","0","49","0","0","0","49","NA","45","49","45","0","45","3","49","0","49","Sat Mar 13 00:40:07 2021","The main experiment item","yes","Lexical_Decision_Task.osexp","C:/Users/Admin/Desktop/CyberPsych 2/CAL","no","Andale Mono","no","18","no","white","no","yes","576","legacy","45","45","3","C:/Users/Admin/Desktop/CyberPsych 2/CAL/subject-5226167.csv","legacy","Lentiform Loewenfeld","3.3.7","yes","yes","600bd7cfb6416f0113b04181","602110864497cf011d9c0822","0","f","NA","space","j","space","NA","f","727","NA","6429","20062","9798","NA","727","2","legacy","1024","2","48000","-16","task","5226167","odd","NA","43975","52405","45976","138233","6215","36077","26279","138734","NA","138231","138734","138177","52405","139461","42090","134691","6206","136676","Lexical Decision Task","46","38180","50","yes","1024"
"2.842815106","7.86","8","lump","word","92.15686274509804","92.15686274509804","761.0196078431372","761.0196078431372","black","no","legacy","legacy","legacy","0","uniform","1","undefined","undefined","undefined","1","j","0","0","0","0","50","0","0","0","50","NA","46","50","46","0","46","3","50","0","50","Sat Mar 13 00:40:07 2021","The main experiment item","yes","Lexical_Decision_Task.osexp","C:/Users/Admin/Desktop/CyberPsych 2/CAL","no","Andale Mono","no","18","no","white","no","yes","576","legacy","46","46","3","C:/Users/Admin/Desktop/CyberPsych 2/CAL/subject-5226167.csv","legacy","Lentiform Loewenfeld","3.3.7","yes","yes","600bd7cfb6416f0113b04181","602110864497cf011d9c0822","0","j","NA","space","j","space","NA","j","632","NA","6429","20062","9798","NA","632","2","legacy","1024","2","48000","-16","task","5226167","odd","NA","43975","52405","45976","140024","6215","36077","26279","140525","NA","140022","140525","139969","52405","141157","42090","139469","6206","136676","Lexical Decision Task","47","38812","51","yes","1024"
"2.95456409","0","4","taud","non-word","92.3076923076923","92.3076923076923","759.2692307692307","759.2692307692307","black","no","legacy","legacy","legacy","0","uniform","1","undefined","undefined","undefined","1","f","0","0","0","0","51","0","0","0","51","NA","47","51","47","0","47","3","51","0","51","Sat Mar 13 00:40:07 2021","The main experiment item","yes","Lexical_Decision_Task.osexp","C:/Users/Admin/Desktop/CyberPsych 2/CAL","no","Andale Mono","no","18","no","white","no","yes","576","legacy","47","47","3","C:/Users/Admin/Desktop/CyberPsych 2/CAL/subject-5226167.csv","legacy","Lentiform Loewenfeld","3.3.7","yes","yes","600bd7cfb6416f0113b04181","602110864497cf011d9c0822","0","f","NA","space","j","space","NA","f","670","NA","6429","20062","9798","NA","670","2","legacy","1024","2","48000","-16","task","5226167","odd","NA","43975","52405","45976","141722","6215","36077","26279","142223","NA","141720","142223","141664","52405","142894","42090","141164","6206","136676","Lexical Decision Task","48","39482","52","yes","1024"
"3.091901331","0","9","nipe","non-word","92.45283018867924","92.45283018867924","760.188679245283","760.188679245283","black","no","legacy","legacy","legacy","0","uniform","1","undefined","undefined","undefined","1","f","0","0","0","0","52","0","0","0","52","NA","48","52","48","0","48","3","52","0","52","Sat Mar 13 00:40:07 2021","The main experiment item","yes","Lexical_Decision_Task.osexp","C:/Users/Admin/Desktop/CyberPsych 2/CAL","no","Andale Mono","no","18","no","white","no","yes","576","legacy","48","48","3","C:/Users/Admin/Desktop/CyberPsych 2/CAL/subject-5226167.csv","legacy","Lentiform Loewenfeld","3.3.7","yes","yes","600bd7cfb6416f0113b04181","602110864497cf011d9c0822","0","f","NA","space","j","space","NA","f","808","NA","6429","20062","9798","NA","808","2","legacy","1024","2","48000","-16","task","5226167","odd","NA","43975","52405","45976","143456","6215","36077","26279","143957","NA","143454","143957","143400","52405","144766","42090","142899","6206","136676","Lexical Decision Task","49","40290","53","yes","1024"
"3.131833513","7.66","4","limb","word","92.5925925925926","92.5925925925926","757.0555555555555","757.0555555555555","black","no","legacy","legacy","legacy","0","uniform","1","undefined","undefined","undefined","1","j","0","0","0","0","53","0","0","0","53","NA","49","53","49","0","49","3","53","0","53","Sat Mar 13 00:40:07 2021","The main experiment item","yes","Lexical_Decision_Task.osexp","C:/Users/Admin/Desktop/CyberPsych 2/CAL","no","Andale Mono","no","18","no","white","no","yes","576","legacy","49","49","3","C:/Users/Admin/Desktop/CyberPsych 2/CAL/subject-5226167.csv","legacy","Lentiform Loewenfeld","3.3.7","yes","yes","600bd7cfb6416f0113b04181","602110864497cf011d9c0822","0","j","NA","space","j","space","NA","j","591","NA","6429","20062","9798","NA","591","2","legacy","1024","2","48000","-16","task","5226167","odd","NA","43975","52405","45976","145329","6215","36077","26279","145830","NA","145327","145830","145273","52405","146421","42090","144773","6206","136676","Lexical Decision Task","50","40881","54","yes","1024"
"3.274543461","7.46","7","scar","word","92.72727272727273","92.72727272727273","755.6","755.6","black","no","legacy","legacy","legacy","0","uniform","1","undefined","undefined","undefined","1","j","0","0","0","0","54","0","0","0","54","0","50","54","50","0","50","3","54","0","54","Sat Mar 13 00:40:07 2021","The main experiment item","yes","Lexical_Decision_Task.osexp","C:/Users/Admin/Desktop/CyberPsych 2/CAL","no","Andale Mono","no","18","no","white","no","yes","576","legacy","50","50","3","C:/Users/Admin/Desktop/CyberPsych 2/CAL/subject-5226167.csv","legacy","Lentiform Loewenfeld","3.3.7","yes","yes","600bd7cfb6416f0113b04181","602110864497cf011d9c0822","0","j","NA","space","j","space","space","j","677","NA","6429","20062","9798","11041","677","2","legacy","1024","2","48000","-16","task","5226167","odd","NA","43975","52405","45976","158081","6215","36077","26279","158583","146964","158079","158583","146931","52405","159262","42090","146431","6206","136676","Lexical Decision Task","51","41558","55","yes","1024"
"2.75025376","10.2","6","jump","word","92.85714285714286","92.85714285714286","754.0714285714286","754.0714285714286","black","no","legacy","legacy","legacy","0","uniform","1","undefined","undefined","undefined","1","j","0","0","0","0","55","0","0","0","55","0","51","55","51","0","51","3","55","0","55","Sat Mar 13 00:40:07 2021","The main experiment item","yes","Lexical_Decision_Task.osexp","C:/Users/Admin/Desktop/CyberPsych 2/CAL","no","Andale Mono","no","18","no","white","no","yes","576","legacy","51","51","3","C:/Users/Admin/Desktop/CyberPsych 2/CAL/subject-5226167.csv","legacy","Lentiform Loewenfeld","3.3.7","yes","yes","600bd7cfb6416f0113b04181","602110864497cf011d9c0822","0","j","NA","space","j","space","space","j","670","NA","6429","20062","9798","11041","670","2","legacy","1024","2","48000","-16","task","5226167","odd","NA","43975","52405","45976","159825","6215","36077","26279","160326","146964","159823","160326","159766","52405","160997","42090","159266","6206","136676","Lexical Decision Task","52","42228","56","yes","1024"
"3.153001286","8.7","5","palm","word","92.98245614035088","92.98245614035088","751.6666666666666","751.6666666666666","black","no","legacy","legacy","legacy","0","uniform","1","undefined","undefined","undefined","1","j","0","0","0","0","56","0","0","0","56","0","52","56","52","0","52","3","56","0","56","Sat Mar 13 00:40:07 2021","The main experiment item","yes","Lexical_Decision_Task.osexp","C:/Users/Admin/Desktop/CyberPsych 2/CAL","no","Andale Mono","no","18","no","white","no","yes","576","legacy","52","52","3","C:/Users/Admin/Desktop/CyberPsych 2/CAL/subject-5226167.csv","legacy","Lentiform Loewenfeld","3.3.7","yes","yes","600bd7cfb6416f0113b04181","602110864497cf011d9c0822","0","j","NA","space","j","space","space","j","617","NA","6429","20062","9798","11041","617","2","legacy","1024","2","48000","-16","task","5226167","odd","NA","43975","52405","45976","161559","6215","36077","26279","162060","146964","161557","162060","161502","52405","162677","42090","161002","6206","136676","Lexical Decision Task","53","42845","57","yes","1024"
"2.981215883","10.66","5","hair","word","93.10344827586206","93.10344827586206","747.6724137931035","747.6724137931035","black","no","legacy","legacy","legacy","0","uniform","1","undefined","undefined","undefined","1","j","0","0","0","0","57","0","0","0","57","0","53","57","53","0","53","3","57","0","57","Sat Mar 13 00:40:07 2021","The main experiment item","yes","Lexical_Decision_Task.osexp","C:/Users/Admin/Desktop/CyberPsych 2/CAL","no","Andale Mono","no","18","no","white","no","yes","576","legacy","53","53","3","C:/Users/Admin/Desktop/CyberPsych 2/CAL/subject-5226167.csv","legacy","Lentiform Loewenfeld","3.3.7","yes","yes","600bd7cfb6416f0113b04181","602110864497cf011d9c0822","0","j","NA","space","j","space","space","j","520","NA","6429","20062","9798","11041","520","2","legacy","1024","2","48000","-16","task","5226167","odd","NA","43975","52405","45976","163240","6215","36077","26279","163741","146964","163239","163741","163183","52405","164262","42090","162683","6206","136676","Lexical Decision Task","54","43365","58","yes","1024"
"2.983324025","9.56","2","debt","word","93.22033898305085","93.22033898305085","748.1016949152543","748.1016949152543","black","no","legacy","legacy","legacy","0","uniform","1","undefined","undefined","undefined","1","j","0","0","0","0","58","0","0","0","58","0","54","58","54","0","54","3","58","0","58","Sat Mar 13 00:40:07 2021","The main experiment item","yes","Lexical_Decision_Task.osexp","C:/Users/Admin/Desktop/CyberPsych 2/CAL","no","Andale Mono","no","18","no","white","no","yes","576","legacy","54","54","3","C:/Users/Admin/Desktop/CyberPsych 2/CAL/subject-5226167.csv","legacy","Lentiform Loewenfeld","3.3.7","yes","yes","600bd7cfb6416f0113b04181","602110864497cf011d9c0822","0","j","NA","space","j","space","space","j","773","NA","6429","20062","9798","11041","773","2","legacy","1024","2","48000","-16","task","5226167","odd","NA","43975","52405","45976","164826","6215","36077","26279","165327","146964","164824","165327","164767","52405","166101","42090","164267","6206","136676","Lexical Decision Task","55","44138","59","yes","1024"
"2.67699827","0","6","hulf","non-word","93.33333333333333","93.33333333333333","751.7833333333333","751.7833333333333","black","no","legacy","legacy","legacy","0","uniform","1","undefined","undefined","undefined","1","f","0","0","0","0","59","0","0","0","59","0","55","59","55","0","55","3","59","0","59","Sat Mar 13 00:40:07 2021","The main experiment item","yes","Lexical_Decision_Task.osexp","C:/Users/Admin/Desktop/CyberPsych 2/CAL","no","Andale Mono","no","18","no","white","no","yes","576","legacy","55","55","3","C:/Users/Admin/Desktop/CyberPsych 2/CAL/subject-5226167.csv","legacy","Lentiform Loewenfeld","3.3.7","yes","yes","600bd7cfb6416f0113b04181","602110864497cf011d9c0822","0","f","NA","space","j","space","space","f","969","NA","6429","20062","9798","11041","969","2","legacy","1024","2","48000","-16","task","5226167","odd","NA","43975","52405","45976","166662","6215","36077","26279","167163","146964","166661","167163","166606","52405","168133","42090","166106","6206","136676","Lexical Decision Task","56","45107","60","yes","1024"
"2.68604012","0","4","pumb","non-word","93.44262295081967","93.44262295081967","756.8032786885246","756.8032786885246","black","no","legacy","legacy","legacy","0","uniform","1","undefined","undefined","undefined","1","f","0","0","0","0","60","0","0","0","60","0","56","60","56","0","56","3","60","0","60","Sat Mar 13 00:40:07 2021","The main experiment item","yes","Lexical_Decision_Task.osexp","C:/Users/Admin/Desktop/CyberPsych 2/CAL","no","Andale Mono","no","18","no","white","no","yes","576","legacy","56","56","3","C:/Users/Admin/Desktop/CyberPsych 2/CAL/subject-5226167.csv","legacy","Lentiform Loewenfeld","3.3.7","yes","yes","600bd7cfb6416f0113b04181","602110864497cf011d9c0822","0","f","NA","space","j","space","space","f","1058","NA","6429","20062","9798","11041","1058","2","legacy","1024","2","48000","-16","task","5226167","odd","NA","43975","52405","45976","168692","6215","36077","26279","169194","146964","168691","169194","168637","52405","170253","42090","168137","6206","136676","Lexical Decision Task","57","46165","61","yes","1024"
"2.706148589","0","4","hube","non-word","93.54838709677419","93.54838709677419","757.6612903225806","757.6612903225806","black","no","legacy","legacy","legacy","0","uniform","1","undefined","undefined","undefined","1","f","0","0","0","0","61","0","0","0","61","0","57","61","57","0","57","3","61","0","61","Sat Mar 13 00:40:07 2021","The main experiment item","yes","Lexical_Decision_Task.osexp","C:/Users/Admin/Desktop/CyberPsych 2/CAL","no","Andale Mono","no","18","no","white","no","yes","576","legacy","57","57","3","C:/Users/Admin/Desktop/CyberPsych 2/CAL/subject-5226167.csv","legacy","Lentiform Loewenfeld","3.3.7","yes","yes","600bd7cfb6416f0113b04181","602110864497cf011d9c0822","0","f","NA","space","j","space","space","f","810","NA","6429","20062","9798","11041","810","2","legacy","1024","2","48000","-16","task","5226167","odd","NA","43975","52405","45976","170813","6215","36077","26279","171314","146964","170812","171314","170757","52405","172125","42090","170257","6206","136676","Lexical Decision Task","58","46975","62","yes","1024"
"3.384413096","10.15","3","glad","word","93.65079365079364","93.65079365079364","754.6507936507936","754.6507936507936","black","no","legacy","legacy","legacy","0","uniform","1","undefined","undefined","undefined","1","j","0","0","0","0","62","0","0","0","62","0","58","62","58","0","58","3","62","0","62","Sat Mar 13 00:40:07 2021","The main experiment item","yes","Lexical_Decision_Task.osexp","C:/Users/Admin/Desktop/CyberPsych 2/CAL","no","Andale Mono","no","18","no","white","no","yes","576","legacy","58","58","3","C:/Users/Admin/Desktop/CyberPsych 2/CAL/subject-5226167.csv","legacy","Lentiform Loewenfeld","3.3.7","yes","yes","600bd7cfb6416f0113b04181","602110864497cf011d9c0822","0","j","NA","space","j","space","space","j","568","NA","6429","20062","9798","11041","568","2","legacy","1024","2","48000","-16","task","5226167","odd","NA","43975","52405","45976","172688","6215","36077","26279","173189","146964","172687","173189","172631","52405","173758","42090","172131","6206","136676","Lexical Decision Task","59","47543","63","yes","1024"
"2.898725182","0","7","turl","non-word","93.75","93.75","754.390625","754.390625","black","no","legacy","legacy","legacy","0","uniform","1","undefined","undefined","undefined","1","f","0","0","0","0","63","0","0","0","63","0","59","63","59","0","59","3","63","0","63","Sat Mar 13 00:40:07 2021","The main experiment item","yes","Lexical_Decision_Task.osexp","C:/Users/Admin/Desktop/CyberPsych 2/CAL","no","Andale Mono","no","18","no","white","no","yes","576","legacy","59","59","3","C:/Users/Admin/Desktop/CyberPsych 2/CAL/subject-5226167.csv","legacy","Lentiform Loewenfeld","3.3.7","yes","yes","600bd7cfb6416f0113b04181","602110864497cf011d9c0822","0","f","NA","space","j","space","space","f","738","NA","6429","20062","9798","11041","738","2","legacy","1024","2","48000","-16","task","5226167","odd","NA","43975","52405","45976","174318","6215","36077","26279","174819","146964","174316","174819","174262","52405","175557","42090","173762","6206","136676","Lexical Decision Task","60","48281","64","yes","1024"
"3.165936429","0","7","leps","non-word","93.84615384615384","93.84615384615384","755.2307692307693","755.2307692307693","black","no","legacy","legacy","legacy","0","uniform","1","undefined","undefined","undefined","1","f","0","0","0","0","64","0","0","0","64","0","60","64","60","0","60","3","64","0","64","Sat Mar 13 00:40:07 2021","The main experiment item","yes","Lexical_Decision_Task.osexp","C:/Users/Admin/Desktop/CyberPsych 2/CAL","no","Andale Mono","no","18","no","white","no","yes","576","legacy","60","60","3","C:/Users/Admin/Desktop/CyberPsych 2/CAL/subject-5226167.csv","legacy","Lentiform Loewenfeld","3.3.7","yes","yes","600bd7cfb6416f0113b04181","602110864497cf011d9c0822","0","f","NA","space","j","space","space","f","809","NA","6429","20062","9798","11041","809","2","legacy","1024","2","48000","-16","task","5226167","odd","NA","43975","52405","45976","176119","6215","36077","26279","176620","146964","176118","176620","176063","52405","177430","42090","175562","6206","136676","Lexical Decision Task","61","49090","65","yes","1024"
"3.140404328","10.66","9","deep","word","93.93939393939394","93.93939393939394","752.4090909090909","752.4090909090909","black","no","legacy","legacy","legacy","0","uniform","1","undefined","undefined","undefined","1","j","0","0","0","0","65","0","0","0","65","0","61","65","61","0","61","3","65","0","65","Sat Mar 13 00:40:07 2021","The main experiment item","yes","Lexical_Decision_Task.osexp","C:/Users/Admin/Desktop/CyberPsych 2/CAL","no","Andale Mono","no","18","no","white","no","yes","576","legacy","61","61","3","C:/Users/Admin/Desktop/CyberPsych 2/CAL/subject-5226167.csv","legacy","Lentiform Loewenfeld","3.3.7","yes","yes","600bd7cfb6416f0113b04181","602110864497cf011d9c0822","0","j","NA","space","j","space","space","j","569","NA","6429","20062","9798","11041","569","2","legacy","1024","2","48000","-16","task","5226167","odd","NA","43975","52405","45976","177990","6215","36077","26279","178491","146964","177988","178491","177933","52405","179061","42090","177433","6206","136676","Lexical Decision Task","62","49659","66","yes","1024"
"2.899092422","7.27","6","snag","word","94.02985074626865","94.02985074626865","754.6716417910447","754.6716417910447","black","no","legacy","legacy","legacy","0","uniform","1","undefined","undefined","undefined","1","j","0","0","0","0","66","0","0","0","66","0","62","66","62","0","62","3","66","0","66","Sat Mar 13 00:40:07 2021","The main experiment item","yes","Lexical_Decision_Task.osexp","C:/Users/Admin/Desktop/CyberPsych 2/CAL","no","Andale Mono","no","18","no","white","no","yes","576","legacy","62","62","3","C:/Users/Admin/Desktop/CyberPsych 2/CAL/subject-5226167.csv","legacy","Lentiform Loewenfeld","3.3.7","yes","yes","600bd7cfb6416f0113b04181","602110864497cf011d9c0822","0","j","NA","space","j","space","space","j","904","NA","6429","20062","9798","11041","904","2","legacy","1024","2","48000","-16","task","5226167","odd","NA","43975","52405","45976","179623","6215","36077","26279","180124","146964","179622","180124","179567","52405","181029","42090","179067","6206","136676","Lexical Decision Task","63","50563","67","yes","1024"
"3.347850856","10.51","2","rich","word","94.11764705882354","94.11764705882354","750.8676470588235","750.8676470588235","black","no","legacy","legacy","legacy","0","uniform","1","undefined","undefined","undefined","1","j","0","0","0","0","67","0","0","0","67","0","63","67","63","0","63","3","67","0","67","Sat Mar 13 00:40:07 2021","The main experiment item","yes","Lexical_Decision_Task.osexp","C:/Users/Admin/Desktop/CyberPsych 2/CAL","no","Andale Mono","no","18","no","white","no","yes","576","legacy","63","63","3","C:/Users/Admin/Desktop/CyberPsych 2/CAL/subject-5226167.csv","legacy","Lentiform Loewenfeld","3.3.7","yes","yes","600bd7cfb6416f0113b04181","602110864497cf011d9c0822","0","j","NA","space","j","space","space","j","496","NA","6429","20062","9798","11041","496","2","legacy","1024","2","48000","-16","task","5226167","odd","NA","43975","52405","45976","181591","6215","36077","26279","182092","146964","181590","182092","181535","52405","182589","42090","181035","6206","136676","Lexical Decision Task","64","51059","68","yes","1024"
"2.782472624","10.55","2","huge","word","94.20289855072464","94.20289855072464","746.8405797101449","746.8405797101449","black","no","legacy","legacy","legacy","0","uniform","1","undefined","undefined","undefined","1","j","0","0","0","0","68","0","0","0","68","0","64","68","64","0","64","3","68","0","68","Sat Mar 13 00:40:07 2021","The main experiment item","yes","Lexical_Decision_Task.osexp","C:/Users/Admin/Desktop/CyberPsych 2/CAL","no","Andale Mono","no","18","no","white","no","yes","576","legacy","64","64","3","C:/Users/Admin/Desktop/CyberPsych 2/CAL/subject-5226167.csv","legacy","Lentiform Loewenfeld","3.3.7","yes","yes","600bd7cfb6416f0113b04181","602110864497cf011d9c0822","0","j","NA","space","j","space","space","j","473","NA","6429","20062","9798","11041","473","2","legacy","1024","2","48000","-16","task","5226167","odd","NA","43975","52405","45976","183151","6215","36077","26279","183652","146964","183149","183652","183095","52405","184126","42090","182595","6206","136676","Lexical Decision Task","65","51532","69","yes","1024"
"3.374137706","10.21","4","tree","word","94.28571428571429","94.28571428571429","742.3571428571429","742.3571428571429","black","no","legacy","legacy","legacy","0","uniform","1","undefined","undefined","undefined","1","j","0","0","0","0","69","0","0","0","69","0","65","69","65","0","65","3","69","0","69","Sat Mar 13 00:40:07 2021","The main experiment item","yes","Lexical_Decision_Task.osexp","C:/Users/Admin/Desktop/CyberPsych 2/CAL","no","Andale Mono","no","18","no","white","no","yes","576","legacy","65","65","3","C:/Users/Admin/Desktop/CyberPsych 2/CAL/subject-5226167.csv","legacy","Lentiform Loewenfeld","3.3.7","yes","yes","600bd7cfb6416f0113b04181","602110864497cf011d9c0822","0","j","NA","space","j","space","space","j","433","NA","6429","20062","9798","11041","433","2","legacy","1024","2","48000","-16","task","5226167","odd","NA","43975","52405","45976","184687","6215","36077","26279","185188","146964","184685","185188","184630","52405","185622","42090","184130","6206","136676","Lexical Decision Task","66","51965","70","yes","1024"
"3.311895072","0","9","gung","non-word","94.36619718309859","94.36619718309859","739.7042253521126","739.7042253521126","black","no","legacy","legacy","legacy","0","uniform","1","undefined","undefined","undefined","1","f","0","0","0","0","70","0","0","0","70","0","66","70","66","0","66","3","70","0","70","Sat Mar 13 00:40:07 2021","The main experiment item","yes","Lexical_Decision_Task.osexp","C:/Users/Admin/Desktop/CyberPsych 2/CAL","no","Andale Mono","no","18","no","white","no","yes","576","legacy","66","66","3","C:/Users/Admin/Desktop/CyberPsych 2/CAL/subject-5226167.csv","legacy","Lentiform Loewenfeld","3.3.7","yes","yes","600bd7cfb6416f0113b04181","602110864497cf011d9c0822","0","f","NA","space","j","space","space","f","554","NA","6429","20062","9798","11041","554","2","legacy","1024","2","48000","-16","task","5226167","odd","NA","43975","52405","45976","186182","6215","36077","26279","186683","146964","186180","186683","186127","52405","187238","42090","185627","6206","136676","Lexical Decision Task","67","52519","71","yes","1024"
"2.576725172","0","8","gowl","non-word","94.44444444444444","94.44444444444444","740.6527777777778","740.6527777777778","black","no","legacy","legacy","legacy","0","uniform","1","undefined","undefined","undefined","1","f","0","0","0","0","71","0","0","0","71","0","67","71","67","0","67","3","71","0","71","Sat Mar 13 00:40:07 2021","The main experiment item","yes","Lexical_Decision_Task.osexp","C:/Users/Admin/Desktop/CyberPsych 2/CAL","no","Andale Mono","no","18","no","white","no","yes","576","legacy","67","67","3","C:/Users/Admin/Desktop/CyberPsych 2/CAL/subject-5226167.csv","legacy","Lentiform Loewenfeld","3.3.7","yes","yes","600bd7cfb6416f0113b04181","602110864497cf011d9c0822","0","f","NA","space","j","space","space","f","808","NA","6429","20062","9798","11041","808","2","legacy","1024","2","48000","-16","task","5226167","odd","NA","43975","52405","45976","187799","6215","36077","26279","188300","146964","187797","188300","187742","52405","189109","42090","187242","6206","136676","Lexical Decision Task","68","53327","72","yes","1024"
"3.039414119","0","9","meep","non-word","94.52054794520548","94.52054794520548","738.6712328767123","738.6712328767123","black","no","legacy","legacy","legacy","0","uniform","1","undefined","undefined","undefined","1","f","0","0","0","0","72","0","0","0","72","0","68","72","68","0","68","3","72","0","72","Sat Mar 13 00:40:07 2021","The main experiment item","yes","Lexical_Decision_Task.osexp","C:/Users/Admin/Desktop/CyberPsych 2/CAL","no","Andale Mono","no","18","no","white","no","yes","576","legacy","68","68","3","C:/Users/Admin/Desktop/CyberPsych 2/CAL/subject-5226167.csv","legacy","Lentiform Loewenfeld","3.3.7","yes","yes","600bd7cfb6416f0113b04181","602110864497cf011d9c0822","0","f","NA","space","j","space","space","f","596","NA","6429","20062","9798","11041","596","2","legacy","1024","2","48000","-16","task","5226167","odd","NA","43975","52405","45976","189668","6215","36077","26279","190169","146964","189666","190169","189614","52405","190766","42090","189114","6206","136676","Lexical Decision Task","69","53923","73","yes","1024"
"3.263399331","0","8","cour","non-word","94.5945945945946","94.5945945945946","737.3513513513514","737.3513513513514","black","no","legacy","legacy","legacy","0","uniform","1","undefined","undefined","undefined","1","f","0","0","0","0","73","0","0","0","73","0","69","73","69","0","69","3","73","0","73","Sat Mar 13 00:40:07 2021","The main experiment item","yes","Lexical_Decision_Task.osexp","C:/Users/Admin/Desktop/CyberPsych 2/CAL","no","Andale Mono","no","18","no","white","no","yes","576","legacy","69","69","3","C:/Users/Admin/Desktop/CyberPsych 2/CAL/subject-5226167.csv","legacy","Lentiform Loewenfeld","3.3.7","yes","yes","600bd7cfb6416f0113b04181","602110864497cf011d9c0822","0","f","NA","space","j","space","space","f","641","NA","6429","20062","9798","11041","641","2","legacy","1024","2","48000","-16","task","5226167","odd","NA","43975","52405","45976","191326","6215","36077","26279","191827","146964","191324","191827","191270","52405","192469","42090","190770","6206","136676","Lexical Decision Task","70","54564","74","yes","1024"
"3.197740804","6.74","3","ache","word","94.66666666666667","94.66666666666667","737.2266666666667","737.2266666666667","black","no","legacy","legacy","legacy","0","uniform","1","undefined","undefined","undefined","1","j","0","0","0","0","74","0","0","0","74","0","70","74","70","0","70","3","74","0","74","Sat Mar 13 00:40:07 2021","The main experiment item","yes","Lexical_Decision_Task.osexp","C:/Users/Admin/Desktop/CyberPsych 2/CAL","no","Andale Mono","no","18","no","white","no","yes","576","legacy","70","70","3","C:/Users/Admin/Desktop/CyberPsych 2/CAL/subject-5226167.csv","legacy","Lentiform Loewenfeld","3.3.7","yes","yes","600bd7cfb6416f0113b04181","602110864497cf011d9c0822","0","j","NA","space","j","space","space","j","728","NA","6429","20062","9798","11041","728","2","legacy","1024","2","48000","-16","task","5226167","odd","NA","43975","52405","45976","193032","6215","36077","26279","193533","146964","193030","193533","192975","52405","194262","42090","192475","6206","136676","Lexical Decision Task","71","55292","75","yes","1024"
"2.698100546","0","9","mulk","non-word","94.73684210526316","94.73684210526316","737.6578947368421","737.6578947368421","black","no","legacy","legacy","legacy","0","uniform","1","undefined","undefined","undefined","1","f","0","0","0","0","75","0","0","0","75","0","71","75","71","0","71","3","75","0","75","Sat Mar 13 00:40:07 2021","The main experiment item","yes","Lexical_Decision_Task.osexp","C:/Users/Admin/Desktop/CyberPsych 2/CAL","no","Andale Mono","no","18","no","white","no","yes","576","legacy","71","71","3","C:/Users/Admin/Desktop/CyberPsych 2/CAL/subject-5226167.csv","legacy","Lentiform Loewenfeld","3.3.7","yes","yes","600bd7cfb6416f0113b04181","602110864497cf011d9c0822","0","f","NA","space","j","space","space","f","770","NA","6429","20062","9798","11041","770","2","legacy","1024","2","48000","-16","task","5226167","odd","NA","43975","52405","45976","194822","6215","36077","26279","195323","146964","194820","195323","194766","52405","196094","42090","194266","6206","136676","Lexical Decision Task","72","56062","76","yes","1024"
"2.819763221","0","2","durp","non-word","94.8051948051948","94.8051948051948","736.077922077922","736.077922077922","black","no","legacy","legacy","legacy","0","uniform","1","undefined","undefined","undefined","1","f","0","0","0","0","76","0","0","0","76","0","72","76","72","0","72","3","76","0","76","Sat Mar 13 00:40:07 2021","The main experiment item","yes","Lexical_Decision_Task.osexp","C:/Users/Admin/Desktop/CyberPsych 2/CAL","no","Andale Mono","no","18","no","white","no","yes","576","legacy","72","72","3","C:/Users/Admin/Desktop/CyberPsych 2/CAL/subject-5226167.csv","legacy","Lentiform Loewenfeld","3.3.7","yes","yes","600bd7cfb6416f0113b04181","602110864497cf011d9c0822","0","f","NA","space","j","space","space","f","616","NA","6429","20062","9798","11041","616","2","legacy","1024","2","48000","-16","task","5226167","odd","NA","43975","52405","45976","196655","6215","36077","26279","197156","146964","196653","197156","196597","52405","197773","42090","196097","6206","136676","Lexical Decision Task","73","56678","77","yes","1024"
"2.664328519","0","4","plux","non-word","94.87179487179488","94.87179487179488","734.5897435897435","734.5897435897435","black","no","legacy","legacy","legacy","0","uniform","1","undefined","undefined","undefined","1","f","0","0","0","0","77","0","0","0","77","0","73","77","73","0","73","3","77","0","77","Sat Mar 13 00:40:07 2021","The main experiment item","yes","Lexical_Decision_Task.osexp","C:/Users/Admin/Desktop/CyberPsych 2/CAL","no","Andale Mono","no","18","no","white","no","yes","576","legacy","73","73","3","C:/Users/Admin/Desktop/CyberPsych 2/CAL/subject-5226167.csv","legacy","Lentiform Loewenfeld","3.3.7","yes","yes","600bd7cfb6416f0113b04181","602110864497cf011d9c0822","0","f","NA","space","j","space","space","f","620","NA","6429","20062","9798","11041","620","2","legacy","1024","2","48000","-16","task","5226167","odd","NA","43975","52405","45976","198332","6215","36077","26279","198833","146964","198331","198833","198276","52405","199454","42090","197776","6206","136676","Lexical Decision Task","74","57298","78","yes","1024"
"3.368162872","0","4","ferk","non-word","94.9367088607595","94.9367088607595","735.1392405063291","735.1392405063291","black","no","legacy","legacy","legacy","0","uniform","1","undefined","undefined","undefined","1","f","0","0","0","0","78","0","0","0","78","0","74","78","74","0","74","3","78","0","78","Sat Mar 13 00:40:07 2021","The main experiment item","yes","Lexical_Decision_Task.osexp","C:/Users/Admin/Desktop/CyberPsych 2/CAL","no","Andale Mono","no","18","no","white","no","yes","576","legacy","74","74","3","C:/Users/Admin/Desktop/CyberPsych 2/CAL/subject-5226167.csv","legacy","Lentiform Loewenfeld","3.3.7","yes","yes","600bd7cfb6416f0113b04181","602110864497cf011d9c0822","0","f","NA","space","j","space","space","f","778","NA","6429","20062","9798","11041","778","2","legacy","1024","2","48000","-16","task","5226167","odd","NA","43975","52405","45976","200013","6215","36077","26279","200514","146964","200011","200514","199957","52405","201293","42090","199457","6206","136676","Lexical Decision Task","75","58076","79","yes","1024"
"2.812467698","0","7","hafe","non-word","95","95","733.275","733.275","black","no","legacy","legacy","legacy","0","uniform","1","undefined","undefined","undefined","1","f","0","0","0","0","79","0","0","0","79","0","75","79","75","0","75","3","79","0","79","Sat Mar 13 00:40:07 2021","The main experiment item","yes","Lexical_Decision_Task.osexp","C:/Users/Admin/Desktop/CyberPsych 2/CAL","no","Andale Mono","no","18","no","white","no","yes","576","legacy","75","75","3","C:/Users/Admin/Desktop/CyberPsych 2/CAL/subject-5226167.csv","legacy","Lentiform Loewenfeld","3.3.7","yes","yes","600bd7cfb6416f0113b04181","602110864497cf011d9c0822","0","f","NA","space","j","space","space","f","586","NA","6429","20062","9798","11041","586","2","legacy","1024","2","48000","-16","task","5226167","odd","NA","43975","52405","45976","201853","6215","36077","26279","202354","146964","201851","202354","201797","52405","202942","42090","201297","6206","136676","Lexical Decision Task","76","58662","80","yes","1024"
"3.252447662","9.67","9","boat","word","95.06172839506173","95.06172839506173","731.1604938271605","731.1604938271605","black","no","legacy","legacy","legacy","0","uniform","1","undefined","undefined","undefined","1","j","0","0","0","0","80","0","0","0","80","0","76","80","76","0","76","3","80","0","80","Sat Mar 13 00:40:07 2021","The main experiment item","yes","Lexical_Decision_Task.osexp","C:/Users/Admin/Desktop/CyberPsych 2/CAL","no","Andale Mono","no","18","no","white","no","yes","576","legacy","76","76","3","C:/Users/Admin/Desktop/CyberPsych 2/CAL/subject-5226167.csv","legacy","Lentiform Loewenfeld","3.3.7","yes","yes","600bd7cfb6416f0113b04181","602110864497cf011d9c0822","0","j","NA","space","j","space","space","j","562","NA","6429","20062","9798","11041","562","2","legacy","1024","2","48000","-16","task","5226167","odd","NA","43975","52405","45976","203502","6215","36077","26279","204003","146964","203500","204003","203447","52405","204566","42090","202947","6206","136676","Lexical Decision Task","77","59224","81","yes","1024"
"2.64476673","0","5","moft","non-word","95.1219512195122","95.1219512195122","729.4756097560976","729.4756097560976","black","no","legacy","legacy","legacy","0","uniform","1","undefined","undefined","undefined","1","f","0","0","0","0","81","0","0","0","81","0","77","81","77","0","77","3","81","0","81","Sat Mar 13 00:40:07 2021","The main experiment item","yes","Lexical_Decision_Task.osexp","C:/Users/Admin/Desktop/CyberPsych 2/CAL","no","Andale Mono","no","18","no","white","no","yes","576","legacy","77","77","3","C:/Users/Admin/Desktop/CyberPsych 2/CAL/subject-5226167.csv","legacy","Lentiform Loewenfeld","3.3.7","yes","yes","600bd7cfb6416f0113b04181","602110864497cf011d9c0822","0","f","NA","space","j","space","space","f","593","NA","6429","20062","9798","11041","593","2","legacy","1024","2","48000","-16","task","5226167","odd","NA","43975","52405","45976","205127","6215","36077","26279","205628","146964","205125","205628","205071","52405","206222","42090","204571","6206","136676","Lexical Decision Task","78","59817","82","yes","1024"
"3.120025233","0","2","nyst","non-word","95.18072289156626","95.18072289156626","728.8674698795181","728.8674698795181","black","no","legacy","legacy","legacy","0","uniform","1","undefined","undefined","undefined","1","f","0","0","0","0","82","0","0","0","82","0","78","82","78","0","78","3","82","0","82","Sat Mar 13 00:40:07 2021","The main experiment item","yes","Lexical_Decision_Task.osexp","C:/Users/Admin/Desktop/CyberPsych 2/CAL","no","Andale Mono","no","18","no","white","no","yes","576","legacy","78","78","3","C:/Users/Admin/Desktop/CyberPsych 2/CAL/subject-5226167.csv","legacy","Lentiform Loewenfeld","3.3.7","yes","yes","600bd7cfb6416f0113b04181","602110864497cf011d9c0822","0","f","NA","space","j","space","space","f","679","NA","6429","20062","9798","11041","679","2","legacy","1024","2","48000","-16","task","5226167","odd","NA","43975","52405","45976","206784","6215","36077","26279","207285","146964","206782","207285","206727","52405","207965","42090","206227","6206","136676","Lexical Decision Task","79","60496","83","yes","1024"
"2.784379519","0","2","snaf","non-word","95.23809523809524","95.23809523809524","728.952380952381","728.952380952381","black","no","legacy","legacy","legacy","0","uniform","1","undefined","undefined","undefined","1","f","0","0","0","0","83","0","0","0","83","0","79","83","79","0","79","3","83","0","83","Sat Mar 13 00:40:07 2021","The main experiment item","yes","Lexical_Decision_Task.osexp","C:/Users/Admin/Desktop/CyberPsych 2/CAL","no","Andale Mono","no","18","no","white","no","yes","576","legacy","79","79","3","C:/Users/Admin/Desktop/CyberPsych 2/CAL/subject-5226167.csv","legacy","Lentiform Loewenfeld","3.3.7","yes","yes","600bd7cfb6416f0113b04181","602110864497cf011d9c0822","0","f","NA","space","j","space","space","f","736","NA","6429","20062","9798","11041","736","2","legacy","1024","2","48000","-16","task","5226167","odd","NA","43975","52405","45976","208528","6215","36077","26279","209029","146964","208526","209029","208470","52405","209766","42090","207970","6206","136676","Lexical Decision Task","80","61232","84","yes","1024"
"2.695770526","7.34","6","pawn","word","94.11764705882354","94.11764705882354","726.0235294117647","726.0235294117647","black","no","legacy","legacy","legacy","0","uniform","0","undefined","undefined","undefined","0","j","0","0","0","0","84","0","0","0","84","0","80","84","80","0","80","3","84","0","84","Sat Mar 13 00:40:07 2021","The main experiment item","yes","Lexical_Decision_Task.osexp","C:/Users/Admin/Desktop/CyberPsych 2/CAL","no","Andale Mono","no","18","no","white","no","yes","576","legacy","80","80","3","C:/Users/Admin/Desktop/CyberPsych 2/CAL/subject-5226167.csv","legacy","Lentiform Loewenfeld","3.3.7","yes","yes","600bd7cfb6416f0113b04181","602110864497cf011d9c0822","0","f","NA","space","j","space","space","f","480","NA","6429","20062","9798","11041","480","2","legacy","1024","2","48000","-16","task","5226167","odd","NA","43975","52405","45976","210327","6215","36077","26279","210828","146964","210325","210828","210271","52405","211309","42090","209771","6206","136676","Lexical Decision Task","80","61712","85","yes","1024"
"3.261341392","5.08","8","reek","word","93.02325581395348","93.02325581395348","730.3488372093024","730.3488372093024","black","no","legacy","legacy","legacy","0","uniform","0","undefined","undefined","undefined","0","j","0","0","0","0","85","0","0","0","85","0","81","85","81","0","81","3","85","0","85","Sat Mar 13 00:40:07 2021","The main experiment item","yes","Lexical_Decision_Task.osexp","C:/Users/Admin/Desktop/CyberPsych 2/CAL","no","Andale Mono","no","18","no","white","no","yes","576","legacy","81","81","3","C:/Users/Admin/Desktop/CyberPsych 2/CAL/subject-5226167.csv","legacy","Lentiform Loewenfeld","3.3.7","yes","yes","600bd7cfb6416f0113b04181","602110864497cf011d9c0822","0","f","NA","space","j","space","space","f","1098","NA","6429","20062","9798","11041","1098","2","legacy","1024","2","48000","-16","task","5226167","odd","NA","43975","52405","45976","212869","6215","36077","26279","213371","146964","212868","213371","212814","52405","214470","42090","209771","6206","211314","Lexical Decision Task","80","62810","86","yes","1024"
"3.134602053","0","8","jart","non-word","93.10344827586206","93.10344827586206","735.7701149425287","735.7701149425287","black","no","legacy","legacy","legacy","0","uniform","1","undefined","undefined","undefined","1","f","0","0","0","0","86","0","0","0","86","0","82","86","82","0","82","3","86","0","86","Sat Mar 13 00:40:07 2021","The main experiment item","yes","Lexical_Decision_Task.osexp","C:/Users/Admin/Desktop/CyberPsych 2/CAL","no","Andale Mono","no","18","no","white","no","yes","576","legacy","82","82","3","C:/Users/Admin/Desktop/CyberPsych 2/CAL/subject-5226167.csv","legacy","Lentiform Loewenfeld","3.3.7","yes","yes","600bd7cfb6416f0113b04181","602110864497cf011d9c0822","0","f","NA","space","j","space","space","f","1202","NA","6429","20062","9798","11041","1202","2","legacy","1024","2","48000","-16","task","5226167","odd","NA","43975","52405","45976","216031","6215","36077","26279","216531","146964","216029","216531","215974","52405","217734","42090","209771","6206","214474","Lexical Decision Task","81","64012","87","yes","1024"
"2.714888338","0","3","brug","non-word","93.18181818181819","93.18181818181819","735.7727272727273","735.7727272727273","black","no","legacy","legacy","legacy","0","uniform","1","undefined","undefined","undefined","1","f","0","0","0","0","87","0","0","0","87","0","83","87","83","0","83","3","87","0","87","Sat Mar 13 00:40:07 2021","The main experiment item","yes","Lexical_Decision_Task.osexp","C:/Users/Admin/Desktop/CyberPsych 2/CAL","no","Andale Mono","no","18","no","white","no","yes","576","legacy","83","83","3","C:/Users/Admin/Desktop/CyberPsych 2/CAL/subject-5226167.csv","legacy","Lentiform Loewenfeld","3.3.7","yes","yes","600bd7cfb6416f0113b04181","602110864497cf011d9c0822","0","f","NA","space","j","space","space","f","736","NA","6429","20062","9798","11041","736","2","legacy","1024","2","48000","-16","task","5226167","odd","NA","43975","52405","45976","218295","6215","36077","26279","218796","146964","218293","218796","218239","52405","219533","42090","217739","6206","214474","Lexical Decision Task","82","64748","88","yes","1024"
"3.066077331","0","7","vorn","non-word","93.25842696629213","93.25842696629213","734.4157303370787","734.4157303370787","black","no","legacy","legacy","legacy","0","uniform","1","undefined","undefined","undefined","1","f","0","0","0","0","88","0","0","0","88","0","84","88","84","0","84","3","88","0","88","Sat Mar 13 00:40:07 2021","The main experiment item","yes","Lexical_Decision_Task.osexp","C:/Users/Admin/Desktop/CyberPsych 2/CAL","no","Andale Mono","no","18","no","white","no","yes","576","legacy","84","84","3","C:/Users/Admin/Desktop/CyberPsych 2/CAL/subject-5226167.csv","legacy","Lentiform Loewenfeld","3.3.7","yes","yes","600bd7cfb6416f0113b04181","602110864497cf011d9c0822","0","f","NA","space","j","space","space","f","615","NA","6429","20062","9798","11041","615","2","legacy","1024","2","48000","-16","task","5226167","odd","NA","43975","52405","45976","220096","6215","36077","26279","220597","146964","220094","220597","220038","52405","221214","42090","219538","6206","214474","Lexical Decision Task","83","65363","89","yes","1024"
"3.195807436","0","6","stup","non-word","93.33333333333333","93.33333333333333","734.3777777777777","734.3777777777777","black","no","legacy","legacy","legacy","0","uniform","1","undefined","undefined","undefined","1","f","0","0","0","0","89","0","0","0","89","0","85","89","85","0","85","3","89","0","89","Sat Mar 13 00:40:07 2021","The main experiment item","yes","Lexical_Decision_Task.osexp","C:/Users/Admin/Desktop/CyberPsych 2/CAL","no","Andale Mono","no","18","no","white","no","yes","576","legacy","85","85","3","C:/Users/Admin/Desktop/CyberPsych 2/CAL/subject-5226167.csv","legacy","Lentiform Loewenfeld","3.3.7","yes","yes","600bd7cfb6416f0113b04181","602110864497cf011d9c0822","0","f","NA","space","j","space","space","f","731","NA","6429","20062","9798","11041","731","2","legacy","1024","2","48000","-16","task","5226167","odd","NA","43975","52405","45976","221773","6215","36077","26279","222274","146964","221772","222274","221718","52405","223006","42090","221218","6206","214474","Lexical Decision Task","84","66094","90","yes","1024"
"3.031812271","6.52","3","gulp","word","93.4065934065934","93.4065934065934","733.5274725274726","733.5274725274726","black","no","legacy","legacy","legacy","0","uniform","1","undefined","undefined","undefined","1","j","0","0","0","0","90","0","0","0","90","0","86","90","86","0","86","3","90","0","90","Sat Mar 13 00:40:07 2021","The main experiment item","yes","Lexical_Decision_Task.osexp","C:/Users/Admin/Desktop/CyberPsych 2/CAL","no","Andale Mono","no","18","no","white","no","yes","576","legacy","86","86","3","C:/Users/Admin/Desktop/CyberPsych 2/CAL/subject-5226167.csv","legacy","Lentiform Loewenfeld","3.3.7","yes","yes","600bd7cfb6416f0113b04181","602110864497cf011d9c0822","0","j","NA","space","j","space","space","j","657","NA","6429","20062","9798","11041","657","2","legacy","1024","2","48000","-16","task","5226167","odd","NA","43975","52405","45976","223567","6215","36077","26279","224068","146964","223566","224068","223511","52405","224726","42090","223011","6206","214474","Lexical Decision Task","85","66751","91","yes","1024"
"2.793790385","5.67","9","swab","word","93.47826086956522","93.47826086956522","733.3152173913044","733.3152173913044","black","no","legacy","legacy","legacy","0","uniform","1","undefined","undefined","undefined","1","j","0","0","0","0","91","0","0","0","91","0","87","91","87","0","87","3","91","0","91","Sat Mar 13 00:40:07 2021","The main experiment item","yes","Lexical_Decision_Task.osexp","C:/Users/Admin/Desktop/CyberPsych 2/CAL","no","Andale Mono","no","18","no","white","no","yes","576","legacy","87","87","3","C:/Users/Admin/Desktop/CyberPsych 2/CAL/subject-5226167.csv","legacy","Lentiform Loewenfeld","3.3.7","yes","yes","600bd7cfb6416f0113b04181","602110864497cf011d9c0822","0","j","NA","space","j","space","space","j","714","NA","6429","20062","9798","11041","714","2","legacy","1024","2","48000","-16","task","5226167","odd","NA","43975","52405","45976","225286","6215","36077","26279","225787","146964","225284","225787","225229","52405","226502","42090","224729","6206","214474","Lexical Decision Task","86","67465","92","yes","1024"
"3.225825991","0","7","talm","non-word","93.54838709677419","93.54838709677419","734.8817204301075","734.8817204301075","black","no","legacy","legacy","legacy","0","uniform","1","undefined","undefined","undefined","1","f","0","0","0","0","92","0","0","0","92","0","88","92","88","0","88","3","92","0","92","Sat Mar 13 00:40:07 2021","The main experiment item","yes","Lexical_Decision_Task.osexp","C:/Users/Admin/Desktop/CyberPsych 2/CAL","no","Andale Mono","no","18","no","white","no","yes","576","legacy","88","88","3","C:/Users/Admin/Desktop/CyberPsych 2/CAL/subject-5226167.csv","legacy","Lentiform Loewenfeld","3.3.7","yes","yes","600bd7cfb6416f0113b04181","602110864497cf011d9c0822","0","f","NA","space","j","space","space","f","879","NA","6429","20062","9798","11041","879","2","legacy","1024","2","48000","-16","task","5226167","odd","NA","43975","52405","45976","227064","6215","36077","26279","227565","146964","227062","227566","227006","52405","228446","42090","226506","6206","214474","Lexical Decision Task","87","68344","93","yes","1024"
"2.899638141","0","3","hapt","non-word","93.61702127659575","93.61702127659575","734.1276595744681","734.1276595744681","black","no","legacy","legacy","legacy","0","uniform","1","undefined","undefined","undefined","1","f","0","0","0","0","93","0","0","0","93","0","89","93","89","0","89","3","93","0","93","Sat Mar 13 00:40:07 2021","The main experiment item","yes","Lexical_Decision_Task.osexp","C:/Users/Admin/Desktop/CyberPsych 2/CAL","no","Andale Mono","no","18","no","white","no","yes","576","legacy","89","89","3","C:/Users/Admin/Desktop/CyberPsych 2/CAL/subject-5226167.csv","legacy","Lentiform Loewenfeld","3.3.7","yes","yes","600bd7cfb6416f0113b04181","602110864497cf011d9c0822","0","f","NA","space","j","space","space","f","664","NA","6429","20062","9798","11041","664","2","legacy","1024","2","48000","-16","task","5226167","odd","NA","43975","52405","45976","229007","6215","36077","26279","229508","146964","229005","229508","228950","52405","230173","42090","228450","6206","214474","Lexical Decision Task","88","69008","94","yes","1024"
"2.897810299","0","5","glur","non-word","93.6842105263158","93.6842105263158","734.1473684210526","734.1473684210526","black","no","legacy","legacy","legacy","0","uniform","1","undefined","undefined","undefined","1","f","0","0","0","0","94","0","0","0","94","0","90","94","90","0","90","3","94","0","94","Sat Mar 13 00:40:07 2021","The main experiment item","yes","Lexical_Decision_Task.osexp","C:/Users/Admin/Desktop/CyberPsych 2/CAL","no","Andale Mono","no","18","no","white","no","yes","576","legacy","90","90","3","C:/Users/Admin/Desktop/CyberPsych 2/CAL/subject-5226167.csv","legacy","Lentiform Loewenfeld","3.3.7","yes","yes","600bd7cfb6416f0113b04181","602110864497cf011d9c0822","0","f","NA","space","j","space","space","f","736","NA","6429","20062","9798","11041","736","2","legacy","1024","2","48000","-16","task","5226167","odd","NA","43975","52405","45976","230736","6215","36077","26279","231237","146964","230734","231237","230678","52405","231974","42090","230178","6206","214474","Lexical Decision Task","89","69744","95","yes","1024"
"2.744553742","0","2","nawk","non-word","93.75","93.75","736.1875","736.1875","black","no","legacy","legacy","legacy","0","uniform","1","undefined","undefined","undefined","1","f","0","0","0","0","95","0","0","0","95","0","91","95","91","0","91","3","95","0","95","Sat Mar 13 00:40:07 2021","The main experiment item","yes","Lexical_Decision_Task.osexp","C:/Users/Admin/Desktop/CyberPsych 2/CAL","no","Andale Mono","no","18","no","white","no","yes","576","legacy","91","91","3","C:/Users/Admin/Desktop/CyberPsych 2/CAL/subject-5226167.csv","legacy","Lentiform Loewenfeld","3.3.7","yes","yes","600bd7cfb6416f0113b04181","602110864497cf011d9c0822","0","f","NA","space","j","space","space","f","930","NA","6429","20062","9798","11041","930","2","legacy","1024","2","48000","-16","task","5226167","odd","NA","43975","52405","45976","232534","6215","36077","26279","233035","146964","232532","233035","232477","52405","233966","42090","231977","6206","214474","Lexical Decision Task","90","70674","96","yes","1024"
"2.6599162","0","6","flug","non-word","93.81443298969072","93.81443298969072","735.8144329896908","735.8144329896908","black","no","legacy","legacy","legacy","0","uniform","1","undefined","undefined","undefined","1","f","0","0","0","0","96","0","0","0","96","0","92","96","92","0","92","3","96","0","96","Sat Mar 13 00:40:07 2021","The main experiment item","yes","Lexical_Decision_Task.osexp","C:/Users/Admin/Desktop/CyberPsych 2/CAL","no","Andale Mono","no","18","no","white","no","yes","576","legacy","92","92","3","C:/Users/Admin/Desktop/CyberPsych 2/CAL/subject-5226167.csv","legacy","Lentiform Loewenfeld","3.3.7","yes","yes","600bd7cfb6416f0113b04181","602110864497cf011d9c0822","0","f","NA","space","j","space","space","f","700","NA","6429","20062","9798","11041","700","2","legacy","1024","2","48000","-16","task","5226167","odd","NA","43975","52405","45976","234531","6215","36077","26279","235032","146964","234529","235032","234473","52405","235734","42090","233973","6206","214474","Lexical Decision Task","91","71374","97","yes","1024"
"2.794720352","0","9","koot","non-word","93.87755102040816","93.87755102040816","735.6530612244898","735.6530612244898","black","no","legacy","legacy","legacy","0","uniform","1","undefined","undefined","undefined","1","f","0","0","0","0","97","0","0","0","97","0","93","97","93","0","93","3","97","0","97","Sat Mar 13 00:40:07 2021","The main experiment item","yes","Lexical_Decision_Task.osexp","C:/Users/Admin/Desktop/CyberPsych 2/CAL","no","Andale Mono","no","18","no","white","no","yes","576","legacy","93","93","3","C:/Users/Admin/Desktop/CyberPsych 2/CAL/subject-5226167.csv","legacy","Lentiform Loewenfeld","3.3.7","yes","yes","600bd7cfb6416f0113b04181","602110864497cf011d9c0822","0","f","NA","space","j","space","space","f","720","NA","6429","20062","9798","11041","720","2","legacy","1024","2","48000","-16","task","5226167","odd","NA","43975","52405","45976","236296","6215","36077","26279","236797","146964","236294","236797","236239","52405","237518","42090","235739","6206","214474","Lexical Decision Task","92","72094","98","yes","1024"
