"Log_BG","Log_Freq_HAL","Ortho_N","Stimulus","Type","acc","accuracy","average_response_time","avg_rt","background","bidi","canvas_backend","clock_backend","color_backend","compensation","coordinates","correct","correct_Experimental_intro","correct_Introduction","correct_Practice_intro","correct_experimenter_kb","correct_response","count_End_Of_Experiment","count_End_Of_Practice","count_Experimental_Loop","count_Experimental_intro","count_Fixation","count_Introduction","count_Practice_Loop","count_Practice_intro","count_Stimulus","count_block_break_feedback","count_experimental_sequence","count_experimenter_kb","count_increment_trial_count","count_init_trial_count","count_logger","count_practice_sequence","count_right","count_task","count_wrong","datetime","description","disable_garbage_collection","experiment_file","experiment_path","font_bold","font_family","font_italic","font_size","font_underline","foreground","form_clicks","fullscreen","height","keyboard_backend","live_row","live_row_Experimental_Loop","live_row_Practice_Loop","logfile","mouse_backend","opensesame_codename","opensesame_version","osf_always_upload_data","osf_always_upload_experiment","osf_datanode_id","osf_id","repeat_cycle","response","response_End_Of_Experiment","response_Experimental_intro","response_Introduction","response_Practice_intro","response_block_break_feedback","response_experimenter_kb","response_time","response_time_End_Of_Experiment","response_time_Experimental_intro","response_time_Introduction","response_time_Practice_intro","response_time_block_break_feedback","response_time_experimenter_kb","round_decimals","sampler_backend","sound_buf_size","sound_channels","sound_freq","sound_sample_size","start","subject_nr","subject_parity","time_End_Of_Experiment","time_End_Of_Practice","time_Experimental_Loop","time_Experimental_intro","time_Fixation","time_Introduction","time_Practice_Loop","time_Practice_intro","time_Stimulus","time_block_break_feedback","time_experimental_sequence","time_experimenter_kb","time_increment_trial_count","time_init_trial_count","time_logger","time_practice_sequence","time_right","time_task","time_wrong","title","total_correct","total_response_time","total_responses","uniform_coordinates","width"
"2.9737419","7.69","7","claw","word","100","100","994.2","994.2","black","no","legacy","legacy","legacy","0","uniform","1","undefined","undefined","undefined","1","j","0","0","0","0","4","0","0","0","4","NA","0","4","0","0","0","3","4","0","4","Thu Feb 18 13:13:18 2021","The main experiment item","yes","Lexical_Decision_Task.osexp","/Users/user/Documents","no","Andale Mono","no","18","no","white","no","yes","576","legacy","0","0","3","/Users/user/Documents/subject-5225219.csv","legacy","Lentiform Loewenfeld","3.3.7","yes","yes","600bd7cfb6416f0113b04181","602110864497cf011d9c0822","0","j","NA","space","space","space","NA","j","1936","NA","5543","9996","9850","NA","1936","2","legacy","1024","2","48000","-16","task","5225219","odd","NA","32392","39941","34397","39978","5152","25024","15172","40481","NA","39975","40481","NA","39941","42419","30464","31861","5078","NA","Lexical Decision Task","5","4971","5","yes","1024"
"2.594027722","9.08","8","skip","word","100","100","917.1666666666666","917.1666666666666","black","no","legacy","legacy","legacy","0","uniform","1","undefined","undefined","undefined","1","j","0","0","0","0","5","0","0","0","5","NA","1","5","1","0","1","3","5","0","5","Thu Feb 18 13:13:18 2021","The main experiment item","yes","Lexical_Decision_Task.osexp","/Users/user/Documents","no","Andale Mono","no","18","no","white","no","yes","576","legacy","1","1","3","/Users/user/Documents/subject-5225219.csv","legacy","Lentiform Loewenfeld","3.3.7","yes","yes","600bd7cfb6416f0113b04181","602110864497cf011d9c0822","0","j","NA","space","space","space","NA","j","532","NA","5543","9996","9850","NA","532","2","legacy","1024","2","48000","-16","task","5225219","odd","NA","32392","39941","34397","43002","5152","25024","15172","43505","NA","42998","43505","42932","39941","44039","30464","42432","5078","NA","Lexical Decision Task","6","5503","6","yes","1024"
"3.378276681","6.39","8","bran","word","100","100","894.1428571428571","894.1428571428571","black","no","legacy","legacy","legacy","0","uniform","1","undefined","undefined","undefined","1","j","0","0","0","0","6","0","0","0","6","NA","2","6","2","0","2","3","6","0","6","Thu Feb 18 13:13:18 2021","The main experiment item","yes","Lexical_Decision_Task.osexp","/Users/user/Documents","no","Andale Mono","no","18","no","white","no","yes","576","legacy","2","2","3","/Users/user/Documents/subject-5225219.csv","legacy","Lentiform Loewenfeld","3.3.7","yes","yes","600bd7cfb6416f0113b04181","602110864497cf011d9c0822","0","j","NA","space","space","space","NA","j","756","NA","5543","9996","9850","NA","756","2","legacy","1024","2","48000","-16","task","5225219","odd","NA","32392","39941","34397","44616","5152","25024","15172","45120","NA","44612","45120","44544","39941","45878","30464","44043","5078","NA","Lexical Decision Task","7","6259","7","yes","1024"
"3.431095062","5.74","9","perk","word","100","100","886.75","886.75","black","no","legacy","legacy","legacy","0","uniform","1","undefined","undefined","undefined","1","j","0","0","0","0","7","0","0","0","7","NA","3","7","3","0","3","3","7","0","7","Thu Feb 18 13:13:18 2021","The main experiment item","yes","Lexical_Decision_Task.osexp","/Users/user/Documents","no","Andale Mono","no","18","no","white","no","yes","576","legacy","3","3","3","/Users/user/Documents/subject-5225219.csv","legacy","Lentiform Loewenfeld","3.3.7","yes","yes","600bd7cfb6416f0113b04181","602110864497cf011d9c0822","0","j","NA","space","space","space","NA","j","835","NA","5543","9996","9850","NA","835","2","legacy","1024","2","48000","-16","task","5225219","odd","NA","32392","39941","34397","46447","5152","25024","15172","46950","NA","46443","46950","46384","39941","47787","30464","45884","5078","NA","Lexical Decision Task","8","7094","8","yes","1024"
"2.873320602","0","4","lurg","non-word","100","100","864.8888888888889","864.8888888888889","black","no","legacy","legacy","legacy","0","uniform","1","undefined","undefined","undefined","1","f","0","0","0","0","8","0","0","0","8","NA","4","8","4","0","4","3","8","0","8","Thu Feb 18 13:13:18 2021","The main experiment item","yes","Lexical_Decision_Task.osexp","/Users/user/Documents","no","Andale Mono","no","18","no","white","no","yes","576","legacy","4","4","3","/Users/user/Documents/subject-5225219.csv","legacy","Lentiform Loewenfeld","3.3.7","yes","yes","600bd7cfb6416f0113b04181","602110864497cf011d9c0822","0","f","NA","space","space","space","NA","f","690","NA","5543","9996","9850","NA","690","2","legacy","1024","2","48000","-16","task","5225219","odd","NA","32392","39941","34397","48351","5152","25024","15172","48854","NA","48348","48855","48291","39941","49547","30464","47791","5078","NA","Lexical Decision Task","9","7784","9","yes","1024"
"3.303771854","0","9","dath","non-word","100","100","845.2","845.2","black","no","legacy","legacy","legacy","0","uniform","1","undefined","undefined","undefined","1","f","0","0","0","0","9","0","0","0","9","NA","5","9","5","0","5","3","9","0","9","Thu Feb 18 13:13:18 2021","The main experiment item","yes","Lexical_Decision_Task.osexp","/Users/user/Documents","no","Andale Mono","no","18","no","white","no","yes","576","legacy","5","5","3","/Users/user/Documents/subject-5225219.csv","legacy","Lentiform Loewenfeld","3.3.7","yes","yes","600bd7cfb6416f0113b04181","602110864497cf011d9c0822","0","f","NA","space","space","space","NA","f","668","NA","5543","9996","9850","NA","668","2","legacy","1024","2","48000","-16","task","5225219","odd","NA","32392","39941","34397","50115","5152","25024","15172","50619","NA","50112","50619","50053","39941","51288","30464","49552","5078","NA","Lexical Decision Task","10","8452","10","yes","1024"
"3.440331212","7.35","6","stew","word","100","100","829.0909090909091","829.0909090909091","black","no","legacy","legacy","legacy","0","uniform","1","undefined","undefined","undefined","1","j","0","0","0","0","10","0","0","0","10","NA","6","10","6","0","6","3","10","0","10","Thu Feb 18 13:13:18 2021","The main experiment item","yes","Lexical_Decision_Task.osexp","/Users/user/Documents","no","Andale Mono","no","18","no","white","no","yes","576","legacy","6","6","3","/Users/user/Documents/subject-5225219.csv","legacy","Lentiform Loewenfeld","3.3.7","yes","yes","600bd7cfb6416f0113b04181","602110864497cf011d9c0822","0","j","NA","space","space","space","NA","j","668","NA","5543","9996","9850","NA","668","2","legacy","1024","2","48000","-16","task","5225219","odd","NA","32392","39941","34397","51855","5152","25024","15172","52358","NA","51852","52359","51794","39941","53028","30464","51294","5078","NA","Lexical Decision Task","11","9120","11","yes","1024"
"3.174641193","0","3","ramb","non-word","91.66666666666667","91.66666666666667","854.5","854.5","black","no","legacy","legacy","legacy","0","uniform","0","undefined","undefined","undefined","0","f","0","0","0","0","11","0","0","0","11","NA","7","11","7","0","7","3","11","0","11","Thu Feb 18 13:13:18 2021","The main experiment item","yes","Lexical_Decision_Task.osexp","/Users/user/Documents","no","Andale Mono","no","18","no","white","no","yes","576","legacy","7","7","3","/Users/user/Documents/subject-5225219.csv","legacy","Lentiform Loewenfeld","3.3.7","yes","yes","600bd7cfb6416f0113b04181","602110864497cf011d9c0822","0","j","NA","space","space","space","NA","j","1134","NA","5543","9996","9850","NA","1134","2","legacy","1024","2","48000","-16","task","5225219","odd","NA","32392","39941","34397","53596","5152","25024","15172","54100","NA","53593","54100","53535","39941","55236","30464","53034","5078","NA","Lexical Decision Task","11","10254","12","yes","1024"
"3.353210739","0","9","reet","non-word","92.3076923076923","92.3076923076923","847.3846153846154","847.3846153846154","black","no","legacy","legacy","legacy","0","uniform","1","undefined","undefined","undefined","1","f","0","0","0","0","12","0","0","0","12","NA","8","12","8","0","8","3","12","0","12","Thu Feb 18 13:13:18 2021","The main experiment item","yes","Lexical_Decision_Task.osexp","/Users/user/Documents","no","Andale Mono","no","18","no","white","no","yes","576","legacy","8","8","3","/Users/user/Documents/subject-5225219.csv","legacy","Lentiform Loewenfeld","3.3.7","yes","yes","600bd7cfb6416f0113b04181","602110864497cf011d9c0822","0","f","NA","space","space","space","NA","f","762","NA","5543","9996","9850","NA","762","2","legacy","1024","2","48000","-16","task","5225219","odd","NA","32392","39941","34397","56808","5152","25024","15172","57311","NA","56805","57312","56742","39941","58076","30464","53034","5078","55242","Lexical Decision Task","12","11016","13","yes","1024"
"2.771097306","0","9","jold","non-word","92.85714285714286","92.85714285714286","837.9285714285714","837.9285714285714","black","no","legacy","legacy","legacy","0","uniform","1","undefined","undefined","undefined","1","f","0","0","0","0","13","0","0","0","13","NA","9","13","9","0","9","3","13","0","13","Thu Feb 18 13:13:18 2021","The main experiment item","yes","Lexical_Decision_Task.osexp","/Users/user/Documents","no","Andale Mono","no","18","no","white","no","yes","576","legacy","9","9","3","/Users/user/Documents/subject-5225219.csv","legacy","Lentiform Loewenfeld","3.3.7","yes","yes","600bd7cfb6416f0113b04181","602110864497cf011d9c0822","0","f","NA","space","space","space","NA","f","715","NA","5543","9996","9850","NA","715","2","legacy","1024","2","48000","-16","task","5225219","odd","NA","32392","39941","34397","58644","5152","25024","15172","59147","NA","58641","59148","58583","39941","59865","30464","58082","5078","55242","Lexical Decision Task","13","11731","14","yes","1024"
"2.95456409","0","4","taud","non-word","93.33333333333333","93.33333333333333","821.3333333333334","821.3333333333334","black","no","legacy","legacy","legacy","0","uniform","1","undefined","undefined","undefined","1","f","0","0","0","0","14","0","0","0","14","NA","10","14","10","0","10","3","14","0","14","Thu Feb 18 13:13:18 2021","The main experiment item","yes","Lexical_Decision_Task.osexp","/Users/user/Documents","no","Andale Mono","no","18","no","white","no","yes","576","legacy","10","10","3","/Users/user/Documents/subject-5225219.csv","legacy","Lentiform Loewenfeld","3.3.7","yes","yes","600bd7cfb6416f0113b04181","602110864497cf011d9c0822","0","f","NA","space","space","space","NA","f","589","NA","5543","9996","9850","NA","589","2","legacy","1024","2","48000","-16","task","5225219","odd","NA","32392","39941","34397","60433","5152","25024","15172","60936","NA","60430","60937","60369","39941","61528","30464","59869","5078","55242","Lexical Decision Task","14","12320","15","yes","1024"
"3.153104174","10.89","6","door","word","93.75","93.75","800.3125","800.3125","black","no","legacy","legacy","legacy","0","uniform","1","undefined","undefined","undefined","1","j","0","0","0","0","15","0","0","0","15","NA","11","15","11","0","11","3","15","0","15","Thu Feb 18 13:13:18 2021","The main experiment item","yes","Lexical_Decision_Task.osexp","/Users/user/Documents","no","Andale Mono","no","18","no","white","no","yes","576","legacy","11","11","3","/Users/user/Documents/subject-5225219.csv","legacy","Lentiform Loewenfeld","3.3.7","yes","yes","600bd7cfb6416f0113b04181","602110864497cf011d9c0822","0","j","NA","space","space","space","NA","j","485","NA","5543","9996","9850","NA","485","2","legacy","1024","2","48000","-16","task","5225219","odd","NA","32392","39941","34397","62096","5152","25024","15172","62601","NA","62093","62602","62034","39941","63089","30464","61534","5078","55242","Lexical Decision Task","15","12805","16","yes","1024"
"3.366547468","0","6","plat","non-word","94.11764705882354","94.11764705882354","798","798","black","no","legacy","legacy","legacy","0","uniform","1","undefined","undefined","undefined","1","f","0","0","0","0","16","0","0","0","16","NA","12","16","12","0","12","3","16","0","16","Thu Feb 18 13:13:18 2021","The main experiment item","yes","Lexical_Decision_Task.osexp","/Users/user/Documents","no","Andale Mono","no","18","no","white","no","yes","576","legacy","12","12","3","/Users/user/Documents/subject-5225219.csv","legacy","Lentiform Loewenfeld","3.3.7","yes","yes","600bd7cfb6416f0113b04181","602110864497cf011d9c0822","0","f","NA","space","space","space","NA","f","761","NA","5543","9996","9850","NA","761","2","legacy","1024","2","48000","-16","task","5225219","odd","NA","32392","39941","34397","63657","5152","25024","15172","64160","NA","63653","64161","63595","39941","64923","30464","63095","5078","55242","Lexical Decision Task","16","13566","17","yes","1024"
"2.695481676","0","7","goke","non-word","94.44444444444444","94.44444444444444","791.4444444444445","791.4444444444445","black","no","legacy","legacy","legacy","0","uniform","1","undefined","undefined","undefined","1","f","0","0","0","0","17","0","0","0","17","NA","13","17","13","0","13","3","17","0","17","Thu Feb 18 13:13:18 2021","The main experiment item","yes","Lexical_Decision_Task.osexp","/Users/user/Documents","no","Andale Mono","no","18","no","white","no","yes","576","legacy","13","13","3","/Users/user/Documents/subject-5225219.csv","legacy","Lentiform Loewenfeld","3.3.7","yes","yes","600bd7cfb6416f0113b04181","602110864497cf011d9c0822","0","f","NA","space","space","space","NA","f","680","NA","5543","9996","9850","NA","680","2","legacy","1024","2","48000","-16","task","5225219","odd","NA","32392","39941","34397","65492","5152","25024","15172","65995","NA","65489","65996","65430","39941","66678","30464","64930","5078","55242","Lexical Decision Task","17","14246","18","yes","1024"
"3.031408464","0","7","drow","non-word","94.73684210526316","94.73684210526316","784.8947368421053","784.8947368421053","black","no","legacy","legacy","legacy","0","uniform","1","undefined","undefined","undefined","1","f","0","0","0","0","18","0","0","0","18","NA","14","18","14","0","14","3","18","0","18","Thu Feb 18 13:13:18 2021","The main experiment item","yes","Lexical_Decision_Task.osexp","/Users/user/Documents","no","Andale Mono","no","18","no","white","no","yes","576","legacy","14","14","3","/Users/user/Documents/subject-5225219.csv","legacy","Lentiform Loewenfeld","3.3.7","yes","yes","600bd7cfb6416f0113b04181","602110864497cf011d9c0822","0","f","NA","space","space","space","NA","f","667","NA","5543","9996","9850","NA","667","2","legacy","1024","2","48000","-16","task","5225219","odd","NA","32392","39941","34397","67245","5152","25024","15172","67749","NA","67241","67750","67184","39941","68419","30464","66684","5078","55242","Lexical Decision Task","18","14913","19","yes","1024"
"3.208172527","10.27","7","deck","word","95","95","778.35","778.35","black","no","legacy","legacy","legacy","0","uniform","1","undefined","undefined","undefined","1","j","0","0","0","0","19","0","0","0","19","NA","15","19","15","0","15","3","19","0","19","Thu Feb 18 13:13:18 2021","The main experiment item","yes","Lexical_Decision_Task.osexp","/Users/user/Documents","no","Andale Mono","no","18","no","white","no","yes","576","legacy","15","15","3","/Users/user/Documents/subject-5225219.csv","legacy","Lentiform Loewenfeld","3.3.7","yes","yes","600bd7cfb6416f0113b04181","602110864497cf011d9c0822","0","j","NA","space","space","space","NA","j","654","NA","5543","9996","9850","NA","654","2","legacy","1024","2","48000","-16","task","5225219","odd","NA","32392","39941","34397","68986","5152","25024","15172","69491","NA","68982","69491","68925","39941","70147","30464","68425","5078","55242","Lexical Decision Task","19","15567","20","yes","1024"
"3.14849993","10.75","7","hour","word","95.23809523809524","95.23809523809524","771.8095238095239","771.8095238095239","black","no","legacy","legacy","legacy","0","uniform","1","undefined","undefined","undefined","1","j","0","0","0","0","20","0","0","0","20","NA","16","20","16","0","16","3","20","0","20","Thu Feb 18 13:13:18 2021","The main experiment item","yes","Lexical_Decision_Task.osexp","/Users/user/Documents","no","Andale Mono","no","18","no","white","no","yes","576","legacy","16","16","3","/Users/user/Documents/subject-5225219.csv","legacy","Lentiform Loewenfeld","3.3.7","yes","yes","600bd7cfb6416f0113b04181","602110864497cf011d9c0822","0","j","NA","space","space","space","NA","j","641","NA","5543","9996","9850","NA","641","2","legacy","1024","2","48000","-16","task","5225219","odd","NA","32392","39941","34397","70716","5152","25024","15172","71218","NA","70712","71219","70654","39941","71861","30464","70153","5078","55242","Lexical Decision Task","20","16208","21","yes","1024"
"3.145920145","8.51","8","flew","word","95.45454545454545","95.45454545454545","765.7727272727273","765.7727272727273","black","no","legacy","legacy","legacy","0","uniform","1","undefined","undefined","undefined","1","j","0","0","0","0","21","0","0","0","21","NA","17","21","17","0","17","3","21","0","21","Thu Feb 18 13:13:18 2021","The main experiment item","yes","Lexical_Decision_Task.osexp","/Users/user/Documents","no","Andale Mono","no","18","no","white","no","yes","576","legacy","17","17","3","/Users/user/Documents/subject-5225219.csv","legacy","Lentiform Loewenfeld","3.3.7","yes","yes","600bd7cfb6416f0113b04181","602110864497cf011d9c0822","0","j","NA","space","space","space","NA","j","639","NA","5543","9996","9850","NA","639","2","legacy","1024","2","48000","-16","task","5225219","odd","NA","32392","39941","34397","72429","5152","25024","15172","72931","NA","72426","72932","72368","39941","73573","30464","71868","5078","55242","Lexical Decision Task","21","16847","22","yes","1024"
"3.140404328","10.66","9","deep","word","95.65217391304348","95.65217391304348","761.9565217391304","761.9565217391304","black","no","legacy","legacy","legacy","0","uniform","1","undefined","undefined","undefined","1","j","0","0","0","0","22","0","0","0","22","NA","18","22","18","0","18","3","22","0","22","Thu Feb 18 13:13:18 2021","The main experiment item","yes","Lexical_Decision_Task.osexp","/Users/user/Documents","no","Andale Mono","no","18","no","white","no","yes","576","legacy","18","18","3","/Users/user/Documents/subject-5225219.csv","legacy","Lentiform Loewenfeld","3.3.7","yes","yes","600bd7cfb6416f0113b04181","602110864497cf011d9c0822","0","j","NA","space","space","space","NA","j","678","NA","5543","9996","9850","NA","678","2","legacy","1024","2","48000","-16","task","5225219","odd","NA","32392","39941","34397","74141","5152","25024","15172","74644","NA","74138","74645","74079","39941","75325","30464","73579","5078","55242","Lexical Decision Task","22","17525","23","yes","1024"
"3.003891166","8.05","2","frog","word","95.83333333333333","95.83333333333333","751.8333333333334","751.8333333333334","black","no","legacy","legacy","legacy","0","uniform","1","undefined","undefined","undefined","1","j","0","0","0","0","23","0","0","0","23","NA","19","23","19","0","19","3","23","0","23","Thu Feb 18 13:13:18 2021","The main experiment item","yes","Lexical_Decision_Task.osexp","/Users/user/Documents","no","Andale Mono","no","18","no","white","no","yes","576","legacy","19","19","3","/Users/user/Documents/subject-5225219.csv","legacy","Lentiform Loewenfeld","3.3.7","yes","yes","600bd7cfb6416f0113b04181","602110864497cf011d9c0822","0","j","NA","space","space","space","NA","j","519","NA","5543","9996","9850","NA","519","2","legacy","1024","2","48000","-16","task","5225219","odd","NA","32392","39941","34397","75899","5152","25024","15172","76402","NA","75896","76403","75838","39941","76923","30464","75337","5078","55242","Lexical Decision Task","23","18044","24","yes","1024"
"2.794720352","0","9","koot","non-word","96","96","746.92","746.92","black","no","legacy","legacy","legacy","0","uniform","1","undefined","undefined","undefined","1","f","0","0","0","0","24","0","0","0","24","NA","20","24","20","0","20","3","24","0","24","Thu Feb 18 13:13:18 2021","The main experiment item","yes","Lexical_Decision_Task.osexp","/Users/user/Documents","no","Andale Mono","no","18","no","white","no","yes","576","legacy","20","20","3","/Users/user/Documents/subject-5225219.csv","legacy","Lentiform Loewenfeld","3.3.7","yes","yes","600bd7cfb6416f0113b04181","602110864497cf011d9c0822","0","f","NA","space","space","space","NA","f","629","NA","5543","9996","9850","NA","629","2","legacy","1024","2","48000","-16","task","5225219","odd","NA","32392","39941","34397","77489","5152","25024","15172","77992","NA","77485","77992","77429","39941","78622","30464","76929","5078","55242","Lexical Decision Task","24","18673","25","yes","1024"
"2.952953801","0","8","clax","non-word","96.15384615384616","96.15384615384616","738","738","black","no","legacy","legacy","legacy","0","uniform","1","undefined","undefined","undefined","1","f","0","0","0","0","25","0","0","0","25","NA","21","25","21","0","21","3","25","0","25","Thu Feb 18 13:13:18 2021","The main experiment item","yes","Lexical_Decision_Task.osexp","/Users/user/Documents","no","Andale Mono","no","18","no","white","no","yes","576","legacy","21","21","3","/Users/user/Documents/subject-5225219.csv","legacy","Lentiform Loewenfeld","3.3.7","yes","yes","600bd7cfb6416f0113b04181","602110864497cf011d9c0822","0","f","NA","space","space","space","NA","f","515","NA","5543","9996","9850","NA","515","2","legacy","1024","2","48000","-16","task","5225219","odd","NA","32392","39941","34397","79188","5152","25024","15172","79692","NA","79185","79693","79128","39941","80210","30464","78628","5078","55242","Lexical Decision Task","25","19188","26","yes","1024"
"3.064581521","5.51","6","cask","word","96.29629629629629","96.29629629629629","736.3333333333334","736.3333333333334","black","no","legacy","legacy","legacy","0","uniform","1","undefined","undefined","undefined","1","j","0","0","0","0","26","0","0","0","26","NA","22","26","22","0","22","3","26","0","26","Thu Feb 18 13:13:18 2021","The main experiment item","yes","Lexical_Decision_Task.osexp","/Users/user/Documents","no","Andale Mono","no","18","no","white","no","yes","576","legacy","22","22","3","/Users/user/Documents/subject-5225219.csv","legacy","Lentiform Loewenfeld","3.3.7","yes","yes","600bd7cfb6416f0113b04181","602110864497cf011d9c0822","0","j","NA","space","space","space","NA","j","693","NA","5543","9996","9850","NA","693","2","legacy","1024","2","48000","-16","task","5225219","odd","NA","32392","39941","34397","80776","5152","25024","15172","81279","NA","80774","81280","80717","39941","81975","30464","80216","5078","55242","Lexical Decision Task","26","19881","27","yes","1024"
"3.363486562","6.93","9","lush","word","96.42857142857143","96.42857142857143","731.6785714285714","731.6785714285714","black","no","legacy","legacy","legacy","0","uniform","1","undefined","undefined","undefined","1","j","0","0","0","0","27","0","0","0","27","NA","23","27","23","0","23","3","27","0","27","Thu Feb 18 13:13:18 2021","The main experiment item","yes","Lexical_Decision_Task.osexp","/Users/user/Documents","no","Andale Mono","no","18","no","white","no","yes","576","legacy","23","23","3","/Users/user/Documents/subject-5225219.csv","legacy","Lentiform Loewenfeld","3.3.7","yes","yes","600bd7cfb6416f0113b04181","602110864497cf011d9c0822","0","j","NA","space","space","space","NA","j","606","NA","5543","9996","9850","NA","606","2","legacy","1024","2","48000","-16","task","5225219","odd","NA","32392","39941","34397","82543","5152","25024","15172","83047","NA","82540","83047","82481","39941","83655","30464","81981","5078","55242","Lexical Decision Task","27","20487","28","yes","1024"
"3.168400243","9.12","6","horn","word","96.55172413793103","96.55172413793103","724.6206896551724","724.6206896551724","black","no","legacy","legacy","legacy","0","uniform","1","undefined","undefined","undefined","1","j","0","0","0","0","28","0","0","0","28","NA","24","28","24","0","24","3","28","0","28","Thu Feb 18 13:13:18 2021","The main experiment item","yes","Lexical_Decision_Task.osexp","/Users/user/Documents","no","Andale Mono","no","18","no","white","no","yes","576","legacy","24","24","3","/Users/user/Documents/subject-5225219.csv","legacy","Lentiform Loewenfeld","3.3.7","yes","yes","600bd7cfb6416f0113b04181","602110864497cf011d9c0822","0","j","NA","space","space","space","NA","j","527","NA","5543","9996","9850","NA","527","2","legacy","1024","2","48000","-16","task","5225219","odd","NA","32392","39941","34397","84223","5152","25024","15172","84726","NA","84220","84727","84162","39941","85256","30464","83662","5078","55242","Lexical Decision Task","28","21014","29","yes","1024"
"3.037294994","8.64","7","roof","word","96.66666666666667","96.66666666666667","720.4","720.4","black","no","legacy","legacy","legacy","0","uniform","1","undefined","undefined","undefined","1","j","0","0","0","0","29","0","0","0","29","NA","25","29","25","0","25","3","29","0","29","Thu Feb 18 13:13:18 2021","The main experiment item","yes","Lexical_Decision_Task.osexp","/Users/user/Documents","no","Andale Mono","no","18","no","white","no","yes","576","legacy","25","25","3","/Users/user/Documents/subject-5225219.csv","legacy","Lentiform Loewenfeld","3.3.7","yes","yes","600bd7cfb6416f0113b04181","602110864497cf011d9c0822","0","j","NA","space","space","space","NA","j","598","NA","5543","9996","9850","NA","598","2","legacy","1024","2","48000","-16","task","5225219","odd","NA","32392","39941","34397","85822","5152","25024","15172","86325","NA","85820","86326","85762","39941","86925","30464","85261","5078","55242","Lexical Decision Task","29","21612","30","yes","1024"
"3.311895072","0","9","gung","non-word","96.7741935483871","96.7741935483871","726.3548387096774","726.3548387096774","black","no","legacy","legacy","legacy","0","uniform","1","undefined","undefined","undefined","1","f","0","0","0","0","30","0","0","0","30","NA","26","30","26","0","26","3","30","0","30","Thu Feb 18 13:13:18 2021","The main experiment item","yes","Lexical_Decision_Task.osexp","/Users/user/Documents","no","Andale Mono","no","18","no","white","no","yes","576","legacy","26","26","3","/Users/user/Documents/subject-5225219.csv","legacy","Lentiform Loewenfeld","3.3.7","yes","yes","600bd7cfb6416f0113b04181","602110864497cf011d9c0822","0","f","NA","space","space","space","NA","f","905","NA","5543","9996","9850","NA","905","2","legacy","1024","2","48000","-16","task","5225219","odd","NA","32392","39941","34397","87491","5152","25024","15172","87996","NA","87488","87996","87431","39941","88903","30464","86931","5078","55242","Lexical Decision Task","30","22517","31","yes","1024"
"2.892836167","10.01","5","soft","word","96.875","96.875","719.78125","719.78125","black","no","legacy","legacy","legacy","0","uniform","1","undefined","undefined","undefined","1","j","0","0","0","0","31","0","0","0","31","NA","27","31","27","0","27","3","31","0","31","Thu Feb 18 13:13:18 2021","The main experiment item","yes","Lexical_Decision_Task.osexp","/Users/user/Documents","no","Andale Mono","no","18","no","white","no","yes","576","legacy","27","27","3","/Users/user/Documents/subject-5225219.csv","legacy","Lentiform Loewenfeld","3.3.7","yes","yes","600bd7cfb6416f0113b04181","602110864497cf011d9c0822","0","j","NA","space","space","space","NA","j","516","NA","5543","9996","9850","NA","516","2","legacy","1024","2","48000","-16","task","5225219","odd","NA","32392","39941","34397","89470","5152","25024","15172","89974","NA","89467","89974","89409","39941","90492","30464","88908","5078","55242","Lexical Decision Task","31","23033","32","yes","1024"
"3.194328374","9.42","6","harm","word","96.96969696969697","96.96969696969697","713.4848484848485","713.4848484848485","black","no","legacy","legacy","legacy","0","uniform","1","undefined","undefined","undefined","1","j","0","0","0","0","32","0","0","0","32","NA","28","32","28","0","28","3","32","0","32","Thu Feb 18 13:13:18 2021","The main experiment item","yes","Lexical_Decision_Task.osexp","/Users/user/Documents","no","Andale Mono","no","18","no","white","no","yes","576","legacy","28","28","3","/Users/user/Documents/subject-5225219.csv","legacy","Lentiform Loewenfeld","3.3.7","yes","yes","600bd7cfb6416f0113b04181","602110864497cf011d9c0822","0","j","NA","space","space","space","NA","j","512","NA","5543","9996","9850","NA","512","2","legacy","1024","2","48000","-16","task","5225219","odd","NA","32392","39941","34397","91061","5152","25024","15172","91565","NA","91058","91565","90999","39941","92079","30464","90499","5078","55242","Lexical Decision Task","32","23545","33","yes","1024"
"3.2757719","0","5","slea","non-word","97.05882352941177","97.05882352941177","721.9117647058823","721.9117647058823","black","no","legacy","legacy","legacy","0","uniform","1","undefined","undefined","undefined","1","f","0","0","0","0","33","0","0","0","33","NA","29","33","29","0","29","3","33","0","33","Thu Feb 18 13:13:18 2021","The main experiment item","yes","Lexical_Decision_Task.osexp","/Users/user/Documents","no","Andale Mono","no","18","no","white","no","yes","576","legacy","29","29","3","/Users/user/Documents/subject-5225219.csv","legacy","Lentiform Loewenfeld","3.3.7","yes","yes","600bd7cfb6416f0113b04181","602110864497cf011d9c0822","0","f","NA","space","space","space","NA","f","1000","NA","5543","9996","9850","NA","1000","2","legacy","1024","2","48000","-16","task","5225219","odd","NA","32392","39941","34397","92657","5152","25024","15172","93159","NA","92654","93160","92585","39941","94161","30464","92085","5078","55242","Lexical Decision Task","33","24545","34","yes","1024"
"2.675164031","8.57","6","glue","word","97.14285714285714","97.14285714285714","720.4857142857143","720.4857142857143","black","no","legacy","legacy","legacy","0","uniform","1","undefined","undefined","undefined","1","j","0","0","0","0","34","0","0","0","34","NA","30","34","30","0","30","3","34","0","34","Thu Feb 18 13:13:18 2021","The main experiment item","yes","Lexical_Decision_Task.osexp","/Users/user/Documents","no","Andale Mono","no","18","no","white","no","yes","576","legacy","30","30","3","/Users/user/Documents/subject-5225219.csv","legacy","Lentiform Loewenfeld","3.3.7","yes","yes","600bd7cfb6416f0113b04181","602110864497cf011d9c0822","0","j","NA","space","space","space","NA","j","672","NA","5543","9996","9850","NA","672","2","legacy","1024","2","48000","-16","task","5225219","odd","NA","32392","39941","34397","94727","5152","25024","15172","95232","NA","94725","95233","94668","39941","95907","30464","94168","5078","55242","Lexical Decision Task","34","25217","35","yes","1024"
"2.895974732","6.65","5","sift","word","94.44444444444444","94.44444444444444","722.9166666666666","722.9166666666666","black","no","legacy","legacy","legacy","0","uniform","0","undefined","undefined","undefined","0","j","0","0","0","0","35","0","0","0","35","NA","31","35","31","0","31","3","35","0","35","Thu Feb 18 13:13:18 2021","The main experiment item","yes","Lexical_Decision_Task.osexp","/Users/user/Documents","no","Andale Mono","no","18","no","white","no","yes","576","legacy","31","31","3","/Users/user/Documents/subject-5225219.csv","legacy","Lentiform Loewenfeld","3.3.7","yes","yes","600bd7cfb6416f0113b04181","602110864497cf011d9c0822","0","f","NA","space","space","space","NA","f","808","NA","5543","9996","9850","NA","808","2","legacy","1024","2","48000","-16","task","5225219","odd","NA","32392","39941","34397","96476","5152","25024","15172","96982","NA","96473","96982","96413","39941","97791","30464","95913","5078","55242","Lexical Decision Task","34","26025","36","yes","1024"
"2.972819734","0","4","scew","non-word","91.89189189189189","91.89189189189189","734.2432432432432","734.2432432432432","black","no","legacy","legacy","legacy","0","uniform","0","undefined","undefined","undefined","0","f","0","0","0","0","36","0","0","0","36","NA","32","36","32","0","32","3","36","0","36","Thu Feb 18 13:13:18 2021","The main experiment item","yes","Lexical_Decision_Task.osexp","/Users/user/Documents","no","Andale Mono","no","18","no","white","no","yes","576","legacy","32","32","3","/Users/user/Documents/subject-5225219.csv","legacy","Lentiform Loewenfeld","3.3.7","yes","yes","600bd7cfb6416f0113b04181","602110864497cf011d9c0822","0","j","NA","space","space","space","NA","j","1142","NA","5543","9996","9850","NA","1142","2","legacy","1024","2","48000","-16","task","5225219","odd","NA","32392","39941","34397","99360","5152","25024","15172","99864","NA","99357","99865","99300","39941","101009","30464","95913","5078","97800","Lexical Decision Task","34","27167","37","yes","1024"
"3.15462682","0","6","noal","non-word","92.10526315789474","92.10526315789474","753.1052631578947","753.1052631578947","black","no","legacy","legacy","legacy","0","uniform","1","undefined","undefined","undefined","1","f","0","0","0","0","37","0","0","0","37","NA","33","37","33","0","33","3","37","0","37","Thu Feb 18 13:13:18 2021","The main experiment item","yes","Lexical_Decision_Task.osexp","/Users/user/Documents","no","Andale Mono","no","18","no","white","no","yes","576","legacy","33","33","3","/Users/user/Documents/subject-5225219.csv","legacy","Lentiform Loewenfeld","3.3.7","yes","yes","600bd7cfb6416f0113b04181","602110864497cf011d9c0822","0","f","NA","space","space","space","NA","f","1451","NA","5543","9996","9850","NA","1451","2","legacy","1024","2","48000","-16","task","5225219","odd","NA","32392","39941","34397","102577","5152","25024","15172","103081","NA","102574","103082","102516","39941","104535","30464","95913","5078","101015","Lexical Decision Task","35","28618","38","yes","1024"
"3.077974404","10.41","8","tool","word","92.3076923076923","92.3076923076923","746.8717948717949","746.8717948717949","black","no","legacy","legacy","legacy","0","uniform","1","undefined","undefined","undefined","1","j","0","0","0","0","38","0","0","0","38","NA","34","38","34","0","34","3","38","0","38","Thu Feb 18 13:13:18 2021","The main experiment item","yes","Lexical_Decision_Task.osexp","/Users/user/Documents","no","Andale Mono","no","18","no","white","no","yes","576","legacy","34","34","3","/Users/user/Documents/subject-5225219.csv","legacy","Lentiform Loewenfeld","3.3.7","yes","yes","600bd7cfb6416f0113b04181","602110864497cf011d9c0822","0","j","NA","space","space","space","NA","j","510","NA","5543","9996","9850","NA","510","2","legacy","1024","2","48000","-16","task","5225219","odd","NA","32392","39941","34397","105102","5152","25024","15172","105604","NA","105099","105605","105041","39941","106117","30464","104541","5078","101015","Lexical Decision Task","36","29128","39","yes","1024"
"2.68604012","0","3","mulb","non-word","92.5","92.5","746.575","746.575","black","no","legacy","legacy","legacy","0","uniform","1","undefined","undefined","undefined","1","f","0","0","0","0","39","0","0","0","39","NA","35","39","35","0","35","3","39","0","39","Thu Feb 18 13:13:18 2021","The main experiment item","yes","Lexical_Decision_Task.osexp","/Users/user/Documents","no","Andale Mono","no","18","no","white","no","yes","576","legacy","35","35","3","/Users/user/Documents/subject-5225219.csv","legacy","Lentiform Loewenfeld","3.3.7","yes","yes","600bd7cfb6416f0113b04181","602110864497cf011d9c0822","0","f","NA","space","space","space","NA","f","735","NA","5543","9996","9850","NA","735","2","legacy","1024","2","48000","-16","task","5225219","odd","NA","32392","39941","34397","106690","5152","25024","15172","107193","NA","106687","107194","106630","39941","107931","30464","106130","5078","101015","Lexical Decision Task","37","29863","40","yes","1024"
"2.884795364","0","6","flob","non-word","92.6829268292683","92.6829268292683","753.5365853658536","753.5365853658536","black","no","legacy","legacy","legacy","0","uniform","1","undefined","undefined","undefined","1","f","0","0","0","0","40","0","0","0","40","NA","36","40","36","0","36","3","40","0","40","Thu Feb 18 13:13:18 2021","The main experiment item","yes","Lexical_Decision_Task.osexp","/Users/user/Documents","no","Andale Mono","no","18","no","white","no","yes","576","legacy","36","36","3","/Users/user/Documents/subject-5225219.csv","legacy","Lentiform Loewenfeld","3.3.7","yes","yes","600bd7cfb6416f0113b04181","602110864497cf011d9c0822","0","f","NA","space","space","space","NA","f","1032","NA","5543","9996","9850","NA","1032","2","legacy","1024","2","48000","-16","task","5225219","odd","NA","32392","39941","34397","108497","5152","25024","15172","109000","NA","108495","109001","108438","39941","110035","30464","107937","5078","101015","Lexical Decision Task","38","30895","41","yes","1024"
"3.257359335","8","6","brew","word","92.85714285714286","92.85714285714286","749.9761904761905","749.9761904761905","black","no","legacy","legacy","legacy","0","uniform","1","undefined","undefined","undefined","1","j","0","0","0","0","41","0","0","0","41","NA","37","41","37","0","37","3","41","0","41","Thu Feb 18 13:13:18 2021","The main experiment item","yes","Lexical_Decision_Task.osexp","/Users/user/Documents","no","Andale Mono","no","18","no","white","no","yes","576","legacy","37","37","3","/Users/user/Documents/subject-5225219.csv","legacy","Lentiform Loewenfeld","3.3.7","yes","yes","600bd7cfb6416f0113b04181","602110864497cf011d9c0822","0","j","NA","space","space","space","NA","j","604","NA","5543","9996","9850","NA","604","2","legacy","1024","2","48000","-16","task","5225219","odd","NA","32392","39941","34397","110601","5152","25024","15172","111105","NA","110598","111106","110540","39941","111712","30464","110040","5078","101015","Lexical Decision Task","39","31499","42","yes","1024"
"3.209246849","0","7","slem","non-word","93.02325581395348","93.02325581395348","749.7441860465116","749.7441860465116","black","no","legacy","legacy","legacy","0","uniform","1","undefined","undefined","undefined","1","f","0","0","0","0","42","0","0","0","42","NA","38","42","38","0","38","3","42","0","42","Thu Feb 18 13:13:18 2021","The main experiment item","yes","Lexical_Decision_Task.osexp","/Users/user/Documents","no","Andale Mono","no","18","no","white","no","yes","576","legacy","38","38","3","/Users/user/Documents/subject-5225219.csv","legacy","Lentiform Loewenfeld","3.3.7","yes","yes","600bd7cfb6416f0113b04181","602110864497cf011d9c0822","0","f","NA","space","space","space","NA","f","740","NA","5543","9996","9850","NA","740","2","legacy","1024","2","48000","-16","task","5225219","odd","NA","32392","39941","34397","112277","5152","25024","15172","112779","NA","112274","112780","112218","39941","113522","30464","111718","5078","101015","Lexical Decision Task","40","32239","43","yes","1024"
"3.16326079","0","5","parg","non-word","93.18181818181819","93.18181818181819","747.5","747.5","black","no","legacy","legacy","legacy","0","uniform","1","undefined","undefined","undefined","1","f","0","0","0","0","43","0","0","0","43","NA","39","43","39","0","39","3","43","0","43","Thu Feb 18 13:13:18 2021","The main experiment item","yes","Lexical_Decision_Task.osexp","/Users/user/Documents","no","Andale Mono","no","18","no","white","no","yes","576","legacy","39","39","3","/Users/user/Documents/subject-5225219.csv","legacy","Lentiform Loewenfeld","3.3.7","yes","yes","600bd7cfb6416f0113b04181","602110864497cf011d9c0822","0","f","NA","space","space","space","NA","f","651","NA","5543","9996","9850","NA","651","2","legacy","1024","2","48000","-16","task","5225219","odd","NA","32392","39941","34397","114093","5152","25024","15172","114596","NA","114090","114597","114032","39941","115250","30464","113532","5078","101015","Lexical Decision Task","41","32890","44","yes","1024"
"2.839268497","0","8","maft","non-word","93.33333333333333","93.33333333333333","756.1777777777778","756.1777777777778","black","no","legacy","legacy","legacy","0","uniform","1","undefined","undefined","undefined","1","f","0","0","0","0","44","0","0","0","44","NA","40","44","40","0","40","3","44","0","44","Thu Feb 18 13:13:18 2021","The main experiment item","yes","Lexical_Decision_Task.osexp","/Users/user/Documents","no","Andale Mono","no","18","no","white","no","yes","576","legacy","40","40","3","/Users/user/Documents/subject-5225219.csv","legacy","Lentiform Loewenfeld","3.3.7","yes","yes","600bd7cfb6416f0113b04181","602110864497cf011d9c0822","0","f","NA","space","space","space","NA","f","1138","NA","5543","9996","9850","NA","1138","2","legacy","1024","2","48000","-16","task","5225219","odd","NA","32392","39941","34397","115817","5152","25024","15172","116319","NA","115814","116320","115757","39941","117460","30464","115257","5078","101015","Lexical Decision Task","42","34028","45","yes","1024"
"2.708989954","9.28","9","bowl","word","93.47826086956522","93.47826086956522","752.1521739130435","752.1521739130435","black","no","legacy","legacy","legacy","0","uniform","1","undefined","undefined","undefined","1","j","0","0","0","0","45","0","0","0","45","NA","41","45","41","0","41","3","45","0","45","Thu Feb 18 13:13:18 2021","The main experiment item","yes","Lexical_Decision_Task.osexp","/Users/user/Documents","no","Andale Mono","no","18","no","white","no","yes","576","legacy","41","41","3","/Users/user/Documents/subject-5225219.csv","legacy","Lentiform Loewenfeld","3.3.7","yes","yes","600bd7cfb6416f0113b04181","602110864497cf011d9c0822","0","j","NA","space","space","space","NA","j","571","NA","5543","9996","9850","NA","571","2","legacy","1024","2","48000","-16","task","5225219","odd","NA","32392","39941","34397","118028","5152","25024","15172","118530","NA","118025","118531","117965","39941","119104","30464","117465","5078","101015","Lexical Decision Task","43","34599","46","yes","1024"
"3.120025233","0","2","nyst","non-word","93.61702127659575","93.61702127659575","755.0212765957447","755.0212765957447","black","no","legacy","legacy","legacy","0","uniform","1","undefined","undefined","undefined","1","f","0","0","0","0","46","0","0","0","46","NA","42","46","42","0","42","3","46","0","46","Thu Feb 18 13:13:18 2021","The main experiment item","yes","Lexical_Decision_Task.osexp","/Users/user/Documents","no","Andale Mono","no","18","no","white","no","yes","576","legacy","42","42","3","/Users/user/Documents/subject-5225219.csv","legacy","Lentiform Loewenfeld","3.3.7","yes","yes","600bd7cfb6416f0113b04181","602110864497cf011d9c0822","0","f","NA","space","space","space","NA","f","887","NA","5543","9996","9850","NA","887","2","legacy","1024","2","48000","-16","task","5225219","odd","NA","32392","39941","34397","119671","5152","25024","15172","120174","NA","119669","120175","119611","39941","121063","30464","119110","5078","101015","Lexical Decision Task","44","35486","47","yes","1024"
"2.696644658","5.78","2","yolk","word","93.75","93.75","750.2708333333334","750.2708333333334","black","no","legacy","legacy","legacy","0","uniform","1","undefined","undefined","undefined","1","j","0","0","0","0","47","0","0","0","47","NA","43","47","43","0","43","3","47","0","47","Thu Feb 18 13:13:18 2021","The main experiment item","yes","Lexical_Decision_Task.osexp","/Users/user/Documents","no","Andale Mono","no","18","no","white","no","yes","576","legacy","43","43","3","/Users/user/Documents/subject-5225219.csv","legacy","Lentiform Loewenfeld","3.3.7","yes","yes","600bd7cfb6416f0113b04181","602110864497cf011d9c0822","0","j","NA","space","space","space","NA","j","527","NA","5543","9996","9850","NA","527","2","legacy","1024","2","48000","-16","task","5225219","odd","NA","32392","39941","34397","121631","5152","25024","15172","122133","NA","121627","122134","121570","39941","122663","30464","121069","5078","101015","Lexical Decision Task","45","36013","48","yes","1024"
"2.705007959","6.01","4","wept","word","93.87755102040816","93.87755102040816","747.9183673469388","747.9183673469388","black","no","legacy","legacy","legacy","0","uniform","1","undefined","undefined","undefined","1","j","0","0","0","0","48","0","0","0","48","NA","44","48","44","0","44","3","48","0","48","Thu Feb 18 13:13:18 2021","The main experiment item","yes","Lexical_Decision_Task.osexp","/Users/user/Documents","no","Andale Mono","no","18","no","white","no","yes","576","legacy","44","44","3","/Users/user/Documents/subject-5225219.csv","legacy","Lentiform Loewenfeld","3.3.7","yes","yes","600bd7cfb6416f0113b04181","602110864497cf011d9c0822","0","j","NA","space","space","space","NA","j","635","NA","5543","9996","9850","NA","635","2","legacy","1024","2","48000","-16","task","5225219","odd","NA","32392","39941","34397","123230","5152","25024","15172","123734","NA","123227","123735","123170","39941","124372","30464","122670","5078","101015","Lexical Decision Task","46","36648","49","yes","1024"
"2.980306438","0","7","slun","non-word","94","94","744.78","744.78","black","no","legacy","legacy","legacy","0","uniform","1","undefined","undefined","undefined","1","f","0","0","0","0","49","0","0","0","49","NA","45","49","45","0","45","3","49","0","49","Thu Feb 18 13:13:18 2021","The main experiment item","yes","Lexical_Decision_Task.osexp","/Users/user/Documents","no","Andale Mono","no","18","no","white","no","yes","576","legacy","45","45","3","/Users/user/Documents/subject-5225219.csv","legacy","Lentiform Loewenfeld","3.3.7","yes","yes","600bd7cfb6416f0113b04181","602110864497cf011d9c0822","0","f","NA","space","space","space","NA","f","591","NA","5543","9996","9850","NA","591","2","legacy","1024","2","48000","-16","task","5225219","odd","NA","32392","39941","34397","124942","5152","25024","15172","125446","NA","124940","125446","124882","39941","126039","30464","124381","5078","101015","Lexical Decision Task","47","37239","50","yes","1024"
"3.120135028","0","3","vals","non-word","94.11764705882354","94.11764705882354","743.1764705882352","743.1764705882352","black","no","legacy","legacy","legacy","0","uniform","1","undefined","undefined","undefined","1","f","0","0","0","0","50","0","0","0","50","NA","46","50","46","0","46","3","50","0","50","Thu Feb 18 13:13:18 2021","The main experiment item","yes","Lexical_Decision_Task.osexp","/Users/user/Documents","no","Andale Mono","no","18","no","white","no","yes","576","legacy","46","46","3","/Users/user/Documents/subject-5225219.csv","legacy","Lentiform Loewenfeld","3.3.7","yes","yes","600bd7cfb6416f0113b04181","602110864497cf011d9c0822","0","f","NA","space","space","space","NA","f","663","NA","5543","9996","9850","NA","663","2","legacy","1024","2","48000","-16","task","5225219","odd","NA","32392","39941","34397","126605","5152","25024","15172","127108","NA","126602","127109","126546","39941","127774","30464","126046","5078","101015","Lexical Decision Task","48","37902","51","yes","1024"
"3.22685757","9.99","7","roll","word","94.23076923076923","94.23076923076923","740.7307692307693","740.7307692307693","black","no","legacy","legacy","legacy","0","uniform","1","undefined","undefined","undefined","1","j","0","0","0","0","51","0","0","0","51","NA","47","51","47","0","47","3","51","0","51","Thu Feb 18 13:13:18 2021","The main experiment item","yes","Lexical_Decision_Task.osexp","/Users/user/Documents","no","Andale Mono","no","18","no","white","no","yes","576","legacy","47","47","3","/Users/user/Documents/subject-5225219.csv","legacy","Lentiform Loewenfeld","3.3.7","yes","yes","600bd7cfb6416f0113b04181","602110864497cf011d9c0822","0","j","NA","space","space","space","NA","j","616","NA","5543","9996","9850","NA","616","2","legacy","1024","2","48000","-16","task","5225219","odd","NA","32392","39941","34397","128343","5152","25024","15172","128847","NA","128340","128847","128280","39941","129465","30464","127780","5078","101015","Lexical Decision Task","49","38518","52","yes","1024"
"2.821076612","0","4","lult","non-word","94.33962264150944","94.33962264150944","740.2264150943396","740.2264150943396","black","no","legacy","legacy","legacy","0","uniform","1","undefined","undefined","undefined","1","f","0","0","0","0","52","0","0","0","52","NA","48","52","48","0","48","3","52","0","52","Thu Feb 18 13:13:18 2021","The main experiment item","yes","Lexical_Decision_Task.osexp","/Users/user/Documents","no","Andale Mono","no","18","no","white","no","yes","576","legacy","48","48","3","/Users/user/Documents/subject-5225219.csv","legacy","Lentiform Loewenfeld","3.3.7","yes","yes","600bd7cfb6416f0113b04181","602110864497cf011d9c0822","0","f","NA","space","space","space","NA","f","714","NA","5543","9996","9850","NA","714","2","legacy","1024","2","48000","-16","task","5225219","odd","NA","32392","39941","34397","130035","5152","25024","15172","130537","NA","130032","130538","129971","39941","131254","30464","129471","5078","101015","Lexical Decision Task","50","39232","53","yes","1024"
"2.842815106","7.86","8","lump","word","94.44444444444444","94.44444444444444","738.2222222222222","738.2222222222222","black","no","legacy","legacy","legacy","0","uniform","1","undefined","undefined","undefined","1","j","0","0","0","0","53","0","0","0","53","NA","49","53","49","0","49","3","53","0","53","Thu Feb 18 13:13:18 2021","The main experiment item","yes","Lexical_Decision_Task.osexp","/Users/user/Documents","no","Andale Mono","no","18","no","white","no","yes","576","legacy","49","49","3","/Users/user/Documents/subject-5225219.csv","legacy","Lentiform Loewenfeld","3.3.7","yes","yes","600bd7cfb6416f0113b04181","602110864497cf011d9c0822","0","j","NA","space","space","space","NA","j","632","NA","5543","9996","9850","NA","632","2","legacy","1024","2","48000","-16","task","5225219","odd","NA","32392","39941","34397","131821","5152","25024","15172","132324","NA","131819","132325","131760","39941","132958","30464","131259","5078","101015","Lexical Decision Task","51","39864","54","yes","1024"
"3.261341392","5.08","8","reek","word","92.72727272727273","92.72727272727273","747.8363636363637","747.8363636363637","black","no","legacy","legacy","legacy","0","uniform","0","undefined","undefined","undefined","0","j","0","0","0","0","54","0","0","0","54","0","50","54","50","0","50","3","54","0","54","Thu Feb 18 13:13:18 2021","The main experiment item","yes","Lexical_Decision_Task.osexp","/Users/user/Documents","no","Andale Mono","no","18","no","white","no","yes","576","legacy","50","50","3","/Users/user/Documents/subject-5225219.csv","legacy","Lentiform Loewenfeld","3.3.7","yes","yes","600bd7cfb6416f0113b04181","602110864497cf011d9c0822","0","f","NA","space","space","space","space","f","1267","NA","5543","9996","9850","14967","1267","2","legacy","1024","2","48000","-16","task","5225219","odd","NA","32392","39941","34397","148530","5152","25024","15172","149033","133499","148527","149033","133465","39941","150302","30464","132964","5078","101015","Lexical Decision Task","51","41131","55","yes","1024"
"2.986323777","10.85","8","ship","word","92.85714285714286","92.85714285714286","745.4107142857143","745.4107142857143","black","no","legacy","legacy","legacy","0","uniform","1","undefined","undefined","undefined","1","j","0","0","0","0","55","0","0","0","55","0","51","55","51","0","51","3","55","0","55","Thu Feb 18 13:13:18 2021","The main experiment item","yes","Lexical_Decision_Task.osexp","/Users/user/Documents","no","Andale Mono","no","18","no","white","no","yes","576","legacy","51","51","3","/Users/user/Documents/subject-5225219.csv","legacy","Lentiform Loewenfeld","3.3.7","yes","yes","600bd7cfb6416f0113b04181","602110864497cf011d9c0822","0","j","NA","space","space","space","space","j","612","NA","5543","9996","9850","14967","612","2","legacy","1024","2","48000","-16","task","5225219","odd","NA","32392","39941","34397","151871","5152","25024","15172","152374","133499","151868","152375","151808","39941","152989","30464","132964","5078","150308","Lexical Decision Task","52","41743","56","yes","1024"
"2.784379519","0","2","snaf","non-word","92.98245614035088","92.98245614035088","747.4035087719299","747.4035087719299","black","no","legacy","legacy","legacy","0","uniform","1","undefined","undefined","undefined","1","f","0","0","0","0","56","0","0","0","56","0","52","56","52","0","52","3","56","0","56","Thu Feb 18 13:13:18 2021","The main experiment item","yes","Lexical_Decision_Task.osexp","/Users/user/Documents","no","Andale Mono","no","18","no","white","no","yes","576","legacy","52","52","3","/Users/user/Documents/subject-5225219.csv","legacy","Lentiform Loewenfeld","3.3.7","yes","yes","600bd7cfb6416f0113b04181","602110864497cf011d9c0822","0","f","NA","space","space","space","space","f","859","NA","5543","9996","9850","14967","859","2","legacy","1024","2","48000","-16","task","5225219","odd","NA","32392","39941","34397","153556","5152","25024","15172","154059","133499","153553","154059","153495","39941","154920","30464","152995","5078","150308","Lexical Decision Task","53","42602","57","yes","1024"
"3.039414119","0","9","meep","non-word","93.10344827586206","93.10344827586206","758.6034482758621","758.6034482758621","black","no","legacy","legacy","legacy","0","uniform","1","undefined","undefined","undefined","1","f","0","0","0","0","57","0","0","0","57","0","53","57","53","0","53","3","57","0","57","Thu Feb 18 13:13:18 2021","The main experiment item","yes","Lexical_Decision_Task.osexp","/Users/user/Documents","no","Andale Mono","no","18","no","white","no","yes","576","legacy","53","53","3","/Users/user/Documents/subject-5225219.csv","legacy","Lentiform Loewenfeld","3.3.7","yes","yes","600bd7cfb6416f0113b04181","602110864497cf011d9c0822","0","f","NA","space","space","space","space","f","1397","NA","5543","9996","9850","14967","1397","2","legacy","1024","2","48000","-16","task","5225219","odd","NA","32392","39941","34397","155488","5152","25024","15172","155992","133499","155484","155993","155427","39941","157391","30464","154926","5078","150308","Lexical Decision Task","54","43999","58","yes","1024"
"2.937852093","0","7","bamp","non-word","93.22033898305085","93.22033898305085","767.3559322033898","767.3559322033898","black","no","legacy","legacy","legacy","0","uniform","1","undefined","undefined","undefined","1","f","0","0","0","0","58","0","0","0","58","0","54","58","54","0","54","3","58","0","58","Thu Feb 18 13:13:18 2021","The main experiment item","yes","Lexical_Decision_Task.osexp","/Users/user/Documents","no","Andale Mono","no","18","no","white","no","yes","576","legacy","54","54","3","/Users/user/Documents/subject-5225219.csv","legacy","Lentiform Loewenfeld","3.3.7","yes","yes","600bd7cfb6416f0113b04181","602110864497cf011d9c0822","0","f","NA","space","space","space","space","f","1275","NA","5543","9996","9850","14967","1275","2","legacy","1024","2","48000","-16","task","5225219","odd","NA","32392","39941","34397","157960","5152","25024","15172","158464","133499","157957","158465","157898","39941","159742","30464","157397","5078","150308","Lexical Decision Task","55","45274","59","yes","1024"
"2.709837904","6.85","8","skim","word","93.33333333333333","93.33333333333333","772.3333333333334","772.3333333333334","black","no","legacy","legacy","legacy","0","uniform","1","undefined","undefined","undefined","1","j","0","0","0","0","59","0","0","0","59","0","55","59","55","0","55","3","59","0","59","Thu Feb 18 13:13:18 2021","The main experiment item","yes","Lexical_Decision_Task.osexp","/Users/user/Documents","no","Andale Mono","no","18","no","white","no","yes","576","legacy","55","55","3","/Users/user/Documents/subject-5225219.csv","legacy","Lentiform Loewenfeld","3.3.7","yes","yes","600bd7cfb6416f0113b04181","602110864497cf011d9c0822","0","j","NA","space","space","space","space","j","1066","NA","5543","9996","9850","14967","1066","2","legacy","1024","2","48000","-16","task","5225219","odd","NA","32392","39941","34397","160309","5152","25024","15172","160812","133499","160305","160812","160247","39941","161880","30464","159747","5078","150308","Lexical Decision Task","56","46340","60","yes","1024"
"2.728085817","10.02","9","bike","word","93.44262295081967","93.44262295081967","779.4918032786885","779.4918032786885","black","no","legacy","legacy","legacy","0","uniform","1","undefined","undefined","undefined","1","j","0","0","0","0","60","0","0","0","60","0","56","60","56","0","56","3","60","0","60","Thu Feb 18 13:13:18 2021","The main experiment item","yes","Lexical_Decision_Task.osexp","/Users/user/Documents","no","Andale Mono","no","18","no","white","no","yes","576","legacy","56","56","3","/Users/user/Documents/subject-5225219.csv","legacy","Lentiform Loewenfeld","3.3.7","yes","yes","600bd7cfb6416f0113b04181","602110864497cf011d9c0822","0","j","NA","space","space","space","space","j","1209","NA","5543","9996","9850","14967","1209","2","legacy","1024","2","48000","-16","task","5225219","odd","NA","32392","39941","34397","162446","5152","25024","15172","162950","133499","162444","162951","162386","39941","164162","30464","161886","5078","150308","Lexical Decision Task","57","47549","61","yes","1024"
"2.6599162","0","2","saff","non-word","93.54838709677419","93.54838709677419","778.9677419354839","778.9677419354839","black","no","legacy","legacy","legacy","0","uniform","1","undefined","undefined","undefined","1","f","0","0","0","0","61","0","0","0","61","0","57","61","57","0","57","3","61","0","61","Thu Feb 18 13:13:18 2021","The main experiment item","yes","Lexical_Decision_Task.osexp","/Users/user/Documents","no","Andale Mono","no","18","no","white","no","yes","576","legacy","57","57","3","/Users/user/Documents/subject-5225219.csv","legacy","Lentiform Loewenfeld","3.3.7","yes","yes","600bd7cfb6416f0113b04181","602110864497cf011d9c0822","0","f","NA","space","space","space","space","f","747","NA","5543","9996","9850","14967","747","2","legacy","1024","2","48000","-16","task","5225219","odd","NA","32392","39941","34397","164747","5152","25024","15172","165250","133499","164743","165250","164670","39941","166000","30464","164169","5078","150308","Lexical Decision Task","58","48296","62","yes","1024"
"2.814027728","8.2","4","foam","word","93.65079365079364","93.65079365079364","773.1904761904761","773.1904761904761","black","no","legacy","legacy","legacy","0","uniform","1","undefined","undefined","undefined","1","j","0","0","0","0","62","0","0","0","62","0","58","62","58","0","58","3","62","0","62","Thu Feb 18 13:13:18 2021","The main experiment item","yes","Lexical_Decision_Task.osexp","/Users/user/Documents","no","Andale Mono","no","18","no","white","no","yes","576","legacy","58","58","3","/Users/user/Documents/subject-5225219.csv","legacy","Lentiform Loewenfeld","3.3.7","yes","yes","600bd7cfb6416f0113b04181","602110864497cf011d9c0822","0","j","NA","space","space","space","space","j","415","NA","5543","9996","9850","14967","415","2","legacy","1024","2","48000","-16","task","5225219","odd","NA","32392","39941","34397","166573","5152","25024","15172","167076","133499","166570","167076","166512","39941","167493","30464","166012","5078","150308","Lexical Decision Task","59","48711","63","yes","1024"
"3.121778632","0","9","sark","non-word","93.75","93.75","770.15625","770.15625","black","no","legacy","legacy","legacy","0","uniform","1","undefined","undefined","undefined","1","f","0","0","0","0","63","0","0","0","63","0","59","63","59","0","59","3","63","0","63","Thu Feb 18 13:13:18 2021","The main experiment item","yes","Lexical_Decision_Task.osexp","/Users/user/Documents","no","Andale Mono","no","18","no","white","no","yes","576","legacy","59","59","3","/Users/user/Documents/subject-5225219.csv","legacy","Lentiform Loewenfeld","3.3.7","yes","yes","600bd7cfb6416f0113b04181","602110864497cf011d9c0822","0","f","NA","space","space","space","space","f","579","NA","5543","9996","9850","14967","579","2","legacy","1024","2","48000","-16","task","5225219","odd","NA","32392","39941","34397","168060","5152","25024","15172","168564","133499","168057","168565","168000","39941","169146","30464","167500","5078","150308","Lexical Decision Task","60","49290","64","yes","1024"
"2.897810299","0","5","glur","non-word","93.84615384615384","93.84615384615384","768.6769230769231","768.6769230769231","black","no","legacy","legacy","legacy","0","uniform","1","undefined","undefined","undefined","1","f","0","0","0","0","64","0","0","0","64","0","60","64","60","0","60","3","64","0","64","Thu Feb 18 13:13:18 2021","The main experiment item","yes","Lexical_Decision_Task.osexp","/Users/user/Documents","no","Andale Mono","no","18","no","white","no","yes","576","legacy","60","60","3","/Users/user/Documents/subject-5225219.csv","legacy","Lentiform Loewenfeld","3.3.7","yes","yes","600bd7cfb6416f0113b04181","602110864497cf011d9c0822","0","f","NA","space","space","space","space","f","674","NA","5543","9996","9850","14967","674","2","legacy","1024","2","48000","-16","task","5225219","odd","NA","32392","39941","34397","169714","5152","25024","15172","170217","133499","169711","170217","169652","39941","170893","30464","169152","5078","150308","Lexical Decision Task","61","49964","65","yes","1024"
"2.82129731","6.72","5","plum","word","93.93939393939394","93.93939393939394","764.4848484848485","764.4848484848485","black","no","legacy","legacy","legacy","0","uniform","1","undefined","undefined","undefined","1","j","0","0","0","0","65","0","0","0","65","0","61","65","61","0","61","3","65","0","65","Thu Feb 18 13:13:18 2021","The main experiment item","yes","Lexical_Decision_Task.osexp","/Users/user/Documents","no","Andale Mono","no","18","no","white","no","yes","576","legacy","61","61","3","/Users/user/Documents/subject-5225219.csv","legacy","Lentiform Loewenfeld","3.3.7","yes","yes","600bd7cfb6416f0113b04181","602110864497cf011d9c0822","0","j","NA","space","space","space","space","j","492","NA","5543","9996","9850","14967","492","2","legacy","1024","2","48000","-16","task","5225219","odd","NA","32392","39941","34397","171465","5152","25024","15172","171967","133499","171462","171968","171402","39941","172463","30464","170901","5078","150308","Lexical Decision Task","62","50456","66","yes","1024"
"3.481012421","8.34","5","teen","word","94.02985074626865","94.02985074626865","761.2686567164179","761.2686567164179","black","no","legacy","legacy","legacy","0","uniform","1","undefined","undefined","undefined","1","j","0","0","0","0","66","0","0","0","66","0","62","66","62","0","62","3","66","0","66","Thu Feb 18 13:13:18 2021","The main experiment item","yes","Lexical_Decision_Task.osexp","/Users/user/Documents","no","Andale Mono","no","18","no","white","no","yes","576","legacy","62","62","3","/Users/user/Documents/subject-5225219.csv","legacy","Lentiform Loewenfeld","3.3.7","yes","yes","600bd7cfb6416f0113b04181","602110864497cf011d9c0822","0","j","NA","space","space","space","space","j","549","NA","5543","9996","9850","14967","549","2","legacy","1024","2","48000","-16","task","5225219","odd","NA","32392","39941","34397","173032","5152","25024","15172","173535","133499","173029","173536","172969","39941","174087","30464","172469","5078","150308","Lexical Decision Task","63","51005","67","yes","1024"
"2.755364069","7.72","2","hoax","word","94.11764705882354","94.11764705882354","759.5882352941177","759.5882352941177","black","no","legacy","legacy","legacy","0","uniform","1","undefined","undefined","undefined","1","j","0","0","0","0","67","0","0","0","67","0","63","67","63","0","63","3","67","0","67","Thu Feb 18 13:13:18 2021","The main experiment item","yes","Lexical_Decision_Task.osexp","/Users/user/Documents","no","Andale Mono","no","18","no","white","no","yes","576","legacy","63","63","3","/Users/user/Documents/subject-5225219.csv","legacy","Lentiform Loewenfeld","3.3.7","yes","yes","600bd7cfb6416f0113b04181","602110864497cf011d9c0822","0","j","NA","space","space","space","space","j","647","NA","5543","9996","9850","14967","647","2","legacy","1024","2","48000","-16","task","5225219","odd","NA","32392","39941","34397","174656","5152","25024","15172","175159","133499","174653","175159","174594","39941","175807","30464","174094","5078","150308","Lexical Decision Task","64","51652","68","yes","1024"
"3.495914186","0","4","peng","non-word","92.7536231884058","92.7536231884058","760.5507246376811","760.5507246376811","black","no","legacy","legacy","legacy","0","uniform","0","undefined","undefined","undefined","0","f","0","0","0","0","68","0","0","0","68","0","64","68","64","0","64","3","68","0","68","Thu Feb 18 13:13:18 2021","The main experiment item","yes","Lexical_Decision_Task.osexp","/Users/user/Documents","no","Andale Mono","no","18","no","white","no","yes","576","legacy","64","64","3","/Users/user/Documents/subject-5225219.csv","legacy","Lentiform Loewenfeld","3.3.7","yes","yes","600bd7cfb6416f0113b04181","602110864497cf011d9c0822","0","j","NA","space","space","space","space","j","826","NA","5543","9996","9850","14967","826","2","legacy","1024","2","48000","-16","task","5225219","odd","NA","32392","39941","34397","176374","5152","25024","15172","176877","133499","176371","176878","176313","39941","177705","30464","175813","5078","150308","Lexical Decision Task","64","52478","69","yes","1024"
"3.208978517","10.33","4","fish","word","92.85714285714286","92.85714285714286","777.0142857142857","777.0142857142857","black","no","legacy","legacy","legacy","0","uniform","1","undefined","undefined","undefined","1","j","0","0","0","0","69","0","0","0","69","0","65","69","65","0","65","3","69","0","69","Thu Feb 18 13:13:18 2021","The main experiment item","yes","Lexical_Decision_Task.osexp","/Users/user/Documents","no","Andale Mono","no","18","no","white","no","yes","576","legacy","65","65","3","/Users/user/Documents/subject-5225219.csv","legacy","Lentiform Loewenfeld","3.3.7","yes","yes","600bd7cfb6416f0113b04181","602110864497cf011d9c0822","0","j","NA","space","space","space","space","j","1913","NA","5543","9996","9850","14967","1913","2","legacy","1024","2","48000","-16","task","5225219","odd","NA","32392","39941","34397","179272","5152","25024","15172","179777","133499","179270","179777","179211","39941","181692","30464","175813","5078","177711","Lexical Decision Task","65","54391","70","yes","1024"
"3.031812271","6.52","3","gulp","word","92.95774647887323","92.95774647887323","777.8732394366198","777.8732394366198","black","no","legacy","legacy","legacy","0","uniform","1","undefined","undefined","undefined","1","j","0","0","0","0","70","0","0","0","70","0","66","70","66","0","66","3","70","0","70","Thu Feb 18 13:13:18 2021","The main experiment item","yes","Lexical_Decision_Task.osexp","/Users/user/Documents","no","Andale Mono","no","18","no","white","no","yes","576","legacy","66","66","3","/Users/user/Documents/subject-5225219.csv","legacy","Lentiform Loewenfeld","3.3.7","yes","yes","600bd7cfb6416f0113b04181","602110864497cf011d9c0822","0","j","NA","space","space","space","space","j","838","NA","5543","9996","9850","14967","838","2","legacy","1024","2","48000","-16","task","5225219","odd","NA","32392","39941","34397","182260","5152","25024","15172","182762","133499","182257","182763","182199","39941","183603","30464","181698","5078","177711","Lexical Decision Task","66","55229","71","yes","1024"
"3.382617311","0","4","pret","non-word","93.05555555555556","93.05555555555556","783.1111111111111","783.1111111111111","black","no","legacy","legacy","legacy","0","uniform","1","undefined","undefined","undefined","1","f","0","0","0","0","71","0","0","0","71","0","67","71","67","0","67","3","71","0","71","Thu Feb 18 13:13:18 2021","The main experiment item","yes","Lexical_Decision_Task.osexp","/Users/user/Documents","no","Andale Mono","no","18","no","white","no","yes","576","legacy","67","67","3","/Users/user/Documents/subject-5225219.csv","legacy","Lentiform Loewenfeld","3.3.7","yes","yes","600bd7cfb6416f0113b04181","602110864497cf011d9c0822","0","f","NA","space","space","space","space","f","1155","NA","5543","9996","9850","14967","1155","2","legacy","1024","2","48000","-16","task","5225219","odd","NA","32392","39941","34397","184170","5152","25024","15172","184674","133499","184167","184675","184109","39941","185832","30464","183609","5078","177711","Lexical Decision Task","67","56384","72","yes","1024"
"2.996511672","0","7","hoil","non-word","93.15068493150685","93.15068493150685","789.4383561643835","789.4383561643835","black","no","legacy","legacy","legacy","0","uniform","1","undefined","undefined","undefined","1","f","0","0","0","0","72","0","0","0","72","0","68","72","68","0","68","3","72","0","72","Thu Feb 18 13:13:18 2021","The main experiment item","yes","Lexical_Decision_Task.osexp","/Users/user/Documents","no","Andale Mono","no","18","no","white","no","yes","576","legacy","68","68","3","/Users/user/Documents/subject-5225219.csv","legacy","Lentiform Loewenfeld","3.3.7","yes","yes","600bd7cfb6416f0113b04181","602110864497cf011d9c0822","0","f","NA","space","space","space","space","f","1245","NA","5543","9996","9850","14967","1245","2","legacy","1024","2","48000","-16","task","5225219","odd","NA","32392","39941","34397","186400","5152","25024","15172","186903","133499","186396","186903","186338","39941","188150","30464","185837","5078","177711","Lexical Decision Task","68","57629","73","yes","1024"
"2.698100546","0","9","mulk","non-word","93.24324324324324","93.24324324324324","797.2432432432432","797.2432432432432","black","no","legacy","legacy","legacy","0","uniform","1","undefined","undefined","undefined","1","f","0","0","0","0","73","0","0","0","73","0","69","73","69","0","69","3","73","0","73","Thu Feb 18 13:13:18 2021","The main experiment item","yes","Lexical_Decision_Task.osexp","/Users/user/Documents","no","Andale Mono","no","18","no","white","no","yes","576","legacy","69","69","3","/Users/user/Documents/subject-5225219.csv","legacy","Lentiform Loewenfeld","3.3.7","yes","yes","600bd7cfb6416f0113b04181","602110864497cf011d9c0822","0","f","NA","space","space","space","space","f","1367","NA","5543","9996","9850","14967","1367","2","legacy","1024","2","48000","-16","task","5225219","odd","NA","32392","39941","34397","188719","5152","25024","15172","189222","133499","188716","189222","188657","39941","190591","30464","188157","5078","177711","Lexical Decision Task","69","58996","74","yes","1024"
"3.218535505","7.85","7","goat","word","93.33333333333333","93.33333333333333","792.8","792.8","black","no","legacy","legacy","legacy","0","uniform","1","undefined","undefined","undefined","1","j","0","0","0","0","74","0","0","0","74","0","70","74","70","0","70","3","74","0","74","Thu Feb 18 13:13:18 2021","The main experiment item","yes","Lexical_Decision_Task.osexp","/Users/user/Documents","no","Andale Mono","no","18","no","white","no","yes","576","legacy","70","70","3","/Users/user/Documents/subject-5225219.csv","legacy","Lentiform Loewenfeld","3.3.7","yes","yes","600bd7cfb6416f0113b04181","602110864497cf011d9c0822","0","j","NA","space","space","space","space","j","464","NA","5543","9996","9850","14967","464","2","legacy","1024","2","48000","-16","task","5225219","odd","NA","32392","39941","34397","191159","5152","25024","15172","191662","133499","191155","191663","191097","39941","192129","30464","190596","5078","177711","Lexical Decision Task","70","59460","75","yes","1024"
"3.076883066","0","8","mout","non-word","93.42105263157895","93.42105263157895","798.1842105263158","798.1842105263158","black","no","legacy","legacy","legacy","0","uniform","1","undefined","undefined","undefined","1","f","0","0","0","0","75","0","0","0","75","0","71","75","71","0","71","3","75","0","75","Thu Feb 18 13:13:18 2021","The main experiment item","yes","Lexical_Decision_Task.osexp","/Users/user/Documents","no","Andale Mono","no","18","no","white","no","yes","576","legacy","71","71","3","/Users/user/Documents/subject-5225219.csv","legacy","Lentiform Loewenfeld","3.3.7","yes","yes","600bd7cfb6416f0113b04181","602110864497cf011d9c0822","0","f","NA","space","space","space","space","f","1202","NA","5543","9996","9850","14967","1202","2","legacy","1024","2","48000","-16","task","5225219","odd","NA","32392","39941","34397","192697","5152","25024","15172","193200","133499","192694","193201","192636","39941","194405","30464","192135","5078","177711","Lexical Decision Task","71","60662","76","yes","1024"
"3.165936429","0","7","leps","non-word","93.50649350649351","93.50649350649351","805.8311688311688","805.8311688311688","black","no","legacy","legacy","legacy","0","uniform","1","undefined","undefined","undefined","1","f","0","0","0","0","76","0","0","0","76","0","72","76","72","0","72","3","76","0","76","Thu Feb 18 13:13:18 2021","The main experiment item","yes","Lexical_Decision_Task.osexp","/Users/user/Documents","no","Andale Mono","no","18","no","white","no","yes","576","legacy","72","72","3","/Users/user/Documents/subject-5225219.csv","legacy","Lentiform Loewenfeld","3.3.7","yes","yes","600bd7cfb6416f0113b04181","602110864497cf011d9c0822","0","f","NA","space","space","space","space","f","1387","NA","5543","9996","9850","14967","1387","2","legacy","1024","2","48000","-16","task","5225219","odd","NA","32392","39941","34397","194972","5152","25024","15172","195474","133499","194968","195475","194911","39941","196864","30464","194411","5078","177711","Lexical Decision Task","72","62049","77","yes","1024"
"3.374137706","10.21","4","tree","word","93.58974358974359","93.58974358974359","802.6538461538462","802.6538461538462","black","no","legacy","legacy","legacy","0","uniform","1","undefined","undefined","undefined","1","j","0","0","0","0","77","0","0","0","77","0","73","77","73","0","73","3","77","0","77","Thu Feb 18 13:13:18 2021","The main experiment item","yes","Lexical_Decision_Task.osexp","/Users/user/Documents","no","Andale Mono","no","18","no","white","no","yes","576","legacy","73","73","3","/Users/user/Documents/subject-5225219.csv","legacy","Lentiform Loewenfeld","3.3.7","yes","yes","600bd7cfb6416f0113b04181","602110864497cf011d9c0822","0","j","NA","space","space","space","space","j","558","NA","5543","9996","9850","14967","558","2","legacy","1024","2","48000","-16","task","5225219","odd","NA","32392","39941","34397","197433","5152","25024","15172","197935","133499","197429","197936","197370","39941","198496","30464","196870","5078","177711","Lexical Decision Task","73","62607","78","yes","1024"
"3.137775856","7.39","5","comb","word","93.67088607594937","93.67088607594937","801.2658227848101","801.2658227848101","black","no","legacy","legacy","legacy","0","uniform","1","undefined","undefined","undefined","1","j","0","0","0","0","78","0","0","0","78","0","74","78","74","0","74","3","78","0","78","Thu Feb 18 13:13:18 2021","The main experiment item","yes","Lexical_Decision_Task.osexp","/Users/user/Documents","no","Andale Mono","no","18","no","white","no","yes","576","legacy","74","74","3","/Users/user/Documents/subject-5225219.csv","legacy","Lentiform Loewenfeld","3.3.7","yes","yes","600bd7cfb6416f0113b04181","602110864497cf011d9c0822","0","j","NA","space","space","space","space","j","693","NA","5543","9996","9850","14967","693","2","legacy","1024","2","48000","-16","task","5225219","odd","NA","32392","39941","34397","199063","5152","25024","15172","199568","133499","199060","199569","199002","39941","200264","30464","198502","5078","177711","Lexical Decision Task","74","63300","79","yes","1024"
"3.488597715","0","9","nain","non-word","93.75","93.75","799.6125","799.6125","black","no","legacy","legacy","legacy","0","uniform","1","undefined","undefined","undefined","1","f","0","0","0","0","79","0","0","0","79","0","75","79","75","0","75","3","79","0","79","Thu Feb 18 13:13:18 2021","The main experiment item","yes","Lexical_Decision_Task.osexp","/Users/user/Documents","no","Andale Mono","no","18","no","white","no","yes","576","legacy","75","75","3","/Users/user/Documents/subject-5225219.csv","legacy","Lentiform Loewenfeld","3.3.7","yes","yes","600bd7cfb6416f0113b04181","602110864497cf011d9c0822","0","f","NA","space","space","space","space","f","669","NA","5543","9996","9850","14967","669","2","legacy","1024","2","48000","-16","task","5225219","odd","NA","32392","39941","34397","200832","5152","25024","15172","201336","133499","200829","201336","200771","39941","202006","30464","200271","5078","177711","Lexical Decision Task","75","63969","80","yes","1024"
"3.372543801","9.24","8","coat","word","93.82716049382717","93.82716049382717","796.1851851851852","796.1851851851852","black","no","legacy","legacy","legacy","0","uniform","1","undefined","undefined","undefined","1","j","0","0","0","0","80","0","0","0","80","0","76","80","76","0","76","3","80","0","80","Thu Feb 18 13:13:18 2021","The main experiment item","yes","Lexical_Decision_Task.osexp","/Users/user/Documents","no","Andale Mono","no","18","no","white","no","yes","576","legacy","76","76","3","/Users/user/Documents/subject-5225219.csv","legacy","Lentiform Loewenfeld","3.3.7","yes","yes","600bd7cfb6416f0113b04181","602110864497cf011d9c0822","0","j","NA","space","space","space","space","j","522","NA","5543","9996","9850","14967","522","2","legacy","1024","2","48000","-16","task","5225219","odd","NA","32392","39941","34397","202576","5152","25024","15172","203079","133499","202573","203079","202512","39941","203603","30464","202012","5078","177711","Lexical Decision Task","76","64491","81","yes","1024"
"3.153001286","8.7","5","palm","word","93.90243902439025","93.90243902439025","793.0853658536586","793.0853658536586","black","no","legacy","legacy","legacy","0","uniform","1","undefined","undefined","undefined","1","j","0","0","0","0","81","0","0","0","81","0","77","81","77","0","77","3","81","0","81","Thu Feb 18 13:13:18 2021","The main experiment item","yes","Lexical_Decision_Task.osexp","/Users/user/Documents","no","Andale Mono","no","18","no","white","no","yes","576","legacy","77","77","3","/Users/user/Documents/subject-5225219.csv","legacy","Lentiform Loewenfeld","3.3.7","yes","yes","600bd7cfb6416f0113b04181","602110864497cf011d9c0822","0","j","NA","space","space","space","space","j","542","NA","5543","9996","9850","14967","542","2","legacy","1024","2","48000","-16","task","5225219","odd","NA","32392","39941","34397","204171","5152","25024","15172","204674","133499","204168","204674","204110","39941","205219","30464","203610","5078","177711","Lexical Decision Task","77","65033","82","yes","1024"
"2.778633532","0","3","jurp","non-word","93.97590361445783","93.97590361445783","791.2168674698795","791.2168674698795","black","no","legacy","legacy","legacy","0","uniform","1","undefined","undefined","undefined","1","f","0","0","0","0","82","0","0","0","82","0","78","82","78","0","78","3","82","0","82","Thu Feb 18 13:13:18 2021","The main experiment item","yes","Lexical_Decision_Task.osexp","/Users/user/Documents","no","Andale Mono","no","18","no","white","no","yes","576","legacy","78","78","3","/Users/user/Documents/subject-5225219.csv","legacy","Lentiform Loewenfeld","3.3.7","yes","yes","600bd7cfb6416f0113b04181","602110864497cf011d9c0822","0","f","NA","space","space","space","space","f","638","NA","5543","9996","9850","14967","638","2","legacy","1024","2","48000","-16","task","5225219","odd","NA","32392","39941","34397","205788","5152","25024","15172","206292","133499","205785","206292","205725","39941","206932","30464","205225","5078","177711","Lexical Decision Task","78","65671","83","yes","1024"
"3.119255889","6.63","2","itch","word","94.04761904761905","94.04761904761905","788.2142857142857","788.2142857142857","black","no","legacy","legacy","legacy","0","uniform","1","undefined","undefined","undefined","1","j","0","0","0","0","83","0","0","0","83","0","79","83","79","0","79","3","83","0","83","Thu Feb 18 13:13:18 2021","The main experiment item","yes","Lexical_Decision_Task.osexp","/Users/user/Documents","no","Andale Mono","no","18","no","white","no","yes","576","legacy","79","79","3","/Users/user/Documents/subject-5225219.csv","legacy","Lentiform Loewenfeld","3.3.7","yes","yes","600bd7cfb6416f0113b04181","602110864497cf011d9c0822","0","j","NA","space","space","space","space","j","539","NA","5543","9996","9850","14967","539","2","legacy","1024","2","48000","-16","task","5225219","odd","NA","32392","39941","34397","207500","5152","25024","15172","208003","133499","207497","208003","207438","39941","208544","30464","206938","5078","177711","Lexical Decision Task","79","66210","84","yes","1024"
"3.248054965","7.86","5","glow","word","94.11764705882354","94.11764705882354","785.6470588235294","785.6470588235294","black","no","legacy","legacy","legacy","0","uniform","1","undefined","undefined","undefined","1","j","0","0","0","0","84","0","0","0","84","0","80","84","80","0","80","3","84","0","84","Thu Feb 18 13:13:18 2021","The main experiment item","yes","Lexical_Decision_Task.osexp","/Users/user/Documents","no","Andale Mono","no","18","no","white","no","yes","576","legacy","80","80","3","/Users/user/Documents/subject-5225219.csv","legacy","Lentiform Loewenfeld","3.3.7","yes","yes","600bd7cfb6416f0113b04181","602110864497cf011d9c0822","0","j","NA","space","space","space","space","j","570","NA","5543","9996","9850","14967","570","2","legacy","1024","2","48000","-16","task","5225219","odd","NA","32392","39941","34397","209111","5152","25024","15172","209614","133499","209109","209615","209051","39941","210188","30464","208550","5078","177711","Lexical Decision Task","80","66780","85","yes","1024"
"3.397302518","7.01","2","knit","word","94.18604651162791","94.18604651162791","781.8720930232558","781.8720930232558","black","no","legacy","legacy","legacy","0","uniform","1","undefined","undefined","undefined","1","j","0","0","0","0","85","0","0","0","85","0","81","85","81","0","81","3","85","0","85","Thu Feb 18 13:13:18 2021","The main experiment item","yes","Lexical_Decision_Task.osexp","/Users/user/Documents","no","Andale Mono","no","18","no","white","no","yes","576","legacy","81","81","3","/Users/user/Documents/subject-5225219.csv","legacy","Lentiform Loewenfeld","3.3.7","yes","yes","600bd7cfb6416f0113b04181","602110864497cf011d9c0822","0","j","NA","space","space","space","space","j","461","NA","5543","9996","9850","14967","461","2","legacy","1024","2","48000","-16","task","5225219","odd","NA","32392","39941","34397","210755","5152","25024","15172","211259","133499","210752","211259","210694","39941","211722","30464","210194","5078","177711","Lexical Decision Task","81","67241","86","yes","1024"
"3.197740804","6.74","3","ache","word","94.25287356321839","94.25287356321839","778.9770114942529","778.9770114942529","black","no","legacy","legacy","legacy","0","uniform","1","undefined","undefined","undefined","1","j","0","0","0","0","86","0","0","0","86","0","82","86","82","0","82","3","86","0","86","Thu Feb 18 13:13:18 2021","The main experiment item","yes","Lexical_Decision_Task.osexp","/Users/user/Documents","no","Andale Mono","no","18","no","white","no","yes","576","legacy","82","82","3","/Users/user/Documents/subject-5225219.csv","legacy","Lentiform Loewenfeld","3.3.7","yes","yes","600bd7cfb6416f0113b04181","602110864497cf011d9c0822","0","j","NA","space","space","space","space","j","530","NA","5543","9996","9850","14967","530","2","legacy","1024","2","48000","-16","task","5225219","odd","NA","32392","39941","34397","212288","5152","25024","15172","212790","133499","212285","212791","212228","39941","213323","30464","211728","5078","177711","Lexical Decision Task","82","67771","87","yes","1024"
"3.216517684","10.87","3","film","word","94.31818181818181","94.31818181818181","775.3295454545455","775.3295454545455","black","no","legacy","legacy","legacy","0","uniform","1","undefined","undefined","undefined","1","j","0","0","0","0","87","0","0","0","87","0","83","87","83","0","83","3","87","0","87","Thu Feb 18 13:13:18 2021","The main experiment item","yes","Lexical_Decision_Task.osexp","/Users/user/Documents","no","Andale Mono","no","18","no","white","no","yes","576","legacy","83","83","3","/Users/user/Documents/subject-5225219.csv","legacy","Lentiform Loewenfeld","3.3.7","yes","yes","600bd7cfb6416f0113b04181","602110864497cf011d9c0822","0","j","NA","space","space","space","space","j","458","NA","5543","9996","9850","14967","458","2","legacy","1024","2","48000","-16","task","5225219","odd","NA","32392","39941","34397","213890","5152","25024","15172","214393","133499","213887","214393","213830","39941","214853","30464","213330","5078","177711","Lexical Decision Task","83","68229","88","yes","1024"
"2.807758206","6.25","4","hurl","word","94.38202247191012","94.38202247191012","774.3932584269663","774.3932584269663","black","no","legacy","legacy","legacy","0","uniform","1","undefined","undefined","undefined","1","j","0","0","0","0","88","0","0","0","88","0","84","88","84","0","84","3","88","0","88","Thu Feb 18 13:13:18 2021","The main experiment item","yes","Lexical_Decision_Task.osexp","/Users/user/Documents","no","Andale Mono","no","18","no","white","no","yes","576","legacy","84","84","3","/Users/user/Documents/subject-5225219.csv","legacy","Lentiform Loewenfeld","3.3.7","yes","yes","600bd7cfb6416f0113b04181","602110864497cf011d9c0822","0","j","NA","space","space","space","space","j","692","NA","5543","9996","9850","14967","692","2","legacy","1024","2","48000","-16","task","5225219","odd","NA","32392","39941","34397","215419","5152","25024","15172","215923","133499","215416","215924","215359","39941","216618","30464","214859","5078","177711","Lexical Decision Task","84","68921","89","yes","1024"
"3.252447662","9.67","9","boat","word","94.44444444444444","94.44444444444444","770.6777777777778","770.6777777777778","black","no","legacy","legacy","legacy","0","uniform","1","undefined","undefined","undefined","1","j","0","0","0","0","89","0","0","0","89","0","85","89","85","0","85","3","89","0","89","Thu Feb 18 13:13:18 2021","The main experiment item","yes","Lexical_Decision_Task.osexp","/Users/user/Documents","no","Andale Mono","no","18","no","white","no","yes","576","legacy","85","85","3","/Users/user/Documents/subject-5225219.csv","legacy","Lentiform Loewenfeld","3.3.7","yes","yes","600bd7cfb6416f0113b04181","602110864497cf011d9c0822","0","j","NA","space","space","space","space","j","440","NA","5543","9996","9850","14967","440","2","legacy","1024","2","48000","-16","task","5225219","odd","NA","32392","39941","34397","217185","5152","25024","15172","217690","133499","217183","217690","217124","39941","218132","30464","216624","5078","177711","Lexical Decision Task","85","69361","90","yes","1024"
"2.696356389","0","1","pizz","non-word","93.4065934065934","93.4065934065934","767.8791208791209","767.8791208791209","black","no","legacy","legacy","legacy","0","uniform","0","undefined","undefined","undefined","0","f","0","0","0","0","90","0","0","0","90","0","86","90","86","0","86","3","90","0","90","Thu Feb 18 13:13:18 2021","The main experiment item","yes","Lexical_Decision_Task.osexp","/Users/user/Documents","no","Andale Mono","no","18","no","white","no","yes","576","legacy","86","86","3","/Users/user/Documents/subject-5225219.csv","legacy","Lentiform Loewenfeld","3.3.7","yes","yes","600bd7cfb6416f0113b04181","602110864497cf011d9c0822","0","j","NA","space","space","space","space","j","516","NA","5543","9996","9850","14967","516","2","legacy","1024","2","48000","-16","task","5225219","odd","NA","32392","39941","34397","218699","5152","25024","15172","219201","133499","218695","219202","218639","39941","219720","30464","218139","5078","177711","Lexical Decision Task","85","69877","91","yes","1024"
"3.29439347","8.6","9","wand","word","93.47826086956522","93.47826086956522","771.7391304347826","771.7391304347826","black","no","legacy","legacy","legacy","0","uniform","1","undefined","undefined","undefined","1","j","0","0","0","0","91","0","0","0","91","0","87","91","87","0","87","3","91","0","91","Thu Feb 18 13:13:18 2021","The main experiment item","yes","Lexical_Decision_Task.osexp","/Users/user/Documents","no","Andale Mono","no","18","no","white","no","yes","576","legacy","87","87","3","/Users/user/Documents/subject-5225219.csv","legacy","Lentiform Loewenfeld","3.3.7","yes","yes","600bd7cfb6416f0113b04181","602110864497cf011d9c0822","0","j","NA","space","space","space","space","j","1123","NA","5543","9996","9850","14967","1123","2","legacy","1024","2","48000","-16","task","5225219","odd","NA","32392","39941","34397","221296","5152","25024","15172","221800","133499","221292","221800","221226","39941","222925","30464","218139","5078","219726","Lexical Decision Task","86","71000","92","yes","1024"
"3.20996159","0","4","clee","non-word","93.54838709677419","93.54838709677419","769.5268817204301","769.5268817204301","black","no","legacy","legacy","legacy","0","uniform","1","undefined","undefined","undefined","1","f","0","0","0","0","92","0","0","0","92","0","88","92","88","0","88","3","92","0","92","Thu Feb 18 13:13:18 2021","The main experiment item","yes","Lexical_Decision_Task.osexp","/Users/user/Documents","no","Andale Mono","no","18","no","white","no","yes","576","legacy","88","88","3","/Users/user/Documents/subject-5225219.csv","legacy","Lentiform Loewenfeld","3.3.7","yes","yes","600bd7cfb6416f0113b04181","602110864497cf011d9c0822","0","f","NA","space","space","space","space","f","566","NA","5543","9996","9850","14967","566","2","legacy","1024","2","48000","-16","task","5225219","odd","NA","32392","39941","34397","223491","5152","25024","15172","223994","133499","223488","223995","223431","39941","224563","30464","222931","5078","219726","Lexical Decision Task","87","71566","93","yes","1024"
"2.6599162","0","6","flug","non-word","93.61702127659575","93.61702127659575","767.4787234042553","767.4787234042553","black","no","legacy","legacy","legacy","0","uniform","1","undefined","undefined","undefined","1","f","0","0","0","0","93","0","0","0","93","0","89","93","89","0","89","3","93","0","93","Thu Feb 18 13:13:18 2021","The main experiment item","yes","Lexical_Decision_Task.osexp","/Users/user/Documents","no","Andale Mono","no","18","no","white","no","yes","576","legacy","89","89","3","/Users/user/Documents/subject-5225219.csv","legacy","Lentiform Loewenfeld","3.3.7","yes","yes","600bd7cfb6416f0113b04181","602110864497cf011d9c0822","0","f","NA","space","space","space","space","f","577","NA","5543","9996","9850","14967","577","2","legacy","1024","2","48000","-16","task","5225219","odd","NA","32392","39941","34397","225132","5152","25024","15172","225636","133499","225129","225636","225069","39941","226215","30464","224569","5078","219726","Lexical Decision Task","88","72143","94","yes","1024"
"3.131833513","7.66","4","limb","word","93.6842105263158","93.6842105263158","766.6210526315789","766.6210526315789","black","no","legacy","legacy","legacy","0","uniform","1","undefined","undefined","undefined","1","j","0","0","0","0","94","0","0","0","94","0","90","94","90","0","90","3","94","0","94","Thu Feb 18 13:13:18 2021","The main experiment item","yes","Lexical_Decision_Task.osexp","/Users/user/Documents","no","Andale Mono","no","18","no","white","no","yes","576","legacy","90","90","3","/Users/user/Documents/subject-5225219.csv","legacy","Lentiform Loewenfeld","3.3.7","yes","yes","600bd7cfb6416f0113b04181","602110864497cf011d9c0822","0","j","NA","space","space","space","space","j","686","NA","5543","9996","9850","14967","686","2","legacy","1024","2","48000","-16","task","5225219","odd","NA","32392","39941","34397","226782","5152","25024","15172","227285","133499","226779","227286","226722","39941","227974","30464","226221","5078","219726","Lexical Decision Task","89","72829","95","yes","1024"
"2.746890964","9.67","3","plug","word","93.75","93.75","765.1354166666666","765.1354166666666","black","no","legacy","legacy","legacy","0","uniform","1","undefined","undefined","undefined","1","j","0","0","0","0","95","0","0","0","95","0","91","95","91","0","91","3","95","0","95","Thu Feb 18 13:13:18 2021","The main experiment item","yes","Lexical_Decision_Task.osexp","/Users/user/Documents","no","Andale Mono","no","18","no","white","no","yes","576","legacy","91","91","3","/Users/user/Documents/subject-5225219.csv","legacy","Lentiform Loewenfeld","3.3.7","yes","yes","600bd7cfb6416f0113b04181","602110864497cf011d9c0822","0","j","NA","space","space","space","space","j","624","NA","5543","9996","9850","14967","624","2","legacy","1024","2","48000","-16","task","5225219","odd","NA","32392","39941","34397","228542","5152","25024","15172","229044","133499","228539","229045","228480","39941","229671","30464","227980","5078","219726","Lexical Decision Task","90","73453","96","yes","1024"
"2.86332286","6.71","2","feud","word","92.78350515463917","92.78350515463917","771.639175257732","771.639175257732","black","no","legacy","legacy","legacy","0","uniform","0","undefined","undefined","undefined","0","j","0","0","0","0","96","0","0","0","96","0","92","96","92","0","92","3","96","0","96","Thu Feb 18 13:13:18 2021","The main experiment item","yes","Lexical_Decision_Task.osexp","/Users/user/Documents","no","Andale Mono","no","18","no","white","no","yes","576","legacy","92","92","3","/Users/user/Documents/subject-5225219.csv","legacy","Lentiform Loewenfeld","3.3.7","yes","yes","600bd7cfb6416f0113b04181","602110864497cf011d9c0822","0","f","NA","space","space","space","space","f","1396","NA","5543","9996","9850","14967","1396","2","legacy","1024","2","48000","-16","task","5225219","odd","NA","32392","39941","34397","230237","5152","25024","15172","230741","133499","230234","230741","230177","39941","232140","30464","229677","5078","219726","Lexical Decision Task","90","74849","97","yes","1024"
"3.274543461","7.46","7","scar","word","92.85714285714286","92.85714285714286","771.8571428571429","771.8571428571429","black","no","legacy","legacy","legacy","0","uniform","1","undefined","undefined","undefined","1","j","0","0","0","0","97","0","0","0","97","0","93","97","93","0","93","3","97","0","97","Thu Feb 18 13:13:18 2021","The main experiment item","yes","Lexical_Decision_Task.osexp","/Users/user/Documents","no","Andale Mono","no","18","no","white","no","yes","576","legacy","93","93","3","/Users/user/Documents/subject-5225219.csv","legacy","Lentiform Loewenfeld","3.3.7","yes","yes","600bd7cfb6416f0113b04181","602110864497cf011d9c0822","0","j","NA","space","space","space","space","j","793","NA","5543","9996","9850","14967","793","2","legacy","1024","2","48000","-16","task","5225219","odd","NA","32392","39941","34397","233711","5152","25024","15172","234213","133499","233708","234214","233647","39941","235009","30464","229677","5078","232146","Lexical Decision Task","91","75642","98","yes","1024"
"3.090140555","5.81","8","pout","word","92.92929292929293","92.92929292929293","770.5353535353536","770.5353535353536","black","no","legacy","legacy","legacy","0","uniform","1","undefined","undefined","undefined","1","j","0","0","0","0","98","0","0","0","98","0","94","98","94","0","94","3","98","0","98","Thu Feb 18 13:13:18 2021","The main experiment item","yes","Lexical_Decision_Task.osexp","/Users/user/Documents","no","Andale Mono","no","18","no","white","no","yes","576","legacy","94","94","3","/Users/user/Documents/subject-5225219.csv","legacy","Lentiform Loewenfeld","3.3.7","yes","yes","600bd7cfb6416f0113b04181","602110864497cf011d9c0822","0","j","NA","space","space","space","space","j","641","NA","5543","9996","9850","14967","641","2","legacy","1024","2","48000","-16","task","5225219","odd","NA","32392","39941","34397","235576","5152","25024","15172","236079","133499","235573","236080","235516","39941","236723","30464","235016","5078","232146","Lexical Decision Task","92","76283","99","yes","1024"
"2.990042563","6.64","9","plow","word","92","92","770.26","770.26","black","no","legacy","legacy","legacy","0","uniform","0","undefined","undefined","undefined","0","j","0","0","0","0","99","0","0","0","99","0","95","99","95","0","95","3","99","0","99","Thu Feb 18 13:13:18 2021","The main experiment item","yes","Lexical_Decision_Task.osexp","/Users/user/Documents","no","Andale Mono","no","18","no","white","no","yes","576","legacy","95","95","3","/Users/user/Documents/subject-5225219.csv","legacy","Lentiform Loewenfeld","3.3.7","yes","yes","600bd7cfb6416f0113b04181","602110864497cf011d9c0822","0","f","NA","space","space","space","space","f","743","NA","5543","9996","9850","14967","743","2","legacy","1024","2","48000","-16","task","5225219","odd","NA","32392","39941","34397","237290","5152","25024","15172","237793","133499","237287","237794","237230","39941","238539","30464","236729","5078","232146","Lexical Decision Task","92","77026","100","yes","1024"
"3.492014979","0","9","yine","non-word","91.08910891089108","91.08910891089108","792.3366336633663","792.3366336633663","black","no","legacy","legacy","legacy","0","uniform","0","undefined","undefined","undefined","0","f","0","0","0","0","100","0","0","0","100","0","96","100","96","0","96","3","100","0","100","Thu Feb 18 13:13:18 2021","The main experiment item","yes","Lexical_Decision_Task.osexp","/Users/user/Documents","no","Andale Mono","no","18","no","white","no","yes","576","legacy","96","96","3","/Users/user/Documents/subject-5225219.csv","legacy","Lentiform Loewenfeld","3.3.7","yes","yes","600bd7cfb6416f0113b04181","602110864497cf011d9c0822","0","None","NA","space","space","space","space","None","3000","NA","5543","9996","9850","14967","3000","2","legacy","1024","2","48000","-16","task","5225219","odd","NA","32392","39941","34397","240110","5152","25024","15172","240614","133499","240107","240614","240045","39941","243614","30464","236729","5078","238545","Lexical Decision Task","92","80026","101","yes","1024"
