"Log_BG","Log_Freq_HAL","Ortho_N","Stimulus","Type","acc","accuracy","average_response_time","avg_rt","background","bidi","canvas_backend","clock_backend","color_backend","compensation","coordinates","correct","correct_Experimental_intro","correct_Introduction","correct_Practice_intro","correct_experimenter_kb","correct_response","count_End_Of_Experiment","count_End_Of_Practice","count_Experimental_Loop","count_Experimental_intro","count_Fixation","count_Introduction","count_Practice_Loop","count_Practice_intro","count_Stimulus","count_block_break_feedback","count_experimental_sequence","count_experimenter_kb","count_increment_trial_count","count_init_trial_count","count_logger","count_practice_sequence","count_right","count_task","count_wrong","datetime","description","disable_garbage_collection","experiment_file","experiment_path","font_bold","font_family","font_italic","font_size","font_underline","foreground","form_clicks","fullscreen","height","keyboard_backend","live_row","live_row_Experimental_Loop","live_row_Practice_Loop","logfile","mouse_backend","opensesame_codename","opensesame_version","osf_always_upload_data","osf_always_upload_experiment","osf_datanode_id","osf_id","repeat_cycle","response","response_End_Of_Experiment","response_Experimental_intro","response_Introduction","response_Practice_intro","response_block_break_feedback","response_experimenter_kb","response_time","response_time_End_Of_Experiment","response_time_Experimental_intro","response_time_Introduction","response_time_Practice_intro","response_time_block_break_feedback","response_time_experimenter_kb","round_decimals","sampler_backend","sound_buf_size","sound_channels","sound_freq","sound_sample_size","start","subject_nr","subject_parity","time_End_Of_Experiment","time_End_Of_Practice","time_Experimental_Loop","time_Experimental_intro","time_Fixation","time_Introduction","time_Practice_Loop","time_Practice_intro","time_Stimulus","time_block_break_feedback","time_experimental_sequence","time_experimenter_kb","time_increment_trial_count","time_init_trial_count","time_logger","time_practice_sequence","time_right","time_task","time_wrong","title","total_correct","total_response_time","total_responses","uniform_coordinates","width"
"3.2757719","0","5","slea","non-word","40","40","2223.2","2223.2","black","no","legacy","legacy","legacy","0","uniform","0","undefined","undefined","undefined","0","f","0","0","0","0","4","0","0","0","4","NA","0","4","0","0","0","3","4","0","4","Thu Feb 18 13:34:15 2021","The main experiment item","yes","Lexical_Decision_Task.osexp","/Users/sabaahmed","no","Andale Mono","no","18","no","white","no","yes","576","legacy","0","0","3","/Users/sabaahmed/subject-5226185LEXICAL.csv","legacy","Lentiform Loewenfeld","3.3.7","yes","yes","600bd7cfb6416f0113b04181","602110864497cf011d9c0822","0","J","NA","space","space","space","NA","J","2685","NA","10573","7940","4480","NA","2685","2","legacy","1024","2","48000","-16","task","5226185","odd","NA","32062","44639","34064","44665","4860","17296","12815","45168","NA","44664","45168","NA","44639","47855","29546","23927","4816","30531","Lexical Decision Task","2","11116","5","yes","1024"
"2.839268497","0","8","maft","non-word","33.333333333333336","33.333333333333336","2051.8333333333335","2051.8333333333335","black","no","legacy","legacy","legacy","0","uniform","0","undefined","undefined","undefined","0","f","0","0","0","0","5","0","0","0","5","NA","1","5","1","0","1","3","5","0","5","Thu Feb 18 13:34:15 2021","The main experiment item","yes","Lexical_Decision_Task.osexp","/Users/sabaahmed","no","Andale Mono","no","18","no","white","no","yes","576","legacy","1","1","3","/Users/sabaahmed/subject-5226185LEXICAL.csv","legacy","Lentiform Loewenfeld","3.3.7","yes","yes","600bd7cfb6416f0113b04181","602110864497cf011d9c0822","0","J","NA","space","space","space","NA","J","1195","NA","10573","7940","4480","NA","1195","2","legacy","1024","2","48000","-16","task","5226185","odd","NA","32062","44639","34064","49428","4860","17296","12815","49931","NA","49426","49931","49361","44639","51127","29546","23927","4816","47861","Lexical Decision Task","2","12311","6","yes","1024"
"3.531734309","0","6","lerd","non-word","28.571428571428573","28.571428571428573","2187.285714285714","2187.285714285714","black","no","legacy","legacy","legacy","0","uniform","0","undefined","undefined","undefined","0","f","0","0","0","0","6","0","0","0","6","NA","2","6","2","0","2","3","6","0","6","Thu Feb 18 13:34:15 2021","The main experiment item","yes","Lexical_Decision_Task.osexp","/Users/sabaahmed","no","Andale Mono","no","18","no","white","no","yes","576","legacy","2","2","3","/Users/sabaahmed/subject-5226185LEXICAL.csv","legacy","Lentiform Loewenfeld","3.3.7","yes","yes","600bd7cfb6416f0113b04181","602110864497cf011d9c0822","0","None","NA","space","space","space","NA","None","3000","NA","10573","7940","4480","NA","3000","2","legacy","1024","2","48000","-16","task","5226185","odd","NA","32062","44639","34064","52696","4860","17296","12815","53199","NA","52693","53199","52631","44639","56199","29546","23927","4816","51131","Lexical Decision Task","2","15311","7","yes","1024"
"3.311895072","0","9","gung","non-word","25","25","2013.25","2013.25","black","no","legacy","legacy","legacy","0","uniform","0","undefined","undefined","undefined","0","f","0","0","0","0","7","0","0","0","7","NA","3","7","3","0","3","3","7","0","7","Thu Feb 18 13:34:15 2021","The main experiment item","yes","Lexical_Decision_Task.osexp","/Users/sabaahmed","no","Andale Mono","no","18","no","white","no","yes","576","legacy","3","3","3","/Users/sabaahmed/subject-5226185LEXICAL.csv","legacy","Lentiform Loewenfeld","3.3.7","yes","yes","600bd7cfb6416f0113b04181","602110864497cf011d9c0822","0","j","NA","space","space","space","NA","j","795","NA","10573","7940","4480","NA","795","2","legacy","1024","2","48000","-16","task","5226185","odd","NA","32062","44639","34064","57765","4860","17296","12815","58270","NA","57763","58270","57703","44639","59066","29546","23927","4816","56202","Lexical Decision Task","2","16106","8","yes","1024"
"3.368162872","0","4","ferk","non-word","22.22222222222222","22.22222222222222","2122.8888888888887","2122.8888888888887","black","no","legacy","legacy","legacy","0","uniform","0","undefined","undefined","undefined","0","f","0","0","0","0","8","0","0","0","8","NA","4","8","4","0","4","3","8","0","8","Thu Feb 18 13:34:15 2021","The main experiment item","yes","Lexical_Decision_Task.osexp","/Users/sabaahmed","no","Andale Mono","no","18","no","white","no","yes","576","legacy","4","4","3","/Users/sabaahmed/subject-5226185LEXICAL.csv","legacy","Lentiform Loewenfeld","3.3.7","yes","yes","600bd7cfb6416f0113b04181","602110864497cf011d9c0822","0","None","NA","space","space","space","NA","None","3000","NA","10573","7940","4480","NA","3000","2","legacy","1024","2","48000","-16","task","5226185","odd","NA","32062","44639","34064","60634","4860","17296","12815","61139","NA","60631","61139","60569","44639","64139","29546","23927","4816","59069","Lexical Decision Task","2","19106","9","yes","1024"
"2.981215883","10.66","5","hair","word","30","30","1982.9","1982.9","black","no","legacy","legacy","legacy","0","uniform","1","undefined","undefined","undefined","1","j","0","0","0","0","9","0","0","0","9","NA","5","9","5","0","5","3","9","0","9","Thu Feb 18 13:34:15 2021","The main experiment item","yes","Lexical_Decision_Task.osexp","/Users/sabaahmed","no","Andale Mono","no","18","no","white","no","yes","576","legacy","5","5","3","/Users/sabaahmed/subject-5226185LEXICAL.csv","legacy","Lentiform Loewenfeld","3.3.7","yes","yes","600bd7cfb6416f0113b04181","602110864497cf011d9c0822","0","j","NA","space","space","space","NA","j","723","NA","10573","7940","4480","NA","723","2","legacy","1024","2","48000","-16","task","5226185","odd","NA","32062","44639","34064","65706","4860","17296","12815","66210","NA","65703","66210","65643","44639","66935","29546","23927","4816","64143","Lexical Decision Task","3","19829","10","yes","1024"
"3.274157849","0","8","leet","non-word","36.36363636363637","36.36363636363637","1918","1918","black","no","legacy","legacy","legacy","0","uniform","1","undefined","undefined","undefined","1","f","0","0","0","0","10","0","0","0","10","NA","6","10","6","0","6","3","10","0","10","Thu Feb 18 13:34:15 2021","The main experiment item","yes","Lexical_Decision_Task.osexp","/Users/sabaahmed","no","Andale Mono","no","18","no","white","no","yes","576","legacy","6","6","3","/Users/sabaahmed/subject-5226185LEXICAL.csv","legacy","Lentiform Loewenfeld","3.3.7","yes","yes","600bd7cfb6416f0113b04181","602110864497cf011d9c0822","0","f","NA","space","space","space","NA","f","1269","NA","10573","7940","4480","NA","1269","2","legacy","1024","2","48000","-16","task","5226185","odd","NA","32062","44639","34064","67499","4860","17296","12815","68002","NA","67496","68002","67439","44639","69272","29546","66938","4816","64143","Lexical Decision Task","4","21098","11","yes","1024"
"3.132473155","0","4","glim","non-word","33.333333333333336","33.333333333333336","1818.1666666666667","1818.1666666666667","black","no","legacy","legacy","legacy","0","uniform","0","undefined","undefined","undefined","0","f","0","0","0","0","11","0","0","0","11","NA","7","11","7","0","7","3","11","0","11","Thu Feb 18 13:34:15 2021","The main experiment item","yes","Lexical_Decision_Task.osexp","/Users/sabaahmed","no","Andale Mono","no","18","no","white","no","yes","576","legacy","7","7","3","/Users/sabaahmed/subject-5226185LEXICAL.csv","legacy","Lentiform Loewenfeld","3.3.7","yes","yes","600bd7cfb6416f0113b04181","602110864497cf011d9c0822","0","j","NA","space","space","space","NA","j","720","NA","10573","7940","4480","NA","720","2","legacy","1024","2","48000","-16","task","5226185","odd","NA","32062","44639","34064","69822","4860","17296","12815","70324","NA","69819","70324","69776","44639","71046","29546","69276","4816","64143","Lexical Decision Task","4","21818","12","yes","1024"
"3.119255889","6.63","2","itch","word","38.46153846153846","38.46153846153846","1775.6923076923076","1775.6923076923076","black","no","legacy","legacy","legacy","0","uniform","1","undefined","undefined","undefined","1","j","0","0","0","0","12","0","0","0","12","NA","8","12","8","0","8","3","12","0","12","Thu Feb 18 13:34:15 2021","The main experiment item","yes","Lexical_Decision_Task.osexp","/Users/sabaahmed","no","Andale Mono","no","18","no","white","no","yes","576","legacy","8","8","3","/Users/sabaahmed/subject-5226185LEXICAL.csv","legacy","Lentiform Loewenfeld","3.3.7","yes","yes","600bd7cfb6416f0113b04181","602110864497cf011d9c0822","0","j","NA","space","space","space","NA","j","1266","NA","10573","7940","4480","NA","1266","2","legacy","1024","2","48000","-16","task","5226185","odd","NA","32062","44639","34064","72610","4860","17296","12815","73115","NA","72608","73115","72549","44639","74382","29546","69276","4816","71049","Lexical Decision Task","5","23084","13","yes","1024"
"2.843025032","0","9","pusk","non-word","35.714285714285715","35.714285714285715","1682.857142857143","1682.857142857143","black","no","legacy","legacy","legacy","0","uniform","0","undefined","undefined","undefined","0","f","0","0","0","0","13","0","0","0","13","NA","9","13","9","0","9","3","13","0","13","Thu Feb 18 13:34:15 2021","The main experiment item","yes","Lexical_Decision_Task.osexp","/Users/sabaahmed","no","Andale Mono","no","18","no","white","no","yes","576","legacy","9","9","3","/Users/sabaahmed/subject-5226185LEXICAL.csv","legacy","Lentiform Loewenfeld","3.3.7","yes","yes","600bd7cfb6416f0113b04181","602110864497cf011d9c0822","0","j","NA","space","space","space","NA","j","476","NA","10573","7940","4480","NA","476","2","legacy","1024","2","48000","-16","task","5226185","odd","NA","32062","44639","34064","74948","4860","17296","12815","75451","NA","74945","75451","74886","44639","75929","29546","74385","4816","71049","Lexical Decision Task","5","23560","14","yes","1024"
"2.746890964","9.67","3","plug","word","40","40","1661.9333333333334","1661.9333333333334","black","no","legacy","legacy","legacy","0","uniform","1","undefined","undefined","undefined","1","j","0","0","0","0","14","0","0","0","14","NA","10","14","10","0","10","3","14","0","14","Thu Feb 18 13:34:15 2021","The main experiment item","yes","Lexical_Decision_Task.osexp","/Users/sabaahmed","no","Andale Mono","no","18","no","white","no","yes","576","legacy","10","10","3","/Users/sabaahmed/subject-5226185LEXICAL.csv","legacy","Lentiform Loewenfeld","3.3.7","yes","yes","600bd7cfb6416f0113b04181","602110864497cf011d9c0822","0","j","NA","space","space","space","NA","j","1369","NA","10573","7940","4480","NA","1369","2","legacy","1024","2","48000","-16","task","5226185","odd","NA","32062","44639","34064","77496","4860","17296","12815","77999","NA","77493","77999","77432","44639","79369","29546","74385","4816","75932","Lexical Decision Task","6","24929","15","yes","1024"
"2.695481676","0","7","goke","non-word","37.5","37.5","1658.125","1658.125","black","no","legacy","legacy","legacy","0","uniform","0","undefined","undefined","undefined","0","f","0","0","0","0","15","0","0","0","15","NA","11","15","11","0","11","3","15","0","15","Thu Feb 18 13:34:15 2021","The main experiment item","yes","Lexical_Decision_Task.osexp","/Users/sabaahmed","no","Andale Mono","no","18","no","white","no","yes","576","legacy","11","11","3","/Users/sabaahmed/subject-5226185LEXICAL.csv","legacy","Lentiform Loewenfeld","3.3.7","yes","yes","600bd7cfb6416f0113b04181","602110864497cf011d9c0822","0","j","NA","space","space","space","NA","j","1601","NA","10573","7940","4480","NA","1601","2","legacy","1024","2","48000","-16","task","5226185","odd","NA","32062","44639","34064","79937","4860","17296","12815","80441","NA","79934","80441","79873","44639","82043","29546","79372","4816","75932","Lexical Decision Task","6","26530","16","yes","1024"
"2.784379519","0","2","snaf","non-word","35.294117647058826","35.294117647058826","1629.7058823529412","1629.7058823529412","black","no","legacy","legacy","legacy","0","uniform","0","undefined","undefined","undefined","0","f","0","0","0","0","16","0","0","0","16","NA","12","16","12","0","12","3","16","0","16","Thu Feb 18 13:34:15 2021","The main experiment item","yes","Lexical_Decision_Task.osexp","/Users/sabaahmed","no","Andale Mono","no","18","no","white","no","yes","576","legacy","12","12","3","/Users/sabaahmed/subject-5226185LEXICAL.csv","legacy","Lentiform Loewenfeld","3.3.7","yes","yes","600bd7cfb6416f0113b04181","602110864497cf011d9c0822","0","j","NA","space","space","space","NA","j","1175","NA","10573","7940","4480","NA","1175","2","legacy","1024","2","48000","-16","task","5226185","odd","NA","32062","44639","34064","83616","4860","17296","12815","84119","NA","83612","84119","83546","44639","85295","29546","79372","4816","82046","Lexical Decision Task","6","27705","17","yes","1024"
"3.159867847","5.98","5","brim","word","38.888888888888886","38.888888888888886","1565.2222222222222","1565.2222222222222","black","no","legacy","legacy","legacy","0","uniform","1","undefined","undefined","undefined","1","j","0","0","0","0","17","0","0","0","17","NA","13","17","13","0","13","3","17","0","17","Thu Feb 18 13:34:15 2021","The main experiment item","yes","Lexical_Decision_Task.osexp","/Users/sabaahmed","no","Andale Mono","no","18","no","white","no","yes","576","legacy","13","13","3","/Users/sabaahmed/subject-5226185LEXICAL.csv","legacy","Lentiform Loewenfeld","3.3.7","yes","yes","600bd7cfb6416f0113b04181","602110864497cf011d9c0822","0","j","NA","space","space","space","NA","j","469","NA","10573","7940","4480","NA","469","2","legacy","1024","2","48000","-16","task","5226185","odd","NA","32062","44639","34064","86862","4860","17296","12815","87365","NA","86859","87365","86799","44639","87835","29546","79372","4816","85299","Lexical Decision Task","7","28174","18","yes","1024"
"2.924968096","0","4","phim","non-word","36.8421052631579","36.8421052631579","1508.2105263157894","1508.2105263157894","black","no","legacy","legacy","legacy","0","uniform","0","undefined","undefined","undefined","0","f","0","0","0","0","18","0","0","0","18","NA","14","18","14","0","14","3","18","0","18","Thu Feb 18 13:34:15 2021","The main experiment item","yes","Lexical_Decision_Task.osexp","/Users/sabaahmed","no","Andale Mono","no","18","no","white","no","yes","576","legacy","14","14","3","/Users/sabaahmed/subject-5226185LEXICAL.csv","legacy","Lentiform Loewenfeld","3.3.7","yes","yes","600bd7cfb6416f0113b04181","602110864497cf011d9c0822","0","j","NA","space","space","space","NA","j","482","NA","10573","7940","4480","NA","482","2","legacy","1024","2","48000","-16","task","5226185","odd","NA","32062","44639","34064","88399","4860","17296","12815","88901","NA","88397","88901","88339","44639","89384","29546","87839","4816","85299","Lexical Decision Task","7","28656","19","yes","1024"
"3.347850856","10.51","2","rich","word","40","40","1447.5","1447.5","black","no","legacy","legacy","legacy","0","uniform","1","undefined","undefined","undefined","1","j","0","0","0","0","19","0","0","0","19","NA","15","19","15","0","15","3","19","0","19","Thu Feb 18 13:34:15 2021","The main experiment item","yes","Lexical_Decision_Task.osexp","/Users/sabaahmed","no","Andale Mono","no","18","no","white","no","yes","576","legacy","15","15","3","/Users/sabaahmed/subject-5226185LEXICAL.csv","legacy","Lentiform Loewenfeld","3.3.7","yes","yes","600bd7cfb6416f0113b04181","602110864497cf011d9c0822","0","j","NA","space","space","space","NA","j","294","NA","10573","7940","4480","NA","294","2","legacy","1024","2","48000","-16","task","5226185","odd","NA","32062","44639","34064","90953","4860","17296","12815","91456","NA","90950","91456","90888","44639","91751","29546","87839","4816","89388","Lexical Decision Task","8","28950","20","yes","1024"
"2.972357144","0","5","dasp","non-word","38.095238095238095","38.095238095238095","1408.7619047619048","1408.7619047619048","black","no","legacy","legacy","legacy","0","uniform","0","undefined","undefined","undefined","0","f","0","0","0","0","20","0","0","0","20","NA","16","20","16","0","16","3","20","0","20","Thu Feb 18 13:34:15 2021","The main experiment item","yes","Lexical_Decision_Task.osexp","/Users/sabaahmed","no","Andale Mono","no","18","no","white","no","yes","576","legacy","16","16","3","/Users/sabaahmed/subject-5226185LEXICAL.csv","legacy","Lentiform Loewenfeld","3.3.7","yes","yes","600bd7cfb6416f0113b04181","602110864497cf011d9c0822","0","j","NA","space","space","space","NA","j","634","NA","10573","7940","4480","NA","634","2","legacy","1024","2","48000","-16","task","5226185","odd","NA","32062","44639","34064","92319","4860","17296","12815","92822","NA","92316","92822","92256","44639","93457","29546","91756","4816","89388","Lexical Decision Task","8","29584","21","yes","1024"
"3.153001286","8.7","5","palm","word","40.90909090909091","40.90909090909091","1395.5","1395.5","black","no","legacy","legacy","legacy","0","uniform","1","undefined","undefined","undefined","1","j","0","0","0","0","21","0","0","0","21","NA","17","21","17","0","17","3","21","0","21","Thu Feb 18 13:34:15 2021","The main experiment item","yes","Lexical_Decision_Task.osexp","/Users/sabaahmed","no","Andale Mono","no","18","no","white","no","yes","576","legacy","17","17","3","/Users/sabaahmed/subject-5226185LEXICAL.csv","legacy","Lentiform Loewenfeld","3.3.7","yes","yes","600bd7cfb6416f0113b04181","602110864497cf011d9c0822","0","j","NA","space","space","space","NA","j","1117","NA","10573","7940","4480","NA","1117","2","legacy","1024","2","48000","-16","task","5226185","odd","NA","32062","44639","34064","95027","4860","17296","12815","95529","NA","95025","95529","94961","44639","96647","29546","91756","4816","93461","Lexical Decision Task","9","30701","22","yes","1024"
"3.208978517","10.33","4","fish","word","43.47826086956522","43.47826086956522","1364.9130434782608","1364.9130434782608","black","no","legacy","legacy","legacy","0","uniform","1","undefined","undefined","undefined","1","j","0","0","0","0","22","0","0","0","22","NA","18","22","18","0","18","3","22","0","22","Thu Feb 18 13:34:15 2021","The main experiment item","yes","Lexical_Decision_Task.osexp","/Users/sabaahmed","no","Andale Mono","no","18","no","white","no","yes","576","legacy","18","18","3","/Users/sabaahmed/subject-5226185LEXICAL.csv","legacy","Lentiform Loewenfeld","3.3.7","yes","yes","600bd7cfb6416f0113b04181","602110864497cf011d9c0822","0","j","NA","space","space","space","NA","j","692","NA","10573","7940","4480","NA","692","2","legacy","1024","2","48000","-16","task","5226185","odd","NA","32062","44639","34064","97213","4860","17296","12815","97716","NA","97211","97716","97152","44639","98409","29546","96651","4816","93461","Lexical Decision Task","10","31393","23","yes","1024"
"2.6599162","0","2","saff","non-word","41.666666666666664","41.666666666666664","1433.0416666666667","1433.0416666666667","black","no","legacy","legacy","legacy","0","uniform","0","undefined","undefined","undefined","0","f","0","0","0","0","23","0","0","0","23","NA","19","23","19","0","19","3","23","0","23","Thu Feb 18 13:34:15 2021","The main experiment item","yes","Lexical_Decision_Task.osexp","/Users/sabaahmed","no","Andale Mono","no","18","no","white","no","yes","576","legacy","19","19","3","/Users/sabaahmed/subject-5226185LEXICAL.csv","legacy","Lentiform Loewenfeld","3.3.7","yes","yes","600bd7cfb6416f0113b04181","602110864497cf011d9c0822","0","None","NA","space","space","space","NA","None","3000","NA","10573","7940","4480","NA","3000","2","legacy","1024","2","48000","-16","task","5226185","odd","NA","32062","44639","34064","98975","4860","17296","12815","99478","NA","98972","99478","98912","44639","102478","29546","98412","4816","93461","Lexical Decision Task","10","34393","24","yes","1024"
"3.20996159","0","4","clee","non-word","40","40","1495.72","1495.72","black","no","legacy","legacy","legacy","0","uniform","0","undefined","undefined","undefined","0","f","0","0","0","0","24","0","0","0","24","NA","20","24","20","0","20","3","24","0","24","Thu Feb 18 13:34:15 2021","The main experiment item","yes","Lexical_Decision_Task.osexp","/Users/sabaahmed","no","Andale Mono","no","18","no","white","no","yes","576","legacy","20","20","3","/Users/sabaahmed/subject-5226185LEXICAL.csv","legacy","Lentiform Loewenfeld","3.3.7","yes","yes","600bd7cfb6416f0113b04181","602110864497cf011d9c0822","0","None","NA","space","space","space","NA","None","3000","NA","10573","7940","4480","NA","3000","2","legacy","1024","2","48000","-16","task","5226185","odd","NA","32062","44639","34064","104044","4860","17296","12815","104546","NA","104042","104547","103981","44639","107547","29546","98412","4816","102481","Lexical Decision Task","10","37393","25","yes","1024"
"2.771097306","0","9","jold","non-word","38.46153846153846","38.46153846153846","1471.076923076923","1471.076923076923","black","no","legacy","legacy","legacy","0","uniform","0","undefined","undefined","undefined","0","f","0","0","0","0","25","0","0","0","25","NA","21","25","21","0","21","3","25","0","25","Thu Feb 18 13:34:15 2021","The main experiment item","yes","Lexical_Decision_Task.osexp","/Users/sabaahmed","no","Andale Mono","no","18","no","white","no","yes","576","legacy","21","21","3","/Users/sabaahmed/subject-5226185LEXICAL.csv","legacy","Lentiform Loewenfeld","3.3.7","yes","yes","600bd7cfb6416f0113b04181","602110864497cf011d9c0822","0","j","NA","space","space","space","NA","j","855","NA","10573","7940","4480","NA","855","2","legacy","1024","2","48000","-16","task","5226185","odd","NA","32062","44639","34064","109116","4860","17296","12815","109621","NA","109112","109621","109050","44639","110477","29546","98412","4816","107550","Lexical Decision Task","10","38248","26","yes","1024"
"3.094121596","0","8","fode","non-word","37.03703703703704","37.03703703703704","1527.7037037037037","1527.7037037037037","black","no","legacy","legacy","legacy","0","uniform","0","undefined","undefined","undefined","0","f","0","0","0","0","26","0","0","0","26","NA","22","26","22","0","22","3","26","0","26","Thu Feb 18 13:34:15 2021","The main experiment item","yes","Lexical_Decision_Task.osexp","/Users/sabaahmed","no","Andale Mono","no","18","no","white","no","yes","576","legacy","22","22","3","/Users/sabaahmed/subject-5226185LEXICAL.csv","legacy","Lentiform Loewenfeld","3.3.7","yes","yes","600bd7cfb6416f0113b04181","602110864497cf011d9c0822","0","None","NA","space","space","space","NA","None","3000","NA","10573","7940","4480","NA","3000","2","legacy","1024","2","48000","-16","task","5226185","odd","NA","32062","44639","34064","112046","4860","17296","12815","112550","NA","112043","112550","111981","44639","115550","29546","98412","4816","110481","Lexical Decision Task","10","41248","27","yes","1024"
"3.492014979","0","9","yine","non-word","39.285714285714285","39.285714285714285","1527.6785714285713","1527.6785714285713","black","no","legacy","legacy","legacy","0","uniform","1","undefined","undefined","undefined","1","f","0","0","0","0","27","0","0","0","27","NA","23","27","23","0","23","3","27","0","27","Thu Feb 18 13:34:15 2021","The main experiment item","yes","Lexical_Decision_Task.osexp","/Users/sabaahmed","no","Andale Mono","no","18","no","white","no","yes","576","legacy","23","23","3","/Users/sabaahmed/subject-5226185LEXICAL.csv","legacy","Lentiform Loewenfeld","3.3.7","yes","yes","600bd7cfb6416f0113b04181","602110864497cf011d9c0822","0","f","NA","space","space","space","NA","f","1527","NA","10573","7940","4480","NA","1527","2","legacy","1024","2","48000","-16","task","5226185","odd","NA","32062","44639","34064","117120","4860","17296","12815","117624","NA","117116","117624","117054","44639","119153","29546","98412","4816","115554","Lexical Decision Task","11","42775","28","yes","1024"
"2.937852093","0","7","bamp","non-word","41.37931034482759","41.37931034482759","1506.551724137931","1506.551724137931","black","no","legacy","legacy","legacy","0","uniform","1","undefined","undefined","undefined","1","f","0","0","0","0","28","0","0","0","28","NA","24","28","24","0","24","3","28","0","28","Thu Feb 18 13:34:15 2021","The main experiment item","yes","Lexical_Decision_Task.osexp","/Users/sabaahmed","no","Andale Mono","no","18","no","white","no","yes","576","legacy","24","24","3","/Users/sabaahmed/subject-5226185LEXICAL.csv","legacy","Lentiform Loewenfeld","3.3.7","yes","yes","600bd7cfb6416f0113b04181","602110864497cf011d9c0822","0","f","NA","space","space","space","NA","f","915","NA","10573","7940","4480","NA","915","2","legacy","1024","2","48000","-16","task","5226185","odd","NA","32062","44639","34064","119717","4860","17296","12815","120220","NA","119715","120220","119656","44639","121136","29546","119156","4816","115554","Lexical Decision Task","12","43690","29","yes","1024"
"3.067070856","9.39","3","loud","word","43.333333333333336","43.333333333333336","1476.5","1476.5","black","no","legacy","legacy","legacy","0","uniform","1","undefined","undefined","undefined","1","j","0","0","0","0","29","0","0","0","29","NA","25","29","25","0","25","3","29","0","29","Thu Feb 18 13:34:15 2021","The main experiment item","yes","Lexical_Decision_Task.osexp","/Users/sabaahmed","no","Andale Mono","no","18","no","white","no","yes","576","legacy","25","25","3","/Users/sabaahmed/subject-5226185LEXICAL.csv","legacy","Lentiform Loewenfeld","3.3.7","yes","yes","600bd7cfb6416f0113b04181","602110864497cf011d9c0822","0","j","NA","space","space","space","NA","j","605","NA","10573","7940","4480","NA","605","2","legacy","1024","2","48000","-16","task","5226185","odd","NA","32062","44639","34064","121701","4860","17296","12815","122204","NA","121698","122204","121640","44639","122810","29546","121140","4816","115554","Lexical Decision Task","13","44295","30","yes","1024"
"2.8162413","0","5","nusk","non-word","45.16129032258065","45.16129032258065","1461.8709677419354","1461.8709677419354","black","no","legacy","legacy","legacy","0","uniform","1","undefined","undefined","undefined","1","f","0","0","0","0","30","0","0","0","30","NA","26","30","26","0","26","3","30","0","30","Thu Feb 18 13:34:15 2021","The main experiment item","yes","Lexical_Decision_Task.osexp","/Users/sabaahmed","no","Andale Mono","no","18","no","white","no","yes","576","legacy","26","26","3","/Users/sabaahmed/subject-5226185LEXICAL.csv","legacy","Lentiform Loewenfeld","3.3.7","yes","yes","600bd7cfb6416f0113b04181","602110864497cf011d9c0822","0","f","NA","space","space","space","NA","f","1023","NA","10573","7940","4480","NA","1023","2","legacy","1024","2","48000","-16","task","5226185","odd","NA","32062","44639","34064","123376","4860","17296","12815","123878","NA","123373","123878","123314","44639","124903","29546","122814","4816","115554","Lexical Decision Task","14","45318","31","yes","1024"
"3.495914186","0","4","peng","non-word","46.875","46.875","1441.03125","1441.03125","black","no","legacy","legacy","legacy","0","uniform","1","undefined","undefined","undefined","1","f","0","0","0","0","31","0","0","0","31","NA","27","31","27","0","27","3","31","0","31","Thu Feb 18 13:34:15 2021","The main experiment item","yes","Lexical_Decision_Task.osexp","/Users/sabaahmed","no","Andale Mono","no","18","no","white","no","yes","576","legacy","27","27","3","/Users/sabaahmed/subject-5226185LEXICAL.csv","legacy","Lentiform Loewenfeld","3.3.7","yes","yes","600bd7cfb6416f0113b04181","602110864497cf011d9c0822","0","f","NA","space","space","space","NA","f","795","NA","10573","7940","4480","NA","795","2","legacy","1024","2","48000","-16","task","5226185","odd","NA","32062","44639","34064","125467","4860","17296","12815","125969","NA","125464","125969","125407","44639","126765","29546","124906","4816","115554","Lexical Decision Task","15","46113","32","yes","1024"
"3.064581521","5.51","6","cask","word","45.45454545454545","45.45454545454545","1421.878787878788","1421.878787878788","black","no","legacy","legacy","legacy","0","uniform","0","undefined","undefined","undefined","0","j","0","0","0","0","32","0","0","0","32","NA","28","32","28","0","28","3","32","0","32","Thu Feb 18 13:34:15 2021","The main experiment item","yes","Lexical_Decision_Task.osexp","/Users/sabaahmed","no","Andale Mono","no","18","no","white","no","yes","576","legacy","28","28","3","/Users/sabaahmed/subject-5226185LEXICAL.csv","legacy","Lentiform Loewenfeld","3.3.7","yes","yes","600bd7cfb6416f0113b04181","602110864497cf011d9c0822","0","f","NA","space","space","space","NA","f","809","NA","10573","7940","4480","NA","809","2","legacy","1024","2","48000","-16","task","5226185","odd","NA","32062","44639","34064","127329","4860","17296","12815","127832","NA","127326","127832","127270","44639","128642","29546","126770","4816","115554","Lexical Decision Task","15","46922","33","yes","1024"
"2.979548375","8.71","4","soup","word","47.05882352941177","47.05882352941177","1398.4705882352941","1398.4705882352941","black","no","legacy","legacy","legacy","0","uniform","1","undefined","undefined","undefined","1","j","0","0","0","0","33","0","0","0","33","NA","29","33","29","0","29","3","33","0","33","Thu Feb 18 13:34:15 2021","The main experiment item","yes","Lexical_Decision_Task.osexp","/Users/sabaahmed","no","Andale Mono","no","18","no","white","no","yes","576","legacy","29","29","3","/Users/sabaahmed/subject-5226185LEXICAL.csv","legacy","Lentiform Loewenfeld","3.3.7","yes","yes","600bd7cfb6416f0113b04181","602110864497cf011d9c0822","0","j","NA","space","space","space","NA","j","626","NA","10573","7940","4480","NA","626","2","legacy","1024","2","48000","-16","task","5226185","odd","NA","32062","44639","34064","130209","4860","17296","12815","130712","NA","130207","130712","130146","44639","131339","29546","126770","4816","128646","Lexical Decision Task","16","47548","34","yes","1024"
"3.137775856","7.39","5","comb","word","45.714285714285715","45.714285714285715","1383.5142857142857","1383.5142857142857","black","no","legacy","legacy","legacy","0","uniform","0","undefined","undefined","undefined","0","j","0","0","0","0","34","0","0","0","34","NA","30","34","30","0","30","3","34","0","34","Thu Feb 18 13:34:15 2021","The main experiment item","yes","Lexical_Decision_Task.osexp","/Users/sabaahmed","no","Andale Mono","no","18","no","white","no","yes","576","legacy","30","30","3","/Users/sabaahmed/subject-5226185LEXICAL.csv","legacy","Lentiform Loewenfeld","3.3.7","yes","yes","600bd7cfb6416f0113b04181","602110864497cf011d9c0822","0","f","NA","space","space","space","NA","f","875","NA","10573","7940","4480","NA","875","2","legacy","1024","2","48000","-16","task","5226185","odd","NA","32062","44639","34064","131903","4860","17296","12815","132406","NA","131900","132406","131843","44639","133282","29546","131343","4816","128646","Lexical Decision Task","16","48423","35","yes","1024"
"3.043885998","0","9","gome","non-word","47.22222222222222","47.22222222222222","1383.138888888889","1383.138888888889","black","no","legacy","legacy","legacy","0","uniform","1","undefined","undefined","undefined","1","f","0","0","0","0","35","0","0","0","35","NA","31","35","31","0","31","3","35","0","35","Thu Feb 18 13:34:15 2021","The main experiment item","yes","Lexical_Decision_Task.osexp","/Users/sabaahmed","no","Andale Mono","no","18","no","white","no","yes","576","legacy","31","31","3","/Users/sabaahmed/subject-5226185LEXICAL.csv","legacy","Lentiform Loewenfeld","3.3.7","yes","yes","600bd7cfb6416f0113b04181","602110864497cf011d9c0822","0","f","NA","space","space","space","NA","f","1370","NA","10573","7940","4480","NA","1370","2","legacy","1024","2","48000","-16","task","5226185","odd","NA","32062","44639","34064","134848","4860","17296","12815","135351","NA","134846","135351","134786","44639","136723","29546","131343","4816","133286","Lexical Decision Task","17","49793","36","yes","1024"
"2.696356389","0","1","pizz","non-word","45.945945945945944","45.945945945945944","1368.8918918918919","1368.8918918918919","black","no","legacy","legacy","legacy","0","uniform","0","undefined","undefined","undefined","0","f","0","0","0","0","36","0","0","0","36","NA","32","36","32","0","32","3","36","0","36","Thu Feb 18 13:34:15 2021","The main experiment item","yes","Lexical_Decision_Task.osexp","/Users/sabaahmed","no","Andale Mono","no","18","no","white","no","yes","576","legacy","32","32","3","/Users/sabaahmed/subject-5226185LEXICAL.csv","legacy","Lentiform Loewenfeld","3.3.7","yes","yes","600bd7cfb6416f0113b04181","602110864497cf011d9c0822","0","j","NA","space","space","space","NA","j","856","NA","10573","7940","4480","NA","856","2","legacy","1024","2","48000","-16","task","5226185","odd","NA","32062","44639","34064","137284","4860","17296","12815","137786","NA","137282","137787","137226","44639","138644","29546","136726","4816","133286","Lexical Decision Task","17","50649","37","yes","1024"
"2.713490543","0","3","feps","non-word","47.36842105263158","47.36842105263158","1361","1361","black","no","legacy","legacy","legacy","0","uniform","1","undefined","undefined","undefined","1","f","0","0","0","0","37","0","0","0","37","NA","33","37","33","0","33","3","37","0","37","Thu Feb 18 13:34:15 2021","The main experiment item","yes","Lexical_Decision_Task.osexp","/Users/sabaahmed","no","Andale Mono","no","18","no","white","no","yes","576","legacy","33","33","3","/Users/sabaahmed/subject-5226185LEXICAL.csv","legacy","Lentiform Loewenfeld","3.3.7","yes","yes","600bd7cfb6416f0113b04181","602110864497cf011d9c0822","0","f","NA","space","space","space","NA","f","1069","NA","10573","7940","4480","NA","1069","2","legacy","1024","2","48000","-16","task","5226185","odd","NA","32062","44639","34064","140209","4860","17296","12815","140712","NA","140207","140712","140147","44639","141782","29546","136726","4816","138647","Lexical Decision Task","18","51718","38","yes","1024"
"2.821076612","0","4","lult","non-word","48.717948717948715","48.717948717948715","1339.5128205128206","1339.5128205128206","black","no","legacy","legacy","legacy","0","uniform","1","undefined","undefined","undefined","1","f","0","0","0","0","38","0","0","0","38","NA","34","38","34","0","34","3","38","0","38","Thu Feb 18 13:34:15 2021","The main experiment item","yes","Lexical_Decision_Task.osexp","/Users/sabaahmed","no","Andale Mono","no","18","no","white","no","yes","576","legacy","34","34","3","/Users/sabaahmed/subject-5226185LEXICAL.csv","legacy","Lentiform Loewenfeld","3.3.7","yes","yes","600bd7cfb6416f0113b04181","602110864497cf011d9c0822","0","f","NA","space","space","space","NA","f","523","NA","10573","7940","4480","NA","523","2","legacy","1024","2","48000","-16","task","5226185","odd","NA","32062","44639","34064","142348","4860","17296","12815","142850","NA","142345","142851","142286","44639","143375","29546","141786","4816","138647","Lexical Decision Task","19","52241","39","yes","1024"
"3.133964479","0","8","graw","non-word","50","50","1331.9","1331.9","black","no","legacy","legacy","legacy","0","uniform","1","undefined","undefined","undefined","1","f","0","0","0","0","39","0","0","0","39","NA","35","39","35","0","35","3","39","0","39","Thu Feb 18 13:34:15 2021","The main experiment item","yes","Lexical_Decision_Task.osexp","/Users/sabaahmed","no","Andale Mono","no","18","no","white","no","yes","576","legacy","35","35","3","/Users/sabaahmed/subject-5226185LEXICAL.csv","legacy","Lentiform Loewenfeld","3.3.7","yes","yes","600bd7cfb6416f0113b04181","602110864497cf011d9c0822","0","f","NA","space","space","space","NA","f","1035","NA","10573","7940","4480","NA","1035","2","legacy","1024","2","48000","-16","task","5226185","odd","NA","32062","44639","34064","143941","4860","17296","12815","144444","NA","143938","144444","143879","44639","145481","29546","143379","4816","138647","Lexical Decision Task","20","53276","40","yes","1024"
"2.899092422","7.27","6","snag","word","48.78048780487805","48.78048780487805","1321.8536585365853","1321.8536585365853","black","no","legacy","legacy","legacy","0","uniform","0","undefined","undefined","undefined","0","j","0","0","0","0","40","0","0","0","40","NA","36","40","36","0","36","3","40","0","40","Thu Feb 18 13:34:15 2021","The main experiment item","yes","Lexical_Decision_Task.osexp","/Users/sabaahmed","no","Andale Mono","no","18","no","white","no","yes","576","legacy","36","36","3","/Users/sabaahmed/subject-5226185LEXICAL.csv","legacy","Lentiform Loewenfeld","3.3.7","yes","yes","600bd7cfb6416f0113b04181","602110864497cf011d9c0822","0","f","NA","space","space","space","NA","f","920","NA","10573","7940","4480","NA","920","2","legacy","1024","2","48000","-16","task","5226185","odd","NA","32062","44639","34064","146048","4860","17296","12815","146550","NA","146045","146551","145985","44639","147472","29546","145485","4816","138647","Lexical Decision Task","20","54196","41","yes","1024"
"3.248054965","7.86","5","glow","word","50","50","1307.8333333333333","1307.8333333333333","black","no","legacy","legacy","legacy","0","uniform","1","undefined","undefined","undefined","1","j","0","0","0","0","41","0","0","0","41","NA","37","41","37","0","37","3","41","0","41","Thu Feb 18 13:34:15 2021","The main experiment item","yes","Lexical_Decision_Task.osexp","/Users/sabaahmed","no","Andale Mono","no","18","no","white","no","yes","576","legacy","37","37","3","/Users/sabaahmed/subject-5226185LEXICAL.csv","legacy","Lentiform Loewenfeld","3.3.7","yes","yes","600bd7cfb6416f0113b04181","602110864497cf011d9c0822","0","j","NA","space","space","space","NA","j","733","NA","10573","7940","4480","NA","733","2","legacy","1024","2","48000","-16","task","5226185","odd","NA","32062","44639","34064","149040","4860","17296","12815","149543","NA","149037","149543","148976","44639","150277","29546","145485","4816","147476","Lexical Decision Task","21","54929","42","yes","1024"
"2.755364069","7.72","2","hoax","word","51.16279069767442","51.16279069767442","1293.9767441860465","1293.9767441860465","black","no","legacy","legacy","legacy","0","uniform","1","undefined","undefined","undefined","1","j","0","0","0","0","42","0","0","0","42","NA","38","42","38","0","38","3","42","0","42","Thu Feb 18 13:34:15 2021","The main experiment item","yes","Lexical_Decision_Task.osexp","/Users/sabaahmed","no","Andale Mono","no","18","no","white","no","yes","576","legacy","38","38","3","/Users/sabaahmed/subject-5226185LEXICAL.csv","legacy","Lentiform Loewenfeld","3.3.7","yes","yes","600bd7cfb6416f0113b04181","602110864497cf011d9c0822","0","j","NA","space","space","space","NA","j","712","NA","10573","7940","4480","NA","712","2","legacy","1024","2","48000","-16","task","5226185","odd","NA","32062","44639","34064","150844","4860","17296","12815","151347","NA","150842","151347","150781","44639","152060","29546","150281","4816","147476","Lexical Decision Task","22","55641","43","yes","1024"
"2.813801082","5.47","7","nook","word","52.27272727272727","52.27272727272727","1288.4545454545455","1288.4545454545455","black","no","legacy","legacy","legacy","0","uniform","1","undefined","undefined","undefined","1","j","0","0","0","0","43","0","0","0","43","NA","39","43","39","0","39","3","43","0","43","Thu Feb 18 13:34:15 2021","The main experiment item","yes","Lexical_Decision_Task.osexp","/Users/sabaahmed","no","Andale Mono","no","18","no","white","no","yes","576","legacy","39","39","3","/Users/sabaahmed/subject-5226185LEXICAL.csv","legacy","Lentiform Loewenfeld","3.3.7","yes","yes","600bd7cfb6416f0113b04181","602110864497cf011d9c0822","0","j","NA","space","space","space","NA","j","1051","NA","10573","7940","4480","NA","1051","2","legacy","1024","2","48000","-16","task","5226185","odd","NA","32062","44639","34064","152625","4860","17296","12815","153127","NA","152622","153127","152564","44639","154180","29546","152063","4816","147476","Lexical Decision Task","23","56692","44","yes","1024"
"2.68604012","0","3","mulb","non-word","53.333333333333336","53.333333333333336","1275.6222222222223","1275.6222222222223","black","no","legacy","legacy","legacy","0","uniform","1","undefined","undefined","undefined","1","f","0","0","0","0","44","0","0","0","44","NA","40","44","40","0","40","3","44","0","44","Thu Feb 18 13:34:15 2021","The main experiment item","yes","Lexical_Decision_Task.osexp","/Users/sabaahmed","no","Andale Mono","no","18","no","white","no","yes","576","legacy","40","40","3","/Users/sabaahmed/subject-5226185LEXICAL.csv","legacy","Lentiform Loewenfeld","3.3.7","yes","yes","600bd7cfb6416f0113b04181","602110864497cf011d9c0822","0","f","NA","space","space","space","NA","f","711","NA","10573","7940","4480","NA","711","2","legacy","1024","2","48000","-16","task","5226185","odd","NA","32062","44639","34064","154743","4860","17296","12815","155245","NA","154740","155245","154683","44639","155957","29546","154183","4816","147476","Lexical Decision Task","24","57403","45","yes","1024"
"2.95456409","0","4","taud","non-word","54.34782608695652","54.34782608695652","1262.4347826086957","1262.4347826086957","black","no","legacy","legacy","legacy","0","uniform","1","undefined","undefined","undefined","1","f","0","0","0","0","45","0","0","0","45","NA","41","45","41","0","41","3","45","0","45","Thu Feb 18 13:34:15 2021","The main experiment item","yes","Lexical_Decision_Task.osexp","/Users/sabaahmed","no","Andale Mono","no","18","no","white","no","yes","576","legacy","41","41","3","/Users/sabaahmed/subject-5226185LEXICAL.csv","legacy","Lentiform Loewenfeld","3.3.7","yes","yes","600bd7cfb6416f0113b04181","602110864497cf011d9c0822","0","f","NA","space","space","space","NA","f","669","NA","10573","7940","4480","NA","669","2","legacy","1024","2","48000","-16","task","5226185","odd","NA","32062","44639","34064","156522","4860","17296","12815","157025","NA","156519","157025","156461","44639","157695","29546","155961","4816","147476","Lexical Decision Task","25","58072","46","yes","1024"
"3.145920145","8.51","8","flew","word","55.319148936170215","55.319148936170215","1263.8085106382978","1263.8085106382978","black","no","legacy","legacy","legacy","0","uniform","1","undefined","undefined","undefined","1","j","0","0","0","0","46","0","0","0","46","NA","42","46","42","0","42","3","46","0","46","Thu Feb 18 13:34:15 2021","The main experiment item","yes","Lexical_Decision_Task.osexp","/Users/sabaahmed","no","Andale Mono","no","18","no","white","no","yes","576","legacy","42","42","3","/Users/sabaahmed/subject-5226185LEXICAL.csv","legacy","Lentiform Loewenfeld","3.3.7","yes","yes","600bd7cfb6416f0113b04181","602110864497cf011d9c0822","0","j","NA","space","space","space","NA","j","1327","NA","10573","7940","4480","NA","1327","2","legacy","1024","2","48000","-16","task","5226185","odd","NA","32062","44639","34064","158256","4860","17296","12815","158759","NA","158254","158759","158198","44639","160088","29546","157698","4816","147476","Lexical Decision Task","26","59399","47","yes","1024"
"2.996511672","0","7","hoil","non-word","56.25","56.25","1262.75","1262.75","black","no","legacy","legacy","legacy","0","uniform","1","undefined","undefined","undefined","1","f","0","0","0","0","47","0","0","0","47","NA","43","47","43","0","43","3","47","0","47","Thu Feb 18 13:34:15 2021","The main experiment item","yes","Lexical_Decision_Task.osexp","/Users/sabaahmed","no","Andale Mono","no","18","no","white","no","yes","576","legacy","43","43","3","/Users/sabaahmed/subject-5226185LEXICAL.csv","legacy","Lentiform Loewenfeld","3.3.7","yes","yes","600bd7cfb6416f0113b04181","602110864497cf011d9c0822","0","f","NA","space","space","space","NA","f","1213","NA","10573","7940","4480","NA","1213","2","legacy","1024","2","48000","-16","task","5226185","odd","NA","32062","44639","34064","160648","4860","17296","12815","161150","NA","160646","161150","160591","44639","162364","29546","160091","4816","147476","Lexical Decision Task","27","60612","48","yes","1024"
"3.382617311","0","4","pret","non-word","57.142857142857146","57.142857142857146","1253.4489795918366","1253.4489795918366","black","no","legacy","legacy","legacy","0","uniform","1","undefined","undefined","undefined","1","f","0","0","0","0","48","0","0","0","48","NA","44","48","44","0","44","3","48","0","48","Thu Feb 18 13:34:15 2021","The main experiment item","yes","Lexical_Decision_Task.osexp","/Users/sabaahmed","no","Andale Mono","no","18","no","white","no","yes","576","legacy","44","44","3","/Users/sabaahmed/subject-5226185LEXICAL.csv","legacy","Lentiform Loewenfeld","3.3.7","yes","yes","600bd7cfb6416f0113b04181","602110864497cf011d9c0822","0","f","NA","space","space","space","NA","f","807","NA","10573","7940","4480","NA","807","2","legacy","1024","2","48000","-16","task","5226185","odd","NA","32062","44639","34064","162926","4860","17296","12815","163429","NA","162923","163429","162868","44639","164237","29546","162368","4816","147476","Lexical Decision Task","28","61419","49","yes","1024"
"3.194328374","9.42","6","harm","word","58","58","1240.58","1240.58","black","no","legacy","legacy","legacy","0","uniform","1","undefined","undefined","undefined","1","j","0","0","0","0","49","0","0","0","49","NA","45","49","45","0","45","3","49","0","49","Thu Feb 18 13:34:15 2021","The main experiment item","yes","Lexical_Decision_Task.osexp","/Users/sabaahmed","no","Andale Mono","no","18","no","white","no","yes","576","legacy","45","45","3","/Users/sabaahmed/subject-5226185LEXICAL.csv","legacy","Lentiform Loewenfeld","3.3.7","yes","yes","600bd7cfb6416f0113b04181","602110864497cf011d9c0822","0","j","NA","space","space","space","NA","j","610","NA","10573","7940","4480","NA","610","2","legacy","1024","2","48000","-16","task","5226185","odd","NA","32062","44639","34064","164802","4860","17296","12815","165304","NA","164800","165305","164740","44639","165917","29546","164240","4816","147476","Lexical Decision Task","29","62029","50","yes","1024"
"2.728085817","10.02","9","bike","word","58.8235294117647","58.8235294117647","1229.2156862745098","1229.2156862745098","black","no","legacy","legacy","legacy","0","uniform","1","undefined","undefined","undefined","1","j","0","0","0","0","50","0","0","0","50","NA","46","50","46","0","46","3","50","0","50","Thu Feb 18 13:34:15 2021","The main experiment item","yes","Lexical_Decision_Task.osexp","/Users/sabaahmed","no","Andale Mono","no","18","no","white","no","yes","576","legacy","46","46","3","/Users/sabaahmed/subject-5226185LEXICAL.csv","legacy","Lentiform Loewenfeld","3.3.7","yes","yes","600bd7cfb6416f0113b04181","602110864497cf011d9c0822","0","j","NA","space","space","space","NA","j","661","NA","10573","7940","4480","NA","661","2","legacy","1024","2","48000","-16","task","5226185","odd","NA","32062","44639","34064","166480","4860","17296","12815","166983","NA","166477","166983","166420","44639","167646","29546","165920","4816","147476","Lexical Decision Task","30","62690","51","yes","1024"
"2.664328519","0","4","plux","non-word","59.61538461538461","59.61538461538461","1218.75","1218.75","black","no","legacy","legacy","legacy","0","uniform","1","undefined","undefined","undefined","1","f","0","0","0","0","51","0","0","0","51","NA","47","51","47","0","47","3","51","0","51","Thu Feb 18 13:34:15 2021","The main experiment item","yes","Lexical_Decision_Task.osexp","/Users/sabaahmed","no","Andale Mono","no","18","no","white","no","yes","576","legacy","47","47","3","/Users/sabaahmed/subject-5226185LEXICAL.csv","legacy","Lentiform Loewenfeld","3.3.7","yes","yes","600bd7cfb6416f0113b04181","602110864497cf011d9c0822","0","f","NA","space","space","space","NA","f","685","NA","10573","7940","4480","NA","685","2","legacy","1024","2","48000","-16","task","5226185","odd","NA","32062","44639","34064","168207","4860","17296","12815","168710","NA","168205","168710","168149","44639","169396","29546","167649","4816","147476","Lexical Decision Task","31","63375","52","yes","1024"
"2.807758206","6.25","4","hurl","word","60.37735849056604","60.37735849056604","1207.4150943396226","1207.4150943396226","black","no","legacy","legacy","legacy","0","uniform","1","undefined","undefined","undefined","1","j","0","0","0","0","52","0","0","0","52","NA","48","52","48","0","48","3","52","0","52","Thu Feb 18 13:34:15 2021","The main experiment item","yes","Lexical_Decision_Task.osexp","/Users/sabaahmed","no","Andale Mono","no","18","no","white","no","yes","576","legacy","48","48","3","/Users/sabaahmed/subject-5226185LEXICAL.csv","legacy","Lentiform Loewenfeld","3.3.7","yes","yes","600bd7cfb6416f0113b04181","602110864497cf011d9c0822","0","j","NA","space","space","space","NA","j","618","NA","10573","7940","4480","NA","618","2","legacy","1024","2","48000","-16","task","5226185","odd","NA","32062","44639","34064","169958","4860","17296","12815","170460","NA","169955","170460","169899","44639","171080","29546","169399","4816","147476","Lexical Decision Task","32","63993","53","yes","1024"
"3.149629599","0","2","cleb","non-word","61.111111111111114","61.111111111111114","1196.0925925925926","1196.0925925925926","black","no","legacy","legacy","legacy","0","uniform","1","undefined","undefined","undefined","1","f","0","0","0","0","53","0","0","0","53","NA","49","53","49","0","49","3","53","0","53","Thu Feb 18 13:34:15 2021","The main experiment item","yes","Lexical_Decision_Task.osexp","/Users/sabaahmed","no","Andale Mono","no","18","no","white","no","yes","576","legacy","49","49","3","/Users/sabaahmed/subject-5226185LEXICAL.csv","legacy","Lentiform Loewenfeld","3.3.7","yes","yes","600bd7cfb6416f0113b04181","602110864497cf011d9c0822","0","f","NA","space","space","space","NA","f","596","NA","10573","7940","4480","NA","596","2","legacy","1024","2","48000","-16","task","5226185","odd","NA","32062","44639","34064","171641","4860","17296","12815","172144","NA","171638","172144","171583","44639","172742","29546","171083","4816","147476","Lexical Decision Task","33","64589","54","yes","1024"
"3.443783828","7.65","3","verb","word","61.81818181818182","61.81818181818182","1193.3090909090909","1193.3090909090909","black","no","legacy","legacy","legacy","0","uniform","1","undefined","undefined","undefined","1","j","0","0","0","0","54","0","0","0","54","0","50","54","50","0","50","3","54","0","54","Thu Feb 18 13:34:15 2021","The main experiment item","yes","Lexical_Decision_Task.osexp","/Users/sabaahmed","no","Andale Mono","no","18","no","white","no","yes","576","legacy","50","50","3","/Users/sabaahmed/subject-5226185LEXICAL.csv","legacy","Lentiform Loewenfeld","3.3.7","yes","yes","600bd7cfb6416f0113b04181","602110864497cf011d9c0822","0","j","NA","space","space","space","space","j","1043","NA","10573","7940","4480","10981","1043","2","legacy","1024","2","48000","-16","task","5226185","odd","NA","32062","44639","34064","184312","4860","17296","12815","184815","173273","184310","184815","173245","44639","185860","29546","172745","4816","147476","Lexical Decision Task","34","65632","55","yes","1024"
"2.907588697","8.91","9","mood","word","62.5","62.5","1181.1785714285713","1181.1785714285713","black","no","legacy","legacy","legacy","0","uniform","1","undefined","undefined","undefined","1","j","0","0","0","0","55","0","0","0","55","0","51","55","51","0","51","3","55","0","55","Thu Feb 18 13:34:15 2021","The main experiment item","yes","Lexical_Decision_Task.osexp","/Users/sabaahmed","no","Andale Mono","no","18","no","white","no","yes","576","legacy","51","51","3","/Users/sabaahmed/subject-5226185LEXICAL.csv","legacy","Lentiform Loewenfeld","3.3.7","yes","yes","600bd7cfb6416f0113b04181","602110864497cf011d9c0822","0","j","NA","space","space","space","space","j","514","NA","10573","7940","4480","10981","514","2","legacy","1024","2","48000","-16","task","5226185","odd","NA","32062","44639","34064","186422","4860","17296","12815","186925","173273","186420","186925","186363","44639","187441","29546","185863","4816","147476","Lexical Decision Task","35","66146","56","yes","1024"
"3.031812271","6.52","3","gulp","word","63.1578947368421","63.1578947368421","1175.6140350877192","1175.6140350877192","black","no","legacy","legacy","legacy","0","uniform","1","undefined","undefined","undefined","1","j","0","0","0","0","56","0","0","0","56","0","52","56","52","0","52","3","56","0","56","Thu Feb 18 13:34:15 2021","The main experiment item","yes","Lexical_Decision_Task.osexp","/Users/sabaahmed","no","Andale Mono","no","18","no","white","no","yes","576","legacy","52","52","3","/Users/sabaahmed/subject-5226185LEXICAL.csv","legacy","Lentiform Loewenfeld","3.3.7","yes","yes","600bd7cfb6416f0113b04181","602110864497cf011d9c0822","0","j","NA","space","space","space","space","j","864","NA","10573","7940","4480","10981","864","2","legacy","1024","2","48000","-16","task","5226185","odd","NA","32062","44639","34064","188006","4860","17296","12815","188508","173273","188003","188508","187945","44639","189373","29546","187445","4816","147476","Lexical Decision Task","36","67010","57","yes","1024"
"3.121778632","0","9","sark","non-word","62.06896551724138","62.06896551724138","1172.0172413793102","1172.0172413793102","black","no","legacy","legacy","legacy","0","uniform","0","undefined","undefined","undefined","0","f","0","0","0","0","57","0","0","0","57","0","53","57","53","0","53","3","57","0","57","Thu Feb 18 13:34:15 2021","The main experiment item","yes","Lexical_Decision_Task.osexp","/Users/sabaahmed","no","Andale Mono","no","18","no","white","no","yes","576","legacy","53","53","3","/Users/sabaahmed/subject-5226185LEXICAL.csv","legacy","Lentiform Loewenfeld","3.3.7","yes","yes","600bd7cfb6416f0113b04181","602110864497cf011d9c0822","0","j","NA","space","space","space","space","j","967","NA","10573","7940","4480","10981","967","2","legacy","1024","2","48000","-16","task","5226185","odd","NA","32062","44639","34064","189937","4860","17296","12815","190440","173273","189934","190440","189877","44639","191408","29546","189377","4816","147476","Lexical Decision Task","36","67977","58","yes","1024"
"3.165936429","0","7","leps","non-word","62.71186440677966","62.71186440677966","1162.7118644067796","1162.7118644067796","black","no","legacy","legacy","legacy","0","uniform","1","undefined","undefined","undefined","1","f","0","0","0","0","58","0","0","0","58","0","54","58","54","0","54","3","58","0","58","Thu Feb 18 13:34:15 2021","The main experiment item","yes","Lexical_Decision_Task.osexp","/Users/sabaahmed","no","Andale Mono","no","18","no","white","no","yes","576","legacy","54","54","3","/Users/sabaahmed/subject-5226185LEXICAL.csv","legacy","Lentiform Loewenfeld","3.3.7","yes","yes","600bd7cfb6416f0113b04181","602110864497cf011d9c0822","0","f","NA","space","space","space","space","f","623","NA","10573","7940","4480","10981","623","2","legacy","1024","2","48000","-16","task","5226185","odd","NA","32062","44639","34064","192974","4860","17296","12815","193477","173273","192971","193477","192912","44639","194101","29546","189377","4816","191412","Lexical Decision Task","37","68600","59","yes","1024"
"3.068433376","8.09","2","bulb","word","63.333333333333336","63.333333333333336","1151.4333333333334","1151.4333333333334","black","no","legacy","legacy","legacy","0","uniform","1","undefined","undefined","undefined","1","j","0","0","0","0","59","0","0","0","59","0","55","59","55","0","55","3","59","0","59","Thu Feb 18 13:34:15 2021","The main experiment item","yes","Lexical_Decision_Task.osexp","/Users/sabaahmed","no","Andale Mono","no","18","no","white","no","yes","576","legacy","55","55","3","/Users/sabaahmed/subject-5226185LEXICAL.csv","legacy","Lentiform Loewenfeld","3.3.7","yes","yes","600bd7cfb6416f0113b04181","602110864497cf011d9c0822","0","j","NA","space","space","space","space","j","486","NA","10573","7940","4480","10981","486","2","legacy","1024","2","48000","-16","task","5226185","odd","NA","32062","44639","34064","194665","4860","17296","12815","195167","173273","194662","195168","194605","44639","195656","29546","194104","4816","191412","Lexical Decision Task","38","69086","60","yes","1024"
"2.7084209","0","8","vump","non-word","63.9344262295082","63.9344262295082","1148.7377049180327","1148.7377049180327","black","no","legacy","legacy","legacy","0","uniform","1","undefined","undefined","undefined","1","f","0","0","0","0","60","0","0","0","60","0","56","60","56","0","56","3","60","0","60","Thu Feb 18 13:34:15 2021","The main experiment item","yes","Lexical_Decision_Task.osexp","/Users/sabaahmed","no","Andale Mono","no","18","no","white","no","yes","576","legacy","56","56","3","/Users/sabaahmed/subject-5226185LEXICAL.csv","legacy","Lentiform Loewenfeld","3.3.7","yes","yes","600bd7cfb6416f0113b04181","602110864497cf011d9c0822","0","f","NA","space","space","space","space","f","987","NA","10573","7940","4480","10981","987","2","legacy","1024","2","48000","-16","task","5226185","odd","NA","32062","44639","34064","196220","4860","17296","12815","196723","173273","196217","196723","196160","44639","197711","29546","195660","4816","191412","Lexical Decision Task","39","70073","61","yes","1024"
"3.259832699","0","9","flar","non-word","62.903225806451616","62.903225806451616","1141.8870967741937","1141.8870967741937","black","no","legacy","legacy","legacy","0","uniform","0","undefined","undefined","undefined","0","f","0","0","0","0","61","0","0","0","61","0","57","61","57","0","57","3","61","0","61","Thu Feb 18 13:34:15 2021","The main experiment item","yes","Lexical_Decision_Task.osexp","/Users/sabaahmed","no","Andale Mono","no","18","no","white","no","yes","576","legacy","57","57","3","/Users/sabaahmed/subject-5226185LEXICAL.csv","legacy","Lentiform Loewenfeld","3.3.7","yes","yes","600bd7cfb6416f0113b04181","602110864497cf011d9c0822","0","j","NA","space","space","space","space","j","724","NA","10573","7940","4480","10981","724","2","legacy","1024","2","48000","-16","task","5226185","odd","NA","32062","44639","34064","198274","4860","17296","12815","198776","173273","198270","198777","198215","44639","199502","29546","197715","4816","191412","Lexical Decision Task","39","70797","62","yes","1024"
"3.488597715","0","9","nain","non-word","63.492063492063494","63.492063492063494","1135","1135","black","no","legacy","legacy","legacy","0","uniform","1","undefined","undefined","undefined","1","f","0","0","0","0","62","0","0","0","62","0","58","62","58","0","58","3","62","0","62","Thu Feb 18 13:34:15 2021","The main experiment item","yes","Lexical_Decision_Task.osexp","/Users/sabaahmed","no","Andale Mono","no","18","no","white","no","yes","576","legacy","58","58","3","/Users/sabaahmed/subject-5226185LEXICAL.csv","legacy","Lentiform Loewenfeld","3.3.7","yes","yes","600bd7cfb6416f0113b04181","602110864497cf011d9c0822","0","f","NA","space","space","space","space","f","708","NA","10573","7940","4480","10981","708","2","legacy","1024","2","48000","-16","task","5226185","odd","NA","32062","44639","34064","201068","4860","17296","12815","201570","173273","201066","201570","201006","44639","202279","29546","197715","4816","199506","Lexical Decision Task","40","71505","63","yes","1024"
"3.081107167","0","6","chot","non-word","64.0625","64.0625","1128.296875","1128.296875","black","no","legacy","legacy","legacy","0","uniform","1","undefined","undefined","undefined","1","f","0","0","0","0","63","0","0","0","63","0","59","63","59","0","59","3","63","0","63","Thu Feb 18 13:34:15 2021","The main experiment item","yes","Lexical_Decision_Task.osexp","/Users/sabaahmed","no","Andale Mono","no","18","no","white","no","yes","576","legacy","59","59","3","/Users/sabaahmed/subject-5226185LEXICAL.csv","legacy","Lentiform Loewenfeld","3.3.7","yes","yes","600bd7cfb6416f0113b04181","602110864497cf011d9c0822","0","f","NA","space","space","space","space","f","706","NA","10573","7940","4480","10981","706","2","legacy","1024","2","48000","-16","task","5226185","odd","NA","32062","44639","34064","202844","4860","17296","12815","203346","173273","202841","203347","202784","44639","204055","29546","202284","4816","199506","Lexical Decision Task","41","72211","64","yes","1024"
"3.102203805","7.21","3","drip","word","64.61538461538461","64.61538461538461","1121.0615384615385","1121.0615384615385","black","no","legacy","legacy","legacy","0","uniform","1","undefined","undefined","undefined","1","j","0","0","0","0","64","0","0","0","64","0","60","64","60","0","60","3","64","0","64","Thu Feb 18 13:34:15 2021","The main experiment item","yes","Lexical_Decision_Task.osexp","/Users/sabaahmed","no","Andale Mono","no","18","no","white","no","yes","576","legacy","60","60","3","/Users/sabaahmed/subject-5226185LEXICAL.csv","legacy","Lentiform Loewenfeld","3.3.7","yes","yes","600bd7cfb6416f0113b04181","602110864497cf011d9c0822","0","j","NA","space","space","space","space","j","658","NA","10573","7940","4480","10981","658","2","legacy","1024","2","48000","-16","task","5226185","odd","NA","32062","44639","34064","204619","4860","17296","12815","205122","173273","204616","205122","204559","44639","205781","29546","204059","4816","199506","Lexical Decision Task","42","72869","65","yes","1024"
"3.378276681","6.39","8","bran","word","63.63636363636363","63.63636363636363","1114.9545454545455","1114.9545454545455","black","no","legacy","legacy","legacy","0","uniform","0","undefined","undefined","undefined","0","j","0","0","0","0","65","0","0","0","65","0","61","65","61","0","61","3","65","0","65","Thu Feb 18 13:34:15 2021","The main experiment item","yes","Lexical_Decision_Task.osexp","/Users/sabaahmed","no","Andale Mono","no","18","no","white","no","yes","576","legacy","61","61","3","/Users/sabaahmed/subject-5226185LEXICAL.csv","legacy","Lentiform Loewenfeld","3.3.7","yes","yes","600bd7cfb6416f0113b04181","602110864497cf011d9c0822","0","f","NA","space","space","space","space","f","718","NA","10573","7940","4480","10981","718","2","legacy","1024","2","48000","-16","task","5226185","odd","NA","32062","44639","34064","206344","4860","17296","12815","206846","173273","206341","206846","206285","44639","207565","29546","205785","4816","199506","Lexical Decision Task","42","73587","66","yes","1024"
"2.675164031","8.57","6","glue","word","64.17910447761194","64.17910447761194","1107.1791044776119","1107.1791044776119","black","no","legacy","legacy","legacy","0","uniform","1","undefined","undefined","undefined","1","j","0","0","0","0","66","0","0","0","66","0","62","66","62","0","62","3","66","0","66","Thu Feb 18 13:34:15 2021","The main experiment item","yes","Lexical_Decision_Task.osexp","/Users/sabaahmed","no","Andale Mono","no","18","no","white","no","yes","576","legacy","62","62","3","/Users/sabaahmed/subject-5226185LEXICAL.csv","legacy","Lentiform Loewenfeld","3.3.7","yes","yes","600bd7cfb6416f0113b04181","602110864497cf011d9c0822","0","j","NA","space","space","space","space","j","594","NA","10573","7940","4480","10981","594","2","legacy","1024","2","48000","-16","task","5226185","odd","NA","32062","44639","34064","209133","4860","17296","12815","209637","173273","209130","209637","209069","44639","210232","29546","205785","4816","207569","Lexical Decision Task","43","74181","67","yes","1024"
"3.090140555","5.81","8","pout","word","63.23529411764706","63.23529411764706","1102.3676470588234","1102.3676470588234","black","no","legacy","legacy","legacy","0","uniform","0","undefined","undefined","undefined","0","j","0","0","0","0","67","0","0","0","67","0","63","67","63","0","63","3","67","0","67","Thu Feb 18 13:34:15 2021","The main experiment item","yes","Lexical_Decision_Task.osexp","/Users/sabaahmed","no","Andale Mono","no","18","no","white","no","yes","576","legacy","63","63","3","/Users/sabaahmed/subject-5226185LEXICAL.csv","legacy","Lentiform Loewenfeld","3.3.7","yes","yes","600bd7cfb6416f0113b04181","602110864497cf011d9c0822","0","f","NA","space","space","space","space","f","780","NA","10573","7940","4480","10981","780","2","legacy","1024","2","48000","-16","task","5226185","odd","NA","32062","44639","34064","210798","4860","17296","12815","211301","173273","210796","211301","210735","44639","212083","29546","210235","4816","207569","Lexical Decision Task","43","74961","68","yes","1024"
"2.68604012","0","4","pumb","non-word","62.31884057971015","62.31884057971015","1092.927536231884","1092.927536231884","black","no","legacy","legacy","legacy","0","uniform","0","undefined","undefined","undefined","0","f","0","0","0","0","68","0","0","0","68","0","64","68","64","0","64","3","68","0","68","Thu Feb 18 13:34:15 2021","The main experiment item","yes","Lexical_Decision_Task.osexp","/Users/sabaahmed","no","Andale Mono","no","18","no","white","no","yes","576","legacy","64","64","3","/Users/sabaahmed/subject-5226185LEXICAL.csv","legacy","Lentiform Loewenfeld","3.3.7","yes","yes","600bd7cfb6416f0113b04181","602110864497cf011d9c0822","0","j","NA","space","space","space","space","j","451","NA","10573","7940","4480","10981","451","2","legacy","1024","2","48000","-16","task","5226185","odd","NA","32062","44639","34064","213651","4860","17296","12815","214154","173273","213648","214155","213586","44639","214608","29546","210235","4816","212086","Lexical Decision Task","43","75412","69","yes","1024"
"2.705007959","6.01","4","wept","word","62.857142857142854","62.857142857142854","1089.5285714285715","1089.5285714285715","black","no","legacy","legacy","legacy","0","uniform","1","undefined","undefined","undefined","1","j","0","0","0","0","69","0","0","0","69","0","65","69","65","0","65","3","69","0","69","Thu Feb 18 13:34:15 2021","The main experiment item","yes","Lexical_Decision_Task.osexp","/Users/sabaahmed","no","Andale Mono","no","18","no","white","no","yes","576","legacy","65","65","3","/Users/sabaahmed/subject-5226185LEXICAL.csv","legacy","Lentiform Loewenfeld","3.3.7","yes","yes","600bd7cfb6416f0113b04181","602110864497cf011d9c0822","0","j","NA","space","space","space","space","j","855","NA","10573","7940","4480","10981","855","2","legacy","1024","2","48000","-16","task","5226185","odd","NA","32062","44639","34064","216174","4860","17296","12815","216677","173273","216171","216677","216111","44639","217534","29546","210235","4816","214611","Lexical Decision Task","44","76267","70","yes","1024"
"2.714888338","0","3","brug","non-word","63.38028169014085","63.38028169014085","1081.9718309859154","1081.9718309859154","black","no","legacy","legacy","legacy","0","uniform","1","undefined","undefined","undefined","1","f","0","0","0","0","70","0","0","0","70","0","66","70","66","0","66","3","70","0","70","Thu Feb 18 13:34:15 2021","The main experiment item","yes","Lexical_Decision_Task.osexp","/Users/sabaahmed","no","Andale Mono","no","18","no","white","no","yes","576","legacy","66","66","3","/Users/sabaahmed/subject-5226185LEXICAL.csv","legacy","Lentiform Loewenfeld","3.3.7","yes","yes","600bd7cfb6416f0113b04181","602110864497cf011d9c0822","0","f","NA","space","space","space","space","f","553","NA","10573","7940","4480","10981","553","2","legacy","1024","2","48000","-16","task","5226185","odd","NA","32062","44639","34064","218096","4860","17296","12815","218599","173273","218094","218599","218037","44639","219154","29546","217537","4816","214611","Lexical Decision Task","45","76820","71","yes","1024"
"3.440331212","7.35","6","stew","word","63.888888888888886","63.888888888888886","1076.1527777777778","1076.1527777777778","black","no","legacy","legacy","legacy","0","uniform","1","undefined","undefined","undefined","1","j","0","0","0","0","71","0","0","0","71","0","67","71","67","0","67","3","71","0","71","Thu Feb 18 13:34:15 2021","The main experiment item","yes","Lexical_Decision_Task.osexp","/Users/sabaahmed","no","Andale Mono","no","18","no","white","no","yes","576","legacy","67","67","3","/Users/sabaahmed/subject-5226185LEXICAL.csv","legacy","Lentiform Loewenfeld","3.3.7","yes","yes","600bd7cfb6416f0113b04181","602110864497cf011d9c0822","0","j","NA","space","space","space","space","j","663","NA","10573","7940","4480","10981","663","2","legacy","1024","2","48000","-16","task","5226185","odd","NA","32062","44639","34064","219717","4860","17296","12815","220220","173273","219714","220220","219658","44639","220884","29546","219158","4816","214611","Lexical Decision Task","46","77483","72","yes","1024"
"3.031408464","0","7","drow","non-word","63.013698630136986","63.013698630136986","1076.890410958904","1076.890410958904","black","no","legacy","legacy","legacy","0","uniform","0","undefined","undefined","undefined","0","f","0","0","0","0","72","0","0","0","72","0","68","72","68","0","68","3","72","0","72","Thu Feb 18 13:34:15 2021","The main experiment item","yes","Lexical_Decision_Task.osexp","/Users/sabaahmed","no","Andale Mono","no","18","no","white","no","yes","576","legacy","68","68","3","/Users/sabaahmed/subject-5226185LEXICAL.csv","legacy","Lentiform Loewenfeld","3.3.7","yes","yes","600bd7cfb6416f0113b04181","602110864497cf011d9c0822","0","j","NA","space","space","space","space","j","1130","NA","10573","7940","4480","10981","1130","2","legacy","1024","2","48000","-16","task","5226185","odd","NA","32062","44639","34064","221447","4860","17296","12815","221949","173273","221444","221950","221388","44639","223082","29546","220888","4816","214611","Lexical Decision Task","46","78613","73","yes","1024"
"2.898725182","0","7","turl","non-word","63.513513513513516","63.513513513513516","1071.9864864864865","1071.9864864864865","black","no","legacy","legacy","legacy","0","uniform","1","undefined","undefined","undefined","1","f","0","0","0","0","73","0","0","0","73","0","69","73","69","0","69","3","73","0","73","Thu Feb 18 13:34:15 2021","The main experiment item","yes","Lexical_Decision_Task.osexp","/Users/sabaahmed","no","Andale Mono","no","18","no","white","no","yes","576","legacy","69","69","3","/Users/sabaahmed/subject-5226185LEXICAL.csv","legacy","Lentiform Loewenfeld","3.3.7","yes","yes","600bd7cfb6416f0113b04181","602110864497cf011d9c0822","0","f","NA","space","space","space","space","f","714","NA","10573","7940","4480","10981","714","2","legacy","1024","2","48000","-16","task","5226185","odd","NA","32062","44639","34064","224649","4860","17296","12815","225152","173273","224646","225153","224585","44639","225869","29546","220888","4816","223085","Lexical Decision Task","47","79327","74","yes","1024"
"3.372543801","9.24","8","coat","word","64","64","1067.3466666666666","1067.3466666666666","black","no","legacy","legacy","legacy","0","uniform","1","undefined","undefined","undefined","1","j","0","0","0","0","74","0","0","0","74","0","70","74","70","0","70","3","74","0","74","Thu Feb 18 13:34:15 2021","The main experiment item","yes","Lexical_Decision_Task.osexp","/Users/sabaahmed","no","Andale Mono","no","18","no","white","no","yes","576","legacy","70","70","3","/Users/sabaahmed/subject-5226185LEXICAL.csv","legacy","Lentiform Loewenfeld","3.3.7","yes","yes","600bd7cfb6416f0113b04181","602110864497cf011d9c0822","0","j","NA","space","space","space","space","j","724","NA","10573","7940","4480","10981","724","2","legacy","1024","2","48000","-16","task","5226185","odd","NA","32062","44639","34064","226429","4860","17296","12815","226932","173273","226427","226932","226372","44639","227658","29546","225872","4816","223085","Lexical Decision Task","48","80051","75","yes","1024"
"2.709837904","6.85","8","skim","word","64.47368421052632","64.47368421052632","1061.092105263158","1061.092105263158","black","no","legacy","legacy","legacy","0","uniform","1","undefined","undefined","undefined","1","j","0","0","0","0","75","0","0","0","75","0","71","75","71","0","71","3","75","0","75","Thu Feb 18 13:34:15 2021","The main experiment item","yes","Lexical_Decision_Task.osexp","/Users/sabaahmed","no","Andale Mono","no","18","no","white","no","yes","576","legacy","71","71","3","/Users/sabaahmed/subject-5226185LEXICAL.csv","legacy","Lentiform Loewenfeld","3.3.7","yes","yes","600bd7cfb6416f0113b04181","602110864497cf011d9c0822","0","j","NA","space","space","space","space","j","592","NA","10573","7940","4480","10981","592","2","legacy","1024","2","48000","-16","task","5226185","odd","NA","32062","44639","34064","228221","4860","17296","12815","228724","173273","228218","228724","228161","44639","229318","29546","227661","4816","223085","Lexical Decision Task","49","80643","76","yes","1024"
"3.120025233","0","2","nyst","non-word","64.93506493506493","64.93506493506493","1054.155844155844","1054.155844155844","black","no","legacy","legacy","legacy","0","uniform","1","undefined","undefined","undefined","1","f","0","0","0","0","76","0","0","0","76","0","72","76","72","0","72","3","76","0","76","Thu Feb 18 13:34:15 2021","The main experiment item","yes","Lexical_Decision_Task.osexp","/Users/sabaahmed","no","Andale Mono","no","18","no","white","no","yes","576","legacy","72","72","3","/Users/sabaahmed/subject-5226185LEXICAL.csv","legacy","Lentiform Loewenfeld","3.3.7","yes","yes","600bd7cfb6416f0113b04181","602110864497cf011d9c0822","0","f","NA","space","space","space","space","f","527","NA","10573","7940","4480","10981","527","2","legacy","1024","2","48000","-16","task","5226185","odd","NA","32062","44639","34064","229881","4860","17296","12815","230383","173273","229878","230383","229821","44639","230912","29546","229321","4816","223085","Lexical Decision Task","50","81170","77","yes","1024"
"3.168400243","9.12","6","horn","word","65.38461538461539","65.38461538461539","1047.1025641025642","1047.1025641025642","black","no","legacy","legacy","legacy","0","uniform","1","undefined","undefined","undefined","1","j","0","0","0","0","77","0","0","0","77","0","73","77","73","0","73","3","77","0","77","Thu Feb 18 13:34:15 2021","The main experiment item","yes","Lexical_Decision_Task.osexp","/Users/sabaahmed","no","Andale Mono","no","18","no","white","no","yes","576","legacy","73","73","3","/Users/sabaahmed/subject-5226185LEXICAL.csv","legacy","Lentiform Loewenfeld","3.3.7","yes","yes","600bd7cfb6416f0113b04181","602110864497cf011d9c0822","0","j","NA","space","space","space","space","j","504","NA","10573","7940","4480","10981","504","2","legacy","1024","2","48000","-16","task","5226185","odd","NA","32062","44639","34064","231480","4860","17296","12815","231982","173273","231475","231983","231415","44639","232488","29546","230915","4816","223085","Lexical Decision Task","51","81674","78","yes","1024"
"2.983324025","9.56","2","debt","word","65.82278481012658","65.82278481012658","1041.7088607594937","1041.7088607594937","black","no","legacy","legacy","legacy","0","uniform","1","undefined","undefined","undefined","1","j","0","0","0","0","78","0","0","0","78","0","74","78","74","0","74","3","78","0","78","Thu Feb 18 13:34:15 2021","The main experiment item","yes","Lexical_Decision_Task.osexp","/Users/sabaahmed","no","Andale Mono","no","18","no","white","no","yes","576","legacy","74","74","3","/Users/sabaahmed/subject-5226185LEXICAL.csv","legacy","Lentiform Loewenfeld","3.3.7","yes","yes","600bd7cfb6416f0113b04181","602110864497cf011d9c0822","0","j","NA","space","space","space","space","j","621","NA","10573","7940","4480","10981","621","2","legacy","1024","2","48000","-16","task","5226185","odd","NA","32062","44639","34064","233051","4860","17296","12815","233555","173273","233049","233555","232992","44639","234178","29546","232492","4816","223085","Lexical Decision Task","52","82295","79","yes","1024"
"3.529815197","0","3","lerm","non-word","66.25","66.25","1035.5","1035.5","black","no","legacy","legacy","legacy","0","uniform","1","undefined","undefined","undefined","1","f","0","0","0","0","79","0","0","0","79","0","75","79","75","0","75","3","79","0","79","Thu Feb 18 13:34:15 2021","The main experiment item","yes","Lexical_Decision_Task.osexp","/Users/sabaahmed","no","Andale Mono","no","18","no","white","no","yes","576","legacy","75","75","3","/Users/sabaahmed/subject-5226185LEXICAL.csv","legacy","Lentiform Loewenfeld","3.3.7","yes","yes","600bd7cfb6416f0113b04181","602110864497cf011d9c0822","0","f","NA","space","space","space","space","f","545","NA","10573","7940","4480","10981","545","2","legacy","1024","2","48000","-16","task","5226185","odd","NA","32062","44639","34064","234741","4860","17296","12815","235244","173273","234738","235244","234681","44639","235791","29546","234181","4816","223085","Lexical Decision Task","53","82840","80","yes","1024"
"2.9737419","7.69","7","claw","word","66.66666666666667","66.66666666666667","1030.5555555555557","1030.5555555555557","black","no","legacy","legacy","legacy","0","uniform","1","undefined","undefined","undefined","1","j","0","0","0","0","80","0","0","0","80","0","76","80","76","0","76","3","80","0","80","Thu Feb 18 13:34:15 2021","The main experiment item","yes","Lexical_Decision_Task.osexp","/Users/sabaahmed","no","Andale Mono","no","18","no","white","no","yes","576","legacy","76","76","3","/Users/sabaahmed/subject-5226185LEXICAL.csv","legacy","Lentiform Loewenfeld","3.3.7","yes","yes","600bd7cfb6416f0113b04181","602110864497cf011d9c0822","0","j","NA","space","space","space","space","j","635","NA","10573","7940","4480","10981","635","2","legacy","1024","2","48000","-16","task","5226185","odd","NA","32062","44639","34064","236356","4860","17296","12815","236859","173273","236353","236859","236295","44639","237495","29546","235795","4816","223085","Lexical Decision Task","54","83475","81","yes","1024"
"2.744553742","0","2","nawk","non-word","67.07317073170732","67.07317073170732","1026.1951219512196","1026.1951219512196","black","no","legacy","legacy","legacy","0","uniform","1","undefined","undefined","undefined","1","f","0","0","0","0","81","0","0","0","81","0","77","81","77","0","77","3","81","0","81","Thu Feb 18 13:34:15 2021","The main experiment item","yes","Lexical_Decision_Task.osexp","/Users/sabaahmed","no","Andale Mono","no","18","no","white","no","yes","576","legacy","77","77","3","/Users/sabaahmed/subject-5226185LEXICAL.csv","legacy","Lentiform Loewenfeld","3.3.7","yes","yes","600bd7cfb6416f0113b04181","602110864497cf011d9c0822","0","f","NA","space","space","space","space","f","673","NA","10573","7940","4480","10981","673","2","legacy","1024","2","48000","-16","task","5226185","odd","NA","32062","44639","34064","238060","4860","17296","12815","238562","173273","238056","238563","237999","44639","239237","29546","237498","4816","223085","Lexical Decision Task","55","84148","82","yes","1024"
"2.897810299","0","5","glur","non-word","67.46987951807229","67.46987951807229","1023.2409638554217","1023.2409638554217","black","no","legacy","legacy","legacy","0","uniform","1","undefined","undefined","undefined","1","f","0","0","0","0","82","0","0","0","82","0","78","82","78","0","78","3","82","0","82","Thu Feb 18 13:34:15 2021","The main experiment item","yes","Lexical_Decision_Task.osexp","/Users/sabaahmed","no","Andale Mono","no","18","no","white","no","yes","576","legacy","78","78","3","/Users/sabaahmed/subject-5226185LEXICAL.csv","legacy","Lentiform Loewenfeld","3.3.7","yes","yes","600bd7cfb6416f0113b04181","602110864497cf011d9c0822","0","f","NA","space","space","space","space","f","781","NA","10573","7940","4480","10981","781","2","legacy","1024","2","48000","-16","task","5226185","odd","NA","32062","44639","34064","239800","4860","17296","12815","240303","173273","239798","240303","239741","44639","241086","29546","239241","4816","223085","Lexical Decision Task","56","84929","83","yes","1024"
"2.782472624","10.55","2","huge","word","67.85714285714286","67.85714285714286","1017.3809523809524","1017.3809523809524","black","no","legacy","legacy","legacy","0","uniform","1","undefined","undefined","undefined","1","j","0","0","0","0","83","0","0","0","83","0","79","83","79","0","79","3","83","0","83","Thu Feb 18 13:34:15 2021","The main experiment item","yes","Lexical_Decision_Task.osexp","/Users/sabaahmed","no","Andale Mono","no","18","no","white","no","yes","576","legacy","79","79","3","/Users/sabaahmed/subject-5226185LEXICAL.csv","legacy","Lentiform Loewenfeld","3.3.7","yes","yes","600bd7cfb6416f0113b04181","602110864497cf011d9c0822","0","j","NA","space","space","space","space","j","531","NA","10573","7940","4480","10981","531","2","legacy","1024","2","48000","-16","task","5226185","odd","NA","32062","44639","34064","241648","4860","17296","12815","242150","173273","241645","242151","241589","44639","242683","29546","241089","4816","223085","Lexical Decision Task","57","85460","84","yes","1024"
"2.839898939","8.99","6","soap","word","68.23529411764706","68.23529411764706","1012.3058823529411","1012.3058823529411","black","no","legacy","legacy","legacy","0","uniform","1","undefined","undefined","undefined","1","j","0","0","0","0","84","0","0","0","84","0","80","84","80","0","80","3","84","0","84","Thu Feb 18 13:34:15 2021","The main experiment item","yes","Lexical_Decision_Task.osexp","/Users/sabaahmed","no","Andale Mono","no","18","no","white","no","yes","576","legacy","80","80","3","/Users/sabaahmed/subject-5226185LEXICAL.csv","legacy","Lentiform Loewenfeld","3.3.7","yes","yes","600bd7cfb6416f0113b04181","602110864497cf011d9c0822","0","j","NA","space","space","space","space","j","586","NA","10573","7940","4480","10981","586","2","legacy","1024","2","48000","-16","task","5226185","odd","NA","32062","44639","34064","243245","4860","17296","12815","243749","173273","243243","243749","243187","44639","244336","29546","242687","4816","223085","Lexical Decision Task","58","86046","85","yes","1024"
"2.842815106","7.86","8","lump","word","68.6046511627907","68.6046511627907","1008.7558139534884","1008.7558139534884","black","no","legacy","legacy","legacy","0","uniform","1","undefined","undefined","undefined","1","j","0","0","0","0","85","0","0","0","85","0","81","85","81","0","81","3","85","0","85","Thu Feb 18 13:34:15 2021","The main experiment item","yes","Lexical_Decision_Task.osexp","/Users/sabaahmed","no","Andale Mono","no","18","no","white","no","yes","576","legacy","81","81","3","/Users/sabaahmed/subject-5226185LEXICAL.csv","legacy","Lentiform Loewenfeld","3.3.7","yes","yes","600bd7cfb6416f0113b04181","602110864497cf011d9c0822","0","j","NA","space","space","space","space","j","707","NA","10573","7940","4480","10981","707","2","legacy","1024","2","48000","-16","task","5226185","odd","NA","32062","44639","34064","244899","4860","17296","12815","245401","173273","244896","245402","244840","44639","246110","29546","244340","4816","223085","Lexical Decision Task","59","86753","86","yes","1024"
"2.793790385","5.67","9","swab","word","68.96551724137932","68.96551724137932","1004.1264367816092","1004.1264367816092","black","no","legacy","legacy","legacy","0","uniform","1","undefined","undefined","undefined","1","j","0","0","0","0","86","0","0","0","86","0","82","86","82","0","82","3","86","0","86","Thu Feb 18 13:34:15 2021","The main experiment item","yes","Lexical_Decision_Task.osexp","/Users/sabaahmed","no","Andale Mono","no","18","no","white","no","yes","576","legacy","82","82","3","/Users/sabaahmed/subject-5226185LEXICAL.csv","legacy","Lentiform Loewenfeld","3.3.7","yes","yes","600bd7cfb6416f0113b04181","602110864497cf011d9c0822","0","j","NA","space","space","space","space","j","606","NA","10573","7940","4480","10981","606","2","legacy","1024","2","48000","-16","task","5226185","odd","NA","32062","44639","34064","246673","4860","17296","12815","247176","173273","246670","247176","246615","44639","247783","29546","246114","4816","223085","Lexical Decision Task","60","87359","87","yes","1024"
"2.899638141","0","3","hapt","non-word","69.31818181818181","69.31818181818181","999.0681818181819","999.0681818181819","black","no","legacy","legacy","legacy","0","uniform","1","undefined","undefined","undefined","1","f","0","0","0","0","87","0","0","0","87","0","83","87","83","0","83","3","87","0","87","Thu Feb 18 13:34:15 2021","The main experiment item","yes","Lexical_Decision_Task.osexp","/Users/sabaahmed","no","Andale Mono","no","18","no","white","no","yes","576","legacy","83","83","3","/Users/sabaahmed/subject-5226185LEXICAL.csv","legacy","Lentiform Loewenfeld","3.3.7","yes","yes","600bd7cfb6416f0113b04181","602110864497cf011d9c0822","0","f","NA","space","space","space","space","f","559","NA","10573","7940","4480","10981","559","2","legacy","1024","2","48000","-16","task","5226185","odd","NA","32062","44639","34064","248345","4860","17296","12815","248847","173273","248343","248847","248287","44639","249407","29546","247787","4816","223085","Lexical Decision Task","61","87918","88","yes","1024"
"2.693726949","5.08","3","swig","word","68.53932584269663","68.53932584269663","997.1573033707865","997.1573033707865","black","no","legacy","legacy","legacy","0","uniform","0","undefined","undefined","undefined","0","j","0","0","0","0","88","0","0","0","88","0","84","88","84","0","84","3","88","0","88","Thu Feb 18 13:34:15 2021","The main experiment item","yes","Lexical_Decision_Task.osexp","/Users/sabaahmed","no","Andale Mono","no","18","no","white","no","yes","576","legacy","84","84","3","/Users/sabaahmed/subject-5226185LEXICAL.csv","legacy","Lentiform Loewenfeld","3.3.7","yes","yes","600bd7cfb6416f0113b04181","602110864497cf011d9c0822","0","f","NA","space","space","space","space","f","829","NA","10573","7940","4480","10981","829","2","legacy","1024","2","48000","-16","task","5226185","odd","NA","32062","44639","34064","249969","4860","17296","12815","250472","173273","249967","250472","249911","44639","251302","29546","249411","4816","223085","Lexical Decision Task","61","88747","89","yes","1024"
"3.028977705","0","7","frow","non-word","67.77777777777777","67.77777777777777","996.7444444444444","996.7444444444444","black","no","legacy","legacy","legacy","0","uniform","0","undefined","undefined","undefined","0","f","0","0","0","0","89","0","0","0","89","0","85","89","85","0","85","3","89","0","89","Thu Feb 18 13:34:15 2021","The main experiment item","yes","Lexical_Decision_Task.osexp","/Users/sabaahmed","no","Andale Mono","no","18","no","white","no","yes","576","legacy","85","85","3","/Users/sabaahmed/subject-5226185LEXICAL.csv","legacy","Lentiform Loewenfeld","3.3.7","yes","yes","600bd7cfb6416f0113b04181","602110864497cf011d9c0822","0","j","NA","space","space","space","space","j","960","NA","10573","7940","4480","10981","960","2","legacy","1024","2","48000","-16","task","5226185","odd","NA","32062","44639","34064","252867","4860","17296","12815","253370","173273","252864","253370","252806","44639","254331","29546","249411","4816","251306","Lexical Decision Task","61","89707","90","yes","1024"
"3.431095062","5.74","9","perk","word","68.13186813186813","68.13186813186813","993.4835164835165","993.4835164835165","black","no","legacy","legacy","legacy","0","uniform","1","undefined","undefined","undefined","1","j","0","0","0","0","90","0","0","0","90","0","86","90","86","0","86","3","90","0","90","Thu Feb 18 13:34:15 2021","The main experiment item","yes","Lexical_Decision_Task.osexp","/Users/sabaahmed","no","Andale Mono","no","18","no","white","no","yes","576","legacy","86","86","3","/Users/sabaahmed/subject-5226185LEXICAL.csv","legacy","Lentiform Loewenfeld","3.3.7","yes","yes","600bd7cfb6416f0113b04181","602110864497cf011d9c0822","0","j","NA","space","space","space","space","j","700","NA","10573","7940","4480","10981","700","2","legacy","1024","2","48000","-16","task","5226185","odd","NA","32062","44639","34064","255899","4860","17296","12815","256402","173273","255897","256402","255835","44639","257103","29546","249411","4816","254335","Lexical Decision Task","62","90407","91","yes","1024"
"2.664011697","8.19","4","hawk","word","68.47826086956522","68.47826086956522","989.4130434782609","989.4130434782609","black","no","legacy","legacy","legacy","0","uniform","1","undefined","undefined","undefined","1","j","0","0","0","0","91","0","0","0","91","0","87","91","87","0","87","3","91","0","91","Thu Feb 18 13:34:15 2021","The main experiment item","yes","Lexical_Decision_Task.osexp","/Users/sabaahmed","no","Andale Mono","no","18","no","white","no","yes","576","legacy","87","87","3","/Users/sabaahmed/subject-5226185LEXICAL.csv","legacy","Lentiform Loewenfeld","3.3.7","yes","yes","600bd7cfb6416f0113b04181","602110864497cf011d9c0822","0","j","NA","space","space","space","space","j","619","NA","10573","7940","4480","10981","619","2","legacy","1024","2","48000","-16","task","5226185","odd","NA","32062","44639","34064","257668","4860","17296","12815","258170","173273","257665","258170","257607","44639","258791","29546","257107","4816","254335","Lexical Decision Task","63","91026","92","yes","1024"
"3.218535505","7.85","7","goat","word","68.81720430107526","68.81720430107526","984.483870967742","984.483870967742","black","no","legacy","legacy","legacy","0","uniform","1","undefined","undefined","undefined","1","j","0","0","0","0","92","0","0","0","92","0","88","92","88","0","88","3","92","0","92","Thu Feb 18 13:34:15 2021","The main experiment item","yes","Lexical_Decision_Task.osexp","/Users/sabaahmed","no","Andale Mono","no","18","no","white","no","yes","576","legacy","88","88","3","/Users/sabaahmed/subject-5226185LEXICAL.csv","legacy","Lentiform Loewenfeld","3.3.7","yes","yes","600bd7cfb6416f0113b04181","602110864497cf011d9c0822","0","j","NA","space","space","space","space","j","531","NA","10573","7940","4480","10981","531","2","legacy","1024","2","48000","-16","task","5226185","odd","NA","32062","44639","34064","259354","4860","17296","12815","259856","173273","259351","259856","259295","44639","260388","29546","258795","4816","254335","Lexical Decision Task","64","91557","93","yes","1024"
"2.706148589","0","4","hube","non-word","69.14893617021276","69.14893617021276","984.3829787234042","984.3829787234042","black","no","legacy","legacy","legacy","0","uniform","1","undefined","undefined","undefined","1","f","0","0","0","0","93","0","0","0","93","0","89","93","89","0","89","3","93","0","93","Thu Feb 18 13:34:15 2021","The main experiment item","yes","Lexical_Decision_Task.osexp","/Users/sabaahmed","no","Andale Mono","no","18","no","white","no","yes","576","legacy","89","89","3","/Users/sabaahmed/subject-5226185LEXICAL.csv","legacy","Lentiform Loewenfeld","3.3.7","yes","yes","600bd7cfb6416f0113b04181","602110864497cf011d9c0822","0","f","NA","space","space","space","space","f","975","NA","10573","7940","4480","10981","975","2","legacy","1024","2","48000","-16","task","5226185","odd","NA","32062","44639","34064","260950","4860","17296","12815","261452","173273","260947","261452","260892","44639","262429","29546","260392","4816","254335","Lexical Decision Task","65","92532","94","yes","1024"
"2.884795364","0","6","flob","non-word","69.47368421052632","69.47368421052632","982.4631578947368","982.4631578947368","black","no","legacy","legacy","legacy","0","uniform","1","undefined","undefined","undefined","1","f","0","0","0","0","94","0","0","0","94","0","90","94","90","0","90","3","94","0","94","Thu Feb 18 13:34:15 2021","The main experiment item","yes","Lexical_Decision_Task.osexp","/Users/sabaahmed","no","Andale Mono","no","18","no","white","no","yes","576","legacy","90","90","3","/Users/sabaahmed/subject-5226185LEXICAL.csv","legacy","Lentiform Loewenfeld","3.3.7","yes","yes","600bd7cfb6416f0113b04181","602110864497cf011d9c0822","0","f","NA","space","space","space","space","f","802","NA","10573","7940","4480","10981","802","2","legacy","1024","2","48000","-16","task","5226185","odd","NA","32062","44639","34064","262993","4860","17296","12815","263495","173273","262990","263496","262933","44639","264299","29546","262433","4816","254335","Lexical Decision Task","66","93334","95","yes","1024"
"2.794720352","0","9","koot","non-word","69.79166666666667","69.79166666666667","979.6666666666666","979.6666666666666","black","no","legacy","legacy","legacy","0","uniform","1","undefined","undefined","undefined","1","f","0","0","0","0","95","0","0","0","95","0","91","95","91","0","91","3","95","0","95","Thu Feb 18 13:34:15 2021","The main experiment item","yes","Lexical_Decision_Task.osexp","/Users/sabaahmed","no","Andale Mono","no","18","no","white","no","yes","576","legacy","91","91","3","/Users/sabaahmed/subject-5226185LEXICAL.csv","legacy","Lentiform Loewenfeld","3.3.7","yes","yes","600bd7cfb6416f0113b04181","602110864497cf011d9c0822","0","f","NA","space","space","space","space","f","714","NA","10573","7940","4480","10981","714","2","legacy","1024","2","48000","-16","task","5226185","odd","NA","32062","44639","34064","264862","4860","17296","12815","265365","173273","264859","265365","264803","44639","266080","29546","264303","4816","254335","Lexical Decision Task","67","94048","96","yes","1024"
"3.363486562","6.93","9","lush","word","70.10309278350516","70.10309278350516","975.0412371134021","975.0412371134021","black","no","legacy","legacy","legacy","0","uniform","1","undefined","undefined","undefined","1","j","0","0","0","0","96","0","0","0","96","0","92","96","92","0","92","3","96","0","96","Thu Feb 18 13:34:15 2021","The main experiment item","yes","Lexical_Decision_Task.osexp","/Users/sabaahmed","no","Andale Mono","no","18","no","white","no","yes","576","legacy","92","92","3","/Users/sabaahmed/subject-5226185LEXICAL.csv","legacy","Lentiform Loewenfeld","3.3.7","yes","yes","600bd7cfb6416f0113b04181","602110864497cf011d9c0822","0","j","NA","space","space","space","space","j","531","NA","10573","7940","4480","10981","531","2","legacy","1024","2","48000","-16","task","5226185","odd","NA","32062","44639","34064","266644","4860","17296","12815","267146","173273","266641","267147","266584","44639","267680","29546","266084","4816","254335","Lexical Decision Task","68","94579","97","yes","1024"
"3.216517684","10.87","3","film","word","70.40816326530613","70.40816326530613","970.530612244898","970.530612244898","black","no","legacy","legacy","legacy","0","uniform","1","undefined","undefined","undefined","1","j","0","0","0","0","97","0","0","0","97","0","93","97","93","0","93","3","97","0","97","Thu Feb 18 13:34:15 2021","The main experiment item","yes","Lexical_Decision_Task.osexp","/Users/sabaahmed","no","Andale Mono","no","18","no","white","no","yes","576","legacy","93","93","3","/Users/sabaahmed/subject-5226185LEXICAL.csv","legacy","Lentiform Loewenfeld","3.3.7","yes","yes","600bd7cfb6416f0113b04181","602110864497cf011d9c0822","0","j","NA","space","space","space","space","j","533","NA","10573","7940","4480","10981","533","2","legacy","1024","2","48000","-16","task","5226185","odd","NA","32062","44639","34064","268244","4860","17296","12815","268746","173273","268241","268747","268184","44639","269281","29546","267684","4816","254335","Lexical Decision Task","69","95112","98","yes","1024"
"3.257359335","8","6","brew","word","70.70707070707071","70.70707070707071","966.8888888888889","966.8888888888889","black","no","legacy","legacy","legacy","0","uniform","1","undefined","undefined","undefined","1","j","0","0","0","0","98","0","0","0","98","0","94","98","94","0","94","3","98","0","98","Thu Feb 18 13:34:15 2021","The main experiment item","yes","Lexical_Decision_Task.osexp","/Users/sabaahmed","no","Andale Mono","no","18","no","white","no","yes","576","legacy","94","94","3","/Users/sabaahmed/subject-5226185LEXICAL.csv","legacy","Lentiform Loewenfeld","3.3.7","yes","yes","600bd7cfb6416f0113b04181","602110864497cf011d9c0822","0","j","NA","space","space","space","space","j","610","NA","10573","7940","4480","10981","610","2","legacy","1024","2","48000","-16","task","5226185","odd","NA","32062","44639","34064","269845","4860","17296","12815","270347","173273","269842","270347","269784","44639","270959","29546","269284","4816","254335","Lexical Decision Task","70","95722","99","yes","1024"
"3.082307743","9.68","8","camp","word","71","71","962.98","962.98","black","no","legacy","legacy","legacy","0","uniform","1","undefined","undefined","undefined","1","j","0","0","0","0","99","0","0","0","99","0","95","99","95","0","95","3","99","0","99","Thu Feb 18 13:34:15 2021","The main experiment item","yes","Lexical_Decision_Task.osexp","/Users/sabaahmed","no","Andale Mono","no","18","no","white","no","yes","576","legacy","95","95","3","/Users/sabaahmed/subject-5226185LEXICAL.csv","legacy","Lentiform Loewenfeld","3.3.7","yes","yes","600bd7cfb6416f0113b04181","602110864497cf011d9c0822","0","j","NA","space","space","space","space","j","576","NA","10573","7940","4480","10981","576","2","legacy","1024","2","48000","-16","task","5226185","odd","NA","32062","44639","34064","271522","4860","17296","12815","272025","173273","271520","272025","271462","44639","272603","29546","270962","4816","254335","Lexical Decision Task","71","96298","100","yes","1024"
"2.594027722","9.08","8","skip","word","71.2871287128713","71.2871287128713","959.4158415841584","959.4158415841584","black","no","legacy","legacy","legacy","0","uniform","1","undefined","undefined","undefined","1","j","0","0","0","0","100","0","0","0","100","0","96","100","96","0","96","3","100","0","100","Thu Feb 18 13:34:15 2021","The main experiment item","yes","Lexical_Decision_Task.osexp","/Users/sabaahmed","no","Andale Mono","no","18","no","white","no","yes","576","legacy","96","96","3","/Users/sabaahmed/subject-5226185LEXICAL.csv","legacy","Lentiform Loewenfeld","3.3.7","yes","yes","600bd7cfb6416f0113b04181","602110864497cf011d9c0822","0","j","NA","space","space","space","space","j","603","NA","10573","7940","4480","10981","603","2","legacy","1024","2","48000","-16","task","5226185","odd","NA","32062","44639","34064","273166","4860","17296","12815","273669","173273","273163","273669","273106","44639","274274","29546","272606","4816","254335","Lexical Decision Task","72","96901","101","yes","1024"
