"Log_BG","Log_Freq_HAL","Ortho_N","Stimulus","Type","acc","accuracy","average_response_time","avg_rt","background","bidi","canvas_backend","clock_backend","color_backend","compensation","coordinates","correct","correct_Experimental_intro","correct_Introduction","correct_Practice_intro","correct_experimenter_kb","correct_response","count_End_Of_Experiment","count_End_Of_Practice","count_Experimental_Loop","count_Experimental_intro","count_Fixation","count_Introduction","count_Practice_Loop","count_Practice_intro","count_Stimulus","count_block_break_feedback","count_experimental_sequence","count_experimenter_kb","count_increment_trial_count","count_init_trial_count","count_logger","count_practice_sequence","count_right","count_task","count_wrong","datetime","description","disable_garbage_collection","experiment_file","experiment_path","font_bold","font_family","font_italic","font_size","font_underline","foreground","form_clicks","fullscreen","height","keyboard_backend","live_row","live_row_Experimental_Loop","live_row_Practice_Loop","logfile","mouse_backend","opensesame_codename","opensesame_version","osf_always_upload_data","osf_always_upload_experiment","osf_datanode_id","osf_id","repeat_cycle","response","response_End_Of_Experiment","response_Experimental_intro","response_Introduction","response_Practice_intro","response_block_break_feedback","response_experimenter_kb","response_time","response_time_End_Of_Experiment","response_time_Experimental_intro","response_time_Introduction","response_time_Practice_intro","response_time_block_break_feedback","response_time_experimenter_kb","round_decimals","sampler_backend","sound_buf_size","sound_channels","sound_freq","sound_sample_size","start","subject_nr","subject_parity","time_End_Of_Experiment","time_End_Of_Practice","time_Experimental_Loop","time_Experimental_intro","time_Fixation","time_Introduction","time_Practice_Loop","time_Practice_intro","time_Stimulus","time_block_break_feedback","time_experimental_sequence","time_experimenter_kb","time_increment_trial_count","time_init_trial_count","time_logger","time_practice_sequence","time_right","time_task","time_wrong","title","total_correct","total_response_time","total_responses","uniform_coordinates","width"
"3.028977705","0","7","frow","non-word","100","100","861.2","861.2","black","no","legacy","legacy","legacy","0","uniform","1","undefined","undefined","undefined","1","f","0","0","0","0","4","0","0","0","4","NA","0","4","0","0","0","3","4","0","4","Tue Feb 16 13:46:31 2021","The main experiment item","yes","Lexical_Decision_Task.osexp","C:\Users\david\Downloads","no","Andale Mono","no","18","no","white","no","yes","576","legacy","0","0","3","C:/Users/david/Documents/Open Sesame/subject-5212977.csv","legacy","Lentiform Loewenfeld","3.3.7","yes","yes","600bd7cfb6416f0113b04181","602110864497cf011d9c0822","0","f","NA","space","space","space","NA","f","1266","NA","2988","10631","4788","NA","1266","2","legacy","1024","2","48000","-16","task","5212977","odd","NA","24952","29941","26953","29977","2247","17669","12880","30478","NA","29976","30478","NA","29941","31745","23279","24434","2239","NA","Lexical Decision Task","5","4306","5","yes","1024"
"3.378276681","6.39","8","bran","word","83.33333333333333","83.33333333333333","859.8333333333334","859.8333333333334","black","no","legacy","legacy","legacy","0","uniform","0","undefined","undefined","undefined","0","j","0","0","0","0","5","0","0","0","5","NA","1","5","1","0","1","3","5","0","5","Tue Feb 16 13:46:31 2021","The main experiment item","yes","Lexical_Decision_Task.osexp","C:\Users\david\Downloads","no","Andale Mono","no","18","no","white","no","yes","576","legacy","1","1","3","C:/Users/david/Documents/Open Sesame/subject-5212977.csv","legacy","Lentiform Loewenfeld","3.3.7","yes","yes","600bd7cfb6416f0113b04181","602110864497cf011d9c0822","0","f","NA","space","space","space","NA","f","853","NA","2988","10631","4788","NA","853","2","legacy","1024","2","48000","-16","task","5212977","odd","NA","24952","29941","26953","32463","2247","17669","12880","32964","NA","32462","32964","32328","29941","33818","23279","31828","2239","NA","Lexical Decision Task","5","5159","6","yes","1024"
"2.845304797","0","6","buct","non-word","85.71428571428571","85.71428571428571","837.2857142857143","837.2857142857143","black","no","legacy","legacy","legacy","0","uniform","1","undefined","undefined","undefined","1","f","0","0","0","0","6","0","0","0","6","NA","2","6","2","0","2","3","6","0","6","Tue Feb 16 13:46:31 2021","The main experiment item","yes","Lexical_Decision_Task.osexp","C:\Users\david\Downloads","no","Andale Mono","no","18","no","white","no","yes","576","legacy","2","2","3","C:/Users/david/Documents/Open Sesame/subject-5212977.csv","legacy","Lentiform Loewenfeld","3.3.7","yes","yes","600bd7cfb6416f0113b04181","602110864497cf011d9c0822","0","f","NA","space","space","space","NA","f","702","NA","2988","10631","4788","NA","702","2","legacy","1024","2","48000","-16","task","5212977","odd","NA","24952","29941","26953","35448","2247","17669","12880","35951","NA","35446","35951","35397","29941","36653","23279","31828","2239","33896","Lexical Decision Task","6","5861","7","yes","1024"
"3.257359335","8","6","brew","word","87.5","87.5","808.625","808.625","black","no","legacy","legacy","legacy","0","uniform","1","undefined","undefined","undefined","1","j","0","0","0","0","7","0","0","0","7","NA","3","7","3","0","3","3","7","0","7","Tue Feb 16 13:46:31 2021","The main experiment item","yes","Lexical_Decision_Task.osexp","C:\Users\david\Downloads","no","Andale Mono","no","18","no","white","no","yes","576","legacy","3","3","3","C:/Users/david/Documents/Open Sesame/subject-5212977.csv","legacy","Lentiform Loewenfeld","3.3.7","yes","yes","600bd7cfb6416f0113b04181","602110864497cf011d9c0822","0","j","NA","space","space","space","NA","j","608","NA","2988","10631","4788","NA","608","2","legacy","1024","2","48000","-16","task","5212977","odd","NA","24952","29941","26953","37280","2247","17669","12880","37781","NA","37278","37781","37231","29941","38389","23279","36731","2239","33896","Lexical Decision Task","7","6469","8","yes","1024"
"3.474361976","5.24","6","veer","word","88.88888888888889","88.88888888888889","825.4444444444445","825.4444444444445","black","no","legacy","legacy","legacy","0","uniform","1","undefined","undefined","undefined","1","j","0","0","0","0","8","0","0","0","8","NA","4","8","4","0","4","3","8","0","8","Tue Feb 16 13:46:31 2021","The main experiment item","yes","Lexical_Decision_Task.osexp","C:\Users\david\Downloads","no","Andale Mono","no","18","no","white","no","yes","576","legacy","4","4","3","C:/Users/david/Documents/Open Sesame/subject-5212977.csv","legacy","Lentiform Loewenfeld","3.3.7","yes","yes","600bd7cfb6416f0113b04181","602110864497cf011d9c0822","0","j","NA","space","space","space","NA","j","960","NA","2988","10631","4788","NA","960","2","legacy","1024","2","48000","-16","task","5212977","odd","NA","24952","29941","26953","38944","2247","17669","12880","39445","NA","38942","39445","38892","29941","40405","23279","38392","2239","33896","Lexical Decision Task","8","7429","9","yes","1024"
"2.799799878","0","4","ciff","non-word","90","90","823.6","823.6","black","no","legacy","legacy","legacy","0","uniform","1","undefined","undefined","undefined","1","f","0","0","0","0","9","0","0","0","9","NA","5","9","5","0","5","3","9","0","9","Tue Feb 16 13:46:31 2021","The main experiment item","yes","Lexical_Decision_Task.osexp","C:\Users\david\Downloads","no","Andale Mono","no","18","no","white","no","yes","576","legacy","5","5","3","C:/Users/david/Documents/Open Sesame/subject-5212977.csv","legacy","Lentiform Loewenfeld","3.3.7","yes","yes","600bd7cfb6416f0113b04181","602110864497cf011d9c0822","0","f","NA","space","space","space","NA","f","807","NA","2988","10631","4788","NA","807","2","legacy","1024","2","48000","-16","task","5212977","odd","NA","24952","29941","26953","41036","2247","17669","12880","41537","NA","41035","41537","40986","29941","42345","23279","40486","2239","33896","Lexical Decision Task","9","8236","10","yes","1024"
"2.907588697","8.91","9","mood","word","90.9090909090909","90.9090909090909","798.7272727272727","798.7272727272727","black","no","legacy","legacy","legacy","0","uniform","1","undefined","undefined","undefined","1","j","0","0","0","0","10","0","0","0","10","NA","6","10","6","0","6","3","10","0","10","Tue Feb 16 13:46:31 2021","The main experiment item","yes","Lexical_Decision_Task.osexp","C:\Users\david\Downloads","no","Andale Mono","no","18","no","white","no","yes","576","legacy","6","6","3","C:/Users/david/Documents/Open Sesame/subject-5212977.csv","legacy","Lentiform Loewenfeld","3.3.7","yes","yes","600bd7cfb6416f0113b04181","602110864497cf011d9c0822","0","j","NA","space","space","space","NA","j","550","NA","2988","10631","4788","NA","550","2","legacy","1024","2","48000","-16","task","5212977","odd","NA","24952","29941","26953","42899","2247","17669","12880","43402","NA","42898","43402","42849","29941","43954","23279","42349","2239","33896","Lexical Decision Task","10","8786","11","yes","1024"
"2.812467698","0","7","hafe","non-word","91.66666666666667","91.66666666666667","785.3333333333334","785.3333333333334","black","no","legacy","legacy","legacy","0","uniform","1","undefined","undefined","undefined","1","f","0","0","0","0","11","0","0","0","11","NA","7","11","7","0","7","3","11","0","11","Tue Feb 16 13:46:31 2021","The main experiment item","yes","Lexical_Decision_Task.osexp","C:\Users\david\Downloads","no","Andale Mono","no","18","no","white","no","yes","576","legacy","7","7","3","C:/Users/david/Documents/Open Sesame/subject-5212977.csv","legacy","Lentiform Loewenfeld","3.3.7","yes","yes","600bd7cfb6416f0113b04181","602110864497cf011d9c0822","0","f","NA","space","space","space","NA","f","638","NA","2988","10631","4788","NA","638","2","legacy","1024","2","48000","-16","task","5212977","odd","NA","24952","29941","26953","44580","2247","17669","12880","45082","NA","44579","45082","44531","29941","45720","23279","44031","2239","33896","Lexical Decision Task","11","9424","12","yes","1024"
"3.263399331","0","8","cour","non-word","92.3076923076923","92.3076923076923","775.8461538461538","775.8461538461538","black","no","legacy","legacy","legacy","0","uniform","1","undefined","undefined","undefined","1","f","0","0","0","0","12","0","0","0","12","NA","8","12","8","0","8","3","12","0","12","Tue Feb 16 13:46:31 2021","The main experiment item","yes","Lexical_Decision_Task.osexp","C:\Users\david\Downloads","no","Andale Mono","no","18","no","white","no","yes","576","legacy","8","8","3","C:/Users/david/Documents/Open Sesame/subject-5212977.csv","legacy","Lentiform Loewenfeld","3.3.7","yes","yes","600bd7cfb6416f0113b04181","602110864497cf011d9c0822","0","f","NA","space","space","space","NA","f","662","NA","2988","10631","4788","NA","662","2","legacy","1024","2","48000","-16","task","5212977","odd","NA","24952","29941","26953","46357","2247","17669","12880","46858","NA","46355","46858","46300","29941","47521","23279","45800","2239","33896","Lexical Decision Task","12","10086","13","yes","1024"
"3.303771854","0","9","dath","non-word","92.85714285714286","92.85714285714286","768","768","black","no","legacy","legacy","legacy","0","uniform","1","undefined","undefined","undefined","1","f","0","0","0","0","13","0","0","0","13","NA","9","13","9","0","9","3","13","0","13","Tue Feb 16 13:46:31 2021","The main experiment item","yes","Lexical_Decision_Task.osexp","C:\Users\david\Downloads","no","Andale Mono","no","18","no","white","no","yes","576","legacy","9","9","3","C:/Users/david/Documents/Open Sesame/subject-5212977.csv","legacy","Lentiform Loewenfeld","3.3.7","yes","yes","600bd7cfb6416f0113b04181","602110864497cf011d9c0822","0","f","NA","space","space","space","NA","f","666","NA","2988","10631","4788","NA","666","2","legacy","1024","2","48000","-16","task","5212977","odd","NA","24952","29941","26953","48150","2247","17669","12880","48651","NA","48148","48651","48101","29941","49317","23279","47600","2239","33896","Lexical Decision Task","13","10752","14","yes","1024"
"3.261341392","5.08","8","reek","word","86.66666666666667","86.66666666666667","789.6666666666666","789.6666666666666","black","no","legacy","legacy","legacy","0","uniform","0","undefined","undefined","undefined","0","j","0","0","0","0","14","0","0","0","14","NA","10","14","10","0","10","3","14","0","14","Tue Feb 16 13:46:31 2021","The main experiment item","yes","Lexical_Decision_Task.osexp","C:\Users\david\Downloads","no","Andale Mono","no","18","no","white","no","yes","576","legacy","10","10","3","C:/Users/david/Documents/Open Sesame/subject-5212977.csv","legacy","Lentiform Loewenfeld","3.3.7","yes","yes","600bd7cfb6416f0113b04181","602110864497cf011d9c0822","0","f","NA","space","space","space","NA","f","1093","NA","2988","10631","4788","NA","1093","2","legacy","1024","2","48000","-16","task","5212977","odd","NA","24952","29941","26953","49945","2247","17669","12880","50447","NA","49944","50447","49896","29941","51541","23279","49396","2239","33896","Lexical Decision Task","13","11845","15","yes","1024"
"2.784379519","0","2","snaf","non-word","87.5","87.5","785.5","785.5","black","no","legacy","legacy","legacy","0","uniform","1","undefined","undefined","undefined","1","f","0","0","0","0","15","0","0","0","15","NA","11","15","11","0","11","3","15","0","15","Tue Feb 16 13:46:31 2021","The main experiment item","yes","Lexical_Decision_Task.osexp","C:\Users\david\Downloads","no","Andale Mono","no","18","no","white","no","yes","576","legacy","11","11","3","C:/Users/david/Documents/Open Sesame/subject-5212977.csv","legacy","Lentiform Loewenfeld","3.3.7","yes","yes","600bd7cfb6416f0113b04181","602110864497cf011d9c0822","0","f","NA","space","space","space","NA","f","723","NA","2988","10631","4788","NA","723","2","legacy","1024","2","48000","-16","task","5212977","odd","NA","24952","29941","26953","53174","2247","17669","12880","53675","NA","53173","53675","53122","29941","54399","23279","49396","2239","51622","Lexical Decision Task","14","12568","16","yes","1024"
"3.031812271","6.52","3","gulp","word","88.23529411764706","88.23529411764706","785.2352941176471","785.2352941176471","black","no","legacy","legacy","legacy","0","uniform","1","undefined","undefined","undefined","1","j","0","0","0","0","16","0","0","0","16","NA","12","16","12","0","12","3","16","0","16","Tue Feb 16 13:46:31 2021","The main experiment item","yes","Lexical_Decision_Task.osexp","C:\Users\david\Downloads","no","Andale Mono","no","18","no","white","no","yes","576","legacy","12","12","3","C:/Users/david/Documents/Open Sesame/subject-5212977.csv","legacy","Lentiform Loewenfeld","3.3.7","yes","yes","600bd7cfb6416f0113b04181","602110864497cf011d9c0822","0","j","NA","space","space","space","NA","j","781","NA","2988","10631","4788","NA","781","2","legacy","1024","2","48000","-16","task","5212977","odd","NA","24952","29941","26953","55028","2247","17669","12880","55529","NA","55027","55529","54979","29941","56311","23279","54479","2239","51622","Lexical Decision Task","15","13349","17","yes","1024"
"2.719886232","7.98","2","quiz","word","88.88888888888889","88.88888888888889","769.0555555555555","769.0555555555555","black","no","legacy","legacy","legacy","0","uniform","1","undefined","undefined","undefined","1","j","0","0","0","0","17","0","0","0","17","NA","13","17","13","0","13","3","17","0","17","Tue Feb 16 13:46:31 2021","The main experiment item","yes","Lexical_Decision_Task.osexp","C:\Users\david\Downloads","no","Andale Mono","no","18","no","white","no","yes","576","legacy","13","13","3","C:/Users/david/Documents/Open Sesame/subject-5212977.csv","legacy","Lentiform Loewenfeld","3.3.7","yes","yes","600bd7cfb6416f0113b04181","602110864497cf011d9c0822","0","j","NA","space","space","space","NA","j","494","NA","2988","10631","4788","NA","494","2","legacy","1024","2","48000","-16","task","5212977","odd","NA","24952","29941","26953","56946","2247","17669","12880","57447","NA","56945","57447","56891","29941","57942","23279","56391","2239","51622","Lexical Decision Task","16","13843","18","yes","1024"
"2.880623071","0","9","curp","non-word","89.47368421052632","89.47368421052632","760.421052631579","760.421052631579","black","no","legacy","legacy","legacy","0","uniform","1","undefined","undefined","undefined","1","f","0","0","0","0","18","0","0","0","18","NA","14","18","14","0","14","3","18","0","18","Tue Feb 16 13:46:31 2021","The main experiment item","yes","Lexical_Decision_Task.osexp","C:\Users\david\Downloads","no","Andale Mono","no","18","no","white","no","yes","576","legacy","14","14","3","C:/Users/david/Documents/Open Sesame/subject-5212977.csv","legacy","Lentiform Loewenfeld","3.3.7","yes","yes","600bd7cfb6416f0113b04181","602110864497cf011d9c0822","0","f","NA","space","space","space","NA","f","605","NA","2988","10631","4788","NA","605","2","legacy","1024","2","48000","-16","task","5212977","odd","NA","24952","29941","26953","58569","2247","17669","12880","59071","NA","58568","59071","58520","29941","59676","23279","58020","2239","51622","Lexical Decision Task","17","14448","19","yes","1024"
"2.794720352","0","9","koot","non-word","90","90","756.35","756.35","black","no","legacy","legacy","legacy","0","uniform","1","undefined","undefined","undefined","1","f","0","0","0","0","19","0","0","0","19","NA","15","19","15","0","15","3","19","0","19","Tue Feb 16 13:46:31 2021","The main experiment item","yes","Lexical_Decision_Task.osexp","C:\Users\david\Downloads","no","Andale Mono","no","18","no","white","no","yes","576","legacy","15","15","3","C:/Users/david/Documents/Open Sesame/subject-5212977.csv","legacy","Lentiform Loewenfeld","3.3.7","yes","yes","600bd7cfb6416f0113b04181","602110864497cf011d9c0822","0","f","NA","space","space","space","NA","f","679","NA","2988","10631","4788","NA","679","2","legacy","1024","2","48000","-16","task","5212977","odd","NA","24952","29941","26953","60306","2247","17669","12880","60807","NA","60305","60807","60256","29941","61486","23279","59756","2239","51622","Lexical Decision Task","18","15127","20","yes","1024"
"2.668385917","5.48","4","twig","word","90.47619047619048","90.47619047619048","746.0952380952381","746.0952380952381","black","no","legacy","legacy","legacy","0","uniform","1","undefined","undefined","undefined","1","j","0","0","0","0","20","0","0","0","20","NA","16","20","16","0","16","3","20","0","20","Tue Feb 16 13:46:31 2021","The main experiment item","yes","Lexical_Decision_Task.osexp","C:\Users\david\Downloads","no","Andale Mono","no","18","no","white","no","yes","576","legacy","16","16","3","C:/Users/david/Documents/Open Sesame/subject-5212977.csv","legacy","Lentiform Loewenfeld","3.3.7","yes","yes","600bd7cfb6416f0113b04181","602110864497cf011d9c0822","0","j","NA","space","space","space","NA","j","541","NA","2988","10631","4788","NA","541","2","legacy","1024","2","48000","-16","task","5212977","odd","NA","24952","29941","26953","62115","2247","17669","12880","62616","NA","62114","62616","62067","29941","63158","23279","61567","2239","51622","Lexical Decision Task","19","15668","21","yes","1024"
"3.492014979","0","9","yine","non-word","90.9090909090909","90.9090909090909","736.2727272727273","736.2727272727273","black","no","legacy","legacy","legacy","0","uniform","1","undefined","undefined","undefined","1","f","0","0","0","0","21","0","0","0","21","NA","17","21","17","0","17","3","21","0","21","Tue Feb 16 13:46:31 2021","The main experiment item","yes","Lexical_Decision_Task.osexp","C:\Users\david\Downloads","no","Andale Mono","no","18","no","white","no","yes","576","legacy","17","17","3","C:/Users/david/Documents/Open Sesame/subject-5212977.csv","legacy","Lentiform Loewenfeld","3.3.7","yes","yes","600bd7cfb6416f0113b04181","602110864497cf011d9c0822","0","f","NA","space","space","space","NA","f","530","NA","2988","10631","4788","NA","530","2","legacy","1024","2","48000","-16","task","5212977","odd","NA","24952","29941","26953","63786","2247","17669","12880","64287","NA","63785","64287","63737","29941","64818","23279","63236","2239","51622","Lexical Decision Task","20","16198","22","yes","1024"
"3.120135028","0","3","vals","non-word","91.30434782608695","91.30434782608695","728.6086956521739","728.6086956521739","black","no","legacy","legacy","legacy","0","uniform","1","undefined","undefined","undefined","1","f","0","0","0","0","22","0","0","0","22","NA","18","22","18","0","18","3","22","0","22","Tue Feb 16 13:46:31 2021","The main experiment item","yes","Lexical_Decision_Task.osexp","C:\Users\david\Downloads","no","Andale Mono","no","18","no","white","no","yes","576","legacy","18","18","3","C:/Users/david/Documents/Open Sesame/subject-5212977.csv","legacy","Lentiform Loewenfeld","3.3.7","yes","yes","600bd7cfb6416f0113b04181","602110864497cf011d9c0822","0","f","NA","space","space","space","NA","f","560","NA","2988","10631","4788","NA","560","2","legacy","1024","2","48000","-16","task","5212977","odd","NA","24952","29941","26953","65453","2247","17669","12880","65954","NA","65452","65954","65399","29941","66514","23279","64899","2239","51622","Lexical Decision Task","21","16758","23","yes","1024"
"2.9737419","7.69","7","claw","word","91.66666666666667","91.66666666666667","720.3333333333334","720.3333333333334","black","no","legacy","legacy","legacy","0","uniform","1","undefined","undefined","undefined","1","j","0","0","0","0","23","0","0","0","23","NA","19","23","19","0","19","3","23","0","23","Tue Feb 16 13:46:31 2021","The main experiment item","yes","Lexical_Decision_Task.osexp","C:\Users\david\Downloads","no","Andale Mono","no","18","no","white","no","yes","576","legacy","19","19","3","C:/Users/david/Documents/Open Sesame/subject-5212977.csv","legacy","Lentiform Loewenfeld","3.3.7","yes","yes","600bd7cfb6416f0113b04181","602110864497cf011d9c0822","0","j","NA","space","space","space","NA","j","530","NA","2988","10631","4788","NA","530","2","legacy","1024","2","48000","-16","task","5212977","odd","NA","24952","29941","26953","67142","2247","17669","12880","67643","NA","67141","67643","67093","29941","68174","23279","66593","2239","51622","Lexical Decision Task","22","17288","24","yes","1024"
"3.131833513","7.66","4","limb","word","92","92","709.32","709.32","black","no","legacy","legacy","legacy","0","uniform","1","undefined","undefined","undefined","1","j","0","0","0","0","24","0","0","0","24","NA","20","24","20","0","20","3","24","0","24","Tue Feb 16 13:46:31 2021","The main experiment item","yes","Lexical_Decision_Task.osexp","C:\Users\david\Downloads","no","Andale Mono","no","18","no","white","no","yes","576","legacy","20","20","3","C:/Users/david/Documents/Open Sesame/subject-5212977.csv","legacy","Lentiform Loewenfeld","3.3.7","yes","yes","600bd7cfb6416f0113b04181","602110864497cf011d9c0822","0","j","NA","space","space","space","NA","j","445","NA","2988","10631","4788","NA","445","2","legacy","1024","2","48000","-16","task","5212977","odd","NA","24952","29941","26953","68803","2247","17669","12880","69304","NA","68801","69304","68755","29941","69749","23279","68255","2239","51622","Lexical Decision Task","23","17733","25","yes","1024"
"3.252447662","9.67","9","boat","word","92.3076923076923","92.3076923076923","699.8461538461538","699.8461538461538","black","no","legacy","legacy","legacy","0","uniform","1","undefined","undefined","undefined","1","j","0","0","0","0","25","0","0","0","25","NA","21","25","21","0","21","3","25","0","25","Tue Feb 16 13:46:31 2021","The main experiment item","yes","Lexical_Decision_Task.osexp","C:\Users\david\Downloads","no","Andale Mono","no","18","no","white","no","yes","576","legacy","21","21","3","C:/Users/david/Documents/Open Sesame/subject-5212977.csv","legacy","Lentiform Loewenfeld","3.3.7","yes","yes","600bd7cfb6416f0113b04181","602110864497cf011d9c0822","0","j","NA","space","space","space","NA","j","463","NA","2988","10631","4788","NA","463","2","legacy","1024","2","48000","-16","task","5212977","odd","NA","24952","29941","26953","70377","2247","17669","12880","70878","NA","70376","70878","70328","29941","71341","23279","69828","2239","51622","Lexical Decision Task","24","18196","26","yes","1024"
"3.132473155","0","4","glim","non-word","88.88888888888889","88.88888888888889","709.5555555555555","709.5555555555555","black","no","legacy","legacy","legacy","0","uniform","0","undefined","undefined","undefined","0","f","0","0","0","0","26","0","0","0","26","NA","22","26","22","0","22","3","26","0","26","Tue Feb 16 13:46:31 2021","The main experiment item","yes","Lexical_Decision_Task.osexp","C:\Users\david\Downloads","no","Andale Mono","no","18","no","white","no","yes","576","legacy","22","22","3","C:/Users/david/Documents/Open Sesame/subject-5212977.csv","legacy","Lentiform Loewenfeld","3.3.7","yes","yes","600bd7cfb6416f0113b04181","602110864497cf011d9c0822","0","j","NA","space","space","space","NA","j","962","NA","2988","10631","4788","NA","962","2","legacy","1024","2","48000","-16","task","5212977","odd","NA","24952","29941","26953","71969","2247","17669","12880","72470","NA","71968","72470","71921","29941","73433","23279","71421","2239","51622","Lexical Decision Task","24","19158","27","yes","1024"
"3.382617311","0","4","pret","non-word","85.71428571428571","85.71428571428571","723.8928571428571","723.8928571428571","black","no","legacy","legacy","legacy","0","uniform","0","undefined","undefined","undefined","0","f","0","0","0","0","27","0","0","0","27","NA","23","27","23","0","23","3","27","0","27","Tue Feb 16 13:46:31 2021","The main experiment item","yes","Lexical_Decision_Task.osexp","C:\Users\david\Downloads","no","Andale Mono","no","18","no","white","no","yes","576","legacy","23","23","3","C:/Users/david/Documents/Open Sesame/subject-5212977.csv","legacy","Lentiform Loewenfeld","3.3.7","yes","yes","600bd7cfb6416f0113b04181","602110864497cf011d9c0822","0","j","NA","space","space","space","NA","j","1111","NA","2988","10631","4788","NA","1111","2","legacy","1024","2","48000","-16","task","5212977","odd","NA","24952","29941","26953","75063","2247","17669","12880","75565","NA","75062","75565","75012","29941","76677","23279","71421","2239","73512","Lexical Decision Task","24","20269","28","yes","1024"
"3.134602053","0","8","jart","non-word","86.20689655172414","86.20689655172414","721.8965517241379","721.8965517241379","black","no","legacy","legacy","legacy","0","uniform","1","undefined","undefined","undefined","1","f","0","0","0","0","28","0","0","0","28","NA","24","28","24","0","24","3","28","0","28","Tue Feb 16 13:46:31 2021","The main experiment item","yes","Lexical_Decision_Task.osexp","C:\Users\david\Downloads","no","Andale Mono","no","18","no","white","no","yes","576","legacy","24","24","3","C:/Users/david/Documents/Open Sesame/subject-5212977.csv","legacy","Lentiform Loewenfeld","3.3.7","yes","yes","600bd7cfb6416f0113b04181","602110864497cf011d9c0822","0","f","NA","space","space","space","NA","f","666","NA","2988","10631","4788","NA","666","2","legacy","1024","2","48000","-16","task","5212977","odd","NA","24952","29941","26953","78319","2247","17669","12880","78819","NA","78317","78819","78259","29941","79486","23279","71421","2239","76759","Lexical Decision Task","25","20935","29","yes","1024"
"2.675164031","8.57","6","glue","word","86.66666666666667","86.66666666666667","718.9666666666667","718.9666666666667","black","no","legacy","legacy","legacy","0","uniform","1","undefined","undefined","undefined","1","j","0","0","0","0","29","0","0","0","29","NA","25","29","25","0","25","3","29","0","29","Tue Feb 16 13:46:31 2021","The main experiment item","yes","Lexical_Decision_Task.osexp","C:\Users\david\Downloads","no","Andale Mono","no","18","no","white","no","yes","576","legacy","25","25","3","C:/Users/david/Documents/Open Sesame/subject-5212977.csv","legacy","Lentiform Loewenfeld","3.3.7","yes","yes","600bd7cfb6416f0113b04181","602110864497cf011d9c0822","0","j","NA","space","space","space","NA","j","634","NA","2988","10631","4788","NA","634","2","legacy","1024","2","48000","-16","task","5212977","odd","NA","24952","29941","26953","80116","2247","17669","12880","80617","NA","80115","80617","80066","29941","81252","23279","79566","2239","76759","Lexical Decision Task","26","21569","30","yes","1024"
"2.814027728","8.2","4","foam","word","87.09677419354838","87.09677419354838","720.2258064516129","720.2258064516129","black","no","legacy","legacy","legacy","0","uniform","1","undefined","undefined","undefined","1","j","0","0","0","0","30","0","0","0","30","NA","26","30","26","0","26","3","30","0","30","Tue Feb 16 13:46:31 2021","The main experiment item","yes","Lexical_Decision_Task.osexp","C:\Users\david\Downloads","no","Andale Mono","no","18","no","white","no","yes","576","legacy","26","26","3","C:/Users/david/Documents/Open Sesame/subject-5212977.csv","legacy","Lentiform Loewenfeld","3.3.7","yes","yes","600bd7cfb6416f0113b04181","602110864497cf011d9c0822","0","j","NA","space","space","space","NA","j","758","NA","2988","10631","4788","NA","758","2","legacy","1024","2","48000","-16","task","5212977","odd","NA","24952","29941","26953","81880","2247","17669","12880","82381","NA","81878","82382","81830","29941","83141","23279","81330","2239","76759","Lexical Decision Task","27","22327","31","yes","1024"
"2.703007489","8.37","3","pulp","word","87.5","87.5","713.96875","713.96875","black","no","legacy","legacy","legacy","0","uniform","1","undefined","undefined","undefined","1","j","0","0","0","0","31","0","0","0","31","NA","27","31","27","0","27","3","31","0","31","Tue Feb 16 13:46:31 2021","The main experiment item","yes","Lexical_Decision_Task.osexp","C:\Users\david\Downloads","no","Andale Mono","no","18","no","white","no","yes","576","legacy","27","27","3","C:/Users/david/Documents/Open Sesame/subject-5212977.csv","legacy","Lentiform Loewenfeld","3.3.7","yes","yes","600bd7cfb6416f0113b04181","602110864497cf011d9c0822","0","j","NA","space","space","space","NA","j","520","NA","2988","10631","4788","NA","520","2","legacy","1024","2","48000","-16","task","5212977","odd","NA","24952","29941","26953","83693","2247","17669","12880","84194","NA","83692","84194","83645","29941","84714","23279","83145","2239","76759","Lexical Decision Task","28","22847","32","yes","1024"
"2.82129731","6.72","5","plum","word","87.87878787878788","87.87878787878788","709.2121212121212","709.2121212121212","black","no","legacy","legacy","legacy","0","uniform","1","undefined","undefined","undefined","1","j","0","0","0","0","32","0","0","0","32","NA","28","32","28","0","28","3","32","0","32","Tue Feb 16 13:46:31 2021","The main experiment item","yes","Lexical_Decision_Task.osexp","C:\Users\david\Downloads","no","Andale Mono","no","18","no","white","no","yes","576","legacy","28","28","3","C:/Users/david/Documents/Open Sesame/subject-5212977.csv","legacy","Lentiform Loewenfeld","3.3.7","yes","yes","600bd7cfb6416f0113b04181","602110864497cf011d9c0822","0","j","NA","space","space","space","NA","j","557","NA","2988","10631","4788","NA","557","2","legacy","1024","2","48000","-16","task","5212977","odd","NA","24952","29941","26953","85345","2247","17669","12880","85847","NA","85344","85847","85295","29941","86404","23279","84795","2239","76759","Lexical Decision Task","29","23404","33","yes","1024"
"3.168400243","9.12","6","horn","word","88.23529411764706","88.23529411764706","703.8235294117648","703.8235294117648","black","no","legacy","legacy","legacy","0","uniform","1","undefined","undefined","undefined","1","j","0","0","0","0","33","0","0","0","33","NA","29","33","29","0","29","3","33","0","33","Tue Feb 16 13:46:31 2021","The main experiment item","yes","Lexical_Decision_Task.osexp","C:\Users\david\Downloads","no","Andale Mono","no","18","no","white","no","yes","576","legacy","29","29","3","C:/Users/david/Documents/Open Sesame/subject-5212977.csv","legacy","Lentiform Loewenfeld","3.3.7","yes","yes","600bd7cfb6416f0113b04181","602110864497cf011d9c0822","0","j","NA","space","space","space","NA","j","526","NA","2988","10631","4788","NA","526","2","legacy","1024","2","48000","-16","task","5212977","odd","NA","24952","29941","26953","87039","2247","17669","12880","87541","NA","87038","87542","86984","29941","88068","23279","86484","2239","76759","Lexical Decision Task","30","23930","34","yes","1024"
"2.966923697","5.4","2","fume","word","88.57142857142857","88.57142857142857","702.6571428571428","702.6571428571428","black","no","legacy","legacy","legacy","0","uniform","1","undefined","undefined","undefined","1","j","0","0","0","0","34","0","0","0","34","NA","30","34","30","0","30","3","34","0","34","Tue Feb 16 13:46:31 2021","The main experiment item","yes","Lexical_Decision_Task.osexp","C:\Users\david\Downloads","no","Andale Mono","no","18","no","white","no","yes","576","legacy","30","30","3","C:/Users/david/Documents/Open Sesame/subject-5212977.csv","legacy","Lentiform Loewenfeld","3.3.7","yes","yes","600bd7cfb6416f0113b04181","602110864497cf011d9c0822","0","j","NA","space","space","space","NA","j","663","NA","2988","10631","4788","NA","663","2","legacy","1024","2","48000","-16","task","5212977","odd","NA","24952","29941","26953","88702","2247","17669","12880","89203","NA","88700","89203","88647","29941","89867","23279","88147","2239","76759","Lexical Decision Task","31","24593","35","yes","1024"
"3.274157849","0","8","leet","non-word","86.11111111111111","86.11111111111111","696.5833333333334","696.5833333333334","black","no","legacy","legacy","legacy","0","uniform","0","undefined","undefined","undefined","0","f","0","0","0","0","35","0","0","0","35","NA","31","35","31","0","31","3","35","0","35","Tue Feb 16 13:46:31 2021","The main experiment item","yes","Lexical_Decision_Task.osexp","C:\Users\david\Downloads","no","Andale Mono","no","18","no","white","no","yes","576","legacy","31","31","3","C:/Users/david/Documents/Open Sesame/subject-5212977.csv","legacy","Lentiform Loewenfeld","3.3.7","yes","yes","600bd7cfb6416f0113b04181","602110864497cf011d9c0822","0","j","NA","space","space","space","NA","j","484","NA","2988","10631","4788","NA","484","2","legacy","1024","2","48000","-16","task","5212977","odd","NA","24952","29941","26953","90497","2247","17669","12880","90998","NA","90496","90998","90448","29941","91483","23279","89948","2239","76759","Lexical Decision Task","31","25077","36","yes","1024"
"3.460446784","0","5","dess","non-word","86.48648648648648","86.48648648648648","699.4324324324324","699.4324324324324","black","no","legacy","legacy","legacy","0","uniform","1","undefined","undefined","undefined","1","f","0","0","0","0","36","0","0","0","36","NA","32","36","32","0","32","3","36","0","36","Tue Feb 16 13:46:31 2021","The main experiment item","yes","Lexical_Decision_Task.osexp","C:\Users\david\Downloads","no","Andale Mono","no","18","no","white","no","yes","576","legacy","32","32","3","C:/Users/david/Documents/Open Sesame/subject-5212977.csv","legacy","Lentiform Loewenfeld","3.3.7","yes","yes","600bd7cfb6416f0113b04181","602110864497cf011d9c0822","0","f","NA","space","space","space","NA","f","802","NA","2988","10631","4788","NA","802","2","legacy","1024","2","48000","-16","task","5212977","odd","NA","24952","29941","26953","93121","2247","17669","12880","93622","NA","93120","93622","93062","29941","94425","23279","89948","2239","91562","Lexical Decision Task","32","25879","37","yes","1024"
"2.576725172","0","8","gowl","non-word","84.21052631578948","84.21052631578948","712.7631578947369","712.7631578947369","black","no","legacy","legacy","legacy","0","uniform","0","undefined","undefined","undefined","0","f","0","0","0","0","37","0","0","0","37","NA","33","37","33","0","33","3","37","0","37","Tue Feb 16 13:46:31 2021","The main experiment item","yes","Lexical_Decision_Task.osexp","C:\Users\david\Downloads","no","Andale Mono","no","18","no","white","no","yes","576","legacy","33","33","3","C:/Users/david/Documents/Open Sesame/subject-5212977.csv","legacy","Lentiform Loewenfeld","3.3.7","yes","yes","600bd7cfb6416f0113b04181","602110864497cf011d9c0822","0","j","NA","space","space","space","NA","j","1206","NA","2988","10631","4788","NA","1206","2","legacy","1024","2","48000","-16","task","5212977","odd","NA","24952","29941","26953","94980","2247","17669","12880","95482","NA","94979","95482","94928","29941","96689","23279","94428","2239","91562","Lexical Decision Task","32","27085","38","yes","1024"
"3.15462682","0","6","noal","non-word","84.61538461538461","84.61538461538461","714.6923076923077","714.6923076923077","black","no","legacy","legacy","legacy","0","uniform","1","undefined","undefined","undefined","1","f","0","0","0","0","38","0","0","0","38","NA","34","38","34","0","34","3","38","0","38","Tue Feb 16 13:46:31 2021","The main experiment item","yes","Lexical_Decision_Task.osexp","C:\Users\david\Downloads","no","Andale Mono","no","18","no","white","no","yes","576","legacy","34","34","3","C:/Users/david/Documents/Open Sesame/subject-5212977.csv","legacy","Lentiform Loewenfeld","3.3.7","yes","yes","600bd7cfb6416f0113b04181","602110864497cf011d9c0822","0","f","NA","space","space","space","NA","f","788","NA","2988","10631","4788","NA","788","2","legacy","1024","2","48000","-16","task","5212977","odd","NA","24952","29941","26953","98330","2247","17669","12880","98832","NA","98328","98832","98281","29941","99622","23279","94428","2239","96781","Lexical Decision Task","33","27873","39","yes","1024"
"2.898725182","0","7","turl","non-word","85","85","716.15","716.15","black","no","legacy","legacy","legacy","0","uniform","1","undefined","undefined","undefined","1","f","0","0","0","0","39","0","0","0","39","NA","35","39","35","0","35","3","39","0","39","Tue Feb 16 13:46:31 2021","The main experiment item","yes","Lexical_Decision_Task.osexp","C:\Users\david\Downloads","no","Andale Mono","no","18","no","white","no","yes","576","legacy","35","35","3","C:/Users/david/Documents/Open Sesame/subject-5212977.csv","legacy","Lentiform Loewenfeld","3.3.7","yes","yes","600bd7cfb6416f0113b04181","602110864497cf011d9c0822","0","f","NA","space","space","space","NA","f","773","NA","2988","10631","4788","NA","773","2","legacy","1024","2","48000","-16","task","5212977","odd","NA","24952","29941","26953","100254","2247","17669","12880","100755","NA","100254","100755","100203","29941","101528","23279","99703","2239","96781","Lexical Decision Task","34","28646","40","yes","1024"
"2.953276337","6.32","4","thaw","word","85.36585365853658","85.36585365853658","715.3170731707318","715.3170731707318","black","no","legacy","legacy","legacy","0","uniform","1","undefined","undefined","undefined","1","j","0","0","0","0","40","0","0","0","40","NA","36","40","36","0","36","3","40","0","40","Tue Feb 16 13:46:31 2021","The main experiment item","yes","Lexical_Decision_Task.osexp","C:\Users\david\Downloads","no","Andale Mono","no","18","no","white","no","yes","576","legacy","36","36","3","C:/Users/david/Documents/Open Sesame/subject-5212977.csv","legacy","Lentiform Loewenfeld","3.3.7","yes","yes","600bd7cfb6416f0113b04181","602110864497cf011d9c0822","0","j","NA","space","space","space","NA","j","682","NA","2988","10631","4788","NA","682","2","legacy","1024","2","48000","-16","task","5212977","odd","NA","24952","29941","26953","102081","2247","17669","12880","102583","NA","102080","102583","102031","29941","103265","23279","101531","2239","96781","Lexical Decision Task","35","29328","41","yes","1024"
"2.693726949","5.08","3","swig","word","83.33333333333333","83.33333333333333","717.0952380952381","717.0952380952381","black","no","legacy","legacy","legacy","0","uniform","0","undefined","undefined","undefined","0","j","0","0","0","0","41","0","0","0","41","NA","37","41","37","0","37","3","41","0","41","Tue Feb 16 13:46:31 2021","The main experiment item","yes","Lexical_Decision_Task.osexp","C:\Users\david\Downloads","no","Andale Mono","no","18","no","white","no","yes","576","legacy","37","37","3","C:/Users/david/Documents/Open Sesame/subject-5212977.csv","legacy","Lentiform Loewenfeld","3.3.7","yes","yes","600bd7cfb6416f0113b04181","602110864497cf011d9c0822","0","f","NA","space","space","space","NA","f","790","NA","2988","10631","4788","NA","790","2","legacy","1024","2","48000","-16","task","5212977","odd","NA","24952","29941","26953","103895","2247","17669","12880","104396","NA","103894","104396","103847","29941","105186","23279","103347","2239","96781","Lexical Decision Task","35","30118","42","yes","1024"
"3.037294994","8.64","7","roof","word","83.72093023255815","83.72093023255815","714.9767441860465","714.9767441860465","black","no","legacy","legacy","legacy","0","uniform","1","undefined","undefined","undefined","1","j","0","0","0","0","42","0","0","0","42","NA","38","42","38","0","38","3","42","0","42","Tue Feb 16 13:46:31 2021","The main experiment item","yes","Lexical_Decision_Task.osexp","C:\Users\david\Downloads","no","Andale Mono","no","18","no","white","no","yes","576","legacy","38","38","3","C:/Users/david/Documents/Open Sesame/subject-5212977.csv","legacy","Lentiform Loewenfeld","3.3.7","yes","yes","600bd7cfb6416f0113b04181","602110864497cf011d9c0822","0","j","NA","space","space","space","NA","j","626","NA","2988","10631","4788","NA","626","2","legacy","1024","2","48000","-16","task","5212977","odd","NA","24952","29941","26953","106818","2247","17669","12880","107319","NA","106816","107319","106768","29941","107945","23279","103347","2239","105268","Lexical Decision Task","36","30744","43","yes","1024"
"3.495914186","0","4","peng","non-word","81.81818181818181","81.81818181818181","726.7954545454545","726.7954545454545","black","no","legacy","legacy","legacy","0","uniform","0","undefined","undefined","undefined","0","f","0","0","0","0","43","0","0","0","43","NA","39","43","39","0","39","3","43","0","43","Tue Feb 16 13:46:31 2021","The main experiment item","yes","Lexical_Decision_Task.osexp","C:\Users\david\Downloads","no","Andale Mono","no","18","no","white","no","yes","576","legacy","39","39","3","C:/Users/david/Documents/Open Sesame/subject-5212977.csv","legacy","Lentiform Loewenfeld","3.3.7","yes","yes","600bd7cfb6416f0113b04181","602110864497cf011d9c0822","0","j","NA","space","space","space","NA","j","1235","NA","2988","10631","4788","NA","1235","2","legacy","1024","2","48000","-16","task","5212977","odd","NA","24952","29941","26953","108503","2247","17669","12880","109004","NA","108502","109004","108450","29941","110240","23279","107950","2239","105268","Lexical Decision Task","36","31979","44","yes","1024"
"3.174641193","0","3","ramb","non-word","82.22222222222223","82.22222222222223","726.9333333333333","726.9333333333333","black","no","legacy","legacy","legacy","0","uniform","1","undefined","undefined","undefined","1","f","0","0","0","0","44","0","0","0","44","NA","40","44","40","0","40","3","44","0","44","Tue Feb 16 13:46:31 2021","The main experiment item","yes","Lexical_Decision_Task.osexp","C:\Users\david\Downloads","no","Andale Mono","no","18","no","white","no","yes","576","legacy","40","40","3","C:/Users/david/Documents/Open Sesame/subject-5212977.csv","legacy","Lentiform Loewenfeld","3.3.7","yes","yes","600bd7cfb6416f0113b04181","602110864497cf011d9c0822","0","f","NA","space","space","space","NA","f","733","NA","2988","10631","4788","NA","733","2","legacy","1024","2","48000","-16","task","5212977","odd","NA","24952","29941","26953","111792","2247","17669","12880","112294","NA","111791","112294","111745","29941","113027","23279","107950","2239","110245","Lexical Decision Task","37","32712","45","yes","1024"
"2.884795364","0","6","flob","non-word","82.6086956521739","82.6086956521739","728.3913043478261","728.3913043478261","black","no","legacy","legacy","legacy","0","uniform","1","undefined","undefined","undefined","1","f","0","0","0","0","45","0","0","0","45","NA","41","45","41","0","41","3","45","0","45","Tue Feb 16 13:46:31 2021","The main experiment item","yes","Lexical_Decision_Task.osexp","C:\Users\david\Downloads","no","Andale Mono","no","18","no","white","no","yes","576","legacy","41","41","3","C:/Users/david/Documents/Open Sesame/subject-5212977.csv","legacy","Lentiform Loewenfeld","3.3.7","yes","yes","600bd7cfb6416f0113b04181","602110864497cf011d9c0822","0","f","NA","space","space","space","NA","f","794","NA","2988","10631","4788","NA","794","2","legacy","1024","2","48000","-16","task","5212977","odd","NA","24952","29941","26953","113663","2247","17669","12880","114164","NA","113662","114164","113609","29941","114959","23279","113109","2239","110245","Lexical Decision Task","38","33506","46","yes","1024"
"2.86332286","6.71","2","feud","word","82.97872340425532","82.97872340425532","727.6808510638298","727.6808510638298","black","no","legacy","legacy","legacy","0","uniform","1","undefined","undefined","undefined","1","j","0","0","0","0","46","0","0","0","46","NA","42","46","42","0","42","3","46","0","46","Tue Feb 16 13:46:31 2021","The main experiment item","yes","Lexical_Decision_Task.osexp","C:\Users\david\Downloads","no","Andale Mono","no","18","no","white","no","yes","576","legacy","42","42","3","C:/Users/david/Documents/Open Sesame/subject-5212977.csv","legacy","Lentiform Loewenfeld","3.3.7","yes","yes","600bd7cfb6416f0113b04181","602110864497cf011d9c0822","0","j","NA","space","space","space","NA","j","695","NA","2988","10631","4788","NA","695","2","legacy","1024","2","48000","-16","task","5212977","odd","NA","24952","29941","26953","115601","2247","17669","12880","116102","NA","115600","116102","115539","29941","116799","23279","115039","2239","110245","Lexical Decision Task","39","34201","47","yes","1024"
"2.813801082","5.47","7","nook","word","83.33333333333333","83.33333333333333","728.0625","728.0625","black","no","legacy","legacy","legacy","0","uniform","1","undefined","undefined","undefined","1","j","0","0","0","0","47","0","0","0","47","NA","43","47","43","0","43","3","47","0","47","Tue Feb 16 13:46:31 2021","The main experiment item","yes","Lexical_Decision_Task.osexp","C:\Users\david\Downloads","no","Andale Mono","no","18","no","white","no","yes","576","legacy","43","43","3","C:/Users/david/Documents/Open Sesame/subject-5212977.csv","legacy","Lentiform Loewenfeld","3.3.7","yes","yes","600bd7cfb6416f0113b04181","602110864497cf011d9c0822","0","j","NA","space","space","space","NA","j","746","NA","2988","10631","4788","NA","746","2","legacy","1024","2","48000","-16","task","5212977","odd","NA","24952","29941","26953","117430","2247","17669","12880","117931","NA","117429","117931","117379","29941","118677","23279","116879","2239","110245","Lexical Decision Task","40","34947","48","yes","1024"
"3.100255637","0","6","brax","non-word","83.6734693877551","83.6734693877551","725.530612244898","725.530612244898","black","no","legacy","legacy","legacy","0","uniform","1","undefined","undefined","undefined","1","f","0","0","0","0","48","0","0","0","48","NA","44","48","44","0","44","3","48","0","48","Tue Feb 16 13:46:31 2021","The main experiment item","yes","Lexical_Decision_Task.osexp","C:\Users\david\Downloads","no","Andale Mono","no","18","no","white","no","yes","576","legacy","44","44","3","C:/Users/david/Documents/Open Sesame/subject-5212977.csv","legacy","Lentiform Loewenfeld","3.3.7","yes","yes","600bd7cfb6416f0113b04181","602110864497cf011d9c0822","0","f","NA","space","space","space","NA","f","604","NA","2988","10631","4788","NA","604","2","legacy","1024","2","48000","-16","task","5212977","odd","NA","24952","29941","26953","119307","2247","17669","12880","119809","NA","119306","119809","119257","29941","120414","23279","118757","2239","110245","Lexical Decision Task","41","35551","49","yes","1024"
"2.594027722","9.08","8","skip","word","84","84","721.82","721.82","black","no","legacy","legacy","legacy","0","uniform","1","undefined","undefined","undefined","1","j","0","0","0","0","49","0","0","0","49","NA","45","49","45","0","45","3","49","0","49","Tue Feb 16 13:46:31 2021","The main experiment item","yes","Lexical_Decision_Task.osexp","C:\Users\david\Downloads","no","Andale Mono","no","18","no","white","no","yes","576","legacy","45","45","3","C:/Users/david/Documents/Open Sesame/subject-5212977.csv","legacy","Lentiform Loewenfeld","3.3.7","yes","yes","600bd7cfb6416f0113b04181","602110864497cf011d9c0822","0","j","NA","space","space","space","NA","j","540","NA","2988","10631","4788","NA","540","2","legacy","1024","2","48000","-16","task","5212977","odd","NA","24952","29941","26953","121052","2247","17669","12880","121553","NA","121051","121553","120996","29941","122094","23279","120496","2239","110245","Lexical Decision Task","42","36091","50","yes","1024"
"3.208172527","10.27","7","deck","word","84.31372549019608","84.31372549019608","718.6274509803922","718.6274509803922","black","no","legacy","legacy","legacy","0","uniform","1","undefined","undefined","undefined","1","j","0","0","0","0","50","0","0","0","50","NA","46","50","46","0","46","3","50","0","50","Tue Feb 16 13:46:31 2021","The main experiment item","yes","Lexical_Decision_Task.osexp","C:\Users\david\Downloads","no","Andale Mono","no","18","no","white","no","yes","576","legacy","46","46","3","C:/Users/david/Documents/Open Sesame/subject-5212977.csv","legacy","Lentiform Loewenfeld","3.3.7","yes","yes","600bd7cfb6416f0113b04181","602110864497cf011d9c0822","0","j","NA","space","space","space","NA","j","559","NA","2988","10631","4788","NA","559","2","legacy","1024","2","48000","-16","task","5212977","odd","NA","24952","29941","26953","122722","2247","17669","12880","123223","NA","122721","123223","122674","29941","123783","23279","122174","2239","110245","Lexical Decision Task","43","36650","51","yes","1024"
"3.120025233","0","2","nyst","non-word","84.61538461538461","84.61538461538461","716.4807692307693","716.4807692307693","black","no","legacy","legacy","legacy","0","uniform","1","undefined","undefined","undefined","1","f","0","0","0","0","51","0","0","0","51","NA","47","51","47","0","47","3","51","0","51","Tue Feb 16 13:46:31 2021","The main experiment item","yes","Lexical_Decision_Task.osexp","C:\Users\david\Downloads","no","Andale Mono","no","18","no","white","no","yes","576","legacy","47","47","3","C:/Users/david/Documents/Open Sesame/subject-5212977.csv","legacy","Lentiform Loewenfeld","3.3.7","yes","yes","600bd7cfb6416f0113b04181","602110864497cf011d9c0822","0","f","NA","space","space","space","NA","f","607","NA","2988","10631","4788","NA","607","2","legacy","1024","2","48000","-16","task","5212977","odd","NA","24952","29941","26953","124413","2247","17669","12880","124914","NA","124411","124914","124364","29941","125522","23279","123864","2239","110245","Lexical Decision Task","44","37257","52","yes","1024"
"3.218535505","7.85","7","goat","word","84.90566037735849","84.90566037735849","712","712","black","no","legacy","legacy","legacy","0","uniform","1","undefined","undefined","undefined","1","j","0","0","0","0","52","0","0","0","52","NA","48","52","48","0","48","3","52","0","52","Tue Feb 16 13:46:31 2021","The main experiment item","yes","Lexical_Decision_Task.osexp","C:\Users\david\Downloads","no","Andale Mono","no","18","no","white","no","yes","576","legacy","48","48","3","C:/Users/david/Documents/Open Sesame/subject-5212977.csv","legacy","Lentiform Loewenfeld","3.3.7","yes","yes","600bd7cfb6416f0113b04181","602110864497cf011d9c0822","0","j","NA","space","space","space","NA","j","479","NA","2988","10631","4788","NA","479","2","legacy","1024","2","48000","-16","task","5212977","odd","NA","24952","29941","26953","126153","2247","17669","12880","126654","NA","126152","126654","126104","29941","127133","23279","125604","2239","110245","Lexical Decision Task","45","37736","53","yes","1024"
"2.972357144","0","5","dasp","non-word","85.18518518518519","85.18518518518519","711.4814814814815","711.4814814814815","black","no","legacy","legacy","legacy","0","uniform","1","undefined","undefined","undefined","1","f","0","0","0","0","53","0","0","0","53","NA","49","53","49","0","49","3","53","0","53","Tue Feb 16 13:46:31 2021","The main experiment item","yes","Lexical_Decision_Task.osexp","C:\Users\david\Downloads","no","Andale Mono","no","18","no","white","no","yes","576","legacy","49","49","3","C:/Users/david/Documents/Open Sesame/subject-5212977.csv","legacy","Lentiform Loewenfeld","3.3.7","yes","yes","600bd7cfb6416f0113b04181","602110864497cf011d9c0822","0","f","NA","space","space","space","NA","f","684","NA","2988","10631","4788","NA","684","2","legacy","1024","2","48000","-16","task","5212977","odd","NA","24952","29941","26953","127763","2247","17669","12880","128264","NA","127762","128264","127714","29941","128949","23279","127214","2239","110245","Lexical Decision Task","46","38420","54","yes","1024"
"3.140404328","10.66","9","deep","word","85.45454545454545","85.45454545454545","709.4545454545455","709.4545454545455","black","no","legacy","legacy","legacy","0","uniform","1","undefined","undefined","undefined","1","j","0","0","0","0","54","0","0","0","54","0","50","54","50","0","50","3","54","0","54","Tue Feb 16 13:46:31 2021","The main experiment item","yes","Lexical_Decision_Task.osexp","C:\Users\david\Downloads","no","Andale Mono","no","18","no","white","no","yes","576","legacy","50","50","3","C:/Users/david/Documents/Open Sesame/subject-5212977.csv","legacy","Lentiform Loewenfeld","3.3.7","yes","yes","600bd7cfb6416f0113b04181","602110864497cf011d9c0822","0","j","NA","space","space","space","space","j","600","NA","2988","10631","4788","4740","600","2","legacy","1024","2","48000","-16","task","5212977","odd","NA","24952","29941","26953","134348","2247","17669","12880","134849","129560","134347","134849","129529","29941","135449","23279","129029","2239","110245","Lexical Decision Task","47","39020","55","yes","1024"
"2.728085817","10.02","9","bike","word","85.71428571428571","85.71428571428571","705.6964285714286","705.6964285714286","black","no","legacy","legacy","legacy","0","uniform","1","undefined","undefined","undefined","1","j","0","0","0","0","55","0","0","0","55","0","51","55","51","0","51","3","55","0","55","Tue Feb 16 13:46:31 2021","The main experiment item","yes","Lexical_Decision_Task.osexp","C:\Users\david\Downloads","no","Andale Mono","no","18","no","white","no","yes","576","legacy","51","51","3","C:/Users/david/Documents/Open Sesame/subject-5212977.csv","legacy","Lentiform Loewenfeld","3.3.7","yes","yes","600bd7cfb6416f0113b04181","602110864497cf011d9c0822","0","j","NA","space","space","space","space","j","499","NA","2988","10631","4788","4740","499","2","legacy","1024","2","48000","-16","task","5212977","odd","NA","24952","29941","26953","136077","2247","17669","12880","136578","129560","136075","136578","136028","29941","137078","23279","135528","2239","110245","Lexical Decision Task","48","39519","56","yes","1024"
"3.091901331","0","9","nipe","non-word","85.96491228070175","85.96491228070175","703.2456140350877","703.2456140350877","black","no","legacy","legacy","legacy","0","uniform","1","undefined","undefined","undefined","1","f","0","0","0","0","56","0","0","0","56","0","52","56","52","0","52","3","56","0","56","Tue Feb 16 13:46:31 2021","The main experiment item","yes","Lexical_Decision_Task.osexp","C:\Users\david\Downloads","no","Andale Mono","no","18","no","white","no","yes","576","legacy","52","52","3","C:/Users/david/Documents/Open Sesame/subject-5212977.csv","legacy","Lentiform Loewenfeld","3.3.7","yes","yes","600bd7cfb6416f0113b04181","602110864497cf011d9c0822","0","f","NA","space","space","space","space","f","566","NA","2988","10631","4788","4740","566","2","legacy","1024","2","48000","-16","task","5212977","odd","NA","24952","29941","26953","137708","2247","17669","12880","138209","129560","137707","138209","137660","29941","138776","23279","137160","2239","110245","Lexical Decision Task","49","40085","57","yes","1024"
"3.443783828","7.65","3","verb","word","86.20689655172414","86.20689655172414","700.3620689655172","700.3620689655172","black","no","legacy","legacy","legacy","0","uniform","1","undefined","undefined","undefined","1","j","0","0","0","0","57","0","0","0","57","0","53","57","53","0","53","3","57","0","57","Tue Feb 16 13:46:31 2021","The main experiment item","yes","Lexical_Decision_Task.osexp","C:\Users\david\Downloads","no","Andale Mono","no","18","no","white","no","yes","576","legacy","53","53","3","C:/Users/david/Documents/Open Sesame/subject-5212977.csv","legacy","Lentiform Loewenfeld","3.3.7","yes","yes","600bd7cfb6416f0113b04181","602110864497cf011d9c0822","0","j","NA","space","space","space","space","j","536","NA","2988","10631","4788","4740","536","2","legacy","1024","2","48000","-16","task","5212977","odd","NA","24952","29941","26953","139413","2247","17669","12880","139914","129560","139412","139914","139356","29941","140451","23279","138856","2239","110245","Lexical Decision Task","50","40621","58","yes","1024"
"3.299579929","0","2","flis","non-word","86.44067796610169","86.44067796610169","696.5762711864406","696.5762711864406","black","no","legacy","legacy","legacy","0","uniform","1","undefined","undefined","undefined","1","f","0","0","0","0","58","0","0","0","58","0","54","58","54","0","54","3","58","0","58","Tue Feb 16 13:46:31 2021","The main experiment item","yes","Lexical_Decision_Task.osexp","C:\Users\david\Downloads","no","Andale Mono","no","18","no","white","no","yes","576","legacy","54","54","3","C:/Users/david/Documents/Open Sesame/subject-5212977.csv","legacy","Lentiform Loewenfeld","3.3.7","yes","yes","600bd7cfb6416f0113b04181","602110864497cf011d9c0822","0","f","NA","space","space","space","space","f","477","NA","2988","10631","4788","4740","477","2","legacy","1024","2","48000","-16","task","5212977","odd","NA","24952","29941","26953","141082","2247","17669","12880","141584","129560","141080","141584","141031","29941","142062","23279","140531","2239","110245","Lexical Decision Task","51","41098","59","yes","1024"
"2.899092422","7.27","6","snag","word","86.66666666666667","86.66666666666667","694.8833333333333","694.8833333333333","black","no","legacy","legacy","legacy","0","uniform","1","undefined","undefined","undefined","1","j","0","0","0","0","59","0","0","0","59","0","55","59","55","0","55","3","59","0","59","Tue Feb 16 13:46:31 2021","The main experiment item","yes","Lexical_Decision_Task.osexp","C:\Users\david\Downloads","no","Andale Mono","no","18","no","white","no","yes","576","legacy","55","55","3","C:/Users/david/Documents/Open Sesame/subject-5212977.csv","legacy","Lentiform Loewenfeld","3.3.7","yes","yes","600bd7cfb6416f0113b04181","602110864497cf011d9c0822","0","j","NA","space","space","space","space","j","595","NA","2988","10631","4788","4740","595","2","legacy","1024","2","48000","-16","task","5212977","odd","NA","24952","29941","26953","142691","2247","17669","12880","143192","129560","142690","143192","142643","29941","143788","23279","142143","2239","110245","Lexical Decision Task","52","41693","60","yes","1024"
"2.972819734","0","4","scew","non-word","86.88524590163935","86.88524590163935","697.4098360655738","697.4098360655738","black","no","legacy","legacy","legacy","0","uniform","1","undefined","undefined","undefined","1","f","0","0","0","0","60","0","0","0","60","0","56","60","56","0","56","3","60","0","60","Tue Feb 16 13:46:31 2021","The main experiment item","yes","Lexical_Decision_Task.osexp","C:\Users\david\Downloads","no","Andale Mono","no","18","no","white","no","yes","576","legacy","56","56","3","C:/Users/david/Documents/Open Sesame/subject-5212977.csv","legacy","Lentiform Loewenfeld","3.3.7","yes","yes","600bd7cfb6416f0113b04181","602110864497cf011d9c0822","0","f","NA","space","space","space","space","f","849","NA","2988","10631","4788","4740","849","2","legacy","1024","2","48000","-16","task","5212977","odd","NA","24952","29941","26953","144420","2247","17669","12880","144921","129560","144418","144921","144371","29941","145771","23279","143871","2239","110245","Lexical Decision Task","53","42542","61","yes","1024"
"3.225825991","0","7","talm","non-word","87.09677419354838","87.09677419354838","694.4193548387096","694.4193548387096","black","no","legacy","legacy","legacy","0","uniform","1","undefined","undefined","undefined","1","f","0","0","0","0","61","0","0","0","61","0","57","61","57","0","57","3","61","0","61","Tue Feb 16 13:46:31 2021","The main experiment item","yes","Lexical_Decision_Task.osexp","C:\Users\david\Downloads","no","Andale Mono","no","18","no","white","no","yes","576","legacy","57","57","3","C:/Users/david/Documents/Open Sesame/subject-5212977.csv","legacy","Lentiform Loewenfeld","3.3.7","yes","yes","600bd7cfb6416f0113b04181","602110864497cf011d9c0822","0","f","NA","space","space","space","space","f","512","NA","2988","10631","4788","4740","512","2","legacy","1024","2","48000","-16","task","5212977","odd","NA","24952","29941","26953","146402","2247","17669","12880","146903","129560","146399","146903","146351","29941","147416","23279","145851","2239","110245","Lexical Decision Task","54","43054","62","yes","1024"
"2.696644658","5.78","2","yolk","word","87.3015873015873","87.3015873015873","695.5873015873016","695.5873015873016","black","no","legacy","legacy","legacy","0","uniform","1","undefined","undefined","undefined","1","j","0","0","0","0","62","0","0","0","62","0","58","62","58","0","58","3","62","0","62","Tue Feb 16 13:46:31 2021","The main experiment item","yes","Lexical_Decision_Task.osexp","C:\Users\david\Downloads","no","Andale Mono","no","18","no","white","no","yes","576","legacy","58","58","3","C:/Users/david/Documents/Open Sesame/subject-5212977.csv","legacy","Lentiform Loewenfeld","3.3.7","yes","yes","600bd7cfb6416f0113b04181","602110864497cf011d9c0822","0","j","NA","space","space","space","space","j","768","NA","2988","10631","4788","4740","768","2","legacy","1024","2","48000","-16","task","5212977","odd","NA","24952","29941","26953","148049","2247","17669","12880","148550","129560","148048","148550","147999","29941","149319","23279","147499","2239","110245","Lexical Decision Task","55","43822","63","yes","1024"
"2.696356389","0","1","pizz","non-word","87.5","87.5","695.25","695.25","black","no","legacy","legacy","legacy","0","uniform","1","undefined","undefined","undefined","1","f","0","0","0","0","63","0","0","0","63","0","59","63","59","0","59","3","63","0","63","Tue Feb 16 13:46:31 2021","The main experiment item","yes","Lexical_Decision_Task.osexp","C:\Users\david\Downloads","no","Andale Mono","no","18","no","white","no","yes","576","legacy","59","59","3","C:/Users/david/Documents/Open Sesame/subject-5212977.csv","legacy","Lentiform Loewenfeld","3.3.7","yes","yes","600bd7cfb6416f0113b04181","602110864497cf011d9c0822","0","f","NA","space","space","space","space","f","674","NA","2988","10631","4788","4740","674","2","legacy","1024","2","48000","-16","task","5212977","odd","NA","24952","29941","26953","149949","2247","17669","12880","150450","129560","149947","150450","149899","29941","151125","23279","149399","2239","110245","Lexical Decision Task","56","44496","64","yes","1024"
"2.8162413","0","5","nusk","non-word","87.6923076923077","87.6923076923077","694.3076923076923","694.3076923076923","black","no","legacy","legacy","legacy","0","uniform","1","undefined","undefined","undefined","1","f","0","0","0","0","64","0","0","0","64","0","60","64","60","0","60","3","64","0","64","Tue Feb 16 13:46:31 2021","The main experiment item","yes","Lexical_Decision_Task.osexp","C:\Users\david\Downloads","no","Andale Mono","no","18","no","white","no","yes","576","legacy","60","60","3","C:/Users/david/Documents/Open Sesame/subject-5212977.csv","legacy","Lentiform Loewenfeld","3.3.7","yes","yes","600bd7cfb6416f0113b04181","602110864497cf011d9c0822","0","f","NA","space","space","space","space","f","634","NA","2988","10631","4788","4740","634","2","legacy","1024","2","48000","-16","task","5212977","odd","NA","24952","29941","26953","151757","2247","17669","12880","152258","129560","151756","152259","151705","29941","152894","23279","151205","2239","110245","Lexical Decision Task","57","45130","65","yes","1024"
"2.983324025","9.56","2","debt","word","87.87878787878788","87.87878787878788","691.1212121212121","691.1212121212121","black","no","legacy","legacy","legacy","0","uniform","1","undefined","undefined","undefined","1","j","0","0","0","0","65","0","0","0","65","0","61","65","61","0","61","3","65","0","65","Tue Feb 16 13:46:31 2021","The main experiment item","yes","Lexical_Decision_Task.osexp","C:\Users\david\Downloads","no","Andale Mono","no","18","no","white","no","yes","576","legacy","61","61","3","C:/Users/david/Documents/Open Sesame/subject-5212977.csv","legacy","Lentiform Loewenfeld","3.3.7","yes","yes","600bd7cfb6416f0113b04181","602110864497cf011d9c0822","0","j","NA","space","space","space","space","j","484","NA","2988","10631","4788","4740","484","2","legacy","1024","2","48000","-16","task","5212977","odd","NA","24952","29941","26953","153521","2247","17669","12880","154023","129560","153520","154023","153474","29941","154508","23279","152974","2239","110245","Lexical Decision Task","58","45614","66","yes","1024"
"2.709837904","6.85","8","skim","word","88.05970149253731","88.05970149253731","688.4029850746268","688.4029850746268","black","no","legacy","legacy","legacy","0","uniform","1","undefined","undefined","undefined","1","j","0","0","0","0","66","0","0","0","66","0","62","66","62","0","62","3","66","0","66","Tue Feb 16 13:46:31 2021","The main experiment item","yes","Lexical_Decision_Task.osexp","C:\Users\david\Downloads","no","Andale Mono","no","18","no","white","no","yes","576","legacy","62","62","3","C:/Users/david/Documents/Open Sesame/subject-5212977.csv","legacy","Lentiform Loewenfeld","3.3.7","yes","yes","600bd7cfb6416f0113b04181","602110864497cf011d9c0822","0","j","NA","space","space","space","space","j","509","NA","2988","10631","4788","4740","509","2","legacy","1024","2","48000","-16","task","5212977","odd","NA","24952","29941","26953","155059","2247","17669","12880","155560","129560","155059","155560","155011","29941","156070","23279","154511","2239","110245","Lexical Decision Task","59","46123","67","yes","1024"
"3.082307743","9.68","8","camp","word","88.23529411764706","88.23529411764706","686.7058823529412","686.7058823529412","black","no","legacy","legacy","legacy","0","uniform","1","undefined","undefined","undefined","1","j","0","0","0","0","67","0","0","0","67","0","63","67","63","0","63","3","67","0","67","Tue Feb 16 13:46:31 2021","The main experiment item","yes","Lexical_Decision_Task.osexp","C:\Users\david\Downloads","no","Andale Mono","no","18","no","white","no","yes","576","legacy","63","63","3","C:/Users/david/Documents/Open Sesame/subject-5212977.csv","legacy","Lentiform Loewenfeld","3.3.7","yes","yes","600bd7cfb6416f0113b04181","602110864497cf011d9c0822","0","j","NA","space","space","space","space","j","573","NA","2988","10631","4788","4740","573","2","legacy","1024","2","48000","-16","task","5212977","odd","NA","24952","29941","26953","156699","2247","17669","12880","157200","129560","156698","157200","156650","29941","157773","23279","156150","2239","110245","Lexical Decision Task","60","46696","68","yes","1024"
"3.159867847","5.98","5","brim","word","88.40579710144928","88.40579710144928","684.7246376811594","684.7246376811594","black","no","legacy","legacy","legacy","0","uniform","1","undefined","undefined","undefined","1","j","0","0","0","0","68","0","0","0","68","0","64","68","64","0","64","3","68","0","68","Tue Feb 16 13:46:31 2021","The main experiment item","yes","Lexical_Decision_Task.osexp","C:\Users\david\Downloads","no","Andale Mono","no","18","no","white","no","yes","576","legacy","64","64","3","C:/Users/david/Documents/Open Sesame/subject-5212977.csv","legacy","Lentiform Loewenfeld","3.3.7","yes","yes","600bd7cfb6416f0113b04181","602110864497cf011d9c0822","0","j","NA","space","space","space","space","j","550","NA","2988","10631","4788","4740","550","2","legacy","1024","2","48000","-16","task","5212977","odd","NA","24952","29941","26953","158404","2247","17669","12880","158905","129560","158403","158905","158355","29941","159456","23279","157855","2239","110245","Lexical Decision Task","61","47246","69","yes","1024"
"3.039414119","0","9","meep","non-word","88.57142857142857","88.57142857142857","683.9857142857143","683.9857142857143","black","no","legacy","legacy","legacy","0","uniform","1","undefined","undefined","undefined","1","f","0","0","0","0","69","0","0","0","69","0","65","69","65","0","65","3","69","0","69","Tue Feb 16 13:46:31 2021","The main experiment item","yes","Lexical_Decision_Task.osexp","C:\Users\david\Downloads","no","Andale Mono","no","18","no","white","no","yes","576","legacy","65","65","3","C:/Users/david/Documents/Open Sesame/subject-5212977.csv","legacy","Lentiform Loewenfeld","3.3.7","yes","yes","600bd7cfb6416f0113b04181","602110864497cf011d9c0822","0","f","NA","space","space","space","space","f","633","NA","2988","10631","4788","4740","633","2","legacy","1024","2","48000","-16","task","5212977","odd","NA","24952","29941","26953","160086","2247","17669","12880","160587","129560","160084","160587","160036","29941","161221","23279","159536","2239","110245","Lexical Decision Task","62","47879","70","yes","1024"
"2.895974732","6.65","5","sift","word","87.32394366197182","87.32394366197182","684.2676056338029","684.2676056338029","black","no","legacy","legacy","legacy","0","uniform","0","undefined","undefined","undefined","0","j","0","0","0","0","70","0","0","0","70","0","66","70","66","0","66","3","70","0","70","Tue Feb 16 13:46:31 2021","The main experiment item","yes","Lexical_Decision_Task.osexp","C:\Users\david\Downloads","no","Andale Mono","no","18","no","white","no","yes","576","legacy","66","66","3","C:/Users/david/Documents/Open Sesame/subject-5212977.csv","legacy","Lentiform Loewenfeld","3.3.7","yes","yes","600bd7cfb6416f0113b04181","602110864497cf011d9c0822","0","f","NA","space","space","space","space","f","704","NA","2988","10631","4788","4740","704","2","legacy","1024","2","48000","-16","task","5212977","odd","NA","24952","29941","26953","161776","2247","17669","12880","162277","129560","161775","162277","161726","29941","162982","23279","161226","2239","110245","Lexical Decision Task","62","48583","71","yes","1024"
"3.064581521","5.51","6","cask","word","87.5","87.5","684.6527777777778","684.6527777777778","black","no","legacy","legacy","legacy","0","uniform","1","undefined","undefined","undefined","1","j","0","0","0","0","71","0","0","0","71","0","67","71","67","0","67","3","71","0","71","Tue Feb 16 13:46:31 2021","The main experiment item","yes","Lexical_Decision_Task.osexp","C:\Users\david\Downloads","no","Andale Mono","no","18","no","white","no","yes","576","legacy","67","67","3","C:/Users/david/Documents/Open Sesame/subject-5212977.csv","legacy","Lentiform Loewenfeld","3.3.7","yes","yes","600bd7cfb6416f0113b04181","602110864497cf011d9c0822","0","j","NA","space","space","space","space","j","712","NA","2988","10631","4788","4740","712","2","legacy","1024","2","48000","-16","task","5212977","odd","NA","24952","29941","26953","164616","2247","17669","12880","165117","129560","164615","165117","164564","29941","165830","23279","161226","2239","163064","Lexical Decision Task","63","49295","72","yes","1024"
"2.803231716","5.26","3","kiln","word","86.3013698630137","86.3013698630137","683.027397260274","683.027397260274","black","no","legacy","legacy","legacy","0","uniform","0","undefined","undefined","undefined","0","j","0","0","0","0","72","0","0","0","72","0","68","72","68","0","68","3","72","0","72","Tue Feb 16 13:46:31 2021","The main experiment item","yes","Lexical_Decision_Task.osexp","C:\Users\david\Downloads","no","Andale Mono","no","18","no","white","no","yes","576","legacy","68","68","3","C:/Users/david/Documents/Open Sesame/subject-5212977.csv","legacy","Lentiform Loewenfeld","3.3.7","yes","yes","600bd7cfb6416f0113b04181","602110864497cf011d9c0822","0","f","NA","space","space","space","space","f","566","NA","2988","10631","4788","4740","566","2","legacy","1024","2","48000","-16","task","5212977","odd","NA","24952","29941","26953","166464","2247","17669","12880","166965","129560","166463","166965","166410","29941","167532","23279","165910","2239","163064","Lexical Decision Task","63","49861","73","yes","1024"
"3.216517684","10.87","3","film","word","86.48648648648648","86.48648648648648","681.0135135135135","681.0135135135135","black","no","legacy","legacy","legacy","0","uniform","1","undefined","undefined","undefined","1","j","0","0","0","0","73","0","0","0","73","0","69","73","69","0","69","3","73","0","73","Tue Feb 16 13:46:31 2021","The main experiment item","yes","Lexical_Decision_Task.osexp","C:\Users\david\Downloads","no","Andale Mono","no","18","no","white","no","yes","576","legacy","69","69","3","C:/Users/david/Documents/Open Sesame/subject-5212977.csv","legacy","Lentiform Loewenfeld","3.3.7","yes","yes","600bd7cfb6416f0113b04181","602110864497cf011d9c0822","0","j","NA","space","space","space","space","j","534","NA","2988","10631","4788","4740","534","2","legacy","1024","2","48000","-16","task","5212977","odd","NA","24952","29941","26953","169164","2247","17669","12880","169665","129560","169163","169665","169112","29941","170199","23279","165910","2239","167612","Lexical Decision Task","64","50395","74","yes","1024"
"2.6599162","0","2","saff","non-word","86.66666666666667","86.66666666666667","680.3466666666667","680.3466666666667","black","no","legacy","legacy","legacy","0","uniform","1","undefined","undefined","undefined","1","f","0","0","0","0","74","0","0","0","74","0","70","74","70","0","70","3","74","0","74","Tue Feb 16 13:46:31 2021","The main experiment item","yes","Lexical_Decision_Task.osexp","C:\Users\david\Downloads","no","Andale Mono","no","18","no","white","no","yes","576","legacy","70","70","3","C:/Users/david/Documents/Open Sesame/subject-5212977.csv","legacy","Lentiform Loewenfeld","3.3.7","yes","yes","600bd7cfb6416f0113b04181","602110864497cf011d9c0822","0","f","NA","space","space","space","space","f","631","NA","2988","10631","4788","4740","631","2","legacy","1024","2","48000","-16","task","5212977","odd","NA","24952","29941","26953","170832","2247","17669","12880","171333","129560","170831","171333","170781","29941","171965","23279","170281","2239","167612","Lexical Decision Task","65","51026","75","yes","1024"
"2.819763221","0","2","durp","non-word","86.84210526315789","86.84210526315789","680.5394736842105","680.5394736842105","black","no","legacy","legacy","legacy","0","uniform","1","undefined","undefined","undefined","1","f","0","0","0","0","75","0","0","0","75","0","71","75","71","0","71","3","75","0","75","Tue Feb 16 13:46:31 2021","The main experiment item","yes","Lexical_Decision_Task.osexp","C:\Users\david\Downloads","no","Andale Mono","no","18","no","white","no","yes","576","legacy","71","71","3","C:/Users/david/Documents/Open Sesame/subject-5212977.csv","legacy","Lentiform Loewenfeld","3.3.7","yes","yes","600bd7cfb6416f0113b04181","602110864497cf011d9c0822","0","f","NA","space","space","space","space","f","695","NA","2988","10631","4788","4740","695","2","legacy","1024","2","48000","-16","task","5212977","odd","NA","24952","29941","26953","172596","2247","17669","12880","173097","129560","172594","173097","172545","29941","173793","23279","172045","2239","167612","Lexical Decision Task","66","51721","76","yes","1024"
"3.156347201","0","8","lasp","non-word","87.01298701298701","87.01298701298701","681","681","black","no","legacy","legacy","legacy","0","uniform","1","undefined","undefined","undefined","1","f","0","0","0","0","76","0","0","0","76","0","72","76","72","0","72","3","76","0","76","Tue Feb 16 13:46:31 2021","The main experiment item","yes","Lexical_Decision_Task.osexp","C:\Users\david\Downloads","no","Andale Mono","no","18","no","white","no","yes","576","legacy","72","72","3","C:/Users/david/Documents/Open Sesame/subject-5212977.csv","legacy","Lentiform Loewenfeld","3.3.7","yes","yes","600bd7cfb6416f0113b04181","602110864497cf011d9c0822","0","f","NA","space","space","space","space","f","716","NA","2988","10631","4788","4740","716","2","legacy","1024","2","48000","-16","task","5212977","odd","NA","24952","29941","26953","174383","2247","17669","12880","174884","129560","174382","174884","174335","29941","175601","23279","173835","2239","167612","Lexical Decision Task","67","52437","77","yes","1024"
"3.043885998","0","9","gome","non-word","87.17948717948718","87.17948717948718","683.3333333333334","683.3333333333334","black","no","legacy","legacy","legacy","0","uniform","1","undefined","undefined","undefined","1","f","0","0","0","0","77","0","0","0","77","0","73","77","73","0","73","3","77","0","77","Tue Feb 16 13:46:31 2021","The main experiment item","yes","Lexical_Decision_Task.osexp","C:\Users\david\Downloads","no","Andale Mono","no","18","no","white","no","yes","576","legacy","73","73","3","C:/Users/david/Documents/Open Sesame/subject-5212977.csv","legacy","Lentiform Loewenfeld","3.3.7","yes","yes","600bd7cfb6416f0113b04181","602110864497cf011d9c0822","0","f","NA","space","space","space","space","f","863","NA","2988","10631","4788","4740","863","2","legacy","1024","2","48000","-16","task","5212977","odd","NA","24952","29941","26953","176226","2247","17669","12880","176728","129560","176225","176728","176177","29941","177592","23279","175677","2239","167612","Lexical Decision Task","68","53300","78","yes","1024"
"3.20996159","0","4","clee","non-word","87.34177215189874","87.34177215189874","687.367088607595","687.367088607595","black","no","legacy","legacy","legacy","0","uniform","1","undefined","undefined","undefined","1","f","0","0","0","0","78","0","0","0","78","0","74","78","74","0","74","3","78","0","78","Tue Feb 16 13:46:31 2021","The main experiment item","yes","Lexical_Decision_Task.osexp","C:\Users\david\Downloads","no","Andale Mono","no","18","no","white","no","yes","576","legacy","74","74","3","C:/Users/david/Documents/Open Sesame/subject-5212977.csv","legacy","Lentiform Loewenfeld","3.3.7","yes","yes","600bd7cfb6416f0113b04181","602110864497cf011d9c0822","0","f","NA","space","space","space","space","f","1002","NA","2988","10631","4788","4740","1002","2","legacy","1024","2","48000","-16","task","5212977","odd","NA","24952","29941","26953","178218","2247","17669","12880","178719","129560","178217","178719","178169","29941","179721","23279","177669","2239","167612","Lexical Decision Task","69","54302","79","yes","1024"
"3.105055783","0","2","norp","non-word","87.5","87.5","686.425","686.425","black","no","legacy","legacy","legacy","0","uniform","1","undefined","undefined","undefined","1","f","0","0","0","0","79","0","0","0","79","0","75","79","75","0","75","3","79","0","79","Tue Feb 16 13:46:31 2021","The main experiment item","yes","Lexical_Decision_Task.osexp","C:\Users\david\Downloads","no","Andale Mono","no","18","no","white","no","yes","576","legacy","75","75","3","C:/Users/david/Documents/Open Sesame/subject-5212977.csv","legacy","Lentiform Loewenfeld","3.3.7","yes","yes","600bd7cfb6416f0113b04181","602110864497cf011d9c0822","0","f","NA","space","space","space","space","f","612","NA","2988","10631","4788","4740","612","2","legacy","1024","2","48000","-16","task","5212977","odd","NA","24952","29941","26953","180349","2247","17669","12880","180850","129560","180348","180850","180297","29941","181462","23279","179797","2239","167612","Lexical Decision Task","70","54914","80","yes","1024"
"3.119255889","6.63","2","itch","word","87.65432098765432","87.65432098765432","684.9382716049382","684.9382716049382","black","no","legacy","legacy","legacy","0","uniform","1","undefined","undefined","undefined","1","j","0","0","0","0","80","0","0","0","80","0","76","80","76","0","76","3","80","0","80","Tue Feb 16 13:46:31 2021","The main experiment item","yes","Lexical_Decision_Task.osexp","C:\Users\david\Downloads","no","Andale Mono","no","18","no","white","no","yes","576","legacy","76","76","3","C:/Users/david/Documents/Open Sesame/subject-5212977.csv","legacy","Lentiform Loewenfeld","3.3.7","yes","yes","600bd7cfb6416f0113b04181","602110864497cf011d9c0822","0","j","NA","space","space","space","space","j","566","NA","2988","10631","4788","4740","566","2","legacy","1024","2","48000","-16","task","5212977","odd","NA","24952","29941","26953","182090","2247","17669","12880","182591","129560","182088","182591","182039","29941","183158","23279","181539","2239","167612","Lexical Decision Task","71","55480","81","yes","1024"
"2.839268497","0","8","maft","non-word","87.8048780487805","87.8048780487805","684.5975609756098","684.5975609756098","black","no","legacy","legacy","legacy","0","uniform","1","undefined","undefined","undefined","1","f","0","0","0","0","81","0","0","0","81","0","77","81","77","0","77","3","81","0","81","Tue Feb 16 13:46:31 2021","The main experiment item","yes","Lexical_Decision_Task.osexp","C:\Users\david\Downloads","no","Andale Mono","no","18","no","white","no","yes","576","legacy","77","77","3","C:/Users/david/Documents/Open Sesame/subject-5212977.csv","legacy","Lentiform Loewenfeld","3.3.7","yes","yes","600bd7cfb6416f0113b04181","602110864497cf011d9c0822","0","f","NA","space","space","space","space","f","657","NA","2988","10631","4788","4740","657","2","legacy","1024","2","48000","-16","task","5212977","odd","NA","24952","29941","26953","183729","2247","17669","12880","184230","129560","183728","184230","183678","29941","184888","23279","183178","2239","167612","Lexical Decision Task","72","56137","82","yes","1024"
"3.062080345","0","6","tomp","non-word","87.95180722891567","87.95180722891567","683.8192771084338","683.8192771084338","black","no","legacy","legacy","legacy","0","uniform","1","undefined","undefined","undefined","1","f","0","0","0","0","82","0","0","0","82","0","78","82","78","0","78","3","82","0","82","Tue Feb 16 13:46:31 2021","The main experiment item","yes","Lexical_Decision_Task.osexp","C:\Users\david\Downloads","no","Andale Mono","no","18","no","white","no","yes","576","legacy","78","78","3","C:/Users/david/Documents/Open Sesame/subject-5212977.csv","legacy","Lentiform Loewenfeld","3.3.7","yes","yes","600bd7cfb6416f0113b04181","602110864497cf011d9c0822","0","f","NA","space","space","space","space","f","620","NA","2988","10631","4788","4740","620","2","legacy","1024","2","48000","-16","task","5212977","odd","NA","24952","29941","26953","185512","2247","17669","12880","186013","129560","185510","186013","185463","29941","186634","23279","184963","2239","167612","Lexical Decision Task","73","56757","83","yes","1024"
"3.208978517","10.33","4","fish","word","88.0952380952381","88.0952380952381","682.0833333333334","682.0833333333334","black","no","legacy","legacy","legacy","0","uniform","1","undefined","undefined","undefined","1","j","0","0","0","0","83","0","0","0","83","0","79","83","79","0","79","3","83","0","83","Tue Feb 16 13:46:31 2021","The main experiment item","yes","Lexical_Decision_Task.osexp","C:\Users\david\Downloads","no","Andale Mono","no","18","no","white","no","yes","576","legacy","79","79","3","C:/Users/david/Documents/Open Sesame/subject-5212977.csv","legacy","Lentiform Loewenfeld","3.3.7","yes","yes","600bd7cfb6416f0113b04181","602110864497cf011d9c0822","0","j","NA","space","space","space","space","j","538","NA","2988","10631","4788","4740","538","2","legacy","1024","2","48000","-16","task","5212977","odd","NA","24952","29941","26953","187267","2247","17669","12880","187769","129560","187266","187769","187212","29941","188307","23279","186712","2239","167612","Lexical Decision Task","74","57295","84","yes","1024"
"2.706148589","0","4","hube","non-word","88.23529411764706","88.23529411764706","680.6823529411764","680.6823529411764","black","no","legacy","legacy","legacy","0","uniform","1","undefined","undefined","undefined","1","f","0","0","0","0","84","0","0","0","84","0","80","84","80","0","80","3","84","0","84","Tue Feb 16 13:46:31 2021","The main experiment item","yes","Lexical_Decision_Task.osexp","C:\Users\david\Downloads","no","Andale Mono","no","18","no","white","no","yes","576","legacy","80","80","3","C:/Users/david/Documents/Open Sesame/subject-5212977.csv","legacy","Lentiform Loewenfeld","3.3.7","yes","yes","600bd7cfb6416f0113b04181","602110864497cf011d9c0822","0","f","NA","space","space","space","space","f","563","NA","2988","10631","4788","4740","563","2","legacy","1024","2","48000","-16","task","5212977","odd","NA","24952","29941","26953","188933","2247","17669","12880","189434","129560","188932","189434","188883","29941","189998","23279","188383","2239","167612","Lexical Decision Task","75","57858","85","yes","1024"
"3.363486562","6.93","9","lush","word","88.37209302325581","88.37209302325581","678.4302325581396","678.4302325581396","black","no","legacy","legacy","legacy","0","uniform","1","undefined","undefined","undefined","1","j","0","0","0","0","85","0","0","0","85","0","81","85","81","0","81","3","85","0","85","Tue Feb 16 13:46:31 2021","The main experiment item","yes","Lexical_Decision_Task.osexp","C:\Users\david\Downloads","no","Andale Mono","no","18","no","white","no","yes","576","legacy","81","81","3","C:/Users/david/Documents/Open Sesame/subject-5212977.csv","legacy","Lentiform Loewenfeld","3.3.7","yes","yes","600bd7cfb6416f0113b04181","602110864497cf011d9c0822","0","j","NA","space","space","space","space","j","487","NA","2988","10631","4788","4740","487","2","legacy","1024","2","48000","-16","task","5212977","odd","NA","24952","29941","26953","190625","2247","17669","12880","191126","129560","190624","191126","190575","29941","191614","23279","190074","2239","167612","Lexical Decision Task","76","58345","86","yes","1024"
"2.95456409","0","4","taud","non-word","88.50574712643679","88.50574712643679","677.5172413793103","677.5172413793103","black","no","legacy","legacy","legacy","0","uniform","1","undefined","undefined","undefined","1","f","0","0","0","0","86","0","0","0","86","0","82","86","82","0","82","3","86","0","86","Tue Feb 16 13:46:31 2021","The main experiment item","yes","Lexical_Decision_Task.osexp","C:\Users\david\Downloads","no","Andale Mono","no","18","no","white","no","yes","576","legacy","82","82","3","C:/Users/david/Documents/Open Sesame/subject-5212977.csv","legacy","Lentiform Loewenfeld","3.3.7","yes","yes","600bd7cfb6416f0113b04181","602110864497cf011d9c0822","0","f","NA","space","space","space","space","f","599","NA","2988","10631","4788","4740","599","2","legacy","1024","2","48000","-16","task","5212977","odd","NA","24952","29941","26953","192238","2247","17669","12880","192739","129560","192237","192739","192189","29941","193340","23279","191689","2239","167612","Lexical Decision Task","77","58944","87","yes","1024"
"3.276537627","9.15","5","trap","word","88.63636363636364","88.63636363636364","674.7045454545455","674.7045454545455","black","no","legacy","legacy","legacy","0","uniform","1","undefined","undefined","undefined","1","j","0","0","0","0","87","0","0","0","87","0","83","87","83","0","83","3","87","0","87","Tue Feb 16 13:46:31 2021","The main experiment item","yes","Lexical_Decision_Task.osexp","C:\Users\david\Downloads","no","Andale Mono","no","18","no","white","no","yes","576","legacy","83","83","3","C:/Users/david/Documents/Open Sesame/subject-5212977.csv","legacy","Lentiform Loewenfeld","3.3.7","yes","yes","600bd7cfb6416f0113b04181","602110864497cf011d9c0822","0","j","NA","space","space","space","space","j","430","NA","2988","10631","4788","4740","430","2","legacy","1024","2","48000","-16","task","5212977","odd","NA","24952","29941","26953","193963","2247","17669","12880","194464","129560","193962","194464","193915","29941","194895","23279","193415","2239","167612","Lexical Decision Task","78","59374","88","yes","1024"
"3.067070856","9.39","3","loud","word","88.76404494382022","88.76404494382022","672.7078651685393","672.7078651685393","black","no","legacy","legacy","legacy","0","uniform","1","undefined","undefined","undefined","1","j","0","0","0","0","88","0","0","0","88","0","84","88","84","0","84","3","88","0","88","Tue Feb 16 13:46:31 2021","The main experiment item","yes","Lexical_Decision_Task.osexp","C:\Users\david\Downloads","no","Andale Mono","no","18","no","white","no","yes","576","legacy","84","84","3","C:/Users/david/Documents/Open Sesame/subject-5212977.csv","legacy","Lentiform Loewenfeld","3.3.7","yes","yes","600bd7cfb6416f0113b04181","602110864497cf011d9c0822","0","j","NA","space","space","space","space","j","497","NA","2988","10631","4788","4740","497","2","legacy","1024","2","48000","-16","task","5212977","odd","NA","24952","29941","26953","195519","2247","17669","12880","196021","129560","195518","196021","195471","29941","196519","23279","194971","2239","167612","Lexical Decision Task","79","59871","89","yes","1024"
"3.384413096","10.15","3","glad","word","88.88888888888889","88.88888888888889","672.8111111111111","672.8111111111111","black","no","legacy","legacy","legacy","0","uniform","1","undefined","undefined","undefined","1","j","0","0","0","0","89","0","0","0","89","0","85","89","85","0","85","3","89","0","89","Tue Feb 16 13:46:31 2021","The main experiment item","yes","Lexical_Decision_Task.osexp","C:\Users\david\Downloads","no","Andale Mono","no","18","no","white","no","yes","576","legacy","85","85","3","C:/Users/david/Documents/Open Sesame/subject-5212977.csv","legacy","Lentiform Loewenfeld","3.3.7","yes","yes","600bd7cfb6416f0113b04181","602110864497cf011d9c0822","0","j","NA","space","space","space","space","j","682","NA","2988","10631","4788","4740","682","2","legacy","1024","2","48000","-16","task","5212977","odd","NA","24952","29941","26953","197142","2247","17669","12880","197643","129560","197141","197643","197095","29941","198326","23279","196595","2239","167612","Lexical Decision Task","80","60553","90","yes","1024"
"3.274543461","7.46","7","scar","word","89.01098901098901","89.01098901098901","670.7362637362637","670.7362637362637","black","no","legacy","legacy","legacy","0","uniform","1","undefined","undefined","undefined","1","j","0","0","0","0","90","0","0","0","90","0","86","90","86","0","86","3","90","0","90","Tue Feb 16 13:46:31 2021","The main experiment item","yes","Lexical_Decision_Task.osexp","C:\Users\david\Downloads","no","Andale Mono","no","18","no","white","no","yes","576","legacy","86","86","3","C:/Users/david/Documents/Open Sesame/subject-5212977.csv","legacy","Lentiform Loewenfeld","3.3.7","yes","yes","600bd7cfb6416f0113b04181","602110864497cf011d9c0822","0","j","NA","space","space","space","space","j","484","NA","2988","10631","4788","4740","484","2","legacy","1024","2","48000","-16","task","5212977","odd","NA","24952","29941","26953","198951","2247","17669","12880","199452","129560","198950","199452","198902","29941","199937","23279","198402","2239","167612","Lexical Decision Task","81","61037","91","yes","1024"
"3.067193647","6.73","6","raft","word","89.1304347826087","89.1304347826087","669.1413043478261","669.1413043478261","black","no","legacy","legacy","legacy","0","uniform","1","undefined","undefined","undefined","1","j","0","0","0","0","91","0","0","0","91","0","87","91","87","0","87","3","91","0","91","Tue Feb 16 13:46:31 2021","The main experiment item","yes","Lexical_Decision_Task.osexp","C:\Users\david\Downloads","no","Andale Mono","no","18","no","white","no","yes","576","legacy","87","87","3","C:/Users/david/Documents/Open Sesame/subject-5212977.csv","legacy","Lentiform Loewenfeld","3.3.7","yes","yes","600bd7cfb6416f0113b04181","602110864497cf011d9c0822","0","j","NA","space","space","space","space","j","524","NA","2988","10631","4788","4740","524","2","legacy","1024","2","48000","-16","task","5212977","odd","NA","24952","29941","26953","200561","2247","17669","12880","201062","129560","200560","201062","200512","29941","201587","23279","200012","2239","167612","Lexical Decision Task","82","61561","92","yes","1024"
"2.980306438","0","7","slun","non-word","89.24731182795699","89.24731182795699","667.9569892473119","667.9569892473119","black","no","legacy","legacy","legacy","0","uniform","1","undefined","undefined","undefined","1","f","0","0","0","0","92","0","0","0","92","0","88","92","88","0","88","3","92","0","92","Tue Feb 16 13:46:31 2021","The main experiment item","yes","Lexical_Decision_Task.osexp","C:\Users\david\Downloads","no","Andale Mono","no","18","no","white","no","yes","576","legacy","88","88","3","C:/Users/david/Documents/Open Sesame/subject-5212977.csv","legacy","Lentiform Loewenfeld","3.3.7","yes","yes","600bd7cfb6416f0113b04181","602110864497cf011d9c0822","0","f","NA","space","space","space","space","f","559","NA","2988","10631","4788","4740","559","2","legacy","1024","2","48000","-16","task","5212977","odd","NA","24952","29941","26953","202212","2247","17669","12880","202713","129560","202211","202713","202164","29941","203273","23279","201664","2239","167612","Lexical Decision Task","83","62120","93","yes","1024"
"2.695481676","0","7","goke","non-word","89.36170212765957","89.36170212765957","667.3191489361702","667.3191489361702","black","no","legacy","legacy","legacy","0","uniform","1","undefined","undefined","undefined","1","f","0","0","0","0","93","0","0","0","93","0","89","93","89","0","89","3","93","0","93","Tue Feb 16 13:46:31 2021","The main experiment item","yes","Lexical_Decision_Task.osexp","C:\Users\david\Downloads","no","Andale Mono","no","18","no","white","no","yes","576","legacy","89","89","3","C:/Users/david/Documents/Open Sesame/subject-5212977.csv","legacy","Lentiform Loewenfeld","3.3.7","yes","yes","600bd7cfb6416f0113b04181","602110864497cf011d9c0822","0","f","NA","space","space","space","space","f","608","NA","2988","10631","4788","4740","608","2","legacy","1024","2","48000","-16","task","5212977","odd","NA","24952","29941","26953","203834","2247","17669","12880","204335","129560","203833","204335","203778","29941","204945","23279","203278","2239","167612","Lexical Decision Task","84","62728","94","yes","1024"
"3.088136089","8.32","9","worm","word","89.47368421052632","89.47368421052632","665.7578947368421","665.7578947368421","black","no","legacy","legacy","legacy","0","uniform","1","undefined","undefined","undefined","1","j","0","0","0","0","94","0","0","0","94","0","90","94","90","0","90","3","94","0","94","Tue Feb 16 13:46:31 2021","The main experiment item","yes","Lexical_Decision_Task.osexp","C:\Users\david\Downloads","no","Andale Mono","no","18","no","white","no","yes","576","legacy","90","90","3","C:/Users/david/Documents/Open Sesame/subject-5212977.csv","legacy","Lentiform Loewenfeld","3.3.7","yes","yes","600bd7cfb6416f0113b04181","602110864497cf011d9c0822","0","j","NA","space","space","space","space","j","519","NA","2988","10631","4788","4740","519","2","legacy","1024","2","48000","-16","task","5212977","odd","NA","24952","29941","26953","205574","2247","17669","12880","206075","129560","205572","206075","205521","29941","206595","23279","205021","2239","167612","Lexical Decision Task","85","63247","95","yes","1024"
"3.066077331","0","7","vorn","non-word","89.58333333333333","89.58333333333333","664.59375","664.59375","black","no","legacy","legacy","legacy","0","uniform","1","undefined","undefined","undefined","1","f","0","0","0","0","95","0","0","0","95","0","91","95","91","0","91","3","95","0","95","Tue Feb 16 13:46:31 2021","The main experiment item","yes","Lexical_Decision_Task.osexp","C:\Users\david\Downloads","no","Andale Mono","no","18","no","white","no","yes","576","legacy","91","91","3","C:/Users/david/Documents/Open Sesame/subject-5212977.csv","legacy","Lentiform Loewenfeld","3.3.7","yes","yes","600bd7cfb6416f0113b04181","602110864497cf011d9c0822","0","f","NA","space","space","space","space","f","554","NA","2988","10631","4788","4740","554","2","legacy","1024","2","48000","-16","task","5212977","odd","NA","24952","29941","26953","207224","2247","17669","12880","207725","129560","207223","207725","207173","29941","208280","23279","206673","2239","167612","Lexical Decision Task","86","63801","96","yes","1024"
"3.16326079","0","5","parg","non-word","89.69072164948453","89.69072164948453","664.2680412371134","664.2680412371134","black","no","legacy","legacy","legacy","0","uniform","1","undefined","undefined","undefined","1","f","0","0","0","0","96","0","0","0","96","0","92","96","92","0","92","3","96","0","96","Tue Feb 16 13:46:31 2021","The main experiment item","yes","Lexical_Decision_Task.osexp","C:\Users\david\Downloads","no","Andale Mono","no","18","no","white","no","yes","576","legacy","92","92","3","C:/Users/david/Documents/Open Sesame/subject-5212977.csv","legacy","Lentiform Loewenfeld","3.3.7","yes","yes","600bd7cfb6416f0113b04181","602110864497cf011d9c0822","0","f","NA","space","space","space","space","f","633","NA","2988","10631","4788","4740","633","2","legacy","1024","2","48000","-16","task","5212977","odd","NA","24952","29941","26953","208906","2247","17669","12880","209407","129560","208905","209407","208858","29941","210041","23279","208357","2239","167612","Lexical Decision Task","87","64434","97","yes","1024"
"3.145920145","8.51","8","flew","word","89.79591836734694","89.79591836734694","662.6122448979592","662.6122448979592","black","no","legacy","legacy","legacy","0","uniform","1","undefined","undefined","undefined","1","j","0","0","0","0","97","0","0","0","97","0","93","97","93","0","93","3","97","0","97","Tue Feb 16 13:46:31 2021","The main experiment item","yes","Lexical_Decision_Task.osexp","C:\Users\david\Downloads","no","Andale Mono","no","18","no","white","no","yes","576","legacy","93","93","3","C:/Users/david/Documents/Open Sesame/subject-5212977.csv","legacy","Lentiform Loewenfeld","3.3.7","yes","yes","600bd7cfb6416f0113b04181","602110864497cf011d9c0822","0","j","NA","space","space","space","space","j","502","NA","2988","10631","4788","4740","502","2","legacy","1024","2","48000","-16","task","5212977","odd","NA","24952","29941","26953","210601","2247","17669","12880","211102","129560","210600","211102","210551","29941","211605","23279","210050","2239","167612","Lexical Decision Task","88","64936","98","yes","1024"
"3.282244367","0","6","fute","non-word","89.8989898989899","89.8989898989899","666.8787878787879","666.8787878787879","black","no","legacy","legacy","legacy","0","uniform","1","undefined","undefined","undefined","1","f","0","0","0","0","98","0","0","0","98","0","94","98","94","0","94","3","98","0","98","Tue Feb 16 13:46:31 2021","The main experiment item","yes","Lexical_Decision_Task.osexp","C:\Users\david\Downloads","no","Andale Mono","no","18","no","white","no","yes","576","legacy","94","94","3","C:/Users/david/Documents/Open Sesame/subject-5212977.csv","legacy","Lentiform Loewenfeld","3.3.7","yes","yes","600bd7cfb6416f0113b04181","602110864497cf011d9c0822","0","f","NA","space","space","space","space","f","1085","NA","2988","10631","4788","4740","1085","2","legacy","1024","2","48000","-16","task","5212977","odd","NA","24952","29941","26953","212234","2247","17669","12880","212735","129560","212232","212735","212183","29941","213822","23279","211683","2239","167612","Lexical Decision Task","89","66021","99","yes","1024"
