"Log_BG","Log_Freq_HAL","Ortho_N","Stimulus","Type","acc","accuracy","average_response_time","avg_rt","background","bidi","canvas_backend","clock_backend","color_backend","compensation","coordinates","correct","correct_Experimental_intro","correct_Introduction","correct_Practice_intro","correct_experimenter_kb","correct_response","count_End_Of_Experiment","count_End_Of_Practice","count_Experimental_Loop","count_Experimental_intro","count_Fixation","count_Introduction","count_Practice_Loop","count_Practice_intro","count_Stimulus","count_block_break_feedback","count_experimental_sequence","count_experimenter_kb","count_increment_trial_count","count_init_trial_count","count_logger","count_practice_sequence","count_right","count_task","count_wrong","datetime","description","disable_garbage_collection","experiment_file","experiment_path","font_bold","font_family","font_italic","font_size","font_underline","foreground","form_clicks","fullscreen","height","keyboard_backend","live_row","live_row_Experimental_Loop","live_row_Practice_Loop","logfile","mouse_backend","opensesame_codename","opensesame_version","osf_always_upload_data","osf_always_upload_experiment","osf_datanode_id","osf_id","repeat_cycle","response","response_End_Of_Experiment","response_Experimental_intro","response_Introduction","response_Practice_intro","response_block_break_feedback","response_experimenter_kb","response_time","response_time_End_Of_Experiment","response_time_Experimental_intro","response_time_Introduction","response_time_Practice_intro","response_time_block_break_feedback","response_time_experimenter_kb","round_decimals","sampler_backend","sound_buf_size","sound_channels","sound_freq","sound_sample_size","start","subject_nr","subject_parity","time_End_Of_Experiment","time_End_Of_Practice","time_Experimental_Loop","time_Experimental_intro","time_Fixation","time_Introduction","time_Practice_Loop","time_Practice_intro","time_Stimulus","time_block_break_feedback","time_experimental_sequence","time_experimenter_kb","time_increment_trial_count","time_init_trial_count","time_logger","time_practice_sequence","time_right","time_task","time_wrong","title","total_correct","total_response_time","total_responses","uniform_coordinates","width"
"2.68604012","0","4","pumb","non-word","80","80","1175.8","1175.8","black","no","legacy","legacy","legacy","0","uniform","1","undefined","undefined","undefined","1","f","0","0","0","0","4","0","0","0","4","NA","0","4","0","0","0","3","4","0","4","Sun Mar  7 01:04:19 2021","The main experiment item","yes","Lexical_Decision_Task.osexp","C:/Users/olgas/Desktop/CaL 2021","no","Andale Mono","no","18","no","white","no","yes","576","legacy","0","0","3","C:/Users/olgas/Desktop/CaL 2021/subject-5224392.csv","legacy","Lentiform Loewenfeld","3.3.8","yes","yes","600bd7cfb6416f0113b04181","602110864497cf011d9c0822","0","f","NA","i","space","d","NA","f","929","NA","3372","5156","1886","NA","929","2","legacy","1024","2","48000","-16","task","5224392","even","NA","21283","26659","23286","26716","3795","10843","8956","27218","NA","26715","27219","NA","26659","28149","19800","20750","3791","14516","Lexical Decision Task","4","5879","5","yes","1024"
"2.80048796","0","8","pife","non-word","83.33333333333333","83.33333333333333","1089","1089","black","no","legacy","legacy","legacy","0","uniform","1","undefined","undefined","undefined","1","f","0","0","0","0","5","0","0","0","5","NA","1","5","1","0","1","3","5","0","5","Sun Mar  7 01:04:19 2021","The main experiment item","yes","Lexical_Decision_Task.osexp","C:/Users/olgas/Desktop/CaL 2021","no","Andale Mono","no","18","no","white","no","yes","576","legacy","1","1","3","C:/Users/olgas/Desktop/CaL 2021/subject-5224392.csv","legacy","Lentiform Loewenfeld","3.3.8","yes","yes","600bd7cfb6416f0113b04181","602110864497cf011d9c0822","0","f","NA","i","space","d","NA","f","655","NA","3372","5156","1886","NA","655","2","legacy","1024","2","48000","-16","task","5224392","even","NA","21283","26659","23286","28764","3795","10843","8956","29267","NA","28762","29267","28666","26659","29922","19800","28166","3791","14516","Lexical Decision Task","5","6534","6","yes","1024"
"3.216517684","10.87","3","film","word","85.71428571428571","85.71428571428571","1004.4285714285714","1004.4285714285714","black","no","legacy","legacy","legacy","0","uniform","1","undefined","undefined","undefined","1","j","0","0","0","0","6","0","0","0","6","NA","2","6","2","0","2","3","6","0","6","Sun Mar  7 01:04:19 2021","The main experiment item","yes","Lexical_Decision_Task.osexp","C:/Users/olgas/Desktop/CaL 2021","no","Andale Mono","no","18","no","white","no","yes","576","legacy","2","2","3","C:/Users/olgas/Desktop/CaL 2021/subject-5224392.csv","legacy","Lentiform Loewenfeld","3.3.8","yes","yes","600bd7cfb6416f0113b04181","602110864497cf011d9c0822","0","j","NA","i","space","d","NA","j","497","NA","3372","5156","1886","NA","497","2","legacy","1024","2","48000","-16","task","5224392","even","NA","21283","26659","23286","30521","3795","10843","8956","31024","NA","30519","31024","30434","26659","31522","19800","29934","3791","14516","Lexical Decision Task","6","7031","7","yes","1024"
"2.709837904","6.85","8","skim","word","75","75","969.875","969.875","black","no","legacy","legacy","legacy","0","uniform","0","undefined","undefined","undefined","0","j","0","0","0","0","7","0","0","0","7","NA","3","7","3","0","3","3","7","0","7","Sun Mar  7 01:04:19 2021","The main experiment item","yes","Lexical_Decision_Task.osexp","C:/Users/olgas/Desktop/CaL 2021","no","Andale Mono","no","18","no","white","no","yes","576","legacy","3","3","3","C:/Users/olgas/Desktop/CaL 2021/subject-5224392.csv","legacy","Lentiform Loewenfeld","3.3.8","yes","yes","600bd7cfb6416f0113b04181","602110864497cf011d9c0822","0","f","NA","i","space","d","NA","f","728","NA","3372","5156","1886","NA","728","2","legacy","1024","2","48000","-16","task","5224392","even","NA","21283","26659","23286","32113","3795","10843","8956","32616","NA","32111","32616","32026","26659","33344","19800","31526","3791","14516","Lexical Decision Task","6","7759","8","yes","1024"
"2.971428938","9.86","7","spot","word","77.77777777777777","77.77777777777777","966.2222222222222","966.2222222222222","black","no","legacy","legacy","legacy","0","uniform","1","undefined","undefined","undefined","1","j","0","0","0","0","8","0","0","0","8","NA","4","8","4","0","4","3","8","0","8","Sun Mar  7 01:04:19 2021","The main experiment item","yes","Lexical_Decision_Task.osexp","C:/Users/olgas/Desktop/CaL 2021","no","Andale Mono","no","18","no","white","no","yes","576","legacy","4","4","3","C:/Users/olgas/Desktop/CaL 2021/subject-5224392.csv","legacy","Lentiform Loewenfeld","3.3.8","yes","yes","600bd7cfb6416f0113b04181","602110864497cf011d9c0822","0","j","NA","i","space","d","NA","j","937","NA","3372","5156","1886","NA","937","2","legacy","1024","2","48000","-16","task","5224392","even","NA","21283","26659","23286","34944","3795","10843","8956","35447","NA","34942","35447","34849","26659","36384","19800","31526","3791","33349","Lexical Decision Task","7","8696","9","yes","1024"
"2.616654026","9.37","5","gift","word","80","80","940.2","940.2","black","no","legacy","legacy","legacy","0","uniform","1","undefined","undefined","undefined","1","j","0","0","0","0","9","0","0","0","9","NA","5","9","5","0","5","3","9","0","9","Sun Mar  7 01:04:19 2021","The main experiment item","yes","Lexical_Decision_Task.osexp","C:/Users/olgas/Desktop/CaL 2021","no","Andale Mono","no","18","no","white","no","yes","576","legacy","5","5","3","C:/Users/olgas/Desktop/CaL 2021/subject-5224392.csv","legacy","Lentiform Loewenfeld","3.3.8","yes","yes","600bd7cfb6416f0113b04181","602110864497cf011d9c0822","0","j","NA","i","space","d","NA","j","706","NA","3372","5156","1886","NA","706","2","legacy","1024","2","48000","-16","task","5224392","even","NA","21283","26659","23286","36975","3795","10843","8956","37478","NA","36973","37478","36889","26659","38184","19800","36389","3791","33349","Lexical Decision Task","8","9402","10","yes","1024"
"3.488597715","0","9","nain","non-word","81.81818181818181","81.81818181818181","934.9090909090909","934.9090909090909","black","no","legacy","legacy","legacy","0","uniform","1","undefined","undefined","undefined","1","f","0","0","0","0","10","0","0","0","10","NA","6","10","6","0","6","3","10","0","10","Sun Mar  7 01:04:19 2021","The main experiment item","yes","Lexical_Decision_Task.osexp","C:/Users/olgas/Desktop/CaL 2021","no","Andale Mono","no","18","no","white","no","yes","576","legacy","6","6","3","C:/Users/olgas/Desktop/CaL 2021/subject-5224392.csv","legacy","Lentiform Loewenfeld","3.3.8","yes","yes","600bd7cfb6416f0113b04181","602110864497cf011d9c0822","0","f","NA","i","space","d","NA","f","882","NA","3372","5156","1886","NA","882","2","legacy","1024","2","48000","-16","task","5224392","even","NA","21283","26659","23286","38781","3795","10843","8956","39284","NA","38780","39284","38696","26659","40167","19800","38196","3791","33349","Lexical Decision Task","9","10284","11","yes","1024"
"3.347850856","10.51","2","rich","word","83.33333333333333","83.33333333333333","901.75","901.75","black","no","legacy","legacy","legacy","0","uniform","1","undefined","undefined","undefined","1","j","0","0","0","0","11","0","0","0","11","NA","7","11","7","0","7","3","11","0","11","Sun Mar  7 01:04:19 2021","The main experiment item","yes","Lexical_Decision_Task.osexp","C:/Users/olgas/Desktop/CaL 2021","no","Andale Mono","no","18","no","white","no","yes","576","legacy","7","7","3","C:/Users/olgas/Desktop/CaL 2021/subject-5224392.csv","legacy","Lentiform Loewenfeld","3.3.8","yes","yes","600bd7cfb6416f0113b04181","602110864497cf011d9c0822","0","j","NA","i","space","d","NA","j","537","NA","3372","5156","1886","NA","537","2","legacy","1024","2","48000","-16","task","5224392","even","NA","21283","26659","23286","40778","3795","10843","8956","41281","NA","40776","41281","40679","26659","41819","19800","40179","3791","33349","Lexical Decision Task","10","10821","12","yes","1024"
"3.384413096","10.15","3","glad","word","84.61538461538461","84.61538461538461","874.3076923076923","874.3076923076923","black","no","legacy","legacy","legacy","0","uniform","1","undefined","undefined","undefined","1","j","0","0","0","0","12","0","0","0","12","NA","8","12","8","0","8","3","12","0","12","Sun Mar  7 01:04:19 2021","The main experiment item","yes","Lexical_Decision_Task.osexp","C:/Users/olgas/Desktop/CaL 2021","no","Andale Mono","no","18","no","white","no","yes","576","legacy","8","8","3","C:/Users/olgas/Desktop/CaL 2021/subject-5224392.csv","legacy","Lentiform Loewenfeld","3.3.8","yes","yes","600bd7cfb6416f0113b04181","602110864497cf011d9c0822","0","j","NA","i","space","d","NA","j","545","NA","3372","5156","1886","NA","545","2","legacy","1024","2","48000","-16","task","5224392","even","NA","21283","26659","23286","42418","3795","10843","8956","42921","NA","42417","42921","42331","26659","43466","19800","41831","3791","33349","Lexical Decision Task","11","11366","13","yes","1024"
"2.6599162","0","6","flug","non-word","85.71428571428571","85.71428571428571","857.5","857.5","black","no","legacy","legacy","legacy","0","uniform","1","undefined","undefined","undefined","1","f","0","0","0","0","13","0","0","0","13","NA","9","13","9","0","9","3","13","0","13","Sun Mar  7 01:04:19 2021","The main experiment item","yes","Lexical_Decision_Task.osexp","C:/Users/olgas/Desktop/CaL 2021","no","Andale Mono","no","18","no","white","no","yes","576","legacy","9","9","3","C:/Users/olgas/Desktop/CaL 2021/subject-5224392.csv","legacy","Lentiform Loewenfeld","3.3.8","yes","yes","600bd7cfb6416f0113b04181","602110864497cf011d9c0822","0","f","NA","i","space","d","NA","f","639","NA","3372","5156","1886","NA","639","2","legacy","1024","2","48000","-16","task","5224392","even","NA","21283","26659","23286","44065","3795","10843","8956","44568","NA","44063","44569","43979","26659","45209","19800","43479","3791","33349","Lexical Decision Task","12","12005","14","yes","1024"
"2.819763221","0","2","durp","non-word","86.66666666666667","86.66666666666667","851.2","851.2","black","no","legacy","legacy","legacy","0","uniform","1","undefined","undefined","undefined","1","f","0","0","0","0","14","0","0","0","14","NA","10","14","10","0","10","3","14","0","14","Sun Mar  7 01:04:19 2021","The main experiment item","yes","Lexical_Decision_Task.osexp","C:/Users/olgas/Desktop/CaL 2021","no","Andale Mono","no","18","no","white","no","yes","576","legacy","10","10","3","C:/Users/olgas/Desktop/CaL 2021/subject-5224392.csv","legacy","Lentiform Loewenfeld","3.3.8","yes","yes","600bd7cfb6416f0113b04181","602110864497cf011d9c0822","0","f","NA","i","space","d","NA","f","763","NA","3372","5156","1886","NA","763","2","legacy","1024","2","48000","-16","task","5224392","even","NA","21283","26659","23286","45804","3795","10843","8956","46307","NA","45803","46307","45722","26659","47071","19800","45221","3791","33349","Lexical Decision Task","13","12768","15","yes","1024"
"3.481012421","8.34","5","teen","word","87.5","87.5","837.5625","837.5625","black","no","legacy","legacy","legacy","0","uniform","1","undefined","undefined","undefined","1","j","0","0","0","0","15","0","0","0","15","NA","11","15","11","0","11","3","15","0","15","Sun Mar  7 01:04:19 2021","The main experiment item","yes","Lexical_Decision_Task.osexp","C:/Users/olgas/Desktop/CaL 2021","no","Andale Mono","no","18","no","white","no","yes","576","legacy","11","11","3","C:/Users/olgas/Desktop/CaL 2021/subject-5224392.csv","legacy","Lentiform Loewenfeld","3.3.8","yes","yes","600bd7cfb6416f0113b04181","602110864497cf011d9c0822","0","j","NA","i","space","d","NA","j","633","NA","3372","5156","1886","NA","633","2","legacy","1024","2","48000","-16","task","5224392","even","NA","21283","26659","23286","47667","3795","10843","8956","48170","NA","47666","48170","47582","26659","48803","19800","47082","3791","33349","Lexical Decision Task","14","13401","16","yes","1024"
"2.708989954","9.28","9","bowl","word","88.23529411764706","88.23529411764706","824.5294117647059","824.5294117647059","black","no","legacy","legacy","legacy","0","uniform","1","undefined","undefined","undefined","1","j","0","0","0","0","16","0","0","0","16","NA","12","16","12","0","12","3","16","0","16","Sun Mar  7 01:04:19 2021","The main experiment item","yes","Lexical_Decision_Task.osexp","C:/Users/olgas/Desktop/CaL 2021","no","Andale Mono","no","18","no","white","no","yes","576","legacy","12","12","3","C:/Users/olgas/Desktop/CaL 2021/subject-5224392.csv","legacy","Lentiform Loewenfeld","3.3.8","yes","yes","600bd7cfb6416f0113b04181","602110864497cf011d9c0822","0","j","NA","i","space","d","NA","j","616","NA","3372","5156","1886","NA","616","2","legacy","1024","2","48000","-16","task","5224392","even","NA","21283","26659","23286","49402","3795","10843","8956","49905","NA","49400","49905","49315","26659","50522","19800","48815","3791","33349","Lexical Decision Task","15","14017","17","yes","1024"
"3.15462682","0","6","noal","non-word","88.88888888888889","88.88888888888889","819.9444444444445","819.9444444444445","black","no","legacy","legacy","legacy","0","uniform","1","undefined","undefined","undefined","1","f","0","0","0","0","17","0","0","0","17","NA","13","17","13","0","13","3","17","0","17","Sun Mar  7 01:04:19 2021","The main experiment item","yes","Lexical_Decision_Task.osexp","C:/Users/olgas/Desktop/CaL 2021","no","Andale Mono","no","18","no","white","no","yes","576","legacy","13","13","3","C:/Users/olgas/Desktop/CaL 2021/subject-5224392.csv","legacy","Lentiform Loewenfeld","3.3.8","yes","yes","600bd7cfb6416f0113b04181","602110864497cf011d9c0822","0","f","NA","i","space","d","NA","f","742","NA","3372","5156","1886","NA","742","2","legacy","1024","2","48000","-16","task","5224392","even","NA","21283","26659","23286","51114","3795","10843","8956","51617","NA","51112","51617","51033","26659","52359","19800","50532","3791","33349","Lexical Decision Task","16","14759","18","yes","1024"
"2.924968096","0","4","phim","non-word","89.47368421052632","89.47368421052632","811.7894736842105","811.7894736842105","black","no","legacy","legacy","legacy","0","uniform","1","undefined","undefined","undefined","1","f","0","0","0","0","18","0","0","0","18","NA","14","18","14","0","14","3","18","0","18","Sun Mar  7 01:04:19 2021","The main experiment item","yes","Lexical_Decision_Task.osexp","C:/Users/olgas/Desktop/CaL 2021","no","Andale Mono","no","18","no","white","no","yes","576","legacy","14","14","3","C:/Users/olgas/Desktop/CaL 2021/subject-5224392.csv","legacy","Lentiform Loewenfeld","3.3.8","yes","yes","600bd7cfb6416f0113b04181","602110864497cf011d9c0822","0","f","NA","i","space","d","NA","f","665","NA","3372","5156","1886","NA","665","2","legacy","1024","2","48000","-16","task","5224392","even","NA","21283","26659","23286","52958","3795","10843","8956","53461","NA","52956","53461","52871","26659","54126","19800","52370","3791","33349","Lexical Decision Task","17","15424","19","yes","1024"
"2.784379519","0","2","snaf","non-word","90","90","794.65","794.65","black","no","legacy","legacy","legacy","0","uniform","1","undefined","undefined","undefined","1","f","0","0","0","0","19","0","0","0","19","NA","15","19","15","0","15","3","19","0","19","Sun Mar  7 01:04:19 2021","The main experiment item","yes","Lexical_Decision_Task.osexp","C:/Users/olgas/Desktop/CaL 2021","no","Andale Mono","no","18","no","white","no","yes","576","legacy","15","15","3","C:/Users/olgas/Desktop/CaL 2021/subject-5224392.csv","legacy","Lentiform Loewenfeld","3.3.8","yes","yes","600bd7cfb6416f0113b04181","602110864497cf011d9c0822","0","f","NA","i","space","d","NA","f","469","NA","3372","5156","1886","NA","469","2","legacy","1024","2","48000","-16","task","5224392","even","NA","21283","26659","23286","54729","3795","10843","8956","55232","NA","54727","55232","54639","26659","55701","19800","54138","3791","33349","Lexical Decision Task","18","15893","20","yes","1024"
"3.082307743","9.68","8","camp","word","90.47619047619048","90.47619047619048","787.7619047619048","787.7619047619048","black","no","legacy","legacy","legacy","0","uniform","1","undefined","undefined","undefined","1","j","0","0","0","0","20","0","0","0","20","NA","16","20","16","0","16","3","20","0","20","Sun Mar  7 01:04:19 2021","The main experiment item","yes","Lexical_Decision_Task.osexp","C:/Users/olgas/Desktop/CaL 2021","no","Andale Mono","no","18","no","white","no","yes","576","legacy","16","16","3","C:/Users/olgas/Desktop/CaL 2021/subject-5224392.csv","legacy","Lentiform Loewenfeld","3.3.8","yes","yes","600bd7cfb6416f0113b04181","602110864497cf011d9c0822","0","j","NA","i","space","d","NA","j","650","NA","3372","5156","1886","NA","650","2","legacy","1024","2","48000","-16","task","5224392","even","NA","21283","26659","23286","56303","3795","10843","8956","56806","NA","56301","56806","56214","26659","57457","19800","55714","3791","33349","Lexical Decision Task","19","16543","21","yes","1024"
"2.880623071","0","9","curp","non-word","86.36363636363636","86.36363636363636","791.0909090909091","791.0909090909091","black","no","legacy","legacy","legacy","0","uniform","0","undefined","undefined","undefined","0","f","0","0","0","0","21","0","0","0","21","NA","17","21","17","0","17","3","21","0","21","Sun Mar  7 01:04:19 2021","The main experiment item","yes","Lexical_Decision_Task.osexp","C:/Users/olgas/Desktop/CaL 2021","no","Andale Mono","no","18","no","white","no","yes","576","legacy","17","17","3","C:/Users/olgas/Desktop/CaL 2021/subject-5224392.csv","legacy","Lentiform Loewenfeld","3.3.8","yes","yes","600bd7cfb6416f0113b04181","602110864497cf011d9c0822","0","j","NA","i","space","d","NA","j","861","NA","3372","5156","1886","NA","861","2","legacy","1024","2","48000","-16","task","5224392","even","NA","21283","26659","23286","58054","3795","10843","8956","58557","NA","58052","58557","57969","26659","59418","19800","57469","3791","33349","Lexical Decision Task","19","17404","22","yes","1024"
"2.813801082","5.47","7","nook","word","86.95652173913044","86.95652173913044","788.6086956521739","788.6086956521739","black","no","legacy","legacy","legacy","0","uniform","1","undefined","undefined","undefined","1","j","0","0","0","0","22","0","0","0","22","NA","18","22","18","0","18","3","22","0","22","Sun Mar  7 01:04:19 2021","The main experiment item","yes","Lexical_Decision_Task.osexp","C:/Users/olgas/Desktop/CaL 2021","no","Andale Mono","no","18","no","white","no","yes","576","legacy","18","18","3","C:/Users/olgas/Desktop/CaL 2021/subject-5224392.csv","legacy","Lentiform Loewenfeld","3.3.8","yes","yes","600bd7cfb6416f0113b04181","602110864497cf011d9c0822","0","j","NA","i","space","d","NA","j","734","NA","3372","5156","1886","NA","734","2","legacy","1024","2","48000","-16","task","5224392","even","NA","21283","26659","23286","61018","3795","10843","8956","61520","NA","61016","61520","60923","26659","62255","19800","57469","3791","59423","Lexical Decision Task","20","18138","23","yes","1024"
"2.812467698","0","7","hafe","non-word","87.5","87.5","786.125","786.125","black","no","legacy","legacy","legacy","0","uniform","1","undefined","undefined","undefined","1","f","0","0","0","0","23","0","0","0","23","NA","19","23","19","0","19","3","23","0","23","Sun Mar  7 01:04:19 2021","The main experiment item","yes","Lexical_Decision_Task.osexp","C:/Users/olgas/Desktop/CaL 2021","no","Andale Mono","no","18","no","white","no","yes","576","legacy","19","19","3","C:/Users/olgas/Desktop/CaL 2021/subject-5224392.csv","legacy","Lentiform Loewenfeld","3.3.8","yes","yes","600bd7cfb6416f0113b04181","602110864497cf011d9c0822","0","f","NA","i","space","d","NA","f","729","NA","3372","5156","1886","NA","729","2","legacy","1024","2","48000","-16","task","5224392","even","NA","21283","26659","23286","62851","3795","10843","8956","63354","NA","62849","63354","62766","26659","64084","19800","62266","3791","59423","Lexical Decision Task","21","18867","24","yes","1024"
"3.705778213","0","6","stin","non-word","88","88","780.52","780.52","black","no","legacy","legacy","legacy","0","uniform","1","undefined","undefined","undefined","1","f","0","0","0","0","24","0","0","0","24","NA","20","24","20","0","20","3","24","0","24","Sun Mar  7 01:04:19 2021","The main experiment item","yes","Lexical_Decision_Task.osexp","C:/Users/olgas/Desktop/CaL 2021","no","Andale Mono","no","18","no","white","no","yes","576","legacy","20","20","3","C:/Users/olgas/Desktop/CaL 2021/subject-5224392.csv","legacy","Lentiform Loewenfeld","3.3.8","yes","yes","600bd7cfb6416f0113b04181","602110864497cf011d9c0822","0","f","NA","i","space","d","NA","f","646","NA","3372","5156","1886","NA","646","2","legacy","1024","2","48000","-16","task","5224392","even","NA","21283","26659","23286","64680","3795","10843","8956","65183","NA","64679","65183","64596","26659","65830","19800","64096","3791","59423","Lexical Decision Task","22","19513","25","yes","1024"
"2.873320602","0","4","lurg","non-word","88.46153846153847","88.46153846153847","773.5384615384615","773.5384615384615","black","no","legacy","legacy","legacy","0","uniform","1","undefined","undefined","undefined","1","f","0","0","0","0","25","0","0","0","25","NA","21","25","21","0","21","3","25","0","25","Sun Mar  7 01:04:19 2021","The main experiment item","yes","Lexical_Decision_Task.osexp","C:/Users/olgas/Desktop/CaL 2021","no","Andale Mono","no","18","no","white","no","yes","576","legacy","21","21","3","C:/Users/olgas/Desktop/CaL 2021/subject-5224392.csv","legacy","Lentiform Loewenfeld","3.3.8","yes","yes","600bd7cfb6416f0113b04181","602110864497cf011d9c0822","0","f","NA","i","space","d","NA","f","599","NA","3372","5156","1886","NA","599","2","legacy","1024","2","48000","-16","task","5224392","even","NA","21283","26659","23286","66430","3795","10843","8956","66933","NA","66428","66933","66343","26659","67533","19800","65843","3791","59423","Lexical Decision Task","23","20112","26","yes","1024"
"2.696644658","5.78","2","yolk","word","88.88888888888889","88.88888888888889","772.9629629629629","772.9629629629629","black","no","legacy","legacy","legacy","0","uniform","1","undefined","undefined","undefined","1","j","0","0","0","0","26","0","0","0","26","NA","22","26","22","0","22","3","26","0","26","Sun Mar  7 01:04:19 2021","The main experiment item","yes","Lexical_Decision_Task.osexp","C:/Users/olgas/Desktop/CaL 2021","no","Andale Mono","no","18","no","white","no","yes","576","legacy","22","22","3","C:/Users/olgas/Desktop/CaL 2021/subject-5224392.csv","legacy","Lentiform Loewenfeld","3.3.8","yes","yes","600bd7cfb6416f0113b04181","602110864497cf011d9c0822","0","j","NA","i","space","d","NA","j","758","NA","3372","5156","1886","NA","758","2","legacy","1024","2","48000","-16","task","5224392","even","NA","21283","26659","23286","68134","3795","10843","8956","68636","NA","68132","68636","68045","26659","69395","19800","67545","3791","59423","Lexical Decision Task","24","20870","27","yes","1024"
"3.105055783","0","2","norp","non-word","89.28571428571429","89.28571428571429","769.0714285714286","769.0714285714286","black","no","legacy","legacy","legacy","0","uniform","1","undefined","undefined","undefined","1","f","0","0","0","0","27","0","0","0","27","NA","23","27","23","0","23","3","27","0","27","Sun Mar  7 01:04:19 2021","The main experiment item","yes","Lexical_Decision_Task.osexp","C:/Users/olgas/Desktop/CaL 2021","no","Andale Mono","no","18","no","white","no","yes","576","legacy","23","23","3","C:/Users/olgas/Desktop/CaL 2021/subject-5224392.csv","legacy","Lentiform Loewenfeld","3.3.8","yes","yes","600bd7cfb6416f0113b04181","602110864497cf011d9c0822","0","f","NA","i","space","d","NA","f","664","NA","3372","5156","1886","NA","664","2","legacy","1024","2","48000","-16","task","5224392","even","NA","21283","26659","23286","69991","3795","10843","8956","70495","NA","69990","70495","69908","26659","71160","19800","69408","3791","59423","Lexical Decision Task","25","21534","28","yes","1024"
"2.767650507","0","6","yolt","non-word","89.65517241379311","89.65517241379311","784.8620689655172","784.8620689655172","black","no","legacy","legacy","legacy","0","uniform","1","undefined","undefined","undefined","1","f","0","0","0","0","28","0","0","0","28","NA","24","28","24","0","24","3","28","0","28","Sun Mar  7 01:04:19 2021","The main experiment item","yes","Lexical_Decision_Task.osexp","C:/Users/olgas/Desktop/CaL 2021","no","Andale Mono","no","18","no","white","no","yes","576","legacy","24","24","3","C:/Users/olgas/Desktop/CaL 2021/subject-5224392.csv","legacy","Lentiform Loewenfeld","3.3.8","yes","yes","600bd7cfb6416f0113b04181","602110864497cf011d9c0822","0","f","NA","i","space","d","NA","f","1227","NA","3372","5156","1886","NA","1227","2","legacy","1024","2","48000","-16","task","5224392","even","NA","21283","26659","23286","71756","3795","10843","8956","72259","NA","71753","72259","71671","26659","73487","19800","71171","3791","59423","Lexical Decision Task","26","22761","29","yes","1024"
"3.068433376","8.09","2","bulb","word","90","90","777.1333333333333","777.1333333333333","black","no","legacy","legacy","legacy","0","uniform","1","undefined","undefined","undefined","1","j","0","0","0","0","29","0","0","0","29","NA","25","29","25","0","25","3","29","0","29","Sun Mar  7 01:04:19 2021","The main experiment item","yes","Lexical_Decision_Task.osexp","C:/Users/olgas/Desktop/CaL 2021","no","Andale Mono","no","18","no","white","no","yes","576","legacy","25","25","3","C:/Users/olgas/Desktop/CaL 2021/subject-5224392.csv","legacy","Lentiform Loewenfeld","3.3.8","yes","yes","600bd7cfb6416f0113b04181","602110864497cf011d9c0822","0","j","NA","i","space","d","NA","j","553","NA","3372","5156","1886","NA","553","2","legacy","1024","2","48000","-16","task","5224392","even","NA","21283","26659","23286","74087","3795","10843","8956","74590","NA","74085","74590","73999","26659","75144","19800","73498","3791","59423","Lexical Decision Task","27","23314","30","yes","1024"
"2.884795364","0","6","flob","non-word","90.3225806451613","90.3225806451613","781.0322580645161","781.0322580645161","black","no","legacy","legacy","legacy","0","uniform","1","undefined","undefined","undefined","1","f","0","0","0","0","30","0","0","0","30","NA","26","30","26","0","26","3","30","0","30","Sun Mar  7 01:04:19 2021","The main experiment item","yes","Lexical_Decision_Task.osexp","C:/Users/olgas/Desktop/CaL 2021","no","Andale Mono","no","18","no","white","no","yes","576","legacy","26","26","3","C:/Users/olgas/Desktop/CaL 2021/subject-5224392.csv","legacy","Lentiform Loewenfeld","3.3.8","yes","yes","600bd7cfb6416f0113b04181","602110864497cf011d9c0822","0","f","NA","i","space","d","NA","f","898","NA","3372","5156","1886","NA","898","2","legacy","1024","2","48000","-16","task","5224392","even","NA","21283","26659","23286","75739","3795","10843","8956","76242","NA","75737","76242","75656","26659","77140","19800","75156","3791","59423","Lexical Decision Task","28","24212","31","yes","1024"
"3.16326079","0","5","parg","non-word","90.625","90.625","776.34375","776.34375","black","no","legacy","legacy","legacy","0","uniform","1","undefined","undefined","undefined","1","f","0","0","0","0","31","0","0","0","31","NA","27","31","27","0","27","3","31","0","31","Sun Mar  7 01:04:19 2021","The main experiment item","yes","Lexical_Decision_Task.osexp","C:/Users/olgas/Desktop/CaL 2021","no","Andale Mono","no","18","no","white","no","yes","576","legacy","27","27","3","C:/Users/olgas/Desktop/CaL 2021/subject-5224392.csv","legacy","Lentiform Loewenfeld","3.3.8","yes","yes","600bd7cfb6416f0113b04181","602110864497cf011d9c0822","0","f","NA","i","space","d","NA","f","631","NA","3372","5156","1886","NA","631","2","legacy","1024","2","48000","-16","task","5224392","even","NA","21283","26659","23286","77749","3795","10843","8956","78252","NA","77747","78252","77654","26659","78883","19800","77154","3791","59423","Lexical Decision Task","29","24843","32","yes","1024"
"3.531734309","0","6","lerd","non-word","90.9090909090909","90.9090909090909","771.5757575757576","771.5757575757576","black","no","legacy","legacy","legacy","0","uniform","1","undefined","undefined","undefined","1","f","0","0","0","0","32","0","0","0","32","NA","28","32","28","0","28","3","32","0","32","Sun Mar  7 01:04:19 2021","The main experiment item","yes","Lexical_Decision_Task.osexp","C:/Users/olgas/Desktop/CaL 2021","no","Andale Mono","no","18","no","white","no","yes","576","legacy","28","28","3","C:/Users/olgas/Desktop/CaL 2021/subject-5224392.csv","legacy","Lentiform Loewenfeld","3.3.8","yes","yes","600bd7cfb6416f0113b04181","602110864497cf011d9c0822","0","f","NA","i","space","d","NA","f","619","NA","3372","5156","1886","NA","619","2","legacy","1024","2","48000","-16","task","5224392","even","NA","21283","26659","23286","79479","3795","10843","8956","79982","NA","79477","79982","79394","26659","80602","19800","78894","3791","59423","Lexical Decision Task","30","25462","33","yes","1024"
"2.713490543","0","3","feps","non-word","91.17647058823529","91.17647058823529","769.1764705882352","769.1764705882352","black","no","legacy","legacy","legacy","0","uniform","1","undefined","undefined","undefined","1","f","0","0","0","0","33","0","0","0","33","NA","29","33","29","0","29","3","33","0","33","Sun Mar  7 01:04:19 2021","The main experiment item","yes","Lexical_Decision_Task.osexp","C:/Users/olgas/Desktop/CaL 2021","no","Andale Mono","no","18","no","white","no","yes","576","legacy","29","29","3","C:/Users/olgas/Desktop/CaL 2021/subject-5224392.csv","legacy","Lentiform Loewenfeld","3.3.8","yes","yes","600bd7cfb6416f0113b04181","602110864497cf011d9c0822","0","f","NA","i","space","d","NA","f","690","NA","3372","5156","1886","NA","690","2","legacy","1024","2","48000","-16","task","5224392","even","NA","21283","26659","23286","81190","3795","10843","8956","81693","NA","81188","81694","81107","26659","82385","19800","80607","3791","59423","Lexical Decision Task","31","26152","34","yes","1024"
"3.043885998","0","9","gome","non-word","91.42857142857143","91.42857142857143","762.7428571428571","762.7428571428571","black","no","legacy","legacy","legacy","0","uniform","1","undefined","undefined","undefined","1","f","0","0","0","0","34","0","0","0","34","NA","30","34","30","0","30","3","34","0","34","Sun Mar  7 01:04:19 2021","The main experiment item","yes","Lexical_Decision_Task.osexp","C:/Users/olgas/Desktop/CaL 2021","no","Andale Mono","no","18","no","white","no","yes","576","legacy","30","30","3","C:/Users/olgas/Desktop/CaL 2021/subject-5224392.csv","legacy","Lentiform Loewenfeld","3.3.8","yes","yes","600bd7cfb6416f0113b04181","602110864497cf011d9c0822","0","f","NA","i","space","d","NA","f","544","NA","3372","5156","1886","NA","544","2","legacy","1024","2","48000","-16","task","5224392","even","NA","21283","26659","23286","82982","3795","10843","8956","83485","NA","82980","83485","82897","26659","84030","19800","82396","3791","59423","Lexical Decision Task","32","26696","35","yes","1024"
"2.895974732","6.65","5","sift","word","91.66666666666667","91.66666666666667","763.5277777777778","763.5277777777778","black","no","legacy","legacy","legacy","0","uniform","1","undefined","undefined","undefined","1","j","0","0","0","0","35","0","0","0","35","NA","31","35","31","0","31","3","35","0","35","Sun Mar  7 01:04:19 2021","The main experiment item","yes","Lexical_Decision_Task.osexp","C:/Users/olgas/Desktop/CaL 2021","no","Andale Mono","no","18","no","white","no","yes","576","legacy","31","31","3","C:/Users/olgas/Desktop/CaL 2021/subject-5224392.csv","legacy","Lentiform Loewenfeld","3.3.8","yes","yes","600bd7cfb6416f0113b04181","602110864497cf011d9c0822","0","j","NA","i","space","d","NA","j","791","NA","3372","5156","1886","NA","791","2","legacy","1024","2","48000","-16","task","5224392","even","NA","21283","26659","23286","84630","3795","10843","8956","85132","NA","84628","85133","84542","26659","85925","19800","84042","3791","59423","Lexical Decision Task","33","27487","36","yes","1024"
"3.100255637","0","6","brax","non-word","91.89189189189189","91.89189189189189","758.8648648648649","758.8648648648649","black","no","legacy","legacy","legacy","0","uniform","1","undefined","undefined","undefined","1","f","0","0","0","0","36","0","0","0","36","NA","32","36","32","0","32","3","36","0","36","Sun Mar  7 01:04:19 2021","The main experiment item","yes","Lexical_Decision_Task.osexp","C:/Users/olgas/Desktop/CaL 2021","no","Andale Mono","no","18","no","white","no","yes","576","legacy","32","32","3","C:/Users/olgas/Desktop/CaL 2021/subject-5224392.csv","legacy","Lentiform Loewenfeld","3.3.8","yes","yes","600bd7cfb6416f0113b04181","602110864497cf011d9c0822","0","f","NA","i","space","d","NA","f","591","NA","3372","5156","1886","NA","591","2","legacy","1024","2","48000","-16","task","5224392","even","NA","21283","26659","23286","86523","3795","10843","8956","87027","NA","86522","87027","86439","26659","87618","19800","85937","3791","59423","Lexical Decision Task","34","28078","37","yes","1024"
"2.996511672","0","7","hoil","non-word","92.10526315789474","92.10526315789474","754.5","754.5","black","no","legacy","legacy","legacy","0","uniform","1","undefined","undefined","undefined","1","f","0","0","0","0","37","0","0","0","37","NA","33","37","33","0","33","3","37","0","37","Sun Mar  7 01:04:19 2021","The main experiment item","yes","Lexical_Decision_Task.osexp","C:/Users/olgas/Desktop/CaL 2021","no","Andale Mono","no","18","no","white","no","yes","576","legacy","33","33","3","C:/Users/olgas/Desktop/CaL 2021/subject-5224392.csv","legacy","Lentiform Loewenfeld","3.3.8","yes","yes","600bd7cfb6416f0113b04181","602110864497cf011d9c0822","0","f","NA","i","space","d","NA","f","593","NA","3372","5156","1886","NA","593","2","legacy","1024","2","48000","-16","task","5224392","even","NA","21283","26659","23286","88216","3795","10843","8956","88719","NA","88214","88719","88130","26659","89313","19800","87630","3791","59423","Lexical Decision Task","35","28671","38","yes","1024"
"3.372543801","9.24","8","coat","word","92.3076923076923","92.3076923076923","748.1025641025641","748.1025641025641","black","no","legacy","legacy","legacy","0","uniform","1","undefined","undefined","undefined","1","j","0","0","0","0","38","0","0","0","38","NA","34","38","34","0","34","3","38","0","38","Sun Mar  7 01:04:19 2021","The main experiment item","yes","Lexical_Decision_Task.osexp","C:/Users/olgas/Desktop/CaL 2021","no","Andale Mono","no","18","no","white","no","yes","576","legacy","34","34","3","C:/Users/olgas/Desktop/CaL 2021/subject-5224392.csv","legacy","Lentiform Loewenfeld","3.3.8","yes","yes","600bd7cfb6416f0113b04181","602110864497cf011d9c0822","0","j","NA","i","space","d","NA","j","505","NA","3372","5156","1886","NA","505","2","legacy","1024","2","48000","-16","task","5224392","even","NA","21283","26659","23286","89912","3795","10843","8956","90414","NA","89909","90414","89825","26659","90920","19800","89325","3791","59423","Lexical Decision Task","36","29176","39","yes","1024"
"3.102203805","7.21","3","drip","word","92.5","92.5","743.375","743.375","black","no","legacy","legacy","legacy","0","uniform","1","undefined","undefined","undefined","1","j","0","0","0","0","39","0","0","0","39","NA","35","39","35","0","35","3","39","0","39","Sun Mar  7 01:04:19 2021","The main experiment item","yes","Lexical_Decision_Task.osexp","C:/Users/olgas/Desktop/CaL 2021","no","Andale Mono","no","18","no","white","no","yes","576","legacy","35","35","3","C:/Users/olgas/Desktop/CaL 2021/subject-5224392.csv","legacy","Lentiform Loewenfeld","3.3.8","yes","yes","600bd7cfb6416f0113b04181","602110864497cf011d9c0822","0","j","NA","i","space","d","NA","j","559","NA","3372","5156","1886","NA","559","2","legacy","1024","2","48000","-16","task","5224392","even","NA","21283","26659","23286","91526","3795","10843","8956","92029","NA","91524","92029","91431","26659","92588","19800","90931","3791","59423","Lexical Decision Task","37","29735","40","yes","1024"
"2.594027722","9.08","8","skip","word","92.6829268292683","92.6829268292683","749.9024390243902","749.9024390243902","black","no","legacy","legacy","legacy","0","uniform","1","undefined","undefined","undefined","1","j","0","0","0","0","40","0","0","0","40","NA","36","40","36","0","36","3","40","0","40","Sun Mar  7 01:04:19 2021","The main experiment item","yes","Lexical_Decision_Task.osexp","C:/Users/olgas/Desktop/CaL 2021","no","Andale Mono","no","18","no","white","no","yes","576","legacy","36","36","3","C:/Users/olgas/Desktop/CaL 2021/subject-5224392.csv","legacy","Lentiform Loewenfeld","3.3.8","yes","yes","600bd7cfb6416f0113b04181","602110864497cf011d9c0822","0","j","NA","i","space","d","NA","j","1011","NA","3372","5156","1886","NA","1011","2","legacy","1024","2","48000","-16","task","5224392","even","NA","21283","26659","23286","93186","3795","10843","8956","93689","NA","93184","93689","93100","26659","94701","19800","92599","3791","59423","Lexical Decision Task","38","30746","41","yes","1024"
"3.028977705","0","7","frow","non-word","90.47619047619048","90.47619047619048","748.047619047619","748.047619047619","black","no","legacy","legacy","legacy","0","uniform","0","undefined","undefined","undefined","0","f","0","0","0","0","41","0","0","0","41","NA","37","41","37","0","37","3","41","0","41","Sun Mar  7 01:04:19 2021","The main experiment item","yes","Lexical_Decision_Task.osexp","C:/Users/olgas/Desktop/CaL 2021","no","Andale Mono","no","18","no","white","no","yes","576","legacy","37","37","3","C:/Users/olgas/Desktop/CaL 2021/subject-5224392.csv","legacy","Lentiform Loewenfeld","3.3.8","yes","yes","600bd7cfb6416f0113b04181","602110864497cf011d9c0822","0","j","NA","i","space","d","NA","j","672","NA","3372","5156","1886","NA","672","2","legacy","1024","2","48000","-16","task","5224392","even","NA","21283","26659","23286","95298","3795","10843","8956","95800","NA","95296","95801","95213","26659","96474","19800","94713","3791","59423","Lexical Decision Task","38","31418","42","yes","1024"
"2.75025376","10.2","6","jump","word","90.69767441860465","90.69767441860465","743.1395348837209","743.1395348837209","black","no","legacy","legacy","legacy","0","uniform","1","undefined","undefined","undefined","1","j","0","0","0","0","42","0","0","0","42","NA","38","42","38","0","38","3","42","0","42","Sun Mar  7 01:04:19 2021","The main experiment item","yes","Lexical_Decision_Task.osexp","C:/Users/olgas/Desktop/CaL 2021","no","Andale Mono","no","18","no","white","no","yes","576","legacy","38","38","3","C:/Users/olgas/Desktop/CaL 2021/subject-5224392.csv","legacy","Lentiform Loewenfeld","3.3.8","yes","yes","600bd7cfb6416f0113b04181","602110864497cf011d9c0822","0","j","NA","i","space","d","NA","j","537","NA","3372","5156","1886","NA","537","2","legacy","1024","2","48000","-16","task","5224392","even","NA","21283","26659","23286","98078","3795","10843","8956","98581","NA","98076","98581","97986","26659","99119","19800","94713","3791","96486","Lexical Decision Task","39","31955","43","yes","1024"
"2.695481676","0","7","goke","non-word","90.9090909090909","90.9090909090909","744.2954545454545","744.2954545454545","black","no","legacy","legacy","legacy","0","uniform","1","undefined","undefined","undefined","1","f","0","0","0","0","43","0","0","0","43","NA","39","43","39","0","39","3","43","0","43","Sun Mar  7 01:04:19 2021","The main experiment item","yes","Lexical_Decision_Task.osexp","C:/Users/olgas/Desktop/CaL 2021","no","Andale Mono","no","18","no","white","no","yes","576","legacy","39","39","3","C:/Users/olgas/Desktop/CaL 2021/subject-5224392.csv","legacy","Lentiform Loewenfeld","3.3.8","yes","yes","600bd7cfb6416f0113b04181","602110864497cf011d9c0822","0","f","NA","i","space","d","NA","f","794","NA","3372","5156","1886","NA","794","2","legacy","1024","2","48000","-16","task","5224392","even","NA","21283","26659","23286","99716","3795","10843","8956","100219","NA","99714","100219","99631","26659","101013","19800","99131","3791","96486","Lexical Decision Task","40","32749","44","yes","1024"
"3.382617311","0","4","pret","non-word","88.88888888888889","88.88888888888889","755.7555555555556","755.7555555555556","black","no","legacy","legacy","legacy","0","uniform","0","undefined","undefined","undefined","0","f","0","0","0","0","44","0","0","0","44","NA","40","44","40","0","40","3","44","0","44","Sun Mar  7 01:04:19 2021","The main experiment item","yes","Lexical_Decision_Task.osexp","C:/Users/olgas/Desktop/CaL 2021","no","Andale Mono","no","18","no","white","no","yes","576","legacy","40","40","3","C:/Users/olgas/Desktop/CaL 2021/subject-5224392.csv","legacy","Lentiform Loewenfeld","3.3.8","yes","yes","600bd7cfb6416f0113b04181","602110864497cf011d9c0822","0","j","NA","i","space","d","NA","j","1260","NA","3372","5156","1886","NA","1260","2","legacy","1024","2","48000","-16","task","5224392","even","NA","21283","26659","23286","101612","3795","10843","8956","102116","NA","101610","102116","101525","26659","103377","19800","101025","3791","96486","Lexical Decision Task","40","34009","45","yes","1024"
"2.899092422","7.27","6","snag","word","86.95652173913044","86.95652173913044","764.3478260869565","764.3478260869565","black","no","legacy","legacy","legacy","0","uniform","0","undefined","undefined","undefined","0","j","0","0","0","0","45","0","0","0","45","NA","41","45","41","0","41","3","45","0","45","Sun Mar  7 01:04:19 2021","The main experiment item","yes","Lexical_Decision_Task.osexp","C:/Users/olgas/Desktop/CaL 2021","no","Andale Mono","no","18","no","white","no","yes","576","legacy","41","41","3","C:/Users/olgas/Desktop/CaL 2021/subject-5224392.csv","legacy","Lentiform Loewenfeld","3.3.8","yes","yes","600bd7cfb6416f0113b04181","602110864497cf011d9c0822","0","f","NA","i","space","d","NA","f","1151","NA","3372","5156","1886","NA","1151","2","legacy","1024","2","48000","-16","task","5224392","even","NA","21283","26659","23286","104979","3795","10843","8956","105482","NA","104977","105482","104889","26659","106634","19800","101025","3791","103388","Lexical Decision Task","40","35160","46","yes","1024"
"3.218535505","7.85","7","goat","word","87.23404255319149","87.23404255319149","763.4468085106383","763.4468085106383","black","no","legacy","legacy","legacy","0","uniform","1","undefined","undefined","undefined","1","j","0","0","0","0","46","0","0","0","46","NA","42","46","42","0","42","3","46","0","46","Sun Mar  7 01:04:19 2021","The main experiment item","yes","Lexical_Decision_Task.osexp","C:/Users/olgas/Desktop/CaL 2021","no","Andale Mono","no","18","no","white","no","yes","576","legacy","42","42","3","C:/Users/olgas/Desktop/CaL 2021/subject-5224392.csv","legacy","Lentiform Loewenfeld","3.3.8","yes","yes","600bd7cfb6416f0113b04181","602110864497cf011d9c0822","0","j","NA","i","space","d","NA","j","722","NA","3372","5156","1886","NA","722","2","legacy","1024","2","48000","-16","task","5224392","even","NA","21283","26659","23286","108238","3795","10843","8956","108740","NA","108236","108741","108146","26659","109464","19800","101025","3791","106646","Lexical Decision Task","41","35882","47","yes","1024"
"2.966923697","5.4","2","fume","word","87.5","87.5","764.2083333333334","764.2083333333334","black","no","legacy","legacy","legacy","0","uniform","1","undefined","undefined","undefined","1","j","0","0","0","0","47","0","0","0","47","NA","43","47","43","0","43","3","47","0","47","Sun Mar  7 01:04:19 2021","The main experiment item","yes","Lexical_Decision_Task.osexp","C:/Users/olgas/Desktop/CaL 2021","no","Andale Mono","no","18","no","white","no","yes","576","legacy","43","43","3","C:/Users/olgas/Desktop/CaL 2021/subject-5224392.csv","legacy","Lentiform Loewenfeld","3.3.8","yes","yes","600bd7cfb6416f0113b04181","602110864497cf011d9c0822","0","j","NA","i","space","d","NA","j","800","NA","3372","5156","1886","NA","800","2","legacy","1024","2","48000","-16","task","5224392","even","NA","21283","26659","23286","110063","3795","10843","8956","110566","NA","110061","110566","109977","26659","111366","19800","109476","3791","106646","Lexical Decision Task","42","36682","48","yes","1024"
"2.981215883","10.66","5","hair","word","87.75510204081633","87.75510204081633","757.3265306122449","757.3265306122449","black","no","legacy","legacy","legacy","0","uniform","1","undefined","undefined","undefined","1","j","0","0","0","0","48","0","0","0","48","NA","44","48","44","0","44","3","48","0","48","Sun Mar  7 01:04:19 2021","The main experiment item","yes","Lexical_Decision_Task.osexp","C:/Users/olgas/Desktop/CaL 2021","no","Andale Mono","no","18","no","white","no","yes","576","legacy","44","44","3","C:/Users/olgas/Desktop/CaL 2021/subject-5224392.csv","legacy","Lentiform Loewenfeld","3.3.8","yes","yes","600bd7cfb6416f0113b04181","602110864497cf011d9c0822","0","j","NA","i","space","d","NA","j","427","NA","3372","5156","1886","NA","427","2","legacy","1024","2","48000","-16","task","5224392","even","NA","21283","26659","23286","111964","3795","10843","8956","112467","NA","111962","112467","111878","26659","112895","19800","111378","3791","106646","Lexical Decision Task","43","37109","49","yes","1024"
"2.664328519","0","4","plux","non-word","88","88","760.52","760.52","black","no","legacy","legacy","legacy","0","uniform","1","undefined","undefined","undefined","1","f","0","0","0","0","49","0","0","0","49","NA","45","49","45","0","45","3","49","0","49","Sun Mar  7 01:04:19 2021","The main experiment item","yes","Lexical_Decision_Task.osexp","C:/Users/olgas/Desktop/CaL 2021","no","Andale Mono","no","18","no","white","no","yes","576","legacy","45","45","3","C:/Users/olgas/Desktop/CaL 2021/subject-5224392.csv","legacy","Lentiform Loewenfeld","3.3.8","yes","yes","600bd7cfb6416f0113b04181","602110864497cf011d9c0822","0","f","NA","i","space","d","NA","f","917","NA","3372","5156","1886","NA","917","2","legacy","1024","2","48000","-16","task","5224392","even","NA","21283","26659","23286","113492","3795","10843","8956","113995","NA","113490","113995","113408","26659","114913","19800","112908","3791","106646","Lexical Decision Task","44","38026","50","yes","1024"
"2.82129731","6.72","5","plum","word","88.23529411764706","88.23529411764706","758.5686274509804","758.5686274509804","black","no","legacy","legacy","legacy","0","uniform","1","undefined","undefined","undefined","1","j","0","0","0","0","50","0","0","0","50","NA","46","50","46","0","46","3","50","0","50","Sun Mar  7 01:04:19 2021","The main experiment item","yes","Lexical_Decision_Task.osexp","C:/Users/olgas/Desktop/CaL 2021","no","Andale Mono","no","18","no","white","no","yes","576","legacy","46","46","3","C:/Users/olgas/Desktop/CaL 2021/subject-5224392.csv","legacy","Lentiform Loewenfeld","3.3.8","yes","yes","600bd7cfb6416f0113b04181","602110864497cf011d9c0822","0","j","NA","i","space","d","NA","j","661","NA","3372","5156","1886","NA","661","2","legacy","1024","2","48000","-16","task","5224392","even","NA","21283","26659","23286","115511","3795","10843","8956","116013","NA","115510","116013","115426","26659","116675","19800","114926","3791","106646","Lexical Decision Task","45","38687","51","yes","1024"
"3.302475237","0","7","leel","non-word","88.46153846153847","88.46153846153847","761.2307692307693","761.2307692307693","black","no","legacy","legacy","legacy","0","uniform","1","undefined","undefined","undefined","1","f","0","0","0","0","51","0","0","0","51","NA","47","51","47","0","47","3","51","0","51","Sun Mar  7 01:04:19 2021","The main experiment item","yes","Lexical_Decision_Task.osexp","C:/Users/olgas/Desktop/CaL 2021","no","Andale Mono","no","18","no","white","no","yes","576","legacy","47","47","3","C:/Users/olgas/Desktop/CaL 2021/subject-5224392.csv","legacy","Lentiform Loewenfeld","3.3.8","yes","yes","600bd7cfb6416f0113b04181","602110864497cf011d9c0822","0","f","NA","i","space","d","NA","f","897","NA","3372","5156","1886","NA","897","2","legacy","1024","2","48000","-16","task","5224392","even","NA","21283","26659","23286","117270","3795","10843","8956","117773","NA","117268","117773","117187","26659","118672","19800","116686","3791","106646","Lexical Decision Task","46","39584","52","yes","1024"
"3.194328374","9.42","6","harm","word","88.67924528301887","88.67924528301887","771.0566037735849","771.0566037735849","black","no","legacy","legacy","legacy","0","uniform","1","undefined","undefined","undefined","1","j","0","0","0","0","52","0","0","0","52","NA","48","52","48","0","48","3","52","0","52","Sun Mar  7 01:04:19 2021","The main experiment item","yes","Lexical_Decision_Task.osexp","C:/Users/olgas/Desktop/CaL 2021","no","Andale Mono","no","18","no","white","no","yes","576","legacy","48","48","3","C:/Users/olgas/Desktop/CaL 2021/subject-5224392.csv","legacy","Lentiform Loewenfeld","3.3.8","yes","yes","600bd7cfb6416f0113b04181","602110864497cf011d9c0822","0","j","NA","i","space","d","NA","j","1282","NA","3372","5156","1886","NA","1282","2","legacy","1024","2","48000","-16","task","5224392","even","NA","21283","26659","23286","119259","3795","10843","8956","119762","NA","119257","119762","119176","26659","121044","19800","118676","3791","106646","Lexical Decision Task","47","40866","53","yes","1024"
"2.952953801","0","8","clax","non-word","88.88888888888889","88.88888888888889","767.9629629629629","767.9629629629629","black","no","legacy","legacy","legacy","0","uniform","1","undefined","undefined","undefined","1","f","0","0","0","0","53","0","0","0","53","NA","49","53","49","0","49","3","53","0","53","Sun Mar  7 01:04:19 2021","The main experiment item","yes","Lexical_Decision_Task.osexp","C:/Users/olgas/Desktop/CaL 2021","no","Andale Mono","no","18","no","white","no","yes","576","legacy","49","49","3","C:/Users/olgas/Desktop/CaL 2021/subject-5224392.csv","legacy","Lentiform Loewenfeld","3.3.8","yes","yes","600bd7cfb6416f0113b04181","602110864497cf011d9c0822","0","f","NA","i","space","d","NA","f","604","NA","3372","5156","1886","NA","604","2","legacy","1024","2","48000","-16","task","5224392","even","NA","21283","26659","23286","121642","3795","10843","8956","122145","NA","121639","122145","121557","26659","122749","19800","121057","3791","106646","Lexical Decision Task","48","41470","54","yes","1024"
"2.696356389","0","1","pizz","non-word","89.0909090909091","89.0909090909091","766.4","766.4","black","no","legacy","legacy","legacy","0","uniform","1","undefined","undefined","undefined","1","f","0","0","0","0","54","0","0","0","54","0","50","54","50","0","50","3","54","0","54","Sun Mar  7 01:04:19 2021","The main experiment item","yes","Lexical_Decision_Task.osexp","C:/Users/olgas/Desktop/CaL 2021","no","Andale Mono","no","18","no","white","no","yes","576","legacy","50","50","3","C:/Users/olgas/Desktop/CaL 2021/subject-5224392.csv","legacy","Lentiform Loewenfeld","3.3.8","yes","yes","600bd7cfb6416f0113b04181","602110864497cf011d9c0822","0","f","NA","i","space","d","i","f","682","NA","3372","5156","1886","9107","682","2","legacy","1024","2","48000","-16","task","5224392","even","NA","21283","26659","23286","132504","3795","10843","8956","133006","123318","132503","133007","123260","26659","133690","19800","122760","3791","106646","Lexical Decision Task","49","42152","55","yes","1024"
"2.695770526","7.34","6","pawn","word","87.5","87.5","762.2678571428571","762.2678571428571","black","no","legacy","legacy","legacy","0","uniform","0","undefined","undefined","undefined","0","j","0","0","0","0","55","0","0","0","55","0","51","55","51","0","51","3","55","0","55","Sun Mar  7 01:04:19 2021","The main experiment item","yes","Lexical_Decision_Task.osexp","C:/Users/olgas/Desktop/CaL 2021","no","Andale Mono","no","18","no","white","no","yes","576","legacy","51","51","3","C:/Users/olgas/Desktop/CaL 2021/subject-5224392.csv","legacy","Lentiform Loewenfeld","3.3.8","yes","yes","600bd7cfb6416f0113b04181","602110864497cf011d9c0822","0","f","NA","i","space","d","i","f","535","NA","3372","5156","1886","9107","535","2","legacy","1024","2","48000","-16","task","5224392","even","NA","21283","26659","23286","134290","3795","10843","8956","134795","123318","134289","134795","134202","26659","135331","19800","133702","3791","106646","Lexical Decision Task","49","42687","56","yes","1024"
"3.064581521","5.51","6","cask","word","85.96491228070175","85.96491228070175","762.1754385964912","762.1754385964912","black","no","legacy","legacy","legacy","0","uniform","0","undefined","undefined","undefined","0","j","0","0","0","0","56","0","0","0","56","0","52","56","52","0","52","3","56","0","56","Sun Mar  7 01:04:19 2021","The main experiment item","yes","Lexical_Decision_Task.osexp","C:/Users/olgas/Desktop/CaL 2021","no","Andale Mono","no","18","no","white","no","yes","576","legacy","52","52","3","C:/Users/olgas/Desktop/CaL 2021/subject-5224392.csv","legacy","Lentiform Loewenfeld","3.3.8","yes","yes","600bd7cfb6416f0113b04181","602110864497cf011d9c0822","0","f","NA","i","space","d","i","f","757","NA","3372","5156","1886","9107","757","2","legacy","1024","2","48000","-16","task","5224392","even","NA","21283","26659","23286","136935","3795","10843","8956","137438","123318","136932","137438","136843","26659","138195","19800","133702","3791","135343","Lexical Decision Task","49","43444","57","yes","1024"
"3.132473155","0","4","glim","non-word","86.20689655172414","86.20689655172414","759.8448275862069","759.8448275862069","black","no","legacy","legacy","legacy","0","uniform","1","undefined","undefined","undefined","1","f","0","0","0","0","57","0","0","0","57","0","53","57","53","0","53","3","57","0","57","Sun Mar  7 01:04:19 2021","The main experiment item","yes","Lexical_Decision_Task.osexp","C:/Users/olgas/Desktop/CaL 2021","no","Andale Mono","no","18","no","white","no","yes","576","legacy","53","53","3","C:/Users/olgas/Desktop/CaL 2021/subject-5224392.csv","legacy","Lentiform Loewenfeld","3.3.8","yes","yes","600bd7cfb6416f0113b04181","602110864497cf011d9c0822","0","f","NA","i","space","d","i","f","627","NA","3372","5156","1886","9107","627","2","legacy","1024","2","48000","-16","task","5224392","even","NA","21283","26659","23286","139800","3795","10843","8956","140304","123318","139799","140304","139708","26659","140932","19800","133702","3791","138207","Lexical Decision Task","50","44071","58","yes","1024"
"3.368162872","0","4","ferk","non-word","84.7457627118644","84.7457627118644","756.457627118644","756.457627118644","black","no","legacy","legacy","legacy","0","uniform","0","undefined","undefined","undefined","0","f","0","0","0","0","58","0","0","0","58","0","54","58","54","0","54","3","58","0","58","Sun Mar  7 01:04:19 2021","The main experiment item","yes","Lexical_Decision_Task.osexp","C:/Users/olgas/Desktop/CaL 2021","no","Andale Mono","no","18","no","white","no","yes","576","legacy","54","54","3","C:/Users/olgas/Desktop/CaL 2021/subject-5224392.csv","legacy","Lentiform Loewenfeld","3.3.8","yes","yes","600bd7cfb6416f0113b04181","602110864497cf011d9c0822","0","j","NA","i","space","d","i","j","560","NA","3372","5156","1886","9107","560","2","legacy","1024","2","48000","-16","task","5224392","even","NA","21283","26659","23286","141525","3795","10843","8956","142027","123318","141523","142027","141445","26659","142588","19800","140945","3791","138207","Lexical Decision Task","50","44631","59","yes","1024"
"3.299579929","0","2","flis","non-word","85","85","757.4","757.4","black","no","legacy","legacy","legacy","0","uniform","1","undefined","undefined","undefined","1","f","0","0","0","0","59","0","0","0","59","0","55","59","55","0","55","3","59","0","59","Sun Mar  7 01:04:19 2021","The main experiment item","yes","Lexical_Decision_Task.osexp","C:/Users/olgas/Desktop/CaL 2021","no","Andale Mono","no","18","no","white","no","yes","576","legacy","55","55","3","C:/Users/olgas/Desktop/CaL 2021/subject-5224392.csv","legacy","Lentiform Loewenfeld","3.3.8","yes","yes","600bd7cfb6416f0113b04181","602110864497cf011d9c0822","0","f","NA","i","space","d","i","f","813","NA","3372","5156","1886","9107","813","2","legacy","1024","2","48000","-16","task","5224392","even","NA","21283","26659","23286","144183","3795","10843","8956","144686","123318","144181","144686","144092","26659","145500","19800","140945","3791","142592","Lexical Decision Task","51","45444","60","yes","1024"
"3.168400243","9.12","6","horn","word","85.24590163934427","85.24590163934427","754.639344262295","754.639344262295","black","no","legacy","legacy","legacy","0","uniform","1","undefined","undefined","undefined","1","j","0","0","0","0","60","0","0","0","60","0","56","60","56","0","56","3","60","0","60","Sun Mar  7 01:04:19 2021","The main experiment item","yes","Lexical_Decision_Task.osexp","C:/Users/olgas/Desktop/CaL 2021","no","Andale Mono","no","18","no","white","no","yes","576","legacy","56","56","3","C:/Users/olgas/Desktop/CaL 2021/subject-5224392.csv","legacy","Lentiform Loewenfeld","3.3.8","yes","yes","600bd7cfb6416f0113b04181","602110864497cf011d9c0822","0","j","NA","i","space","d","i","j","589","NA","3372","5156","1886","9107","589","2","legacy","1024","2","48000","-16","task","5224392","even","NA","21283","26659","23286","146100","3795","10843","8956","146602","123318","146098","146602","146005","26659","147192","19800","145504","3791","142592","Lexical Decision Task","52","46033","61","yes","1024"
"2.668385917","5.48","4","twig","word","85.48387096774194","85.48387096774194","754.8064516129032","754.8064516129032","black","no","legacy","legacy","legacy","0","uniform","1","undefined","undefined","undefined","1","j","0","0","0","0","61","0","0","0","61","0","57","61","57","0","57","3","61","0","61","Sun Mar  7 01:04:19 2021","The main experiment item","yes","Lexical_Decision_Task.osexp","C:/Users/olgas/Desktop/CaL 2021","no","Andale Mono","no","18","no","white","no","yes","576","legacy","57","57","3","C:/Users/olgas/Desktop/CaL 2021/subject-5224392.csv","legacy","Lentiform Loewenfeld","3.3.8","yes","yes","600bd7cfb6416f0113b04181","602110864497cf011d9c0822","0","j","NA","i","space","d","i","j","765","NA","3372","5156","1886","9107","765","2","legacy","1024","2","48000","-16","task","5224392","even","NA","21283","26659","23286","147800","3795","10843","8956","148303","123318","147798","148303","147704","26659","149069","19800","147204","3791","142592","Lexical Decision Task","53","46798","62","yes","1024"
"2.898725182","0","7","turl","non-word","85.71428571428571","85.71428571428571","756.5555555555555","756.5555555555555","black","no","legacy","legacy","legacy","0","uniform","1","undefined","undefined","undefined","1","f","0","0","0","0","62","0","0","0","62","0","58","62","58","0","58","3","62","0","62","Sun Mar  7 01:04:19 2021","The main experiment item","yes","Lexical_Decision_Task.osexp","C:/Users/olgas/Desktop/CaL 2021","no","Andale Mono","no","18","no","white","no","yes","576","legacy","58","58","3","C:/Users/olgas/Desktop/CaL 2021/subject-5224392.csv","legacy","Lentiform Loewenfeld","3.3.8","yes","yes","600bd7cfb6416f0113b04181","602110864497cf011d9c0822","0","f","NA","i","space","d","i","f","865","NA","3372","5156","1886","9107","865","2","legacy","1024","2","48000","-16","task","5224392","even","NA","21283","26659","23286","149665","3795","10843","8956","150168","123318","149662","150169","149580","26659","151035","19800","149080","3791","142592","Lexical Decision Task","54","47663","63","yes","1024"
"3.145920145","8.51","8","flew","word","85.9375","85.9375","754.953125","754.953125","black","no","legacy","legacy","legacy","0","uniform","1","undefined","undefined","undefined","1","j","0","0","0","0","63","0","0","0","63","0","59","63","59","0","59","3","63","0","63","Sun Mar  7 01:04:19 2021","The main experiment item","yes","Lexical_Decision_Task.osexp","C:/Users/olgas/Desktop/CaL 2021","no","Andale Mono","no","18","no","white","no","yes","576","legacy","59","59","3","C:/Users/olgas/Desktop/CaL 2021/subject-5224392.csv","legacy","Lentiform Loewenfeld","3.3.8","yes","yes","600bd7cfb6416f0113b04181","602110864497cf011d9c0822","0","j","NA","i","space","d","i","j","654","NA","3372","5156","1886","9107","654","2","legacy","1024","2","48000","-16","task","5224392","even","NA","21283","26659","23286","151634","3795","10843","8956","152137","123318","151631","152137","151548","26659","152792","19800","151048","3791","142592","Lexical Decision Task","55","48317","64","yes","1024"
"3.168890155","0","6","thet","non-word","86.15384615384616","86.15384615384616","754.6923076923077","754.6923076923077","black","no","legacy","legacy","legacy","0","uniform","1","undefined","undefined","undefined","1","f","0","0","0","0","64","0","0","0","64","0","60","64","60","0","60","3","64","0","64","Sun Mar  7 01:04:19 2021","The main experiment item","yes","Lexical_Decision_Task.osexp","C:/Users/olgas/Desktop/CaL 2021","no","Andale Mono","no","18","no","white","no","yes","576","legacy","60","60","3","C:/Users/olgas/Desktop/CaL 2021/subject-5224392.csv","legacy","Lentiform Loewenfeld","3.3.8","yes","yes","600bd7cfb6416f0113b04181","602110864497cf011d9c0822","0","f","NA","i","space","d","i","f","738","NA","3372","5156","1886","9107","738","2","legacy","1024","2","48000","-16","task","5224392","even","NA","21283","26659","23286","153389","3795","10843","8956","153892","123318","153387","153892","153304","26659","154631","19800","152804","3791","142592","Lexical Decision Task","56","49055","65","yes","1024"
"2.576725172","0","8","gowl","non-word","86.36363636363636","86.36363636363636","755.0757575757576","755.0757575757576","black","no","legacy","legacy","legacy","0","uniform","1","undefined","undefined","undefined","1","f","0","0","0","0","65","0","0","0","65","0","61","65","61","0","61","3","65","0","65","Sun Mar  7 01:04:19 2021","The main experiment item","yes","Lexical_Decision_Task.osexp","C:/Users/olgas/Desktop/CaL 2021","no","Andale Mono","no","18","no","white","no","yes","576","legacy","61","61","3","C:/Users/olgas/Desktop/CaL 2021/subject-5224392.csv","legacy","Lentiform Loewenfeld","3.3.8","yes","yes","600bd7cfb6416f0113b04181","602110864497cf011d9c0822","0","f","NA","i","space","d","i","f","780","NA","3372","5156","1886","9107","780","2","legacy","1024","2","48000","-16","task","5224392","even","NA","21283","26659","23286","155221","3795","10843","8956","155725","123318","155220","155725","155136","26659","156506","19800","154636","3791","142592","Lexical Decision Task","57","49835","66","yes","1024"
"3.431095062","5.74","9","perk","word","86.56716417910448","86.56716417910448","756.0746268656717","756.0746268656717","black","no","legacy","legacy","legacy","0","uniform","1","undefined","undefined","undefined","1","j","0","0","0","0","66","0","0","0","66","0","62","66","62","0","62","3","66","0","66","Sun Mar  7 01:04:19 2021","The main experiment item","yes","Lexical_Decision_Task.osexp","C:/Users/olgas/Desktop/CaL 2021","no","Andale Mono","no","18","no","white","no","yes","576","legacy","62","62","3","C:/Users/olgas/Desktop/CaL 2021/subject-5224392.csv","legacy","Lentiform Loewenfeld","3.3.8","yes","yes","600bd7cfb6416f0113b04181","602110864497cf011d9c0822","0","j","NA","i","space","d","i","j","822","NA","3372","5156","1886","9107","822","2","legacy","1024","2","48000","-16","task","5224392","even","NA","21283","26659","23286","157098","3795","10843","8956","157601","123318","157096","157601","157011","26659","158424","19800","156510","3791","142592","Lexical Decision Task","58","50657","67","yes","1024"
"2.8162413","0","5","nusk","non-word","86.76470588235294","86.76470588235294","756.5735294117648","756.5735294117648","black","no","legacy","legacy","legacy","0","uniform","1","undefined","undefined","undefined","1","f","0","0","0","0","67","0","0","0","67","0","63","67","63","0","63","3","67","0","67","Sun Mar  7 01:04:19 2021","The main experiment item","yes","Lexical_Decision_Task.osexp","C:/Users/olgas/Desktop/CaL 2021","no","Andale Mono","no","18","no","white","no","yes","576","legacy","63","63","3","C:/Users/olgas/Desktop/CaL 2021/subject-5224392.csv","legacy","Lentiform Loewenfeld","3.3.8","yes","yes","600bd7cfb6416f0113b04181","602110864497cf011d9c0822","0","f","NA","i","space","d","i","f","790","NA","3372","5156","1886","9107","790","2","legacy","1024","2","48000","-16","task","5224392","even","NA","21283","26659","23286","159022","3795","10843","8956","159524","123318","159020","159524","158936","26659","160315","19800","158436","3791","142592","Lexical Decision Task","59","51447","68","yes","1024"
"3.081107167","0","6","chot","non-word","86.95652173913044","86.95652173913044","756.6231884057971","756.6231884057971","black","no","legacy","legacy","legacy","0","uniform","1","undefined","undefined","undefined","1","f","0","0","0","0","68","0","0","0","68","0","64","68","64","0","64","3","68","0","68","Sun Mar  7 01:04:19 2021","The main experiment item","yes","Lexical_Decision_Task.osexp","C:/Users/olgas/Desktop/CaL 2021","no","Andale Mono","no","18","no","white","no","yes","576","legacy","64","64","3","C:/Users/olgas/Desktop/CaL 2021/subject-5224392.csv","legacy","Lentiform Loewenfeld","3.3.8","yes","yes","600bd7cfb6416f0113b04181","602110864497cf011d9c0822","0","f","NA","i","space","d","i","f","760","NA","3372","5156","1886","9107","760","2","legacy","1024","2","48000","-16","task","5224392","even","NA","21283","26659","23286","160912","3795","10843","8956","161415","123318","160910","161415","160828","26659","162175","19800","160328","3791","142592","Lexical Decision Task","60","52207","69","yes","1024"
"3.460446784","0","5","dess","non-word","87.14285714285714","87.14285714285714","755.9142857142857","755.9142857142857","black","no","legacy","legacy","legacy","0","uniform","1","undefined","undefined","undefined","1","f","0","0","0","0","69","0","0","0","69","0","65","69","65","0","65","3","69","0","69","Sun Mar  7 01:04:19 2021","The main experiment item","yes","Lexical_Decision_Task.osexp","C:/Users/olgas/Desktop/CaL 2021","no","Andale Mono","no","18","no","white","no","yes","576","legacy","65","65","3","C:/Users/olgas/Desktop/CaL 2021/subject-5224392.csv","legacy","Lentiform Loewenfeld","3.3.8","yes","yes","600bd7cfb6416f0113b04181","602110864497cf011d9c0822","0","f","NA","i","space","d","i","f","707","NA","3372","5156","1886","9107","707","2","legacy","1024","2","48000","-16","task","5224392","even","NA","21283","26659","23286","162785","3795","10843","8956","163287","123318","162782","163287","162688","26659","163995","19800","162188","3791","142592","Lexical Decision Task","61","52914","70","yes","1024"
"3.077974404","10.41","8","tool","word","87.32394366197182","87.32394366197182","754.6901408450705","754.6901408450705","black","no","legacy","legacy","legacy","0","uniform","1","undefined","undefined","undefined","1","j","0","0","0","0","70","0","0","0","70","0","66","70","66","0","66","3","70","0","70","Sun Mar  7 01:04:19 2021","The main experiment item","yes","Lexical_Decision_Task.osexp","C:/Users/olgas/Desktop/CaL 2021","no","Andale Mono","no","18","no","white","no","yes","576","legacy","66","66","3","C:/Users/olgas/Desktop/CaL 2021/subject-5224392.csv","legacy","Lentiform Loewenfeld","3.3.8","yes","yes","600bd7cfb6416f0113b04181","602110864497cf011d9c0822","0","j","NA","i","space","d","i","j","669","NA","3372","5156","1886","9107","669","2","legacy","1024","2","48000","-16","task","5224392","even","NA","21283","26659","23286","164596","3795","10843","8956","165100","123318","164594","165100","164508","26659","165770","19800","164008","3791","142592","Lexical Decision Task","62","53583","71","yes","1024"
"2.799799878","0","4","ciff","non-word","87.5","87.5","755.9583333333334","755.9583333333334","black","no","legacy","legacy","legacy","0","uniform","1","undefined","undefined","undefined","1","f","0","0","0","0","71","0","0","0","71","0","67","71","67","0","67","3","71","0","71","Sun Mar  7 01:04:19 2021","The main experiment item","yes","Lexical_Decision_Task.osexp","C:/Users/olgas/Desktop/CaL 2021","no","Andale Mono","no","18","no","white","no","yes","576","legacy","67","67","3","C:/Users/olgas/Desktop/CaL 2021/subject-5224392.csv","legacy","Lentiform Loewenfeld","3.3.8","yes","yes","600bd7cfb6416f0113b04181","602110864497cf011d9c0822","0","f","NA","i","space","d","i","f","846","NA","3372","5156","1886","9107","846","2","legacy","1024","2","48000","-16","task","5224392","even","NA","21283","26659","23286","166367","3795","10843","8956","166870","123318","166365","166870","166283","26659","167717","19800","165783","3791","142592","Lexical Decision Task","63","54429","72","yes","1024"
"2.755364069","7.72","2","hoax","word","87.67123287671232","87.67123287671232","753.0410958904109","753.0410958904109","black","no","legacy","legacy","legacy","0","uniform","1","undefined","undefined","undefined","1","j","0","0","0","0","72","0","0","0","72","0","68","72","68","0","68","3","72","0","72","Sun Mar  7 01:04:19 2021","The main experiment item","yes","Lexical_Decision_Task.osexp","C:/Users/olgas/Desktop/CaL 2021","no","Andale Mono","no","18","no","white","no","yes","576","legacy","68","68","3","C:/Users/olgas/Desktop/CaL 2021/subject-5224392.csv","legacy","Lentiform Loewenfeld","3.3.8","yes","yes","600bd7cfb6416f0113b04181","602110864497cf011d9c0822","0","j","NA","i","space","d","i","j","543","NA","3372","5156","1886","9107","543","2","legacy","1024","2","48000","-16","task","5224392","even","NA","21283","26659","23286","168313","3795","10843","8956","168816","123318","168311","168816","168230","26659","169360","19800","167730","3791","142592","Lexical Decision Task","64","54972","73","yes","1024"
"3.209246849","0","7","slem","non-word","87.83783783783784","87.83783783783784","753.3513513513514","753.3513513513514","black","no","legacy","legacy","legacy","0","uniform","1","undefined","undefined","undefined","1","f","0","0","0","0","73","0","0","0","73","0","69","73","69","0","69","3","73","0","73","Sun Mar  7 01:04:19 2021","The main experiment item","yes","Lexical_Decision_Task.osexp","C:/Users/olgas/Desktop/CaL 2021","no","Andale Mono","no","18","no","white","no","yes","576","legacy","69","69","3","C:/Users/olgas/Desktop/CaL 2021/subject-5224392.csv","legacy","Lentiform Loewenfeld","3.3.8","yes","yes","600bd7cfb6416f0113b04181","602110864497cf011d9c0822","0","f","NA","i","space","d","i","f","776","NA","3372","5156","1886","9107","776","2","legacy","1024","2","48000","-16","task","5224392","even","NA","21283","26659","23286","169964","3795","10843","8956","170468","123318","169963","170468","169872","26659","171245","19800","169372","3791","142592","Lexical Decision Task","65","55748","74","yes","1024"
"2.809559715","8.44","4","volt","word","88","88","752.04","752.04","black","no","legacy","legacy","legacy","0","uniform","1","undefined","undefined","undefined","1","j","0","0","0","0","74","0","0","0","74","0","70","74","70","0","70","3","74","0","74","Sun Mar  7 01:04:19 2021","The main experiment item","yes","Lexical_Decision_Task.osexp","C:/Users/olgas/Desktop/CaL 2021","no","Andale Mono","no","18","no","white","no","yes","576","legacy","70","70","3","C:/Users/olgas/Desktop/CaL 2021/subject-5224392.csv","legacy","Lentiform Loewenfeld","3.3.8","yes","yes","600bd7cfb6416f0113b04181","602110864497cf011d9c0822","0","j","NA","i","space","d","i","j","655","NA","3372","5156","1886","9107","655","2","legacy","1024","2","48000","-16","task","5224392","even","NA","21283","26659","23286","171832","3795","10843","8956","172334","123318","171830","172335","171749","26659","172991","19800","171249","3791","142592","Lexical Decision Task","66","56403","75","yes","1024"
"2.664011697","8.19","4","hawk","word","88.15789473684211","88.15789473684211","749.9473684210526","749.9473684210526","black","no","legacy","legacy","legacy","0","uniform","1","undefined","undefined","undefined","1","j","0","0","0","0","75","0","0","0","75","0","71","75","71","0","71","3","75","0","75","Sun Mar  7 01:04:19 2021","The main experiment item","yes","Lexical_Decision_Task.osexp","C:/Users/olgas/Desktop/CaL 2021","no","Andale Mono","no","18","no","white","no","yes","576","legacy","71","71","3","C:/Users/olgas/Desktop/CaL 2021/subject-5224392.csv","legacy","Lentiform Loewenfeld","3.3.8","yes","yes","600bd7cfb6416f0113b04181","602110864497cf011d9c0822","0","j","NA","i","space","d","i","j","593","NA","3372","5156","1886","9107","593","2","legacy","1024","2","48000","-16","task","5224392","even","NA","21283","26659","23286","173579","3795","10843","8956","174081","123318","173578","174083","173496","26659","174677","19800","172995","3791","142592","Lexical Decision Task","67","56996","76","yes","1024"
"2.7084209","0","8","vump","non-word","88.31168831168831","88.31168831168831","748.7012987012987","748.7012987012987","black","no","legacy","legacy","legacy","0","uniform","1","undefined","undefined","undefined","1","f","0","0","0","0","76","0","0","0","76","0","72","76","72","0","72","3","76","0","76","Sun Mar  7 01:04:19 2021","The main experiment item","yes","Lexical_Decision_Task.osexp","C:/Users/olgas/Desktop/CaL 2021","no","Andale Mono","no","18","no","white","no","yes","576","legacy","72","72","3","C:/Users/olgas/Desktop/CaL 2021/subject-5224392.csv","legacy","Lentiform Loewenfeld","3.3.8","yes","yes","600bd7cfb6416f0113b04181","602110864497cf011d9c0822","0","f","NA","i","space","d","i","f","654","NA","3372","5156","1886","9107","654","2","legacy","1024","2","48000","-16","task","5224392","even","NA","21283","26659","23286","175266","3795","10843","8956","175769","123318","175264","175769","175182","26659","176424","19800","174682","3791","142592","Lexical Decision Task","68","57650","77","yes","1024"
"3.440331212","7.35","6","stew","word","88.46153846153847","88.46153846153847","749.2820512820513","749.2820512820513","black","no","legacy","legacy","legacy","0","uniform","1","undefined","undefined","undefined","1","j","0","0","0","0","77","0","0","0","77","0","73","77","73","0","73","3","77","0","77","Sun Mar  7 01:04:19 2021","The main experiment item","yes","Lexical_Decision_Task.osexp","C:/Users/olgas/Desktop/CaL 2021","no","Andale Mono","no","18","no","white","no","yes","576","legacy","73","73","3","C:/Users/olgas/Desktop/CaL 2021/subject-5224392.csv","legacy","Lentiform Loewenfeld","3.3.8","yes","yes","600bd7cfb6416f0113b04181","602110864497cf011d9c0822","0","j","NA","i","space","d","i","j","794","NA","3372","5156","1886","9107","794","2","legacy","1024","2","48000","-16","task","5224392","even","NA","21283","26659","23286","177020","3795","10843","8956","177523","123318","177019","177524","176937","26659","178319","19800","176437","3791","142592","Lexical Decision Task","69","58444","78","yes","1024"
"2.698387659","6.66","7","skid","word","88.60759493670886","88.60759493670886","748.4683544303797","748.4683544303797","black","no","legacy","legacy","legacy","0","uniform","1","undefined","undefined","undefined","1","j","0","0","0","0","78","0","0","0","78","0","74","78","74","0","74","3","78","0","78","Sun Mar  7 01:04:19 2021","The main experiment item","yes","Lexical_Decision_Task.osexp","C:/Users/olgas/Desktop/CaL 2021","no","Andale Mono","no","18","no","white","no","yes","576","legacy","74","74","3","C:/Users/olgas/Desktop/CaL 2021/subject-5224392.csv","legacy","Lentiform Loewenfeld","3.3.8","yes","yes","600bd7cfb6416f0113b04181","602110864497cf011d9c0822","0","j","NA","i","space","d","i","j","685","NA","3372","5156","1886","9107","685","2","legacy","1024","2","48000","-16","task","5224392","even","NA","21283","26659","23286","178915","3795","10843","8956","179419","123318","178914","179419","178831","26659","180105","19800","178331","3791","142592","Lexical Decision Task","70","59129","79","yes","1024"
"3.248054965","7.86","5","glow","word","88.75","88.75","745.55","745.55","black","no","legacy","legacy","legacy","0","uniform","1","undefined","undefined","undefined","1","j","0","0","0","0","79","0","0","0","79","0","75","79","75","0","75","3","79","0","79","Sun Mar  7 01:04:19 2021","The main experiment item","yes","Lexical_Decision_Task.osexp","C:/Users/olgas/Desktop/CaL 2021","no","Andale Mono","no","18","no","white","no","yes","576","legacy","75","75","3","C:/Users/olgas/Desktop/CaL 2021/subject-5224392.csv","legacy","Lentiform Loewenfeld","3.3.8","yes","yes","600bd7cfb6416f0113b04181","602110864497cf011d9c0822","0","j","NA","i","space","d","i","j","515","NA","3372","5156","1886","9107","515","2","legacy","1024","2","48000","-16","task","5224392","even","NA","21283","26659","23286","180702","3795","10843","8956","181203","123318","180700","181203","180617","26659","181719","19800","180117","3791","142592","Lexical Decision Task","71","59644","80","yes","1024"
"2.979548375","8.71","4","soup","word","88.88888888888889","88.88888888888889","742.604938271605","742.604938271605","black","no","legacy","legacy","legacy","0","uniform","1","undefined","undefined","undefined","1","j","0","0","0","0","80","0","0","0","80","0","76","80","76","0","76","3","80","0","80","Sun Mar  7 01:04:19 2021","The main experiment item","yes","Lexical_Decision_Task.osexp","C:/Users/olgas/Desktop/CaL 2021","no","Andale Mono","no","18","no","white","no","yes","576","legacy","76","76","3","C:/Users/olgas/Desktop/CaL 2021/subject-5224392.csv","legacy","Lentiform Loewenfeld","3.3.8","yes","yes","600bd7cfb6416f0113b04181","602110864497cf011d9c0822","0","j","NA","i","space","d","i","j","507","NA","3372","5156","1886","9107","507","2","legacy","1024","2","48000","-16","task","5224392","even","NA","21283","26659","23286","182319","3795","10843","8956","182821","123318","182317","182821","182232","26659","183329","19800","181732","3791","142592","Lexical Decision Task","72","60151","81","yes","1024"
"3.119255889","6.63","2","itch","word","89.02439024390245","89.02439024390245","742.219512195122","742.219512195122","black","no","legacy","legacy","legacy","0","uniform","1","undefined","undefined","undefined","1","j","0","0","0","0","81","0","0","0","81","0","77","81","77","0","77","3","81","0","81","Sun Mar  7 01:04:19 2021","The main experiment item","yes","Lexical_Decision_Task.osexp","C:/Users/olgas/Desktop/CaL 2021","no","Andale Mono","no","18","no","white","no","yes","576","legacy","77","77","3","C:/Users/olgas/Desktop/CaL 2021/subject-5224392.csv","legacy","Lentiform Loewenfeld","3.3.8","yes","yes","600bd7cfb6416f0113b04181","602110864497cf011d9c0822","0","j","NA","i","space","d","i","j","711","NA","3372","5156","1886","9107","711","2","legacy","1024","2","48000","-16","task","5224392","even","NA","21283","26659","23286","183927","3795","10843","8956","184428","123318","183925","184428","183841","26659","185140","19800","183341","3791","142592","Lexical Decision Task","73","60862","82","yes","1024"
"2.69019608","9.01","2","myth","word","89.1566265060241","89.1566265060241","739.1084337349398","739.1084337349398","black","no","legacy","legacy","legacy","0","uniform","1","undefined","undefined","undefined","1","j","0","0","0","0","82","0","0","0","82","0","78","82","78","0","78","3","82","0","82","Sun Mar  7 01:04:19 2021","The main experiment item","yes","Lexical_Decision_Task.osexp","C:/Users/olgas/Desktop/CaL 2021","no","Andale Mono","no","18","no","white","no","yes","576","legacy","78","78","3","C:/Users/olgas/Desktop/CaL 2021/subject-5224392.csv","legacy","Lentiform Loewenfeld","3.3.8","yes","yes","600bd7cfb6416f0113b04181","602110864497cf011d9c0822","0","j","NA","i","space","d","i","j","484","NA","3372","5156","1886","9107","484","2","legacy","1024","2","48000","-16","task","5224392","even","NA","21283","26659","23286","185740","3795","10843","8956","186241","123318","185738","186241","185652","26659","186726","19800","185152","3791","142592","Lexical Decision Task","74","61346","83","yes","1024"
"2.719886232","7.98","2","quiz","word","89.28571428571429","89.28571428571429","736.8571428571429","736.8571428571429","black","no","legacy","legacy","legacy","0","uniform","1","undefined","undefined","undefined","1","j","0","0","0","0","83","0","0","0","83","0","79","83","79","0","79","3","83","0","83","Sun Mar  7 01:04:19 2021","The main experiment item","yes","Lexical_Decision_Task.osexp","C:/Users/olgas/Desktop/CaL 2021","no","Andale Mono","no","18","no","white","no","yes","576","legacy","79","79","3","C:/Users/olgas/Desktop/CaL 2021/subject-5224392.csv","legacy","Lentiform Loewenfeld","3.3.8","yes","yes","600bd7cfb6416f0113b04181","602110864497cf011d9c0822","0","j","NA","i","space","d","i","j","550","NA","3372","5156","1886","9107","550","2","legacy","1024","2","48000","-16","task","5224392","even","NA","21283","26659","23286","187318","3795","10843","8956","187821","123318","187316","187821","187232","26659","188372","19800","186732","3791","142592","Lexical Decision Task","75","61896","84","yes","1024"
"2.698100546","0","9","mulk","non-word","89.41176470588235","89.41176470588235","739.2823529411764","739.2823529411764","black","no","legacy","legacy","legacy","0","uniform","1","undefined","undefined","undefined","1","f","0","0","0","0","84","0","0","0","84","0","80","84","80","0","80","3","84","0","84","Sun Mar  7 01:04:19 2021","The main experiment item","yes","Lexical_Decision_Task.osexp","C:/Users/olgas/Desktop/CaL 2021","no","Andale Mono","no","18","no","white","no","yes","576","legacy","80","80","3","C:/Users/olgas/Desktop/CaL 2021/subject-5224392.csv","legacy","Lentiform Loewenfeld","3.3.8","yes","yes","600bd7cfb6416f0113b04181","602110864497cf011d9c0822","0","f","NA","i","space","d","i","f","943","NA","3372","5156","1886","9107","943","2","legacy","1024","2","48000","-16","task","5224392","even","NA","21283","26659","23286","188970","3795","10843","8956","189473","123318","188968","189473","188876","26659","190418","19800","188376","3791","142592","Lexical Decision Task","76","62839","85","yes","1024"
"2.892836167","10.01","5","soft","word","89.53488372093024","89.53488372093024","738.953488372093","738.953488372093","black","no","legacy","legacy","legacy","0","uniform","1","undefined","undefined","undefined","1","j","0","0","0","0","85","0","0","0","85","0","81","85","81","0","81","3","85","0","85","Sun Mar  7 01:04:19 2021","The main experiment item","yes","Lexical_Decision_Task.osexp","C:/Users/olgas/Desktop/CaL 2021","no","Andale Mono","no","18","no","white","no","yes","576","legacy","81","81","3","C:/Users/olgas/Desktop/CaL 2021/subject-5224392.csv","legacy","Lentiform Loewenfeld","3.3.8","yes","yes","600bd7cfb6416f0113b04181","602110864497cf011d9c0822","0","j","NA","i","space","d","i","j","711","NA","3372","5156","1886","9107","711","2","legacy","1024","2","48000","-16","task","5224392","even","NA","21283","26659","23286","191015","3795","10843","8956","191518","123318","191013","191518","190929","26659","192230","19800","190429","3791","142592","Lexical Decision Task","77","63550","86","yes","1024"
"2.693726949","5.08","3","swig","word","89.65517241379311","89.65517241379311","737.6206896551724","737.6206896551724","black","no","legacy","legacy","legacy","0","uniform","1","undefined","undefined","undefined","1","j","0","0","0","0","86","0","0","0","86","0","82","86","82","0","82","3","86","0","86","Sun Mar  7 01:04:19 2021","The main experiment item","yes","Lexical_Decision_Task.osexp","C:/Users/olgas/Desktop/CaL 2021","no","Andale Mono","no","18","no","white","no","yes","576","legacy","82","82","3","C:/Users/olgas/Desktop/CaL 2021/subject-5224392.csv","legacy","Lentiform Loewenfeld","3.3.8","yes","yes","600bd7cfb6416f0113b04181","602110864497cf011d9c0822","0","j","NA","i","space","d","i","j","623","NA","3372","5156","1886","9107","623","2","legacy","1024","2","48000","-16","task","5224392","even","NA","21283","26659","23286","192834","3795","10843","8956","193337","123318","192832","193337","192743","26659","193961","19800","192243","3791","142592","Lexical Decision Task","78","64173","87","yes","1024"
"3.374198258","0","8","vist","non-word","88.63636363636364","88.63636363636364","736.8636363636364","736.8636363636364","black","no","legacy","legacy","legacy","0","uniform","0","undefined","undefined","undefined","0","f","0","0","0","0","87","0","0","0","87","0","83","87","83","0","83","3","87","0","87","Sun Mar  7 01:04:19 2021","The main experiment item","yes","Lexical_Decision_Task.osexp","C:/Users/olgas/Desktop/CaL 2021","no","Andale Mono","no","18","no","white","no","yes","576","legacy","83","83","3","C:/Users/olgas/Desktop/CaL 2021/subject-5224392.csv","legacy","Lentiform Loewenfeld","3.3.8","yes","yes","600bd7cfb6416f0113b04181","602110864497cf011d9c0822","0","j","NA","i","space","d","i","j","671","NA","3372","5156","1886","9107","671","2","legacy","1024","2","48000","-16","task","5224392","even","NA","21283","26659","23286","194557","3795","10843","8956","195060","123318","194555","195060","194473","26659","195732","19800","193973","3791","142592","Lexical Decision Task","78","64844","88","yes","1024"
"2.821076612","0","4","lult","non-word","88.76404494382022","88.76404494382022","738.6966292134831","738.6966292134831","black","no","legacy","legacy","legacy","0","uniform","1","undefined","undefined","undefined","1","f","0","0","0","0","88","0","0","0","88","0","84","88","84","0","84","3","88","0","88","Sun Mar  7 01:04:19 2021","The main experiment item","yes","Lexical_Decision_Task.osexp","C:/Users/olgas/Desktop/CaL 2021","no","Andale Mono","no","18","no","white","no","yes","576","legacy","84","84","3","C:/Users/olgas/Desktop/CaL 2021/subject-5224392.csv","legacy","Lentiform Loewenfeld","3.3.8","yes","yes","600bd7cfb6416f0113b04181","602110864497cf011d9c0822","0","f","NA","i","space","d","i","f","900","NA","3372","5156","1886","9107","900","2","legacy","1024","2","48000","-16","task","5224392","even","NA","21283","26659","23286","197336","3795","10843","8956","197839","123318","197334","197839","197244","26659","198741","19800","193973","3791","195744","Lexical Decision Task","79","65744","89","yes","1024"
"3.067193647","6.73","6","raft","word","88.88888888888889","88.88888888888889","741.4666666666667","741.4666666666667","black","no","legacy","legacy","legacy","0","uniform","1","undefined","undefined","undefined","1","j","0","0","0","0","89","0","0","0","89","0","85","89","85","0","85","3","89","0","89","Sun Mar  7 01:04:19 2021","The main experiment item","yes","Lexical_Decision_Task.osexp","C:/Users/olgas/Desktop/CaL 2021","no","Andale Mono","no","18","no","white","no","yes","576","legacy","85","85","3","C:/Users/olgas/Desktop/CaL 2021/subject-5224392.csv","legacy","Lentiform Loewenfeld","3.3.8","yes","yes","600bd7cfb6416f0113b04181","602110864497cf011d9c0822","0","j","NA","i","space","d","i","j","988","NA","3372","5156","1886","9107","988","2","legacy","1024","2","48000","-16","task","5224392","even","NA","21283","26659","23286","199340","3795","10843","8956","199843","123318","199338","199843","199254","26659","200833","19800","198754","3791","195744","Lexical Decision Task","80","66732","90","yes","1024"
"3.140404328","10.66","9","deep","word","89.01098901098901","89.01098901098901","738.8241758241758","738.8241758241758","black","no","legacy","legacy","legacy","0","uniform","1","undefined","undefined","undefined","1","j","0","0","0","0","90","0","0","0","90","0","86","90","86","0","86","3","90","0","90","Sun Mar  7 01:04:19 2021","The main experiment item","yes","Lexical_Decision_Task.osexp","C:/Users/olgas/Desktop/CaL 2021","no","Andale Mono","no","18","no","white","no","yes","576","legacy","86","86","3","C:/Users/olgas/Desktop/CaL 2021/subject-5224392.csv","legacy","Lentiform Loewenfeld","3.3.8","yes","yes","600bd7cfb6416f0113b04181","602110864497cf011d9c0822","0","j","NA","i","space","d","i","j","501","NA","3372","5156","1886","9107","501","2","legacy","1024","2","48000","-16","task","5224392","even","NA","21283","26659","23286","201431","3795","10843","8956","201933","123318","201429","201933","201345","26659","202435","19800","200845","3791","195744","Lexical Decision Task","81","67233","91","yes","1024"
"3.094121596","0","8","fode","non-word","89.1304347826087","89.1304347826087","737.8260869565217","737.8260869565217","black","no","legacy","legacy","legacy","0","uniform","1","undefined","undefined","undefined","1","f","0","0","0","0","91","0","0","0","91","0","87","91","87","0","87","3","91","0","91","Sun Mar  7 01:04:19 2021","The main experiment item","yes","Lexical_Decision_Task.osexp","C:/Users/olgas/Desktop/CaL 2021","no","Andale Mono","no","18","no","white","no","yes","576","legacy","87","87","3","C:/Users/olgas/Desktop/CaL 2021/subject-5224392.csv","legacy","Lentiform Loewenfeld","3.3.8","yes","yes","600bd7cfb6416f0113b04181","602110864497cf011d9c0822","0","f","NA","i","space","d","i","f","647","NA","3372","5156","1886","9107","647","2","legacy","1024","2","48000","-16","task","5224392","even","NA","21283","26659","23286","203032","3795","10843","8956","203535","123318","203030","203536","202947","26659","204184","19800","202447","3791","195744","Lexical Decision Task","82","67880","92","yes","1024"
"2.64476673","0","5","moft","non-word","89.24731182795699","89.24731182795699","736.7311827956989","736.7311827956989","black","no","legacy","legacy","legacy","0","uniform","1","undefined","undefined","undefined","1","f","0","0","0","0","92","0","0","0","92","0","88","92","88","0","88","3","92","0","92","Sun Mar  7 01:04:19 2021","The main experiment item","yes","Lexical_Decision_Task.osexp","C:/Users/olgas/Desktop/CaL 2021","no","Andale Mono","no","18","no","white","no","yes","576","legacy","88","88","3","C:/Users/olgas/Desktop/CaL 2021/subject-5224392.csv","legacy","Lentiform Loewenfeld","3.3.8","yes","yes","600bd7cfb6416f0113b04181","602110864497cf011d9c0822","0","f","NA","i","space","d","i","f","636","NA","3372","5156","1886","9107","636","2","legacy","1024","2","48000","-16","task","5224392","even","NA","21283","26659","23286","204782","3795","10843","8956","205284","123318","204781","205284","204696","26659","205921","19800","204196","3791","195744","Lexical Decision Task","83","68516","93","yes","1024"
"2.675164031","8.57","6","glue","word","89.36170212765957","89.36170212765957","734.9148936170212","734.9148936170212","black","no","legacy","legacy","legacy","0","uniform","1","undefined","undefined","undefined","1","j","0","0","0","0","93","0","0","0","93","0","89","93","89","0","89","3","93","0","93","Sun Mar  7 01:04:19 2021","The main experiment item","yes","Lexical_Decision_Task.osexp","C:/Users/olgas/Desktop/CaL 2021","no","Andale Mono","no","18","no","white","no","yes","576","legacy","89","89","3","C:/Users/olgas/Desktop/CaL 2021/subject-5224392.csv","legacy","Lentiform Loewenfeld","3.3.8","yes","yes","600bd7cfb6416f0113b04181","602110864497cf011d9c0822","0","j","NA","i","space","d","i","j","566","NA","3372","5156","1886","9107","566","2","legacy","1024","2","48000","-16","task","5224392","even","NA","21283","26659","23286","206518","3795","10843","8956","207021","123318","206516","207021","206432","26659","207589","19800","205932","3791","195744","Lexical Decision Task","84","69082","94","yes","1024"
"2.983324025","9.56","2","debt","word","89.47368421052632","89.47368421052632","733.578947368421","733.578947368421","black","no","legacy","legacy","legacy","0","uniform","1","undefined","undefined","undefined","1","j","0","0","0","0","94","0","0","0","94","0","90","94","90","0","90","3","94","0","94","Sun Mar  7 01:04:19 2021","The main experiment item","yes","Lexical_Decision_Task.osexp","C:/Users/olgas/Desktop/CaL 2021","no","Andale Mono","no","18","no","white","no","yes","576","legacy","90","90","3","C:/Users/olgas/Desktop/CaL 2021/subject-5224392.csv","legacy","Lentiform Loewenfeld","3.3.8","yes","yes","600bd7cfb6416f0113b04181","602110864497cf011d9c0822","0","j","NA","i","space","d","i","j","608","NA","3372","5156","1886","9107","608","2","legacy","1024","2","48000","-16","task","5224392","even","NA","21283","26659","23286","208190","3795","10843","8956","208693","123318","208188","208693","208102","26659","209303","19800","207602","3791","195744","Lexical Decision Task","85","69690","95","yes","1024"
"3.363486562","6.93","9","lush","word","89.58333333333333","89.58333333333333","731.8229166666666","731.8229166666666","black","no","legacy","legacy","legacy","0","uniform","1","undefined","undefined","undefined","1","j","0","0","0","0","95","0","0","0","95","0","91","95","91","0","91","3","95","0","95","Sun Mar  7 01:04:19 2021","The main experiment item","yes","Lexical_Decision_Task.osexp","C:/Users/olgas/Desktop/CaL 2021","no","Andale Mono","no","18","no","white","no","yes","576","legacy","91","91","3","C:/Users/olgas/Desktop/CaL 2021/subject-5224392.csv","legacy","Lentiform Loewenfeld","3.3.8","yes","yes","600bd7cfb6416f0113b04181","602110864497cf011d9c0822","0","j","NA","i","space","d","i","j","565","NA","3372","5156","1886","9107","565","2","legacy","1024","2","48000","-16","task","5224392","even","NA","21283","26659","23286","209902","3795","10843","8956","210405","123318","209900","210405","209815","26659","210972","19800","209315","3791","195744","Lexical Decision Task","86","70255","96","yes","1024"
"3.257359335","8","6","brew","word","89.69072164948453","89.69072164948453","733.0618556701031","733.0618556701031","black","no","legacy","legacy","legacy","0","uniform","1","undefined","undefined","undefined","1","j","0","0","0","0","96","0","0","0","96","0","92","96","92","0","92","3","96","0","96","Sun Mar  7 01:04:19 2021","The main experiment item","yes","Lexical_Decision_Task.osexp","C:/Users/olgas/Desktop/CaL 2021","no","Andale Mono","no","18","no","white","no","yes","576","legacy","92","92","3","C:/Users/olgas/Desktop/CaL 2021/subject-5224392.csv","legacy","Lentiform Loewenfeld","3.3.8","yes","yes","600bd7cfb6416f0113b04181","602110864497cf011d9c0822","0","j","NA","i","space","d","i","j","852","NA","3372","5156","1886","9107","852","2","legacy","1024","2","48000","-16","task","5224392","even","NA","21283","26659","23286","211568","3795","10843","8956","212072","123318","211567","212072","211484","26659","212925","19800","210984","3791","195744","Lexical Decision Task","87","71107","97","yes","1024"
"3.366547468","0","6","plat","non-word","88.77551020408163","88.77551020408163","730.3571428571429","730.3571428571429","black","no","legacy","legacy","legacy","0","uniform","0","undefined","undefined","undefined","0","f","0","0","0","0","97","0","0","0","97","0","93","97","93","0","93","3","97","0","97","Sun Mar  7 01:04:19 2021","The main experiment item","yes","Lexical_Decision_Task.osexp","C:/Users/olgas/Desktop/CaL 2021","no","Andale Mono","no","18","no","white","no","yes","576","legacy","93","93","3","C:/Users/olgas/Desktop/CaL 2021/subject-5224392.csv","legacy","Lentiform Loewenfeld","3.3.8","yes","yes","600bd7cfb6416f0113b04181","602110864497cf011d9c0822","0","j","NA","i","space","d","i","j","468","NA","3372","5156","1886","9107","468","2","legacy","1024","2","48000","-16","task","5224392","even","NA","21283","26659","23286","213523","3795","10843","8956","214026","123318","213521","214026","213438","26659","214495","19800","212937","3791","195744","Lexical Decision Task","87","71575","98","yes","1024"
"3.149629599","0","2","cleb","non-word","88.88888888888889","88.88888888888889","729.1111111111111","729.1111111111111","black","no","legacy","legacy","legacy","0","uniform","1","undefined","undefined","undefined","1","f","0","0","0","0","98","0","0","0","98","0","94","98","94","0","94","3","98","0","98","Sun Mar  7 01:04:19 2021","The main experiment item","yes","Lexical_Decision_Task.osexp","C:/Users/olgas/Desktop/CaL 2021","no","Andale Mono","no","18","no","white","no","yes","576","legacy","94","94","3","C:/Users/olgas/Desktop/CaL 2021/subject-5224392.csv","legacy","Lentiform Loewenfeld","3.3.8","yes","yes","600bd7cfb6416f0113b04181","602110864497cf011d9c0822","0","f","NA","i","space","d","i","f","607","NA","3372","5156","1886","9107","607","2","legacy","1024","2","48000","-16","task","5224392","even","NA","21283","26659","23286","216098","3795","10843","8956","216601","123318","216096","216601","216007","26659","217210","19800","212937","3791","214507","Lexical Decision Task","88","72182","99","yes","1024"
"2.67699827","0","6","hulf","non-word","89","89","728.84","728.84","black","no","legacy","legacy","legacy","0","uniform","1","undefined","undefined","undefined","1","f","0","0","0","0","99","0","0","0","99","0","95","99","95","0","95","3","99","0","99","Sun Mar  7 01:04:19 2021","The main experiment item","yes","Lexical_Decision_Task.osexp","C:/Users/olgas/Desktop/CaL 2021","no","Andale Mono","no","18","no","white","no","yes","576","legacy","95","95","3","C:/Users/olgas/Desktop/CaL 2021/subject-5224392.csv","legacy","Lentiform Loewenfeld","3.3.8","yes","yes","600bd7cfb6416f0113b04181","602110864497cf011d9c0822","0","f","NA","i","space","d","i","f","702","NA","3372","5156","1886","9107","702","2","legacy","1024","2","48000","-16","task","5224392","even","NA","21283","26659","23286","217800","3795","10843","8956","218303","123318","217798","218303","217714","26659","219006","19800","217214","3791","214507","Lexical Decision Task","89","72884","100","yes","1024"
