"Log_BG","Log_Freq_HAL","Ortho_N","Stimulus","Type","acc","accuracy","average_response_time","avg_rt","background","bidi","canvas_backend","clock_backend","color_backend","compensation","coordinates","correct","correct_Experimental_intro","correct_Introduction","correct_Practice_intro","correct_experimenter_kb","correct_response","count_End_Of_Experiment","count_End_Of_Practice","count_Experimental_Loop","count_Experimental_intro","count_Fixation","count_Introduction","count_Practice_Loop","count_Practice_intro","count_Stimulus","count_block_break_feedback","count_experimental_sequence","count_experimenter_kb","count_increment_trial_count","count_init_trial_count","count_logger","count_practice_sequence","count_right","count_task","count_wrong","datetime","description","disable_garbage_collection","experiment_file","experiment_path","font_bold","font_family","font_italic","font_size","font_underline","foreground","form_clicks","fullscreen","height","keyboard_backend","live_row","live_row_Experimental_Loop","live_row_Practice_Loop","logfile","mouse_backend","opensesame_codename","opensesame_version","osf_always_upload_data","osf_always_upload_experiment","osf_datanode_id","osf_id","repeat_cycle","response","response_End_Of_Experiment","response_Experimental_intro","response_Introduction","response_Practice_intro","response_block_break_feedback","response_experimenter_kb","response_time","response_time_End_Of_Experiment","response_time_Experimental_intro","response_time_Introduction","response_time_Practice_intro","response_time_block_break_feedback","response_time_experimenter_kb","round_decimals","sampler_backend","sound_buf_size","sound_channels","sound_freq","sound_sample_size","start","subject_nr","subject_parity","time_End_Of_Experiment","time_End_Of_Practice","time_Experimental_Loop","time_Experimental_intro","time_Fixation","time_Introduction","time_Practice_Loop","time_Practice_intro","time_Stimulus","time_block_break_feedback","time_experimental_sequence","time_experimenter_kb","time_increment_trial_count","time_init_trial_count","time_logger","time_practice_sequence","time_right","time_task","time_wrong","title","total_correct","total_response_time","total_responses","uniform_coordinates","width"
"2.82129731","6.72","5","plum","word","100","100","1112.2","1112.2","black","no","legacy","legacy","legacy","0","uniform","1","undefined","undefined","undefined","1","j","0","0","0","0","4","0","0","0","4","NA","0","4","0","0","0","3","4","0","4","Tue Mar 16 10:16:09 2021","The main experiment item","yes","Lexical_Decision_Task.osexp","C:/Users/talia/Documents","no","Andale Mono","no","18","no","white","no","yes","576","legacy","0","0","3","C:/Users/talia/Documents/subject-5128817 LDT.csv","legacy","Lentiform Loewenfeld","3.3.8","yes","yes","600bd7cfb6416f0113b04181","602110864497cf011d9c0822","0","j","NA","j","j","j","NA","j","777","NA","2918","11087","6430","NA","777","2","legacy","1024","2","48000","-16","task","5128817","odd","NA","30680","35600","32681","35663","3969","21489","15058","36166","NA","35661","36167","NA","35600","36945","28953","30146","3964","NA","Lexical Decision Task","5","5561","5","yes","1024"
"2.664328519","0","4","plux","non-word","100","100","1038.8333333333333","1038.8333333333333","black","no","legacy","legacy","legacy","0","uniform","1","undefined","undefined","undefined","1","f","0","0","0","0","5","0","0","0","5","NA","1","5","1","0","1","3","5","0","5","Tue Mar 16 10:16:09 2021","The main experiment item","yes","Lexical_Decision_Task.osexp","C:/Users/talia/Documents","no","Andale Mono","no","18","no","white","no","yes","576","legacy","1","1","3","C:/Users/talia/Documents/subject-5128817 LDT.csv","legacy","Lentiform Loewenfeld","3.3.8","yes","yes","600bd7cfb6416f0113b04181","602110864497cf011d9c0822","0","f","NA","j","j","j","NA","f","672","NA","2918","11087","6430","NA","672","2","legacy","1024","2","48000","-16","task","5128817","odd","NA","30680","35600","32681","37552","3969","21489","15058","38055","NA","37550","38056","37455","35600","38728","28953","36955","3964","NA","Lexical Decision Task","6","6233","6","yes","1024"
"3.037294994","8.64","7","roof","word","100","100","992.2857142857143","992.2857142857143","black","no","legacy","legacy","legacy","0","uniform","1","undefined","undefined","undefined","1","j","0","0","0","0","6","0","0","0","6","NA","2","6","2","0","2","3","6","0","6","Tue Mar 16 10:16:09 2021","The main experiment item","yes","Lexical_Decision_Task.osexp","C:/Users/talia/Documents","no","Andale Mono","no","18","no","white","no","yes","576","legacy","2","2","3","C:/Users/talia/Documents/subject-5128817 LDT.csv","legacy","Lentiform Loewenfeld","3.3.8","yes","yes","600bd7cfb6416f0113b04181","602110864497cf011d9c0822","0","j","NA","j","j","j","NA","j","713","NA","2918","11087","6430","NA","713","2","legacy","1024","2","48000","-16","task","5128817","odd","NA","30680","35600","32681","39320","3969","21489","15058","39822","NA","39318","39822","39233","35600","40536","28953","38733","3964","NA","Lexical Decision Task","7","6946","7","yes","1024"
"2.744553742","0","2","nawk","non-word","100","100","958.125","958.125","black","no","legacy","legacy","legacy","0","uniform","1","undefined","undefined","undefined","1","f","0","0","0","0","7","0","0","0","7","NA","3","7","3","0","3","3","7","0","7","Tue Mar 16 10:16:09 2021","The main experiment item","yes","Lexical_Decision_Task.osexp","C:/Users/talia/Documents","no","Andale Mono","no","18","no","white","no","yes","576","legacy","3","3","3","C:/Users/talia/Documents/subject-5128817 LDT.csv","legacy","Lentiform Loewenfeld","3.3.8","yes","yes","600bd7cfb6416f0113b04181","602110864497cf011d9c0822","0","f","NA","j","j","j","NA","f","719","NA","2918","11087","6430","NA","719","2","legacy","1024","2","48000","-16","task","5128817","odd","NA","30680","35600","32681","41136","3969","21489","15058","41639","NA","41135","41640","41041","35600","42360","28953","40541","3964","NA","Lexical Decision Task","8","7665","8","yes","1024"
"3.153001286","8.7","5","palm","word","100","100","918.7777777777778","918.7777777777778","black","no","legacy","legacy","legacy","0","uniform","1","undefined","undefined","undefined","1","j","0","0","0","0","8","0","0","0","8","NA","4","8","4","0","4","3","8","0","8","Tue Mar 16 10:16:09 2021","The main experiment item","yes","Lexical_Decision_Task.osexp","C:/Users/talia/Documents","no","Andale Mono","no","18","no","white","no","yes","576","legacy","4","4","3","C:/Users/talia/Documents/subject-5128817 LDT.csv","legacy","Lentiform Loewenfeld","3.3.8","yes","yes","600bd7cfb6416f0113b04181","602110864497cf011d9c0822","0","j","NA","j","j","j","NA","j","604","NA","2918","11087","6430","NA","604","2","legacy","1024","2","48000","-16","task","5128817","odd","NA","30680","35600","32681","42956","3969","21489","15058","43460","NA","42955","43460","42866","35600","44064","28953","42366","3964","NA","Lexical Decision Task","9","8269","9","yes","1024"
"2.7084209","0","8","vump","non-word","100","100","895.9","895.9","black","no","legacy","legacy","legacy","0","uniform","1","undefined","undefined","undefined","1","f","0","0","0","0","9","0","0","0","9","NA","5","9","5","0","5","3","9","0","9","Tue Mar 16 10:16:09 2021","The main experiment item","yes","Lexical_Decision_Task.osexp","C:/Users/talia/Documents","no","Andale Mono","no","18","no","white","no","yes","576","legacy","5","5","3","C:/Users/talia/Documents/subject-5128817 LDT.csv","legacy","Lentiform Loewenfeld","3.3.8","yes","yes","600bd7cfb6416f0113b04181","602110864497cf011d9c0822","0","f","NA","j","j","j","NA","f","690","NA","2918","11087","6430","NA","690","2","legacy","1024","2","48000","-16","task","5128817","odd","NA","30680","35600","32681","44655","3969","21489","15058","45158","NA","44653","45158","44570","35600","45848","28953","44070","3964","NA","Lexical Decision Task","10","8959","10","yes","1024"
"3.225825991","0","7","talm","non-word","100","100","884.9090909090909","884.9090909090909","black","no","legacy","legacy","legacy","0","uniform","1","undefined","undefined","undefined","1","f","0","0","0","0","10","0","0","0","10","NA","6","10","6","0","6","3","10","0","10","Tue Mar 16 10:16:09 2021","The main experiment item","yes","Lexical_Decision_Task.osexp","C:/Users/talia/Documents","no","Andale Mono","no","18","no","white","no","yes","576","legacy","6","6","3","C:/Users/talia/Documents/subject-5128817 LDT.csv","legacy","Lentiform Loewenfeld","3.3.8","yes","yes","600bd7cfb6416f0113b04181","602110864497cf011d9c0822","0","f","NA","j","j","j","NA","f","775","NA","2918","11087","6430","NA","775","2","legacy","1024","2","48000","-16","task","5128817","odd","NA","30680","35600","32681","46442","3969","21489","15058","46943","NA","46440","46944","46354","35600","47720","28953","45854","3964","NA","Lexical Decision Task","11","9734","11","yes","1024"
"2.6599162","0","6","flug","non-word","100","100","873.0833333333334","873.0833333333334","black","no","legacy","legacy","legacy","0","uniform","1","undefined","undefined","undefined","1","f","0","0","0","0","11","0","0","0","11","NA","7","11","7","0","7","3","11","0","11","Tue Mar 16 10:16:09 2021","The main experiment item","yes","Lexical_Decision_Task.osexp","C:/Users/talia/Documents","no","Andale Mono","no","18","no","white","no","yes","576","legacy","7","7","3","C:/Users/talia/Documents/subject-5128817 LDT.csv","legacy","Lentiform Loewenfeld","3.3.8","yes","yes","600bd7cfb6416f0113b04181","602110864497cf011d9c0822","0","f","NA","j","j","j","NA","f","743","NA","2918","11087","6430","NA","743","2","legacy","1024","2","48000","-16","task","5128817","odd","NA","30680","35600","32681","48313","3969","21489","15058","48816","NA","48312","48816","48225","35600","49560","28953","47725","3964","NA","Lexical Decision Task","12","10477","12","yes","1024"
"3.120025233","0","2","nyst","non-word","100","100","854.6923076923077","854.6923076923077","black","no","legacy","legacy","legacy","0","uniform","1","undefined","undefined","undefined","1","f","0","0","0","0","12","0","0","0","12","NA","8","12","8","0","8","3","12","0","12","Tue Mar 16 10:16:09 2021","The main experiment item","yes","Lexical_Decision_Task.osexp","C:/Users/talia/Documents","no","Andale Mono","no","18","no","white","no","yes","576","legacy","8","8","3","C:/Users/talia/Documents/subject-5128817 LDT.csv","legacy","Lentiform Loewenfeld","3.3.8","yes","yes","600bd7cfb6416f0113b04181","602110864497cf011d9c0822","0","f","NA","j","j","j","NA","f","634","NA","2918","11087","6430","NA","634","2","legacy","1024","2","48000","-16","task","5128817","odd","NA","30680","35600","32681","50151","3969","21489","15058","50654","NA","50149","50654","50065","35600","51289","28953","49565","3964","NA","Lexical Decision Task","13","11111","13","yes","1024"
"2.920123326","7.43","4","duel","word","100","100","833.9285714285714","833.9285714285714","black","no","legacy","legacy","legacy","0","uniform","1","undefined","undefined","undefined","1","j","0","0","0","0","13","0","0","0","13","NA","9","13","9","0","9","3","13","0","13","Tue Mar 16 10:16:09 2021","The main experiment item","yes","Lexical_Decision_Task.osexp","C:/Users/talia/Documents","no","Andale Mono","no","18","no","white","no","yes","576","legacy","9","9","3","C:/Users/talia/Documents/subject-5128817 LDT.csv","legacy","Lentiform Loewenfeld","3.3.8","yes","yes","600bd7cfb6416f0113b04181","602110864497cf011d9c0822","0","j","NA","j","j","j","NA","j","564","NA","2918","11087","6430","NA","564","2","legacy","1024","2","48000","-16","task","5128817","odd","NA","30680","35600","32681","51886","3969","21489","15058","52388","NA","51884","52388","51794","35600","52952","28953","51294","3964","NA","Lexical Decision Task","14","11675","14","yes","1024"
"3.088136089","8.32","9","worm","word","100","100","812.8666666666667","812.8666666666667","black","no","legacy","legacy","legacy","0","uniform","1","undefined","undefined","undefined","1","j","0","0","0","0","14","0","0","0","14","NA","10","14","10","0","10","3","14","0","14","Tue Mar 16 10:16:09 2021","The main experiment item","yes","Lexical_Decision_Task.osexp","C:/Users/talia/Documents","no","Andale Mono","no","18","no","white","no","yes","576","legacy","10","10","3","C:/Users/talia/Documents/subject-5128817 LDT.csv","legacy","Lentiform Loewenfeld","3.3.8","yes","yes","600bd7cfb6416f0113b04181","602110864497cf011d9c0822","0","j","NA","j","j","j","NA","j","518","NA","2918","11087","6430","NA","518","2","legacy","1024","2","48000","-16","task","5128817","odd","NA","30680","35600","32681","53546","3969","21489","15058","54049","NA","53544","54049","53457","35600","54568","28953","52957","3964","NA","Lexical Decision Task","15","12193","15","yes","1024"
"2.821076612","0","4","lult","non-word","100","100","795.3125","795.3125","black","no","legacy","legacy","legacy","0","uniform","1","undefined","undefined","undefined","1","f","0","0","0","0","15","0","0","0","15","NA","11","15","11","0","11","3","15","0","15","Tue Mar 16 10:16:09 2021","The main experiment item","yes","Lexical_Decision_Task.osexp","C:/Users/talia/Documents","no","Andale Mono","no","18","no","white","no","yes","576","legacy","11","11","3","C:/Users/talia/Documents/subject-5128817 LDT.csv","legacy","Lentiform Loewenfeld","3.3.8","yes","yes","600bd7cfb6416f0113b04181","602110864497cf011d9c0822","0","f","NA","j","j","j","NA","f","532","NA","2918","11087","6430","NA","532","2","legacy","1024","2","48000","-16","task","5128817","odd","NA","30680","35600","32681","55159","3969","21489","15058","55660","NA","55157","55660","55074","35600","56193","28953","54574","3964","NA","Lexical Decision Task","16","12725","16","yes","1024"
"2.771097306","0","9","jold","non-word","100","100","792.6470588235294","792.6470588235294","black","no","legacy","legacy","legacy","0","uniform","1","undefined","undefined","undefined","1","f","0","0","0","0","16","0","0","0","16","NA","12","16","12","0","12","3","16","0","16","Tue Mar 16 10:16:09 2021","The main experiment item","yes","Lexical_Decision_Task.osexp","C:/Users/talia/Documents","no","Andale Mono","no","18","no","white","no","yes","576","legacy","12","12","3","C:/Users/talia/Documents/subject-5128817 LDT.csv","legacy","Lentiform Loewenfeld","3.3.8","yes","yes","600bd7cfb6416f0113b04181","602110864497cf011d9c0822","0","f","NA","j","j","j","NA","f","750","NA","2918","11087","6430","NA","750","2","legacy","1024","2","48000","-16","task","5128817","odd","NA","30680","35600","32681","56787","3969","21489","15058","57290","NA","56786","57290","56698","35600","58041","28953","56198","3964","NA","Lexical Decision Task","17","13475","17","yes","1024"
"3.316948329","0","1","besc","non-word","100","100","780.1111111111111","780.1111111111111","black","no","legacy","legacy","legacy","0","uniform","1","undefined","undefined","undefined","1","f","0","0","0","0","17","0","0","0","17","NA","13","17","13","0","13","3","17","0","17","Tue Mar 16 10:16:09 2021","The main experiment item","yes","Lexical_Decision_Task.osexp","C:/Users/talia/Documents","no","Andale Mono","no","18","no","white","no","yes","576","legacy","13","13","3","C:/Users/talia/Documents/subject-5128817 LDT.csv","legacy","Lentiform Loewenfeld","3.3.8","yes","yes","600bd7cfb6416f0113b04181","602110864497cf011d9c0822","0","f","NA","j","j","j","NA","f","567","NA","2918","11087","6430","NA","567","2","legacy","1024","2","48000","-16","task","5128817","odd","NA","30680","35600","32681","58634","3969","21489","15058","59137","NA","58633","59137","58545","35600","59704","28953","58045","3964","NA","Lexical Decision Task","18","14042","18","yes","1024"
"3.168400243","9.12","6","horn","word","100","100","769.3157894736842","769.3157894736842","black","no","legacy","legacy","legacy","0","uniform","1","undefined","undefined","undefined","1","j","0","0","0","0","18","0","0","0","18","NA","14","18","14","0","14","3","18","0","18","Tue Mar 16 10:16:09 2021","The main experiment item","yes","Lexical_Decision_Task.osexp","C:/Users/talia/Documents","no","Andale Mono","no","18","no","white","no","yes","576","legacy","14","14","3","C:/Users/talia/Documents/subject-5128817 LDT.csv","legacy","Lentiform Loewenfeld","3.3.8","yes","yes","600bd7cfb6416f0113b04181","602110864497cf011d9c0822","0","j","NA","j","j","j","NA","j","575","NA","2918","11087","6430","NA","575","2","legacy","1024","2","48000","-16","task","5128817","odd","NA","30680","35600","32681","60298","3969","21489","15058","60801","NA","60296","60801","60209","35600","61376","28953","59709","3964","NA","Lexical Decision Task","19","14617","19","yes","1024"
"3.168890155","0","6","thet","non-word","100","100","765.45","765.45","black","no","legacy","legacy","legacy","0","uniform","1","undefined","undefined","undefined","1","f","0","0","0","0","19","0","0","0","19","NA","15","19","15","0","15","3","19","0","19","Tue Mar 16 10:16:09 2021","The main experiment item","yes","Lexical_Decision_Task.osexp","C:/Users/talia/Documents","no","Andale Mono","no","18","no","white","no","yes","576","legacy","15","15","3","C:/Users/talia/Documents/subject-5128817 LDT.csv","legacy","Lentiform Loewenfeld","3.3.8","yes","yes","600bd7cfb6416f0113b04181","602110864497cf011d9c0822","0","f","NA","j","j","j","NA","f","692","NA","2918","11087","6430","NA","692","2","legacy","1024","2","48000","-16","task","5128817","odd","NA","30680","35600","32681","61967","3969","21489","15058","62468","NA","61965","62468","61882","35600","63161","28953","61382","3964","NA","Lexical Decision Task","20","15309","20","yes","1024"
"3.259832699","0","9","flar","non-word","100","100","767.2380952380952","767.2380952380952","black","no","legacy","legacy","legacy","0","uniform","1","undefined","undefined","undefined","1","f","0","0","0","0","20","0","0","0","20","NA","16","20","16","0","16","3","20","0","20","Tue Mar 16 10:16:09 2021","The main experiment item","yes","Lexical_Decision_Task.osexp","C:/Users/talia/Documents","no","Andale Mono","no","18","no","white","no","yes","576","legacy","16","16","3","C:/Users/talia/Documents/subject-5128817 LDT.csv","legacy","Lentiform Loewenfeld","3.3.8","yes","yes","600bd7cfb6416f0113b04181","602110864497cf011d9c0822","0","f","NA","j","j","j","NA","f","803","NA","2918","11087","6430","NA","803","2","legacy","1024","2","48000","-16","task","5128817","odd","NA","30680","35600","32681","63751","3969","21489","15058","64253","NA","63750","64253","63666","35600","65057","28953","63166","3964","NA","Lexical Decision Task","21","16112","21","yes","1024"
"3.374198258","0","8","vist","non-word","95.45454545454545","95.45454545454545","756.5454545454545","756.5454545454545","black","no","legacy","legacy","legacy","0","uniform","0","undefined","undefined","undefined","0","f","0","0","0","0","21","0","0","0","21","NA","17","21","17","0","17","3","21","0","21","Tue Mar 16 10:16:09 2021","The main experiment item","yes","Lexical_Decision_Task.osexp","C:/Users/talia/Documents","no","Andale Mono","no","18","no","white","no","yes","576","legacy","17","17","3","C:/Users/talia/Documents/subject-5128817 LDT.csv","legacy","Lentiform Loewenfeld","3.3.8","yes","yes","600bd7cfb6416f0113b04181","602110864497cf011d9c0822","0","j","NA","j","j","j","NA","j","532","NA","2918","11087","6430","NA","532","2","legacy","1024","2","48000","-16","task","5128817","odd","NA","30680","35600","32681","65651","3969","21489","15058","66154","NA","65649","66155","65563","35600","66688","28953","65063","3964","NA","Lexical Decision Task","21","16644","22","yes","1024"
"2.996511672","0","7","hoil","non-word","95.65217391304348","95.65217391304348","750.4782608695652","750.4782608695652","black","no","legacy","legacy","legacy","0","uniform","1","undefined","undefined","undefined","1","f","0","0","0","0","22","0","0","0","22","NA","18","22","18","0","18","3","22","0","22","Tue Mar 16 10:16:09 2021","The main experiment item","yes","Lexical_Decision_Task.osexp","C:/Users/talia/Documents","no","Andale Mono","no","18","no","white","no","yes","576","legacy","18","18","3","C:/Users/talia/Documents/subject-5128817 LDT.csv","legacy","Lentiform Loewenfeld","3.3.8","yes","yes","600bd7cfb6416f0113b04181","602110864497cf011d9c0822","0","f","NA","j","j","j","NA","f","617","NA","2918","11087","6430","NA","617","2","legacy","1024","2","48000","-16","task","5128817","odd","NA","30680","35600","32681","68280","3969","21489","15058","68782","NA","68278","68782","68192","35600","69400","28953","65063","3964","66692","Lexical Decision Task","22","17261","23","yes","1024"
"3.081107167","0","6","chot","non-word","95.83333333333333","95.83333333333333","740.2916666666666","740.2916666666666","black","no","legacy","legacy","legacy","0","uniform","1","undefined","undefined","undefined","1","f","0","0","0","0","23","0","0","0","23","NA","19","23","19","0","19","3","23","0","23","Tue Mar 16 10:16:09 2021","The main experiment item","yes","Lexical_Decision_Task.osexp","C:/Users/talia/Documents","no","Andale Mono","no","18","no","white","no","yes","576","legacy","19","19","3","C:/Users/talia/Documents/subject-5128817 LDT.csv","legacy","Lentiform Loewenfeld","3.3.8","yes","yes","600bd7cfb6416f0113b04181","602110864497cf011d9c0822","0","f","NA","j","j","j","NA","f","506","NA","2918","11087","6430","NA","506","2","legacy","1024","2","48000","-16","task","5128817","odd","NA","30680","35600","32681","69991","3969","21489","15058","70494","NA","69990","70494","69906","35600","71001","28953","69406","3964","66692","Lexical Decision Task","23","17767","24","yes","1024"
"2.897810299","0","5","glur","non-word","96","96","733.04","733.04","black","no","legacy","legacy","legacy","0","uniform","1","undefined","undefined","undefined","1","f","0","0","0","0","24","0","0","0","24","NA","20","24","20","0","20","3","24","0","24","Tue Mar 16 10:16:09 2021","The main experiment item","yes","Lexical_Decision_Task.osexp","C:/Users/talia/Documents","no","Andale Mono","no","18","no","white","no","yes","576","legacy","20","20","3","C:/Users/talia/Documents/subject-5128817 LDT.csv","legacy","Lentiform Loewenfeld","3.3.8","yes","yes","600bd7cfb6416f0113b04181","602110864497cf011d9c0822","0","f","NA","j","j","j","NA","f","559","NA","2918","11087","6430","NA","559","2","legacy","1024","2","48000","-16","task","5128817","odd","NA","30680","35600","32681","71594","3969","21489","15058","72097","NA","71592","72097","71506","35600","72657","28953","71006","3964","66692","Lexical Decision Task","24","18326","25","yes","1024"
"3.119255889","6.63","2","itch","word","96.15384615384616","96.15384615384616","727.4230769230769","727.4230769230769","black","no","legacy","legacy","legacy","0","uniform","1","undefined","undefined","undefined","1","j","0","0","0","0","25","0","0","0","25","NA","21","25","21","0","21","3","25","0","25","Tue Mar 16 10:16:09 2021","The main experiment item","yes","Lexical_Decision_Task.osexp","C:/Users/talia/Documents","no","Andale Mono","no","18","no","white","no","yes","576","legacy","21","21","3","C:/Users/talia/Documents/subject-5128817 LDT.csv","legacy","Lentiform Loewenfeld","3.3.8","yes","yes","600bd7cfb6416f0113b04181","602110864497cf011d9c0822","0","j","NA","j","j","j","NA","j","587","NA","2918","11087","6430","NA","587","2","legacy","1024","2","48000","-16","task","5128817","odd","NA","30680","35600","32681","73247","3969","21489","15058","73749","NA","73245","73749","73162","35600","74336","28953","72661","3964","66692","Lexical Decision Task","25","18913","26","yes","1024"
"2.695481676","0","7","goke","non-word","96.29629629629629","96.29629629629629","720.3703703703703","720.3703703703703","black","no","legacy","legacy","legacy","0","uniform","1","undefined","undefined","undefined","1","f","0","0","0","0","26","0","0","0","26","NA","22","26","22","0","22","3","26","0","26","Tue Mar 16 10:16:09 2021","The main experiment item","yes","Lexical_Decision_Task.osexp","C:/Users/talia/Documents","no","Andale Mono","no","18","no","white","no","yes","576","legacy","22","22","3","C:/Users/talia/Documents/subject-5128817 LDT.csv","legacy","Lentiform Loewenfeld","3.3.8","yes","yes","600bd7cfb6416f0113b04181","602110864497cf011d9c0822","0","f","NA","j","j","j","NA","f","537","NA","2918","11087","6430","NA","537","2","legacy","1024","2","48000","-16","task","5128817","odd","NA","30680","35600","32681","74945","3969","21489","15058","75446","NA","74943","75446","74842","35600","75984","28953","74342","3964","66692","Lexical Decision Task","26","19450","27","yes","1024"
"3.431095062","5.74","9","perk","word","96.42857142857143","96.42857142857143","716.3571428571429","716.3571428571429","black","no","legacy","legacy","legacy","0","uniform","1","undefined","undefined","undefined","1","j","0","0","0","0","27","0","0","0","27","NA","23","27","23","0","23","3","27","0","27","Tue Mar 16 10:16:09 2021","The main experiment item","yes","Lexical_Decision_Task.osexp","C:/Users/talia/Documents","no","Andale Mono","no","18","no","white","no","yes","576","legacy","23","23","3","C:/Users/talia/Documents/subject-5128817 LDT.csv","legacy","Lentiform Loewenfeld","3.3.8","yes","yes","600bd7cfb6416f0113b04181","602110864497cf011d9c0822","0","j","NA","j","j","j","NA","j","608","NA","2918","11087","6430","NA","608","2","legacy","1024","2","48000","-16","task","5128817","odd","NA","30680","35600","32681","76577","3969","21489","15058","77079","NA","76575","77079","76490","35600","77688","28953","75990","3964","66692","Lexical Decision Task","27","20058","28","yes","1024"
"2.873320602","0","4","lurg","non-word","96.55172413793103","96.55172413793103","710.8620689655172","710.8620689655172","black","no","legacy","legacy","legacy","0","uniform","1","undefined","undefined","undefined","1","f","0","0","0","0","28","0","0","0","28","NA","24","28","24","0","24","3","28","0","28","Tue Mar 16 10:16:09 2021","The main experiment item","yes","Lexical_Decision_Task.osexp","C:/Users/talia/Documents","no","Andale Mono","no","18","no","white","no","yes","576","legacy","24","24","3","C:/Users/talia/Documents/subject-5128817 LDT.csv","legacy","Lentiform Loewenfeld","3.3.8","yes","yes","600bd7cfb6416f0113b04181","602110864497cf011d9c0822","0","f","NA","j","j","j","NA","f","557","NA","2918","11087","6430","NA","557","2","legacy","1024","2","48000","-16","task","5128817","odd","NA","30680","35600","32681","78283","3969","21489","15058","78786","NA","78281","78787","78194","35600","79345","28953","77694","3964","66692","Lexical Decision Task","28","20615","29","yes","1024"
"3.263399331","0","8","cour","non-word","96.66666666666667","96.66666666666667","704.8333333333334","704.8333333333334","black","no","legacy","legacy","legacy","0","uniform","1","undefined","undefined","undefined","1","f","0","0","0","0","29","0","0","0","29","NA","25","29","25","0","25","3","29","0","29","Tue Mar 16 10:16:09 2021","The main experiment item","yes","Lexical_Decision_Task.osexp","C:/Users/talia/Documents","no","Andale Mono","no","18","no","white","no","yes","576","legacy","25","25","3","C:/Users/talia/Documents/subject-5128817 LDT.csv","legacy","Lentiform Loewenfeld","3.3.8","yes","yes","600bd7cfb6416f0113b04181","602110864497cf011d9c0822","0","f","NA","j","j","j","NA","f","530","NA","2918","11087","6430","NA","530","2","legacy","1024","2","48000","-16","task","5128817","odd","NA","30680","35600","32681","79937","3969","21489","15058","80438","NA","79935","80438","79851","35600","80969","28953","79351","3964","66692","Lexical Decision Task","29","21145","30","yes","1024"
"3.134602053","0","8","jart","non-word","96.7741935483871","96.7741935483871","702.2903225806451","702.2903225806451","black","no","legacy","legacy","legacy","0","uniform","1","undefined","undefined","undefined","1","f","0","0","0","0","30","0","0","0","30","NA","26","30","26","0","26","3","30","0","30","Tue Mar 16 10:16:09 2021","The main experiment item","yes","Lexical_Decision_Task.osexp","C:/Users/talia/Documents","no","Andale Mono","no","18","no","white","no","yes","576","legacy","26","26","3","C:/Users/talia/Documents/subject-5128817 LDT.csv","legacy","Lentiform Loewenfeld","3.3.8","yes","yes","600bd7cfb6416f0113b04181","602110864497cf011d9c0822","0","f","NA","j","j","j","NA","f","626","NA","2918","11087","6430","NA","626","2","legacy","1024","2","48000","-16","task","5128817","odd","NA","30680","35600","32681","81560","3969","21489","15058","82061","NA","81558","82061","81473","35600","82688","28953","80973","3964","66692","Lexical Decision Task","30","21771","31","yes","1024"
"3.474361976","5.24","6","veer","word","93.75","93.75","695.84375","695.84375","black","no","legacy","legacy","legacy","0","uniform","0","undefined","undefined","undefined","0","j","0","0","0","0","31","0","0","0","31","NA","27","31","27","0","27","3","31","0","31","Tue Mar 16 10:16:09 2021","The main experiment item","yes","Lexical_Decision_Task.osexp","C:/Users/talia/Documents","no","Andale Mono","no","18","no","white","no","yes","576","legacy","27","27","3","C:/Users/talia/Documents/subject-5128817 LDT.csv","legacy","Lentiform Loewenfeld","3.3.8","yes","yes","600bd7cfb6416f0113b04181","602110864497cf011d9c0822","0","f","NA","j","j","j","NA","f","496","NA","2918","11087","6430","NA","496","2","legacy","1024","2","48000","-16","task","5128817","odd","NA","30680","35600","32681","83282","3969","21489","15058","83784","NA","83280","83784","83194","35600","84281","28953","82694","3964","66692","Lexical Decision Task","30","22267","32","yes","1024"
"2.839898939","8.99","6","soap","word","93.93939393939394","93.93939393939394","695.0909090909091","695.0909090909091","black","no","legacy","legacy","legacy","0","uniform","1","undefined","undefined","undefined","1","j","0","0","0","0","32","0","0","0","32","NA","28","32","28","0","28","3","32","0","32","Tue Mar 16 10:16:09 2021","The main experiment item","yes","Lexical_Decision_Task.osexp","C:/Users/talia/Documents","no","Andale Mono","no","18","no","white","no","yes","576","legacy","28","28","3","C:/Users/talia/Documents/subject-5128817 LDT.csv","legacy","Lentiform Loewenfeld","3.3.8","yes","yes","600bd7cfb6416f0113b04181","602110864497cf011d9c0822","0","j","NA","j","j","j","NA","j","671","NA","2918","11087","6430","NA","671","2","legacy","1024","2","48000","-16","task","5128817","odd","NA","30680","35600","32681","85874","3969","21489","15058","86377","NA","85872","86377","85786","35600","87049","28953","82694","3964","84286","Lexical Decision Task","31","22938","33","yes","1024"
"3.368162872","0","4","ferk","non-word","94.11764705882354","94.11764705882354","691.0882352941177","691.0882352941177","black","no","legacy","legacy","legacy","0","uniform","1","undefined","undefined","undefined","1","f","0","0","0","0","33","0","0","0","33","NA","29","33","29","0","29","3","33","0","33","Tue Mar 16 10:16:09 2021","The main experiment item","yes","Lexical_Decision_Task.osexp","C:/Users/talia/Documents","no","Andale Mono","no","18","no","white","no","yes","576","legacy","29","29","3","C:/Users/talia/Documents/subject-5128817 LDT.csv","legacy","Lentiform Loewenfeld","3.3.8","yes","yes","600bd7cfb6416f0113b04181","602110864497cf011d9c0822","0","f","NA","j","j","j","NA","f","559","NA","2918","11087","6430","NA","559","2","legacy","1024","2","48000","-16","task","5128817","odd","NA","30680","35600","32681","87641","3969","21489","15058","88145","NA","87639","88145","87555","35600","88705","28953","87055","3964","84286","Lexical Decision Task","32","23497","34","yes","1024"
"3.209246849","0","7","slem","non-word","94.28571428571429","94.28571428571429","689.6571428571428","689.6571428571428","black","no","legacy","legacy","legacy","0","uniform","1","undefined","undefined","undefined","1","f","0","0","0","0","34","0","0","0","34","NA","30","34","30","0","30","3","34","0","34","Tue Mar 16 10:16:09 2021","The main experiment item","yes","Lexical_Decision_Task.osexp","C:/Users/talia/Documents","no","Andale Mono","no","18","no","white","no","yes","576","legacy","30","30","3","C:/Users/talia/Documents/subject-5128817 LDT.csv","legacy","Lentiform Loewenfeld","3.3.8","yes","yes","600bd7cfb6416f0113b04181","602110864497cf011d9c0822","0","f","NA","j","j","j","NA","f","641","NA","2918","11087","6430","NA","641","2","legacy","1024","2","48000","-16","task","5128817","odd","NA","30680","35600","32681","89296","3969","21489","15058","89798","NA","89294","89798","89210","35600","90440","28953","88710","3964","84286","Lexical Decision Task","33","24138","35","yes","1024"
"3.378276681","6.39","8","bran","word","91.66666666666667","91.66666666666667","688.5","688.5","black","no","legacy","legacy","legacy","0","uniform","0","undefined","undefined","undefined","0","j","0","0","0","0","35","0","0","0","35","NA","31","35","31","0","31","3","35","0","35","Tue Mar 16 10:16:09 2021","The main experiment item","yes","Lexical_Decision_Task.osexp","C:/Users/talia/Documents","no","Andale Mono","no","18","no","white","no","yes","576","legacy","31","31","3","C:/Users/talia/Documents/subject-5128817 LDT.csv","legacy","Lentiform Loewenfeld","3.3.8","yes","yes","600bd7cfb6416f0113b04181","602110864497cf011d9c0822","0","f","NA","j","j","j","NA","f","648","NA","2918","11087","6430","NA","648","2","legacy","1024","2","48000","-16","task","5128817","odd","NA","30680","35600","32681","91033","3969","21489","15058","91536","NA","91031","91536","90946","35600","92185","28953","90446","3964","84286","Lexical Decision Task","33","24786","36","yes","1024"
"2.793790385","5.67","9","swab","word","91.89189189189189","91.89189189189189","689.8378378378378","689.8378378378378","black","no","legacy","legacy","legacy","0","uniform","1","undefined","undefined","undefined","1","j","0","0","0","0","36","0","0","0","36","NA","32","36","32","0","32","3","36","0","36","Tue Mar 16 10:16:09 2021","The main experiment item","yes","Lexical_Decision_Task.osexp","C:/Users/talia/Documents","no","Andale Mono","no","18","no","white","no","yes","576","legacy","32","32","3","C:/Users/talia/Documents/subject-5128817 LDT.csv","legacy","Lentiform Loewenfeld","3.3.8","yes","yes","600bd7cfb6416f0113b04181","602110864497cf011d9c0822","0","j","NA","j","j","j","NA","j","738","NA","2918","11087","6430","NA","738","2","legacy","1024","2","48000","-16","task","5128817","odd","NA","30680","35600","32681","93785","3969","21489","15058","94286","NA","93783","94286","93690","35600","95025","28953","90446","3964","92190","Lexical Decision Task","34","25524","37","yes","1024"
"3.248054965","7.86","5","glow","word","92.10526315789474","92.10526315789474","687.5263157894736","687.5263157894736","black","no","legacy","legacy","legacy","0","uniform","1","undefined","undefined","undefined","1","j","0","0","0","0","37","0","0","0","37","NA","33","37","33","0","33","3","37","0","37","Tue Mar 16 10:16:09 2021","The main experiment item","yes","Lexical_Decision_Task.osexp","C:/Users/talia/Documents","no","Andale Mono","no","18","no","white","no","yes","576","legacy","33","33","3","C:/Users/talia/Documents/subject-5128817 LDT.csv","legacy","Lentiform Loewenfeld","3.3.8","yes","yes","600bd7cfb6416f0113b04181","602110864497cf011d9c0822","0","j","NA","j","j","j","NA","j","602","NA","2918","11087","6430","NA","602","2","legacy","1024","2","48000","-16","task","5128817","odd","NA","30680","35600","32681","95616","3969","21489","15058","96118","NA","95615","96118","95530","35600","96721","28953","95030","3964","92190","Lexical Decision Task","35","26126","38","yes","1024"
"3.529815197","0","3","lerm","non-word","92.3076923076923","92.3076923076923","684.3846153846154","684.3846153846154","black","no","legacy","legacy","legacy","0","uniform","1","undefined","undefined","undefined","1","f","0","0","0","0","38","0","0","0","38","NA","34","38","34","0","34","3","38","0","38","Tue Mar 16 10:16:09 2021","The main experiment item","yes","Lexical_Decision_Task.osexp","C:/Users/talia/Documents","no","Andale Mono","no","18","no","white","no","yes","576","legacy","34","34","3","C:/Users/talia/Documents/subject-5128817 LDT.csv","legacy","Lentiform Loewenfeld","3.3.8","yes","yes","600bd7cfb6416f0113b04181","602110864497cf011d9c0822","0","f","NA","j","j","j","NA","f","565","NA","2918","11087","6430","NA","565","2","legacy","1024","2","48000","-16","task","5128817","odd","NA","30680","35600","32681","97310","3969","21489","15058","97811","NA","97308","97811","97225","35600","98377","28953","96725","3964","92190","Lexical Decision Task","36","26691","39","yes","1024"
"2.807758206","6.25","4","hurl","word","92.5","92.5","685","685","black","no","legacy","legacy","legacy","0","uniform","1","undefined","undefined","undefined","1","j","0","0","0","0","39","0","0","0","39","NA","35","39","35","0","35","3","39","0","39","Tue Mar 16 10:16:09 2021","The main experiment item","yes","Lexical_Decision_Task.osexp","C:/Users/talia/Documents","no","Andale Mono","no","18","no","white","no","yes","576","legacy","35","35","3","C:/Users/talia/Documents/subject-5128817 LDT.csv","legacy","Lentiform Loewenfeld","3.3.8","yes","yes","600bd7cfb6416f0113b04181","602110864497cf011d9c0822","0","j","NA","j","j","j","NA","j","709","NA","2918","11087","6430","NA","709","2","legacy","1024","2","48000","-16","task","5128817","odd","NA","30680","35600","32681","98981","3969","21489","15058","99482","NA","98979","99482","98882","35600","100192","28953","98382","3964","92190","Lexical Decision Task","37","27400","40","yes","1024"
"3.16326079","0","5","parg","non-word","92.6829268292683","92.6829268292683","682.5365853658536","682.5365853658536","black","no","legacy","legacy","legacy","0","uniform","1","undefined","undefined","undefined","1","f","0","0","0","0","40","0","0","0","40","NA","36","40","36","0","36","3","40","0","40","Tue Mar 16 10:16:09 2021","The main experiment item","yes","Lexical_Decision_Task.osexp","C:/Users/talia/Documents","no","Andale Mono","no","18","no","white","no","yes","576","legacy","36","36","3","C:/Users/talia/Documents/subject-5128817 LDT.csv","legacy","Lentiform Loewenfeld","3.3.8","yes","yes","600bd7cfb6416f0113b04181","602110864497cf011d9c0822","0","f","NA","j","j","j","NA","f","584","NA","2918","11087","6430","NA","584","2","legacy","1024","2","48000","-16","task","5128817","odd","NA","30680","35600","32681","100785","3969","21489","15058","101288","NA","100783","101288","100698","35600","101873","28953","100198","3964","92190","Lexical Decision Task","38","27984","41","yes","1024"
"2.68604012","0","3","mulb","non-word","92.85714285714286","92.85714285714286","680.5714285714286","680.5714285714286","black","no","legacy","legacy","legacy","0","uniform","1","undefined","undefined","undefined","1","f","0","0","0","0","41","0","0","0","41","NA","37","41","37","0","37","3","41","0","41","Tue Mar 16 10:16:09 2021","The main experiment item","yes","Lexical_Decision_Task.osexp","C:/Users/talia/Documents","no","Andale Mono","no","18","no","white","no","yes","576","legacy","37","37","3","C:/Users/talia/Documents/subject-5128817 LDT.csv","legacy","Lentiform Loewenfeld","3.3.8","yes","yes","600bd7cfb6416f0113b04181","602110864497cf011d9c0822","0","f","NA","j","j","j","NA","f","600","NA","2918","11087","6430","NA","600","2","legacy","1024","2","48000","-16","task","5128817","odd","NA","30680","35600","32681","102467","3969","21489","15058","102968","NA","102465","102968","102379","35600","103569","28953","101879","3964","92190","Lexical Decision Task","39","28584","42","yes","1024"
"2.803231716","5.26","3","kiln","word","90.69767441860465","90.69767441860465","678.1395348837209","678.1395348837209","black","no","legacy","legacy","legacy","0","uniform","0","undefined","undefined","undefined","0","j","0","0","0","0","42","0","0","0","42","NA","38","42","38","0","38","3","42","0","42","Tue Mar 16 10:16:09 2021","The main experiment item","yes","Lexical_Decision_Task.osexp","C:/Users/talia/Documents","no","Andale Mono","no","18","no","white","no","yes","576","legacy","38","38","3","C:/Users/talia/Documents/subject-5128817 LDT.csv","legacy","Lentiform Loewenfeld","3.3.8","yes","yes","600bd7cfb6416f0113b04181","602110864497cf011d9c0822","0","f","NA","j","j","j","NA","f","576","NA","2918","11087","6430","NA","576","2","legacy","1024","2","48000","-16","task","5128817","odd","NA","30680","35600","32681","104161","3969","21489","15058","104664","NA","104159","104664","104074","35600","105242","28953","103574","3964","92190","Lexical Decision Task","39","29160","43","yes","1024"
"2.698387659","6.66","7","skid","word","90.9090909090909","90.9090909090909","682.0454545454545","682.0454545454545","black","no","legacy","legacy","legacy","0","uniform","1","undefined","undefined","undefined","1","j","0","0","0","0","43","0","0","0","43","NA","39","43","39","0","39","3","43","0","43","Tue Mar 16 10:16:09 2021","The main experiment item","yes","Lexical_Decision_Task.osexp","C:/Users/talia/Documents","no","Andale Mono","no","18","no","white","no","yes","576","legacy","39","39","3","C:/Users/talia/Documents/subject-5128817 LDT.csv","legacy","Lentiform Loewenfeld","3.3.8","yes","yes","600bd7cfb6416f0113b04181","602110864497cf011d9c0822","0","j","NA","j","j","j","NA","j","850","NA","2918","11087","6430","NA","850","2","legacy","1024","2","48000","-16","task","5128817","odd","NA","30680","35600","32681","106838","3969","21489","15058","107341","NA","106837","107341","106747","35600","108192","28953","103574","3964","105247","Lexical Decision Task","40","30010","44","yes","1024"
"3.153104174","10.89","6","door","word","91.11111111111111","91.11111111111111","677.8","677.8","black","no","legacy","legacy","legacy","0","uniform","1","undefined","undefined","undefined","1","j","0","0","0","0","44","0","0","0","44","NA","40","44","40","0","40","3","44","0","44","Tue Mar 16 10:16:09 2021","The main experiment item","yes","Lexical_Decision_Task.osexp","C:/Users/talia/Documents","no","Andale Mono","no","18","no","white","no","yes","576","legacy","40","40","3","C:/Users/talia/Documents/subject-5128817 LDT.csv","legacy","Lentiform Loewenfeld","3.3.8","yes","yes","600bd7cfb6416f0113b04181","602110864497cf011d9c0822","0","j","NA","j","j","j","NA","j","491","NA","2918","11087","6430","NA","491","2","legacy","1024","2","48000","-16","task","5128817","odd","NA","30680","35600","32681","108784","3969","21489","15058","109285","NA","108782","109285","108697","35600","109777","28953","108197","3964","105247","Lexical Decision Task","41","30501","45","yes","1024"
"2.980911938","7.15","7","hoop","word","91.30434782608695","91.30434782608695","676.2826086956521","676.2826086956521","black","no","legacy","legacy","legacy","0","uniform","1","undefined","undefined","undefined","1","j","0","0","0","0","45","0","0","0","45","NA","41","45","41","0","41","3","45","0","45","Tue Mar 16 10:16:09 2021","The main experiment item","yes","Lexical_Decision_Task.osexp","C:/Users/talia/Documents","no","Andale Mono","no","18","no","white","no","yes","576","legacy","41","41","3","C:/Users/talia/Documents/subject-5128817 LDT.csv","legacy","Lentiform Loewenfeld","3.3.8","yes","yes","600bd7cfb6416f0113b04181","602110864497cf011d9c0822","0","j","NA","j","j","j","NA","j","608","NA","2918","11087","6430","NA","608","2","legacy","1024","2","48000","-16","task","5128817","odd","NA","30680","35600","32681","110368","3969","21489","15058","110872","NA","110367","110872","110282","35600","111481","28953","109782","3964","105247","Lexical Decision Task","42","31109","46","yes","1024"
"2.986323777","10.85","8","ship","word","91.48936170212765","91.48936170212765","673.063829787234","673.063829787234","black","no","legacy","legacy","legacy","0","uniform","1","undefined","undefined","undefined","1","j","0","0","0","0","46","0","0","0","46","NA","42","46","42","0","42","3","46","0","46","Tue Mar 16 10:16:09 2021","The main experiment item","yes","Lexical_Decision_Task.osexp","C:/Users/talia/Documents","no","Andale Mono","no","18","no","white","no","yes","576","legacy","42","42","3","C:/Users/talia/Documents/subject-5128817 LDT.csv","legacy","Lentiform Loewenfeld","3.3.8","yes","yes","600bd7cfb6416f0113b04181","602110864497cf011d9c0822","0","j","NA","j","j","j","NA","j","525","NA","2918","11087","6430","NA","525","2","legacy","1024","2","48000","-16","task","5128817","odd","NA","30680","35600","32681","112075","3969","21489","15058","112578","NA","112074","112578","111986","35600","113105","28953","111486","3964","105247","Lexical Decision Task","43","31634","47","yes","1024"
"3.165936429","0","7","leps","non-word","91.66666666666667","91.66666666666667","681.5416666666666","681.5416666666666","black","no","legacy","legacy","legacy","0","uniform","1","undefined","undefined","undefined","1","f","0","0","0","0","47","0","0","0","47","NA","43","47","43","0","43","3","47","0","47","Tue Mar 16 10:16:09 2021","The main experiment item","yes","Lexical_Decision_Task.osexp","C:/Users/talia/Documents","no","Andale Mono","no","18","no","white","no","yes","576","legacy","43","43","3","C:/Users/talia/Documents/subject-5128817 LDT.csv","legacy","Lentiform Loewenfeld","3.3.8","yes","yes","600bd7cfb6416f0113b04181","602110864497cf011d9c0822","0","f","NA","j","j","j","NA","f","1080","NA","2918","11087","6430","NA","1080","2","legacy","1024","2","48000","-16","task","5128817","odd","NA","30680","35600","32681","113697","3969","21489","15058","114200","NA","113695","114200","113610","35600","115281","28953","113110","3964","105247","Lexical Decision Task","44","32714","48","yes","1024"
"3.062080345","0","6","tomp","non-word","91.83673469387755","91.83673469387755","682.795918367347","682.795918367347","black","no","legacy","legacy","legacy","0","uniform","1","undefined","undefined","undefined","1","f","0","0","0","0","48","0","0","0","48","NA","44","48","44","0","44","3","48","0","48","Tue Mar 16 10:16:09 2021","The main experiment item","yes","Lexical_Decision_Task.osexp","C:/Users/talia/Documents","no","Andale Mono","no","18","no","white","no","yes","576","legacy","44","44","3","C:/Users/talia/Documents/subject-5128817 LDT.csv","legacy","Lentiform Loewenfeld","3.3.8","yes","yes","600bd7cfb6416f0113b04181","602110864497cf011d9c0822","0","f","NA","j","j","j","NA","f","743","NA","2918","11087","6430","NA","743","2","legacy","1024","2","48000","-16","task","5128817","odd","NA","30680","35600","32681","115873","3969","21489","15058","116376","NA","115872","116376","115786","35600","117121","28953","115286","3964","105247","Lexical Decision Task","45","33457","49","yes","1024"
"3.218535505","7.85","7","goat","word","92","92","679.64","679.64","black","no","legacy","legacy","legacy","0","uniform","1","undefined","undefined","undefined","1","j","0","0","0","0","49","0","0","0","49","NA","45","49","45","0","45","3","49","0","49","Tue Mar 16 10:16:09 2021","The main experiment item","yes","Lexical_Decision_Task.osexp","C:/Users/talia/Documents","no","Andale Mono","no","18","no","white","no","yes","576","legacy","45","45","3","C:/Users/talia/Documents/subject-5128817 LDT.csv","legacy","Lentiform Loewenfeld","3.3.8","yes","yes","600bd7cfb6416f0113b04181","602110864497cf011d9c0822","0","j","NA","j","j","j","NA","j","525","NA","2918","11087","6430","NA","525","2","legacy","1024","2","48000","-16","task","5128817","odd","NA","30680","35600","32681","117716","3969","21489","15058","118219","NA","117714","118219","117627","35600","118745","28953","117127","3964","105247","Lexical Decision Task","46","33982","50","yes","1024"
"2.875447132","0","9","jelt","non-word","92.15686274509804","92.15686274509804","679.9411764705883","679.9411764705883","black","no","legacy","legacy","legacy","0","uniform","1","undefined","undefined","undefined","1","f","0","0","0","0","50","0","0","0","50","NA","46","50","46","0","46","3","50","0","50","Tue Mar 16 10:16:09 2021","The main experiment item","yes","Lexical_Decision_Task.osexp","C:/Users/talia/Documents","no","Andale Mono","no","18","no","white","no","yes","576","legacy","46","46","3","C:/Users/talia/Documents/subject-5128817 LDT.csv","legacy","Lentiform Loewenfeld","3.3.8","yes","yes","600bd7cfb6416f0113b04181","602110864497cf011d9c0822","0","f","NA","j","j","j","NA","f","695","NA","2918","11087","6430","NA","695","2","legacy","1024","2","48000","-16","task","5128817","odd","NA","30680","35600","32681","119338","3969","21489","15058","119841","NA","119337","119841","119251","35600","120537","28953","118751","3964","105247","Lexical Decision Task","47","34677","51","yes","1024"
"2.813801082","5.47","7","nook","word","92.3076923076923","92.3076923076923","680.5576923076923","680.5576923076923","black","no","legacy","legacy","legacy","0","uniform","1","undefined","undefined","undefined","1","j","0","0","0","0","51","0","0","0","51","NA","47","51","47","0","47","3","51","0","51","Tue Mar 16 10:16:09 2021","The main experiment item","yes","Lexical_Decision_Task.osexp","C:/Users/talia/Documents","no","Andale Mono","no","18","no","white","no","yes","576","legacy","47","47","3","C:/Users/talia/Documents/subject-5128817 LDT.csv","legacy","Lentiform Loewenfeld","3.3.8","yes","yes","600bd7cfb6416f0113b04181","602110864497cf011d9c0822","0","j","NA","j","j","j","NA","j","712","NA","2918","11087","6430","NA","712","2","legacy","1024","2","48000","-16","task","5128817","odd","NA","30680","35600","32681","121131","3969","21489","15058","121632","NA","121129","121632","121043","35600","122345","28953","120543","3964","105247","Lexical Decision Task","48","35389","52","yes","1024"
"3.028977705","0","7","frow","non-word","92.45283018867924","92.45283018867924","698","698","black","no","legacy","legacy","legacy","0","uniform","1","undefined","undefined","undefined","1","f","0","0","0","0","52","0","0","0","52","NA","48","52","48","0","48","3","52","0","52","Tue Mar 16 10:16:09 2021","The main experiment item","yes","Lexical_Decision_Task.osexp","C:/Users/talia/Documents","no","Andale Mono","no","18","no","white","no","yes","576","legacy","48","48","3","C:/Users/talia/Documents/subject-5128817 LDT.csv","legacy","Lentiform Loewenfeld","3.3.8","yes","yes","600bd7cfb6416f0113b04181","602110864497cf011d9c0822","0","f","NA","j","j","j","NA","f","1605","NA","2918","11087","6430","NA","1605","2","legacy","1024","2","48000","-16","task","5128817","odd","NA","30680","35600","32681","122939","3969","21489","15058","123442","NA","122937","123442","122851","35600","125049","28953","122351","3964","105247","Lexical Decision Task","49","36994","53","yes","1024"
"3.121778632","0","9","sark","non-word","92.5925925925926","92.5925925925926","700.7592592592592","700.7592592592592","black","no","legacy","legacy","legacy","0","uniform","1","undefined","undefined","undefined","1","f","0","0","0","0","53","0","0","0","53","NA","49","53","49","0","49","3","53","0","53","Tue Mar 16 10:16:09 2021","The main experiment item","yes","Lexical_Decision_Task.osexp","C:/Users/talia/Documents","no","Andale Mono","no","18","no","white","no","yes","576","legacy","49","49","3","C:/Users/talia/Documents/subject-5128817 LDT.csv","legacy","Lentiform Loewenfeld","3.3.8","yes","yes","600bd7cfb6416f0113b04181","602110864497cf011d9c0822","0","f","NA","j","j","j","NA","f","847","NA","2918","11087","6430","NA","847","2","legacy","1024","2","48000","-16","task","5128817","odd","NA","30680","35600","32681","125644","3969","21489","15058","126145","NA","125642","126145","125554","35600","126993","28953","125054","3964","105247","Lexical Decision Task","50","37841","54","yes","1024"
"2.69019608","9.01","2","myth","word","92.72727272727273","92.72727272727273","717.290909090909","717.290909090909","black","no","legacy","legacy","legacy","0","uniform","1","undefined","undefined","undefined","1","j","0","0","0","0","54","0","0","0","54","0","50","54","50","0","50","3","54","0","54","Tue Mar 16 10:16:09 2021","The main experiment item","yes","Lexical_Decision_Task.osexp","C:/Users/talia/Documents","no","Andale Mono","no","18","no","white","no","yes","576","legacy","50","50","3","C:/Users/talia/Documents/subject-5128817 LDT.csv","legacy","Lentiform Loewenfeld","3.3.8","yes","yes","600bd7cfb6416f0113b04181","602110864497cf011d9c0822","0","j","NA","j","j","j","space","j","1610","NA","2918","11087","6430","4477","1610","2","legacy","1024","2","48000","-16","task","5128817","odd","NA","30680","35600","32681","132111","3969","21489","15058","132612","127547","132110","132613","127499","35600","134225","28953","126998","3964","105247","Lexical Decision Task","51","39451","55","yes","1024"
"3.20871002","7.15","8","cram","word","91.07142857142857","91.07142857142857","717.1607142857143","717.1607142857143","black","no","legacy","legacy","legacy","0","uniform","0","undefined","undefined","undefined","0","j","0","0","0","0","55","0","0","0","55","0","51","55","51","0","51","3","55","0","55","Tue Mar 16 10:16:09 2021","The main experiment item","yes","Lexical_Decision_Task.osexp","C:/Users/talia/Documents","no","Andale Mono","no","18","no","white","no","yes","576","legacy","51","51","3","C:/Users/talia/Documents/subject-5128817 LDT.csv","legacy","Lentiform Loewenfeld","3.3.8","yes","yes","600bd7cfb6416f0113b04181","602110864497cf011d9c0822","0","f","NA","j","j","j","space","f","710","NA","2918","11087","6430","4477","710","2","legacy","1024","2","48000","-16","task","5128817","odd","NA","30680","35600","32681","134818","3969","21489","15058","135321","127547","134817","135321","134730","35600","136033","28953","134230","3964","105247","Lexical Decision Task","51","40161","56","yes","1024"
"2.842815106","7.86","8","lump","word","91.2280701754386","91.2280701754386","715.4035087719299","715.4035087719299","black","no","legacy","legacy","legacy","0","uniform","1","undefined","undefined","undefined","1","j","0","0","0","0","56","0","0","0","56","0","52","56","52","0","52","3","56","0","56","Tue Mar 16 10:16:09 2021","The main experiment item","yes","Lexical_Decision_Task.osexp","C:/Users/talia/Documents","no","Andale Mono","no","18","no","white","no","yes","576","legacy","52","52","3","C:/Users/talia/Documents/subject-5128817 LDT.csv","legacy","Lentiform Loewenfeld","3.3.8","yes","yes","600bd7cfb6416f0113b04181","602110864497cf011d9c0822","0","j","NA","j","j","j","space","j","617","NA","2918","11087","6430","4477","617","2","legacy","1024","2","48000","-16","task","5128817","odd","NA","30680","35600","32681","137632","3969","21489","15058","138135","127547","137631","138135","137538","35600","138753","28953","134230","3964","136038","Lexical Decision Task","52","40778","57","yes","1024"
"3.15462682","0","6","noal","non-word","91.37931034482759","91.37931034482759","715.1724137931035","715.1724137931035","black","no","legacy","legacy","legacy","0","uniform","1","undefined","undefined","undefined","1","f","0","0","0","0","57","0","0","0","57","0","53","57","53","0","53","3","57","0","57","Tue Mar 16 10:16:09 2021","The main experiment item","yes","Lexical_Decision_Task.osexp","C:/Users/talia/Documents","no","Andale Mono","no","18","no","white","no","yes","576","legacy","53","53","3","C:/Users/talia/Documents/subject-5128817 LDT.csv","legacy","Lentiform Loewenfeld","3.3.8","yes","yes","600bd7cfb6416f0113b04181","602110864497cf011d9c0822","0","f","NA","j","j","j","space","f","702","NA","2918","11087","6430","4477","702","2","legacy","1024","2","48000","-16","task","5128817","odd","NA","30680","35600","32681","139347","3969","21489","15058","139850","127547","139345","139850","139259","35600","140553","28953","138759","3964","136038","Lexical Decision Task","53","41480","58","yes","1024"
"3.031812271","6.52","3","gulp","word","91.52542372881356","91.52542372881356","713.9830508474577","713.9830508474577","black","no","legacy","legacy","legacy","0","uniform","1","undefined","undefined","undefined","1","j","0","0","0","0","58","0","0","0","58","0","54","58","54","0","54","3","58","0","58","Tue Mar 16 10:16:09 2021","The main experiment item","yes","Lexical_Decision_Task.osexp","C:/Users/talia/Documents","no","Andale Mono","no","18","no","white","no","yes","576","legacy","54","54","3","C:/Users/talia/Documents/subject-5128817 LDT.csv","legacy","Lentiform Loewenfeld","3.3.8","yes","yes","600bd7cfb6416f0113b04181","602110864497cf011d9c0822","0","j","NA","j","j","j","space","j","645","NA","2918","11087","6430","4477","645","2","legacy","1024","2","48000","-16","task","5128817","odd","NA","30680","35600","32681","141147","3969","21489","15058","141650","127547","141145","141651","141058","35600","142297","28953","140558","3964","136038","Lexical Decision Task","54","42125","59","yes","1024"
"3.488597715","0","9","nain","non-word","91.66666666666667","91.66666666666667","712.1833333333333","712.1833333333333","black","no","legacy","legacy","legacy","0","uniform","1","undefined","undefined","undefined","1","f","0","0","0","0","59","0","0","0","59","0","55","59","55","0","55","3","59","0","59","Tue Mar 16 10:16:09 2021","The main experiment item","yes","Lexical_Decision_Task.osexp","C:/Users/talia/Documents","no","Andale Mono","no","18","no","white","no","yes","576","legacy","55","55","3","C:/Users/talia/Documents/subject-5128817 LDT.csv","legacy","Lentiform Loewenfeld","3.3.8","yes","yes","600bd7cfb6416f0113b04181","602110864497cf011d9c0822","0","f","NA","j","j","j","space","f","606","NA","2918","11087","6430","4477","606","2","legacy","1024","2","48000","-16","task","5128817","odd","NA","30680","35600","32681","142890","3969","21489","15058","143393","127547","142888","143393","142803","35600","144001","28953","142303","3964","136038","Lexical Decision Task","55","42731","60","yes","1024"
"3.216517684","10.87","3","film","word","91.80327868852459","91.80327868852459","709.4918032786885","709.4918032786885","black","no","legacy","legacy","legacy","0","uniform","1","undefined","undefined","undefined","1","j","0","0","0","0","60","0","0","0","60","0","56","60","56","0","56","3","60","0","60","Tue Mar 16 10:16:09 2021","The main experiment item","yes","Lexical_Decision_Task.osexp","C:/Users/talia/Documents","no","Andale Mono","no","18","no","white","no","yes","576","legacy","56","56","3","C:/Users/talia/Documents/subject-5128817 LDT.csv","legacy","Lentiform Loewenfeld","3.3.8","yes","yes","600bd7cfb6416f0113b04181","602110864497cf011d9c0822","0","j","NA","j","j","j","space","j","548","NA","2918","11087","6430","4477","548","2","legacy","1024","2","48000","-16","task","5128817","odd","NA","30680","35600","32681","144595","3969","21489","15058","145099","127547","144594","145099","144506","35600","145649","28953","144006","3964","136038","Lexical Decision Task","56","43279","61","yes","1024"
"2.990042563","6.64","9","plow","word","91.93548387096774","91.93548387096774","709.8548387096774","709.8548387096774","black","no","legacy","legacy","legacy","0","uniform","1","undefined","undefined","undefined","1","j","0","0","0","0","61","0","0","0","61","0","57","61","57","0","57","3","61","0","61","Tue Mar 16 10:16:09 2021","The main experiment item","yes","Lexical_Decision_Task.osexp","C:/Users/talia/Documents","no","Andale Mono","no","18","no","white","no","yes","576","legacy","57","57","3","C:/Users/talia/Documents/subject-5128817 LDT.csv","legacy","Lentiform Loewenfeld","3.3.8","yes","yes","600bd7cfb6416f0113b04181","602110864497cf011d9c0822","0","j","NA","j","j","j","space","j","732","NA","2918","11087","6430","4477","732","2","legacy","1024","2","48000","-16","task","5128817","odd","NA","30680","35600","32681","146238","3969","21489","15058","146740","127547","146236","146740","146154","35600","147473","28953","145654","3964","136038","Lexical Decision Task","57","44011","62","yes","1024"
"3.299579929","0","2","flis","non-word","92.06349206349206","92.06349206349206","708.8571428571429","708.8571428571429","black","no","legacy","legacy","legacy","0","uniform","1","undefined","undefined","undefined","1","f","0","0","0","0","62","0","0","0","62","0","58","62","58","0","58","3","62","0","62","Tue Mar 16 10:16:09 2021","The main experiment item","yes","Lexical_Decision_Task.osexp","C:/Users/talia/Documents","no","Andale Mono","no","18","no","white","no","yes","576","legacy","58","58","3","C:/Users/talia/Documents/subject-5128817 LDT.csv","legacy","Lentiform Loewenfeld","3.3.8","yes","yes","600bd7cfb6416f0113b04181","602110864497cf011d9c0822","0","f","NA","j","j","j","space","f","647","NA","2918","11087","6430","4477","647","2","legacy","1024","2","48000","-16","task","5128817","odd","NA","30680","35600","32681","148066","3969","21489","15058","148568","127547","148064","148568","147979","35600","149217","28953","147479","3964","136038","Lexical Decision Task","58","44658","63","yes","1024"
"2.983324025","9.56","2","debt","word","92.1875","92.1875","707.21875","707.21875","black","no","legacy","legacy","legacy","0","uniform","1","undefined","undefined","undefined","1","j","0","0","0","0","63","0","0","0","63","0","59","63","59","0","59","3","63","0","63","Tue Mar 16 10:16:09 2021","The main experiment item","yes","Lexical_Decision_Task.osexp","C:/Users/talia/Documents","no","Andale Mono","no","18","no","white","no","yes","576","legacy","59","59","3","C:/Users/talia/Documents/subject-5128817 LDT.csv","legacy","Lentiform Loewenfeld","3.3.8","yes","yes","600bd7cfb6416f0113b04181","602110864497cf011d9c0822","0","j","NA","j","j","j","space","j","604","NA","2918","11087","6430","4477","604","2","legacy","1024","2","48000","-16","task","5128817","odd","NA","30680","35600","32681","149812","3969","21489","15058","150315","127547","149810","150315","149723","35600","150920","28953","149223","3964","136038","Lexical Decision Task","59","45262","64","yes","1024"
"3.137775856","7.39","5","comb","word","92.3076923076923","92.3076923076923","705.0461538461539","705.0461538461539","black","no","legacy","legacy","legacy","0","uniform","1","undefined","undefined","undefined","1","j","0","0","0","0","64","0","0","0","64","0","60","64","60","0","60","3","64","0","64","Tue Mar 16 10:16:09 2021","The main experiment item","yes","Lexical_Decision_Task.osexp","C:/Users/talia/Documents","no","Andale Mono","no","18","no","white","no","yes","576","legacy","60","60","3","C:/Users/talia/Documents/subject-5128817 LDT.csv","legacy","Lentiform Loewenfeld","3.3.8","yes","yes","600bd7cfb6416f0113b04181","602110864497cf011d9c0822","0","j","NA","j","j","j","space","j","566","NA","2918","11087","6430","4477","566","2","legacy","1024","2","48000","-16","task","5128817","odd","NA","30680","35600","32681","151514","3969","21489","15058","152017","127547","151512","152018","151426","35600","152586","28953","150926","3964","136038","Lexical Decision Task","60","45828","65","yes","1024"
"2.880623071","0","9","curp","non-word","92.42424242424242","92.42424242424242","705","705","black","no","legacy","legacy","legacy","0","uniform","1","undefined","undefined","undefined","1","f","0","0","0","0","65","0","0","0","65","0","61","65","61","0","61","3","65","0","65","Tue Mar 16 10:16:09 2021","The main experiment item","yes","Lexical_Decision_Task.osexp","C:/Users/talia/Documents","no","Andale Mono","no","18","no","white","no","yes","576","legacy","61","61","3","C:/Users/talia/Documents/subject-5128817 LDT.csv","legacy","Lentiform Loewenfeld","3.3.8","yes","yes","600bd7cfb6416f0113b04181","602110864497cf011d9c0822","0","f","NA","j","j","j","space","f","702","NA","2918","11087","6430","4477","702","2","legacy","1024","2","48000","-16","task","5128817","odd","NA","30680","35600","32681","153179","3969","21489","15058","153682","127547","153177","153682","153091","35600","154385","28953","152591","3964","136038","Lexical Decision Task","61","46530","66","yes","1024"
"2.728085817","10.02","9","bike","word","92.53731343283582","92.53731343283582","702.4328358208955","702.4328358208955","black","no","legacy","legacy","legacy","0","uniform","1","undefined","undefined","undefined","1","j","0","0","0","0","66","0","0","0","66","0","62","66","62","0","62","3","66","0","66","Tue Mar 16 10:16:09 2021","The main experiment item","yes","Lexical_Decision_Task.osexp","C:/Users/talia/Documents","no","Andale Mono","no","18","no","white","no","yes","576","legacy","62","62","3","C:/Users/talia/Documents/subject-5128817 LDT.csv","legacy","Lentiform Loewenfeld","3.3.8","yes","yes","600bd7cfb6416f0113b04181","602110864497cf011d9c0822","0","j","NA","j","j","j","space","j","533","NA","2918","11087","6430","4477","533","2","legacy","1024","2","48000","-16","task","5128817","odd","NA","30680","35600","32681","154980","3969","21489","15058","155482","127547","154978","155483","154891","35600","156017","28953","154391","3964","136038","Lexical Decision Task","62","47063","67","yes","1024"
"2.843025032","0","9","pusk","non-word","92.6470588235294","92.6470588235294","703.2352941176471","703.2352941176471","black","no","legacy","legacy","legacy","0","uniform","1","undefined","undefined","undefined","1","f","0","0","0","0","67","0","0","0","67","0","63","67","63","0","63","3","67","0","67","Tue Mar 16 10:16:09 2021","The main experiment item","yes","Lexical_Decision_Task.osexp","C:/Users/talia/Documents","no","Andale Mono","no","18","no","white","no","yes","576","legacy","63","63","3","C:/Users/talia/Documents/subject-5128817 LDT.csv","legacy","Lentiform Loewenfeld","3.3.8","yes","yes","600bd7cfb6416f0113b04181","602110864497cf011d9c0822","0","f","NA","j","j","j","space","f","757","NA","2918","11087","6430","4477","757","2","legacy","1024","2","48000","-16","task","5128817","odd","NA","30680","35600","32681","156613","3969","21489","15058","157114","127547","156611","157114","156523","35600","157873","28953","156023","3964","136038","Lexical Decision Task","63","47820","68","yes","1024"
"2.892836167","10.01","5","soft","word","92.7536231884058","92.7536231884058","701.536231884058","701.536231884058","black","no","legacy","legacy","legacy","0","uniform","1","undefined","undefined","undefined","1","j","0","0","0","0","68","0","0","0","68","0","64","68","64","0","64","3","68","0","68","Tue Mar 16 10:16:09 2021","The main experiment item","yes","Lexical_Decision_Task.osexp","C:/Users/talia/Documents","no","Andale Mono","no","18","no","white","no","yes","576","legacy","64","64","3","C:/Users/talia/Documents/subject-5128817 LDT.csv","legacy","Lentiform Loewenfeld","3.3.8","yes","yes","600bd7cfb6416f0113b04181","602110864497cf011d9c0822","0","j","NA","j","j","j","space","j","586","NA","2918","11087","6430","4477","586","2","legacy","1024","2","48000","-16","task","5128817","odd","NA","30680","35600","32681","158465","3969","21489","15058","158966","127547","158463","158966","158379","35600","159554","28953","157879","3964","136038","Lexical Decision Task","64","48406","69","yes","1024"
"2.86332286","6.71","2","feud","word","91.42857142857143","91.42857142857143","700.3428571428572","700.3428571428572","black","no","legacy","legacy","legacy","0","uniform","0","undefined","undefined","undefined","0","j","0","0","0","0","69","0","0","0","69","0","65","69","65","0","65","3","69","0","69","Tue Mar 16 10:16:09 2021","The main experiment item","yes","Lexical_Decision_Task.osexp","C:/Users/talia/Documents","no","Andale Mono","no","18","no","white","no","yes","576","legacy","65","65","3","C:/Users/talia/Documents/subject-5128817 LDT.csv","legacy","Lentiform Loewenfeld","3.3.8","yes","yes","600bd7cfb6416f0113b04181","602110864497cf011d9c0822","0","f","NA","j","j","j","space","f","618","NA","2918","11087","6430","4477","618","2","legacy","1024","2","48000","-16","task","5128817","odd","NA","30680","35600","32681","160145","3969","21489","15058","160646","127547","160143","160646","160060","35600","161265","28953","159560","3964","136038","Lexical Decision Task","64","49024","70","yes","1024"
"3.2757719","0","5","slea","non-word","91.54929577464789","91.54929577464789","700.830985915493","700.830985915493","black","no","legacy","legacy","legacy","0","uniform","1","undefined","undefined","undefined","1","f","0","0","0","0","70","0","0","0","70","0","66","70","66","0","66","3","70","0","70","Tue Mar 16 10:16:09 2021","The main experiment item","yes","Lexical_Decision_Task.osexp","C:/Users/talia/Documents","no","Andale Mono","no","18","no","white","no","yes","576","legacy","66","66","3","C:/Users/talia/Documents/subject-5128817 LDT.csv","legacy","Lentiform Loewenfeld","3.3.8","yes","yes","600bd7cfb6416f0113b04181","602110864497cf011d9c0822","0","f","NA","j","j","j","space","f","735","NA","2918","11087","6430","4477","735","2","legacy","1024","2","48000","-16","task","5128817","odd","NA","30680","35600","32681","162865","3969","21489","15058","163368","127547","162863","163368","162772","35600","164105","28953","159560","3964","161272","Lexical Decision Task","65","49759","71","yes","1024"
"2.799799878","0","4","ciff","non-word","90.27777777777777","90.27777777777777","698.4027777777778","698.4027777777778","black","no","legacy","legacy","legacy","0","uniform","0","undefined","undefined","undefined","0","f","0","0","0","0","71","0","0","0","71","0","67","71","67","0","67","3","71","0","71","Tue Mar 16 10:16:09 2021","The main experiment item","yes","Lexical_Decision_Task.osexp","C:/Users/talia/Documents","no","Andale Mono","no","18","no","white","no","yes","576","legacy","67","67","3","C:/Users/talia/Documents/subject-5128817 LDT.csv","legacy","Lentiform Loewenfeld","3.3.8","yes","yes","600bd7cfb6416f0113b04181","602110864497cf011d9c0822","0","j","NA","j","j","j","space","j","526","NA","2918","11087","6430","4477","526","2","legacy","1024","2","48000","-16","task","5128817","odd","NA","30680","35600","32681","164698","3969","21489","15058","165201","127547","164696","165201","164610","35600","165729","28953","164109","3964","161272","Lexical Decision Task","65","50285","72","yes","1024"
"3.14849993","10.75","7","hour","word","90.41095890410959","90.41095890410959","698.1232876712329","698.1232876712329","black","no","legacy","legacy","legacy","0","uniform","1","undefined","undefined","undefined","1","j","0","0","0","0","72","0","0","0","72","0","68","72","68","0","68","3","72","0","72","Tue Mar 16 10:16:09 2021","The main experiment item","yes","Lexical_Decision_Task.osexp","C:/Users/talia/Documents","no","Andale Mono","no","18","no","white","no","yes","576","legacy","68","68","3","C:/Users/talia/Documents/subject-5128817 LDT.csv","legacy","Lentiform Loewenfeld","3.3.8","yes","yes","600bd7cfb6416f0113b04181","602110864497cf011d9c0822","0","j","NA","j","j","j","space","j","678","NA","2918","11087","6430","4477","678","2","legacy","1024","2","48000","-16","task","5128817","odd","NA","30680","35600","32681","167323","3969","21489","15058","167826","127547","167321","167826","167235","35600","168505","28953","164109","3964","165735","Lexical Decision Task","66","50963","73","yes","1024"
"3.257359335","8","6","brew","word","90.54054054054055","90.54054054054055","696.918918918919","696.918918918919","black","no","legacy","legacy","legacy","0","uniform","1","undefined","undefined","undefined","1","j","0","0","0","0","73","0","0","0","73","0","69","73","69","0","69","3","73","0","73","Tue Mar 16 10:16:09 2021","The main experiment item","yes","Lexical_Decision_Task.osexp","C:/Users/talia/Documents","no","Andale Mono","no","18","no","white","no","yes","576","legacy","69","69","3","C:/Users/talia/Documents/subject-5128817 LDT.csv","legacy","Lentiform Loewenfeld","3.3.8","yes","yes","600bd7cfb6416f0113b04181","602110864497cf011d9c0822","0","j","NA","j","j","j","space","j","609","NA","2918","11087","6430","4477","609","2","legacy","1024","2","48000","-16","task","5128817","odd","NA","30680","35600","32681","169097","3969","21489","15058","169598","127547","169095","169598","169009","35600","170209","28953","168509","3964","165735","Lexical Decision Task","67","51572","74","yes","1024"
"2.924968096","0","4","phim","non-word","90.66666666666667","90.66666666666667","695.8","695.8","black","no","legacy","legacy","legacy","0","uniform","1","undefined","undefined","undefined","1","f","0","0","0","0","74","0","0","0","74","0","70","74","70","0","70","3","74","0","74","Tue Mar 16 10:16:09 2021","The main experiment item","yes","Lexical_Decision_Task.osexp","C:/Users/talia/Documents","no","Andale Mono","no","18","no","white","no","yes","576","legacy","70","70","3","C:/Users/talia/Documents/subject-5128817 LDT.csv","legacy","Lentiform Loewenfeld","3.3.8","yes","yes","600bd7cfb6416f0113b04181","602110864497cf011d9c0822","0","f","NA","j","j","j","space","f","613","NA","2918","11087","6430","4477","613","2","legacy","1024","2","48000","-16","task","5128817","odd","NA","30680","35600","32681","170803","3969","21489","15058","171307","127547","170802","171307","170714","35600","171921","28953","170214","3964","165735","Lexical Decision Task","68","52185","75","yes","1024"
"3.384413096","10.15","3","glad","word","90.78947368421052","90.78947368421052","696.5263157894736","696.5263157894736","black","no","legacy","legacy","legacy","0","uniform","1","undefined","undefined","undefined","1","j","0","0","0","0","75","0","0","0","75","0","71","75","71","0","71","3","75","0","75","Tue Mar 16 10:16:09 2021","The main experiment item","yes","Lexical_Decision_Task.osexp","C:/Users/talia/Documents","no","Andale Mono","no","18","no","white","no","yes","576","legacy","71","71","3","C:/Users/talia/Documents/subject-5128817 LDT.csv","legacy","Lentiform Loewenfeld","3.3.8","yes","yes","600bd7cfb6416f0113b04181","602110864497cf011d9c0822","0","j","NA","j","j","j","space","j","751","NA","2918","11087","6430","4477","751","2","legacy","1024","2","48000","-16","task","5128817","odd","NA","30680","35600","32681","172514","3969","21489","15058","173017","127547","172513","173017","172427","35600","173769","28953","171927","3964","165735","Lexical Decision Task","69","52936","76","yes","1024"
"3.156347201","0","8","lasp","non-word","90.9090909090909","90.9090909090909","697.4545454545455","697.4545454545455","black","no","legacy","legacy","legacy","0","uniform","1","undefined","undefined","undefined","1","f","0","0","0","0","76","0","0","0","76","0","72","76","72","0","72","3","76","0","76","Tue Mar 16 10:16:09 2021","The main experiment item","yes","Lexical_Decision_Task.osexp","C:/Users/talia/Documents","no","Andale Mono","no","18","no","white","no","yes","576","legacy","72","72","3","C:/Users/talia/Documents/subject-5128817 LDT.csv","legacy","Lentiform Loewenfeld","3.3.8","yes","yes","600bd7cfb6416f0113b04181","602110864497cf011d9c0822","0","f","NA","j","j","j","space","f","768","NA","2918","11087","6430","4477","768","2","legacy","1024","2","48000","-16","task","5128817","odd","NA","30680","35600","32681","174360","3969","21489","15058","174863","127547","174358","174863","174273","35600","175633","28953","173773","3964","165735","Lexical Decision Task","70","53704","77","yes","1024"
"3.531734309","0","6","lerd","non-word","91.02564102564102","91.02564102564102","699.2179487179487","699.2179487179487","black","no","legacy","legacy","legacy","0","uniform","1","undefined","undefined","undefined","1","f","0","0","0","0","77","0","0","0","77","0","73","77","73","0","73","3","77","0","77","Tue Mar 16 10:16:09 2021","The main experiment item","yes","Lexical_Decision_Task.osexp","C:/Users/talia/Documents","no","Andale Mono","no","18","no","white","no","yes","576","legacy","73","73","3","C:/Users/talia/Documents/subject-5128817 LDT.csv","legacy","Lentiform Loewenfeld","3.3.8","yes","yes","600bd7cfb6416f0113b04181","602110864497cf011d9c0822","0","f","NA","j","j","j","space","f","835","NA","2918","11087","6430","4477","835","2","legacy","1024","2","48000","-16","task","5128817","odd","NA","30680","35600","32681","176223","3969","21489","15058","176724","127547","176221","176724","176138","35600","177561","28953","175638","3964","165735","Lexical Decision Task","71","54539","78","yes","1024"
"2.819763221","0","2","durp","non-word","91.13924050632912","91.13924050632912","699.367088607595","699.367088607595","black","no","legacy","legacy","legacy","0","uniform","1","undefined","undefined","undefined","1","f","0","0","0","0","78","0","0","0","78","0","74","78","74","0","74","3","78","0","78","Tue Mar 16 10:16:09 2021","The main experiment item","yes","Lexical_Decision_Task.osexp","C:/Users/talia/Documents","no","Andale Mono","no","18","no","white","no","yes","576","legacy","74","74","3","C:/Users/talia/Documents/subject-5128817 LDT.csv","legacy","Lentiform Loewenfeld","3.3.8","yes","yes","600bd7cfb6416f0113b04181","602110864497cf011d9c0822","0","f","NA","j","j","j","space","f","711","NA","2918","11087","6430","4477","711","2","legacy","1024","2","48000","-16","task","5128817","odd","NA","30680","35600","32681","178154","3969","21489","15058","178657","127547","178152","178657","178066","35600","179370","28953","177566","3964","165735","Lexical Decision Task","72","55250","79","yes","1024"
"3.481012421","8.34","5","teen","word","91.25","91.25","698.4125","698.4125","black","no","legacy","legacy","legacy","0","uniform","1","undefined","undefined","undefined","1","j","0","0","0","0","79","0","0","0","79","0","75","79","75","0","75","3","79","0","79","Tue Mar 16 10:16:09 2021","The main experiment item","yes","Lexical_Decision_Task.osexp","C:/Users/talia/Documents","no","Andale Mono","no","18","no","white","no","yes","576","legacy","75","75","3","C:/Users/talia/Documents/subject-5128817 LDT.csv","legacy","Lentiform Loewenfeld","3.3.8","yes","yes","600bd7cfb6416f0113b04181","602110864497cf011d9c0822","0","j","NA","j","j","j","space","j","623","NA","2918","11087","6430","4477","623","2","legacy","1024","2","48000","-16","task","5128817","odd","NA","30680","35600","32681","179961","3969","21489","15058","180464","127547","179959","180464","179875","35600","181089","28953","179375","3964","165735","Lexical Decision Task","73","55873","80","yes","1024"
"3.100255637","0","6","brax","non-word","91.35802469135803","91.35802469135803","697.9012345679013","697.9012345679013","black","no","legacy","legacy","legacy","0","uniform","1","undefined","undefined","undefined","1","f","0","0","0","0","80","0","0","0","80","0","76","80","76","0","76","3","80","0","80","Tue Mar 16 10:16:09 2021","The main experiment item","yes","Lexical_Decision_Task.osexp","C:/Users/talia/Documents","no","Andale Mono","no","18","no","white","no","yes","576","legacy","76","76","3","C:/Users/talia/Documents/subject-5128817 LDT.csv","legacy","Lentiform Loewenfeld","3.3.8","yes","yes","600bd7cfb6416f0113b04181","602110864497cf011d9c0822","0","f","NA","j","j","j","space","f","657","NA","2918","11087","6430","4477","657","2","legacy","1024","2","48000","-16","task","5128817","odd","NA","30680","35600","32681","181681","3969","21489","15058","182183","127547","181679","182183","181595","35600","182841","28953","181095","3964","165735","Lexical Decision Task","74","56530","81","yes","1024"
"3.039414119","0","9","meep","non-word","91.46341463414635","91.46341463414635","700.890243902439","700.890243902439","black","no","legacy","legacy","legacy","0","uniform","1","undefined","undefined","undefined","1","f","0","0","0","0","81","0","0","0","81","0","77","81","77","0","77","3","81","0","81","Tue Mar 16 10:16:09 2021","The main experiment item","yes","Lexical_Decision_Task.osexp","C:/Users/talia/Documents","no","Andale Mono","no","18","no","white","no","yes","576","legacy","77","77","3","C:/Users/talia/Documents/subject-5128817 LDT.csv","legacy","Lentiform Loewenfeld","3.3.8","yes","yes","600bd7cfb6416f0113b04181","602110864497cf011d9c0822","0","f","NA","j","j","j","space","f","943","NA","2918","11087","6430","4477","943","2","legacy","1024","2","48000","-16","task","5128817","odd","NA","30680","35600","32681","183433","3969","21489","15058","183936","127547","183432","183937","183347","35600","184881","28953","182847","3964","165735","Lexical Decision Task","75","57473","82","yes","1024"
"2.695770526","7.34","6","pawn","word","91.56626506024097","91.56626506024097","699.3614457831326","699.3614457831326","black","no","legacy","legacy","legacy","0","uniform","1","undefined","undefined","undefined","1","j","0","0","0","0","82","0","0","0","82","0","78","82","78","0","78","3","82","0","82","Tue Mar 16 10:16:09 2021","The main experiment item","yes","Lexical_Decision_Task.osexp","C:/Users/talia/Documents","no","Andale Mono","no","18","no","white","no","yes","576","legacy","78","78","3","C:/Users/talia/Documents/subject-5128817 LDT.csv","legacy","Lentiform Loewenfeld","3.3.8","yes","yes","600bd7cfb6416f0113b04181","602110864497cf011d9c0822","0","j","NA","j","j","j","space","j","574","NA","2918","11087","6430","4477","574","2","legacy","1024","2","48000","-16","task","5128817","odd","NA","30680","35600","32681","185474","3969","21489","15058","185977","127547","185472","185977","185387","35600","186554","28953","184887","3964","165735","Lexical Decision Task","76","58047","83","yes","1024"
"2.664011697","8.19","4","hawk","word","91.66666666666667","91.66666666666667","697.9642857142857","697.9642857142857","black","no","legacy","legacy","legacy","0","uniform","1","undefined","undefined","undefined","1","j","0","0","0","0","83","0","0","0","83","0","79","83","79","0","79","3","83","0","83","Tue Mar 16 10:16:09 2021","The main experiment item","yes","Lexical_Decision_Task.osexp","C:/Users/talia/Documents","no","Andale Mono","no","18","no","white","no","yes","576","legacy","79","79","3","C:/Users/talia/Documents/subject-5128817 LDT.csv","legacy","Lentiform Loewenfeld","3.3.8","yes","yes","600bd7cfb6416f0113b04181","602110864497cf011d9c0822","0","j","NA","j","j","j","space","j","582","NA","2918","11087","6430","4477","582","2","legacy","1024","2","48000","-16","task","5128817","odd","NA","30680","35600","32681","187147","3969","21489","15058","187650","127547","187145","187650","187059","35600","188234","28953","186559","3964","165735","Lexical Decision Task","77","58629","84","yes","1024"
"3.120135028","0","3","vals","non-word","91.76470588235294","91.76470588235294","697.6","697.6","black","no","legacy","legacy","legacy","0","uniform","1","undefined","undefined","undefined","1","f","0","0","0","0","84","0","0","0","84","0","80","84","80","0","80","3","84","0","84","Tue Mar 16 10:16:09 2021","The main experiment item","yes","Lexical_Decision_Task.osexp","C:/Users/talia/Documents","no","Andale Mono","no","18","no","white","no","yes","576","legacy","80","80","3","C:/Users/talia/Documents/subject-5128817 LDT.csv","legacy","Lentiform Loewenfeld","3.3.8","yes","yes","600bd7cfb6416f0113b04181","602110864497cf011d9c0822","0","f","NA","j","j","j","space","f","667","NA","2918","11087","6430","4477","667","2","legacy","1024","2","48000","-16","task","5128817","odd","NA","30680","35600","32681","188824","3969","21489","15058","189325","127547","188822","189325","188739","35600","189994","28953","188239","3964","165735","Lexical Decision Task","78","59296","85","yes","1024"
"2.899092422","7.27","6","snag","word","91.86046511627907","91.86046511627907","697.2441860465116","697.2441860465116","black","no","legacy","legacy","legacy","0","uniform","1","undefined","undefined","undefined","1","j","0","0","0","0","85","0","0","0","85","0","81","85","81","0","81","3","85","0","85","Tue Mar 16 10:16:09 2021","The main experiment item","yes","Lexical_Decision_Task.osexp","C:/Users/talia/Documents","no","Andale Mono","no","18","no","white","no","yes","576","legacy","81","81","3","C:/Users/talia/Documents/subject-5128817 LDT.csv","legacy","Lentiform Loewenfeld","3.3.8","yes","yes","600bd7cfb6416f0113b04181","602110864497cf011d9c0822","0","j","NA","j","j","j","space","j","667","NA","2918","11087","6430","4477","667","2","legacy","1024","2","48000","-16","task","5128817","odd","NA","30680","35600","32681","190588","3969","21489","15058","191091","127547","190586","191092","190499","35600","191761","28953","189999","3964","165735","Lexical Decision Task","79","59963","86","yes","1024"
"3.091901331","0","9","nipe","non-word","91.95402298850574","91.95402298850574","696.6436781609195","696.6436781609195","black","no","legacy","legacy","legacy","0","uniform","1","undefined","undefined","undefined","1","f","0","0","0","0","86","0","0","0","86","0","82","86","82","0","82","3","86","0","86","Tue Mar 16 10:16:09 2021","The main experiment item","yes","Lexical_Decision_Task.osexp","C:/Users/talia/Documents","no","Andale Mono","no","18","no","white","no","yes","576","legacy","82","82","3","C:/Users/talia/Documents/subject-5128817 LDT.csv","legacy","Lentiform Loewenfeld","3.3.8","yes","yes","600bd7cfb6416f0113b04181","602110864497cf011d9c0822","0","f","NA","j","j","j","space","f","645","NA","2918","11087","6430","4477","645","2","legacy","1024","2","48000","-16","task","5128817","odd","NA","30680","35600","32681","192356","3969","21489","15058","192859","127547","192354","192859","192267","35600","193506","28953","191767","3964","165735","Lexical Decision Task","80","60608","87","yes","1024"
"3.197740804","6.74","3","ache","word","92.04545454545455","92.04545454545455","695.2272727272727","695.2272727272727","black","no","legacy","legacy","legacy","0","uniform","1","undefined","undefined","undefined","1","j","0","0","0","0","87","0","0","0","87","0","83","87","83","0","83","3","87","0","87","Tue Mar 16 10:16:09 2021","The main experiment item","yes","Lexical_Decision_Task.osexp","C:/Users/talia/Documents","no","Andale Mono","no","18","no","white","no","yes","576","legacy","83","83","3","C:/Users/talia/Documents/subject-5128817 LDT.csv","legacy","Lentiform Loewenfeld","3.3.8","yes","yes","600bd7cfb6416f0113b04181","602110864497cf011d9c0822","0","j","NA","j","j","j","space","j","572","NA","2918","11087","6430","4477","572","2","legacy","1024","2","48000","-16","task","5128817","odd","NA","30680","35600","32681","194101","3969","21489","15058","194603","127547","194099","194603","194011","35600","195177","28953","193511","3964","165735","Lexical Decision Task","81","61180","88","yes","1024"
"2.979548375","8.71","4","soup","word","92.13483146067416","92.13483146067416","693.561797752809","693.561797752809","black","no","legacy","legacy","legacy","0","uniform","1","undefined","undefined","undefined","1","j","0","0","0","0","88","0","0","0","88","0","84","88","84","0","84","3","88","0","88","Tue Mar 16 10:16:09 2021","The main experiment item","yes","Lexical_Decision_Task.osexp","C:/Users/talia/Documents","no","Andale Mono","no","18","no","white","no","yes","576","legacy","84","84","3","C:/Users/talia/Documents/subject-5128817 LDT.csv","legacy","Lentiform Loewenfeld","3.3.8","yes","yes","600bd7cfb6416f0113b04181","602110864497cf011d9c0822","0","j","NA","j","j","j","space","j","547","NA","2918","11087","6430","4477","547","2","legacy","1024","2","48000","-16","task","5128817","odd","NA","30680","35600","32681","195768","3969","21489","15058","196269","127547","195766","196269","195682","35600","196818","28953","195182","3964","165735","Lexical Decision Task","82","61727","89","yes","1024"
"3.363486562","6.93","9","lush","word","92.22222222222223","92.22222222222223","691.4111111111112","691.4111111111112","black","no","legacy","legacy","legacy","0","uniform","1","undefined","undefined","undefined","1","j","0","0","0","0","89","0","0","0","89","0","85","89","85","0","85","3","89","0","89","Tue Mar 16 10:16:09 2021","The main experiment item","yes","Lexical_Decision_Task.osexp","C:/Users/talia/Documents","no","Andale Mono","no","18","no","white","no","yes","576","legacy","85","85","3","C:/Users/talia/Documents/subject-5128817 LDT.csv","legacy","Lentiform Loewenfeld","3.3.8","yes","yes","600bd7cfb6416f0113b04181","602110864497cf011d9c0822","0","j","NA","j","j","j","space","j","500","NA","2918","11087","6430","4477","500","2","legacy","1024","2","48000","-16","task","5128817","odd","NA","30680","35600","32681","197413","3969","21489","15058","197916","127547","197411","197916","197324","35600","198418","28953","196824","3964","165735","Lexical Decision Task","83","62227","90","yes","1024"
"2.594027722","9.08","8","skip","word","92.3076923076923","92.3076923076923","689.1098901098901","689.1098901098901","black","no","legacy","legacy","legacy","0","uniform","1","undefined","undefined","undefined","1","j","0","0","0","0","90","0","0","0","90","0","86","90","86","0","86","3","90","0","90","Tue Mar 16 10:16:09 2021","The main experiment item","yes","Lexical_Decision_Task.osexp","C:/Users/talia/Documents","no","Andale Mono","no","18","no","white","no","yes","576","legacy","86","86","3","C:/Users/talia/Documents/subject-5128817 LDT.csv","legacy","Lentiform Loewenfeld","3.3.8","yes","yes","600bd7cfb6416f0113b04181","602110864497cf011d9c0822","0","j","NA","j","j","j","space","j","482","NA","2918","11087","6430","4477","482","2","legacy","1024","2","48000","-16","task","5128817","odd","NA","30680","35600","32681","199009","3969","21489","15058","199510","127547","199007","199510","198924","35600","199993","28953","198423","3964","165735","Lexical Decision Task","84","62709","91","yes","1024"
"2.708989954","9.28","9","bowl","word","92.3913043478261","92.3913043478261","686.9347826086956","686.9347826086956","black","no","legacy","legacy","legacy","0","uniform","1","undefined","undefined","undefined","1","j","0","0","0","0","91","0","0","0","91","0","87","91","87","0","87","3","91","0","91","Tue Mar 16 10:16:09 2021","The main experiment item","yes","Lexical_Decision_Task.osexp","C:/Users/talia/Documents","no","Andale Mono","no","18","no","white","no","yes","576","legacy","87","87","3","C:/Users/talia/Documents/subject-5128817 LDT.csv","legacy","Lentiform Loewenfeld","3.3.8","yes","yes","600bd7cfb6416f0113b04181","602110864497cf011d9c0822","0","j","NA","j","j","j","space","j","489","NA","2918","11087","6430","4477","489","2","legacy","1024","2","48000","-16","task","5128817","odd","NA","30680","35600","32681","200585","3969","21489","15058","201086","127547","200583","201086","200499","35600","201577","28953","199999","3964","165735","Lexical Decision Task","85","63198","92","yes","1024"
"3.307211407","6.07","7","honk","word","92.47311827956989","92.47311827956989","685.1290322580645","685.1290322580645","black","no","legacy","legacy","legacy","0","uniform","1","undefined","undefined","undefined","1","j","0","0","0","0","92","0","0","0","92","0","88","92","88","0","88","3","92","0","92","Tue Mar 16 10:16:09 2021","The main experiment item","yes","Lexical_Decision_Task.osexp","C:/Users/talia/Documents","no","Andale Mono","no","18","no","white","no","yes","576","legacy","88","88","3","C:/Users/talia/Documents/subject-5128817 LDT.csv","legacy","Lentiform Loewenfeld","3.3.8","yes","yes","600bd7cfb6416f0113b04181","602110864497cf011d9c0822","0","j","NA","j","j","j","space","j","519","NA","2918","11087","6430","4477","519","2","legacy","1024","2","48000","-16","task","5128817","odd","NA","30680","35600","32681","202171","3969","21489","15058","202673","127547","202169","202673","202083","35600","203194","28953","201583","3964","165735","Lexical Decision Task","86","63717","93","yes","1024"
"3.374137706","10.21","4","tree","word","92.55319148936171","92.55319148936171","684.1063829787234","684.1063829787234","black","no","legacy","legacy","legacy","0","uniform","1","undefined","undefined","undefined","1","j","0","0","0","0","93","0","0","0","93","0","89","93","89","0","89","3","93","0","93","Tue Mar 16 10:16:09 2021","The main experiment item","yes","Lexical_Decision_Task.osexp","C:/Users/talia/Documents","no","Andale Mono","no","18","no","white","no","yes","576","legacy","89","89","3","C:/Users/talia/Documents/subject-5128817 LDT.csv","legacy","Lentiform Loewenfeld","3.3.8","yes","yes","600bd7cfb6416f0113b04181","602110864497cf011d9c0822","0","j","NA","j","j","j","space","j","589","NA","2918","11087","6430","4477","589","2","legacy","1024","2","48000","-16","task","5128817","odd","NA","30680","35600","32681","203788","3969","21489","15058","204291","127547","203786","204291","203700","35600","204882","28953","203200","3964","165735","Lexical Decision Task","87","64306","94","yes","1024"
"2.972819734","0","4","scew","non-word","91.57894736842105","91.57894736842105","682.1578947368421","682.1578947368421","black","no","legacy","legacy","legacy","0","uniform","0","undefined","undefined","undefined","0","f","0","0","0","0","94","0","0","0","94","0","90","94","90","0","90","3","94","0","94","Tue Mar 16 10:16:09 2021","The main experiment item","yes","Lexical_Decision_Task.osexp","C:/Users/talia/Documents","no","Andale Mono","no","18","no","white","no","yes","576","legacy","90","90","3","C:/Users/talia/Documents/subject-5128817 LDT.csv","legacy","Lentiform Loewenfeld","3.3.8","yes","yes","600bd7cfb6416f0113b04181","602110864497cf011d9c0822","0","j","NA","j","j","j","space","j","499","NA","2918","11087","6430","4477","499","2","legacy","1024","2","48000","-16","task","5128817","odd","NA","30680","35600","32681","205472","3969","21489","15058","205973","127547","205470","205973","205387","35600","206473","28953","204887","3964","165735","Lexical Decision Task","87","64805","95","yes","1024"
"2.838639236","0","4","furg","non-word","91.66666666666667","91.66666666666667","680.75","680.75","black","no","legacy","legacy","legacy","0","uniform","1","undefined","undefined","undefined","1","f","0","0","0","0","95","0","0","0","95","0","91","95","91","0","91","3","95","0","95","Tue Mar 16 10:16:09 2021","The main experiment item","yes","Lexical_Decision_Task.osexp","C:/Users/talia/Documents","no","Andale Mono","no","18","no","white","no","yes","576","legacy","91","91","3","C:/Users/talia/Documents/subject-5128817 LDT.csv","legacy","Lentiform Loewenfeld","3.3.8","yes","yes","600bd7cfb6416f0113b04181","602110864497cf011d9c0822","0","f","NA","j","j","j","space","f","547","NA","2918","11087","6430","4477","547","2","legacy","1024","2","48000","-16","task","5128817","odd","NA","30680","35600","32681","208071","3969","21489","15058","208572","127547","208070","208572","207978","35600","209121","28953","204887","3964","206478","Lexical Decision Task","88","65352","96","yes","1024"
"3.302475237","0","7","leel","non-word","91.75257731958763","91.75257731958763","679.4123711340206","679.4123711340206","black","no","legacy","legacy","legacy","0","uniform","1","undefined","undefined","undefined","1","f","0","0","0","0","96","0","0","0","96","0","92","96","92","0","92","3","96","0","96","Tue Mar 16 10:16:09 2021","The main experiment item","yes","Lexical_Decision_Task.osexp","C:/Users/talia/Documents","no","Andale Mono","no","18","no","white","no","yes","576","legacy","92","92","3","C:/Users/talia/Documents/subject-5128817 LDT.csv","legacy","Lentiform Loewenfeld","3.3.8","yes","yes","600bd7cfb6416f0113b04181","602110864497cf011d9c0822","0","f","NA","j","j","j","space","f","551","NA","2918","11087","6430","4477","551","2","legacy","1024","2","48000","-16","task","5128817","odd","NA","30680","35600","32681","209714","3969","21489","15058","210217","127547","209712","210217","209627","35600","210770","28953","209127","3964","206478","Lexical Decision Task","89","65903","97","yes","1024"
"3.353210739","0","9","reet","non-word","91.83673469387755","91.83673469387755","679.1224489795918","679.1224489795918","black","no","legacy","legacy","legacy","0","uniform","1","undefined","undefined","undefined","1","f","0","0","0","0","97","0","0","0","97","0","93","97","93","0","93","3","97","0","97","Tue Mar 16 10:16:09 2021","The main experiment item","yes","Lexical_Decision_Task.osexp","C:/Users/talia/Documents","no","Andale Mono","no","18","no","white","no","yes","576","legacy","93","93","3","C:/Users/talia/Documents/subject-5128817 LDT.csv","legacy","Lentiform Loewenfeld","3.3.8","yes","yes","600bd7cfb6416f0113b04181","602110864497cf011d9c0822","0","f","NA","j","j","j","space","f","651","NA","2918","11087","6430","4477","651","2","legacy","1024","2","48000","-16","task","5128817","odd","NA","30680","35600","32681","211374","3969","21489","15058","211877","127547","211372","211877","211275","35600","212530","28953","210775","3964","206478","Lexical Decision Task","90","66554","98","yes","1024"
"3.22685757","9.99","7","roll","word","91.91919191919192","91.91919191919192","678.4848484848485","678.4848484848485","black","no","legacy","legacy","legacy","0","uniform","1","undefined","undefined","undefined","1","j","0","0","0","0","98","0","0","0","98","0","94","98","94","0","94","3","98","0","98","Tue Mar 16 10:16:09 2021","The main experiment item","yes","Lexical_Decision_Task.osexp","C:/Users/talia/Documents","no","Andale Mono","no","18","no","white","no","yes","576","legacy","94","94","3","C:/Users/talia/Documents/subject-5128817 LDT.csv","legacy","Lentiform Loewenfeld","3.3.8","yes","yes","600bd7cfb6416f0113b04181","602110864497cf011d9c0822","0","j","NA","j","j","j","space","j","616","NA","2918","11087","6430","4477","616","2","legacy","1024","2","48000","-16","task","5128817","odd","NA","30680","35600","32681","213121","3969","21489","15058","213622","127547","213119","213623","213036","35600","214241","28953","212536","3964","206478","Lexical Decision Task","91","67170","99","yes","1024"
"2.75025376","10.2","6","jump","word","92","92","676.84","676.84","black","no","legacy","legacy","legacy","0","uniform","1","undefined","undefined","undefined","1","j","0","0","0","0","99","0","0","0","99","0","95","99","95","0","95","3","99","0","99","Tue Mar 16 10:16:09 2021","The main experiment item","yes","Lexical_Decision_Task.osexp","C:/Users/talia/Documents","no","Andale Mono","no","18","no","white","no","yes","576","legacy","95","95","3","C:/Users/talia/Documents/subject-5128817 LDT.csv","legacy","Lentiform Loewenfeld","3.3.8","yes","yes","600bd7cfb6416f0113b04181","602110864497cf011d9c0822","0","j","NA","j","j","j","space","j","514","NA","2918","11087","6430","4477","514","2","legacy","1024","2","48000","-16","task","5128817","odd","NA","30680","35600","32681","214831","3969","21489","15058","215332","127547","214829","215333","214746","35600","215849","28953","214246","3964","206478","Lexical Decision Task","92","67684","100","yes","1024"
"3.195807436","0","6","stup","non-word","92.07920792079207","92.07920792079207","676.0297029702971","676.0297029702971","black","no","legacy","legacy","legacy","0","uniform","1","undefined","undefined","undefined","1","f","0","0","0","0","100","0","0","0","100","0","96","100","96","0","96","3","100","0","100","Tue Mar 16 10:16:09 2021","The main experiment item","yes","Lexical_Decision_Task.osexp","C:/Users/talia/Documents","no","Andale Mono","no","18","no","white","no","yes","576","legacy","96","96","3","C:/Users/talia/Documents/subject-5128817 LDT.csv","legacy","Lentiform Loewenfeld","3.3.8","yes","yes","600bd7cfb6416f0113b04181","602110864497cf011d9c0822","0","f","NA","j","j","j","space","f","595","NA","2918","11087","6430","4477","595","2","legacy","1024","2","48000","-16","task","5128817","odd","NA","30680","35600","32681","216440","3969","21489","15058","216941","127547","216438","216941","216355","35600","217539","28953","215855","3964","206478","Lexical Decision Task","93","68279","101","yes","1024"
"3.269668578","0","7","trag","non-word","92.15686274509804","92.15686274509804","676.3627450980392","676.3627450980392","black","no","legacy","legacy","legacy","0","uniform","1","undefined","undefined","undefined","1","f","0","0","0","0","101","0","0","0","101","0","97","101","97","0","97","3","101","0","101","Tue Mar 16 10:16:09 2021","The main experiment item","yes","Lexical_Decision_Task.osexp","C:/Users/talia/Documents","no","Andale Mono","no","18","no","white","no","yes","576","legacy","97","97","3","C:/Users/talia/Documents/subject-5128817 LDT.csv","legacy","Lentiform Loewenfeld","3.3.8","yes","yes","600bd7cfb6416f0113b04181","602110864497cf011d9c0822","0","f","NA","j","j","j","space","f","710","NA","2918","11087","6430","4477","710","2","legacy","1024","2","48000","-16","task","5128817","odd","NA","30680","35600","32681","218132","3969","21489","15058","218633","127547","218131","218634","218044","35600","219346","28953","217544","3964","206478","Lexical Decision Task","94","68989","102","yes","1024"
