"Log_BG","Log_Freq_HAL","Ortho_N","Stimulus","Type","acc","accuracy","average_response_time","avg_rt","background","bidi","canvas_backend","clock_backend","color_backend","compensation","coordinates","correct","correct_Experimental_intro","correct_Introduction","correct_Practice_intro","correct_experimenter_kb","correct_response","count_End_Of_Experiment","count_End_Of_Practice","count_Experimental_Loop","count_Experimental_intro","count_Fixation","count_Introduction","count_Practice_Loop","count_Practice_intro","count_Stimulus","count_block_break_feedback","count_experimental_sequence","count_experimenter_kb","count_increment_trial_count","count_init_trial_count","count_logger","count_practice_sequence","count_right","count_task","count_wrong","datetime","description","disable_garbage_collection","experiment_file","experiment_path","font_bold","font_family","font_italic","font_size","font_underline","foreground","form_clicks","fullscreen","height","keyboard_backend","live_row","live_row_Experimental_Loop","live_row_Practice_Loop","logfile","mouse_backend","opensesame_codename","opensesame_version","osf_always_upload_data","osf_always_upload_experiment","osf_datanode_id","osf_id","repeat_cycle","response","response_End_Of_Experiment","response_Experimental_intro","response_Introduction","response_Practice_intro","response_block_break_feedback","response_experimenter_kb","response_time","response_time_End_Of_Experiment","response_time_Experimental_intro","response_time_Introduction","response_time_Practice_intro","response_time_block_break_feedback","response_time_experimenter_kb","round_decimals","sampler_backend","sound_buf_size","sound_channels","sound_freq","sound_sample_size","start","subject_nr","subject_parity","time_End_Of_Experiment","time_End_Of_Practice","time_Experimental_Loop","time_Experimental_intro","time_Fixation","time_Introduction","time_Practice_Loop","time_Practice_intro","time_Stimulus","time_block_break_feedback","time_experimental_sequence","time_experimenter_kb","time_increment_trial_count","time_init_trial_count","time_logger","time_practice_sequence","time_right","time_task","time_wrong","title","total_correct","total_response_time","total_responses","uniform_coordinates","width"
"3.197740804","6.74","3","ache","word","100","100","989.8","989.8","black","no","legacy","legacy","legacy","0","uniform","1","undefined","undefined","undefined","1","j","0","0","0","0","4","0","0","0","4","NA","0","4","0","0","0","3","4","0","4","Thu Feb 18 14:59:03 2021","The main experiment item","yes","Lexical_Decision_Task.osexp","/Users/SophieHeath/Desktop","no","Andale Mono","no","18","no","white","no","yes","576","legacy","0","0","3","/Users/SophieHeath/Desktop/subject-5072186.csv","legacy","Lentiform Loewenfeld","3.3.7","yes","yes","600bd7cfb6416f0113b04181","602110864497cf011d9c0822","0","j","NA","space","space","space","NA","j","906","NA","8172","14467","14176","NA","906","2","legacy","1024","2","48000","-16","task","5072186","even","NA","48046","58225","50052","58271","10622","39358","25181","58776","NA","58264","58777","NA","58225","59684","46283","47502","10077","NA","Lexical Decision Task","5","4949","5","yes","1024"
"3.066077331","0","7","vorn","non-word","100","100","948.6666666666666","948.6666666666666","black","no","legacy","legacy","legacy","0","uniform","1","undefined","undefined","undefined","1","f","0","0","0","0","5","0","0","0","5","NA","1","5","1","0","1","3","5","0","5","Thu Feb 18 14:59:03 2021","The main experiment item","yes","Lexical_Decision_Task.osexp","/Users/SophieHeath/Desktop","no","Andale Mono","no","18","no","white","no","yes","576","legacy","1","1","3","/Users/SophieHeath/Desktop/subject-5072186.csv","legacy","Lentiform Loewenfeld","3.3.7","yes","yes","600bd7cfb6416f0113b04181","602110864497cf011d9c0822","0","f","NA","space","space","space","NA","f","743","NA","8172","14467","14176","NA","743","2","legacy","1024","2","48000","-16","task","5072186","even","NA","48046","58225","50052","60296","10622","39358","25181","60799","NA","60292","60800","60203","58225","61545","46283","59703","10077","NA","Lexical Decision Task","6","5692","6","yes","1024"
"2.95456409","0","4","taud","non-word","100","100","900.4285714285714","900.4285714285714","black","no","legacy","legacy","legacy","0","uniform","1","undefined","undefined","undefined","1","f","0","0","0","0","6","0","0","0","6","NA","2","6","2","0","2","3","6","0","6","Thu Feb 18 14:59:03 2021","The main experiment item","yes","Lexical_Decision_Task.osexp","/Users/SophieHeath/Desktop","no","Andale Mono","no","18","no","white","no","yes","576","legacy","2","2","3","/Users/SophieHeath/Desktop/subject-5072186.csv","legacy","Lentiform Loewenfeld","3.3.7","yes","yes","600bd7cfb6416f0113b04181","602110864497cf011d9c0822","0","f","NA","space","space","space","NA","f","611","NA","8172","14467","14176","NA","611","2","legacy","1024","2","48000","-16","task","5072186","even","NA","48046","58225","50052","62126","10622","39358","25181","62629","NA","62123","62630","62053","58225","63242","46283","61553","10077","NA","Lexical Decision Task","7","6303","7","yes","1024"
"2.880623071","0","9","curp","non-word","100","100","880.75","880.75","black","no","legacy","legacy","legacy","0","uniform","1","undefined","undefined","undefined","1","f","0","0","0","0","7","0","0","0","7","NA","3","7","3","0","3","3","7","0","7","Thu Feb 18 14:59:03 2021","The main experiment item","yes","Lexical_Decision_Task.osexp","/Users/SophieHeath/Desktop","no","Andale Mono","no","18","no","white","no","yes","576","legacy","3","3","3","/Users/SophieHeath/Desktop/subject-5072186.csv","legacy","Lentiform Loewenfeld","3.3.7","yes","yes","600bd7cfb6416f0113b04181","602110864497cf011d9c0822","0","f","NA","space","space","space","NA","f","743","NA","8172","14467","14176","NA","743","2","legacy","1024","2","48000","-16","task","5072186","even","NA","48046","58225","50052","63836","10622","39358","25181","64339","NA","63832","64340","63748","58225","65084","46283","63248","10077","NA","Lexical Decision Task","8","7046","8","yes","1024"
"3.22685757","9.99","7","roll","word","100","100","839.4444444444445","839.4444444444445","black","no","legacy","legacy","legacy","0","uniform","1","undefined","undefined","undefined","1","j","0","0","0","0","8","0","0","0","8","NA","4","8","4","0","4","3","8","0","8","Thu Feb 18 14:59:03 2021","The main experiment item","yes","Lexical_Decision_Task.osexp","/Users/SophieHeath/Desktop","no","Andale Mono","no","18","no","white","no","yes","576","legacy","4","4","3","/Users/SophieHeath/Desktop/subject-5072186.csv","legacy","Lentiform Loewenfeld","3.3.7","yes","yes","600bd7cfb6416f0113b04181","602110864497cf011d9c0822","0","j","NA","space","space","space","NA","j","509","NA","8172","14467","14176","NA","509","2","legacy","1024","2","48000","-16","task","5072186","even","NA","48046","58225","50052","65654","10622","39358","25181","66157","NA","65651","66158","65591","58225","66668","46283","65090","10077","NA","Lexical Decision Task","9","7555","9","yes","1024"
"3.481012421","8.34","5","teen","word","100","100","803","803","black","no","legacy","legacy","legacy","0","uniform","1","undefined","undefined","undefined","1","j","0","0","0","0","9","0","0","0","9","NA","5","9","5","0","5","3","9","0","9","Thu Feb 18 14:59:03 2021","The main experiment item","yes","Lexical_Decision_Task.osexp","/Users/SophieHeath/Desktop","no","Andale Mono","no","18","no","white","no","yes","576","legacy","5","5","3","/Users/SophieHeath/Desktop/subject-5072186.csv","legacy","Lentiform Loewenfeld","3.3.7","yes","yes","600bd7cfb6416f0113b04181","602110864497cf011d9c0822","0","j","NA","space","space","space","NA","j","475","NA","8172","14467","14176","NA","475","2","legacy","1024","2","48000","-16","task","5072186","even","NA","48046","58225","50052","67246","10622","39358","25181","67750","NA","67241","67751","67174","58225","68227","46283","66674","10077","NA","Lexical Decision Task","10","8030","10","yes","1024"
"2.696356389","0","1","pizz","non-word","100","100","815.4545454545455","815.4545454545455","black","no","legacy","legacy","legacy","0","uniform","1","undefined","undefined","undefined","1","f","0","0","0","0","10","0","0","0","10","NA","6","10","6","0","6","3","10","0","10","Thu Feb 18 14:59:03 2021","The main experiment item","yes","Lexical_Decision_Task.osexp","/Users/SophieHeath/Desktop","no","Andale Mono","no","18","no","white","no","yes","576","legacy","6","6","3","/Users/SophieHeath/Desktop/subject-5072186.csv","legacy","Lentiform Loewenfeld","3.3.7","yes","yes","600bd7cfb6416f0113b04181","602110864497cf011d9c0822","0","f","NA","space","space","space","NA","f","940","NA","8172","14467","14176","NA","940","2","legacy","1024","2","48000","-16","task","5072186","even","NA","48046","58225","50052","68820","10622","39358","25181","69324","NA","68816","69324","68736","58225","70266","46283","68236","10077","NA","Lexical Decision Task","11","8970","11","yes","1024"
"3.194328374","9.42","6","harm","word","100","100","811","811","black","no","legacy","legacy","legacy","0","uniform","1","undefined","undefined","undefined","1","j","0","0","0","0","11","0","0","0","11","NA","7","11","7","0","7","3","11","0","11","Thu Feb 18 14:59:03 2021","The main experiment item","yes","Lexical_Decision_Task.osexp","/Users/SophieHeath/Desktop","no","Andale Mono","no","18","no","white","no","yes","576","legacy","7","7","3","/Users/SophieHeath/Desktop/subject-5072186.csv","legacy","Lentiform Loewenfeld","3.3.7","yes","yes","600bd7cfb6416f0113b04181","602110864497cf011d9c0822","0","j","NA","space","space","space","NA","j","762","NA","8172","14467","14176","NA","762","2","legacy","1024","2","48000","-16","task","5072186","even","NA","48046","58225","50052","70850","10622","39358","25181","71354","NA","70846","71354","70775","58225","72118","46283","70274","10077","NA","Lexical Decision Task","12","9732","12","yes","1024"
"2.713490543","0","3","feps","non-word","100","100","792.0769230769231","792.0769230769231","black","no","legacy","legacy","legacy","0","uniform","1","undefined","undefined","undefined","1","f","0","0","0","0","12","0","0","0","12","NA","8","12","8","0","8","3","12","0","12","Thu Feb 18 14:59:03 2021","The main experiment item","yes","Lexical_Decision_Task.osexp","/Users/SophieHeath/Desktop","no","Andale Mono","no","18","no","white","no","yes","576","legacy","8","8","3","/Users/SophieHeath/Desktop/subject-5072186.csv","legacy","Lentiform Loewenfeld","3.3.7","yes","yes","600bd7cfb6416f0113b04181","602110864497cf011d9c0822","0","f","NA","space","space","space","NA","f","565","NA","8172","14467","14176","NA","565","2","legacy","1024","2","48000","-16","task","5072186","even","NA","48046","58225","50052","72708","10622","39358","25181","73212","NA","72704","73213","72624","58225","73780","46283","72124","10077","NA","Lexical Decision Task","13","10297","13","yes","1024"
"3.531734309","0","6","lerd","non-word","100","100","895.0714285714286","895.0714285714286","black","no","legacy","legacy","legacy","0","uniform","1","undefined","undefined","undefined","1","f","0","0","0","0","13","0","0","0","13","NA","9","13","9","0","9","3","13","0","13","Thu Feb 18 14:59:03 2021","The main experiment item","yes","Lexical_Decision_Task.osexp","/Users/SophieHeath/Desktop","no","Andale Mono","no","18","no","white","no","yes","576","legacy","9","9","3","/Users/SophieHeath/Desktop/subject-5072186.csv","legacy","Lentiform Loewenfeld","3.3.7","yes","yes","600bd7cfb6416f0113b04181","602110864497cf011d9c0822","0","f","NA","space","space","space","NA","f","2234","NA","8172","14467","14176","NA","2234","2","legacy","1024","2","48000","-16","task","5072186","even","NA","48046","58225","50052","74366","10622","39358","25181","74871","NA","74362","74872","74288","58225","77108","46283","73787","10077","NA","Lexical Decision Task","14","12531","14","yes","1024"
"3.153001286","8.7","5","palm","word","100","100","870.8666666666667","870.8666666666667","black","no","legacy","legacy","legacy","0","uniform","1","undefined","undefined","undefined","1","j","0","0","0","0","14","0","0","0","14","NA","10","14","10","0","10","3","14","0","14","Thu Feb 18 14:59:03 2021","The main experiment item","yes","Lexical_Decision_Task.osexp","/Users/SophieHeath/Desktop","no","Andale Mono","no","18","no","white","no","yes","576","legacy","10","10","3","/Users/SophieHeath/Desktop/subject-5072186.csv","legacy","Lentiform Loewenfeld","3.3.7","yes","yes","600bd7cfb6416f0113b04181","602110864497cf011d9c0822","0","j","NA","space","space","space","NA","j","532","NA","8172","14467","14176","NA","532","2","legacy","1024","2","48000","-16","task","5072186","even","NA","48046","58225","50052","77687","10622","39358","25181","78192","NA","77683","78192","77616","58225","78726","46283","77116","10077","NA","Lexical Decision Task","15","13063","15","yes","1024"
"2.895974732","6.65","5","sift","word","93.75","93.75","859.1875","859.1875","black","no","legacy","legacy","legacy","0","uniform","0","undefined","undefined","undefined","0","j","0","0","0","0","15","0","0","0","15","NA","11","15","11","0","11","3","15","0","15","Thu Feb 18 14:59:03 2021","The main experiment item","yes","Lexical_Decision_Task.osexp","/Users/SophieHeath/Desktop","no","Andale Mono","no","18","no","white","no","yes","576","legacy","11","11","3","/Users/SophieHeath/Desktop/subject-5072186.csv","legacy","Lentiform Loewenfeld","3.3.7","yes","yes","600bd7cfb6416f0113b04181","602110864497cf011d9c0822","0","f","NA","space","space","space","NA","f","684","NA","8172","14467","14176","NA","684","2","legacy","1024","2","48000","-16","task","5072186","even","NA","48046","58225","50052","79311","10622","39358","25181","79816","NA","79308","79816","79237","58225","80501","46283","78737","10077","NA","Lexical Decision Task","15","13747","16","yes","1024"
"2.980306438","0","7","slun","non-word","94.11764705882354","94.11764705882354","888.1176470588235","888.1176470588235","black","no","legacy","legacy","legacy","0","uniform","1","undefined","undefined","undefined","1","f","0","0","0","0","16","0","0","0","16","NA","12","16","12","0","12","3","16","0","16","Thu Feb 18 14:59:03 2021","The main experiment item","yes","Lexical_Decision_Task.osexp","/Users/SophieHeath/Desktop","no","Andale Mono","no","18","no","white","no","yes","576","legacy","12","12","3","/Users/SophieHeath/Desktop/subject-5072186.csv","legacy","Lentiform Loewenfeld","3.3.7","yes","yes","600bd7cfb6416f0113b04181","602110864497cf011d9c0822","0","f","NA","space","space","space","NA","f","1351","NA","8172","14467","14176","NA","1351","2","legacy","1024","2","48000","-16","task","5072186","even","NA","48046","58225","50052","82089","10622","39358","25181","82591","NA","82086","82592","82008","58225","83944","46283","78737","10077","80508","Lexical Decision Task","16","15098","17","yes","1024"
"3.366547468","0","6","plat","non-word","88.88888888888889","88.88888888888889","917.5555555555555","917.5555555555555","black","no","legacy","legacy","legacy","0","uniform","0","undefined","undefined","undefined","0","f","0","0","0","0","17","0","0","0","17","NA","13","17","13","0","13","3","17","0","17","Thu Feb 18 14:59:03 2021","The main experiment item","yes","Lexical_Decision_Task.osexp","/Users/SophieHeath/Desktop","no","Andale Mono","no","18","no","white","no","yes","576","legacy","13","13","3","/Users/SophieHeath/Desktop/subject-5072186.csv","legacy","Lentiform Loewenfeld","3.3.7","yes","yes","600bd7cfb6416f0113b04181","602110864497cf011d9c0822","0","j","NA","space","space","space","NA","j","1418","NA","8172","14467","14176","NA","1418","2","legacy","1024","2","48000","-16","task","5072186","even","NA","48046","58225","50052","84517","10622","39358","25181","85021","NA","84513","85022","84452","58225","86442","46283","83952","10077","80508","Lexical Decision Task","16","16516","18","yes","1024"
"3.195807436","0","6","stup","non-word","89.47368421052632","89.47368421052632","964.2105263157895","964.2105263157895","black","no","legacy","legacy","legacy","0","uniform","1","undefined","undefined","undefined","1","f","0","0","0","0","18","0","0","0","18","NA","14","18","14","0","14","3","18","0","18","Thu Feb 18 14:59:03 2021","The main experiment item","yes","Lexical_Decision_Task.osexp","/Users/SophieHeath/Desktop","no","Andale Mono","no","18","no","white","no","yes","576","legacy","14","14","3","/Users/SophieHeath/Desktop/subject-5072186.csv","legacy","Lentiform Loewenfeld","3.3.7","yes","yes","600bd7cfb6416f0113b04181","602110864497cf011d9c0822","0","f","NA","space","space","space","NA","f","1804","NA","8172","14467","14176","NA","1804","2","legacy","1024","2","48000","-16","task","5072186","even","NA","48046","58225","50052","88019","10622","39358","25181","88524","NA","88015","88524","87948","58225","90330","46283","83952","10077","86447","Lexical Decision Task","17","18320","19","yes","1024"
"3.159867847","5.98","5","brim","word","90","90","966.15","966.15","black","no","legacy","legacy","legacy","0","uniform","1","undefined","undefined","undefined","1","j","0","0","0","0","19","0","0","0","19","NA","15","19","15","0","15","3","19","0","19","Thu Feb 18 14:59:03 2021","The main experiment item","yes","Lexical_Decision_Task.osexp","/Users/SophieHeath/Desktop","no","Andale Mono","no","18","no","white","no","yes","576","legacy","15","15","3","/Users/SophieHeath/Desktop/subject-5072186.csv","legacy","Lentiform Loewenfeld","3.3.7","yes","yes","600bd7cfb6416f0113b04181","602110864497cf011d9c0822","0","j","NA","space","space","space","NA","j","1003","NA","8172","14467","14176","NA","1003","2","legacy","1024","2","48000","-16","task","5072186","even","NA","48046","58225","50052","90897","10622","39358","25181","91400","NA","90894","91401","90836","58225","92406","46283","90336","10077","86447","Lexical Decision Task","18","19323","20","yes","1024"
"3.039414119","0","9","meep","non-word","90.47619047619048","90.47619047619048","966.6190476190476","966.6190476190476","black","no","legacy","legacy","legacy","0","uniform","1","undefined","undefined","undefined","1","f","0","0","0","0","20","0","0","0","20","NA","16","20","16","0","16","3","20","0","20","Thu Feb 18 14:59:03 2021","The main experiment item","yes","Lexical_Decision_Task.osexp","/Users/SophieHeath/Desktop","no","Andale Mono","no","18","no","white","no","yes","576","legacy","16","16","3","/Users/SophieHeath/Desktop/subject-5072186.csv","legacy","Lentiform Loewenfeld","3.3.7","yes","yes","600bd7cfb6416f0113b04181","602110864497cf011d9c0822","0","f","NA","space","space","space","NA","f","976","NA","8172","14467","14176","NA","976","2","legacy","1024","2","48000","-16","task","5072186","even","NA","48046","58225","50052","92981","10622","39358","25181","93484","NA","92978","93484","92913","58225","94462","46283","92413","10077","86447","Lexical Decision Task","19","20299","21","yes","1024"
"3.311895072","0","9","gung","non-word","90.9090909090909","90.9090909090909","963.5","963.5","black","no","legacy","legacy","legacy","0","uniform","1","undefined","undefined","undefined","1","f","0","0","0","0","21","0","0","0","21","NA","17","21","17","0","17","3","21","0","21","Thu Feb 18 14:59:03 2021","The main experiment item","yes","Lexical_Decision_Task.osexp","/Users/SophieHeath/Desktop","no","Andale Mono","no","18","no","white","no","yes","576","legacy","17","17","3","/Users/SophieHeath/Desktop/subject-5072186.csv","legacy","Lentiform Loewenfeld","3.3.7","yes","yes","600bd7cfb6416f0113b04181","602110864497cf011d9c0822","0","f","NA","space","space","space","NA","f","898","NA","8172","14467","14176","NA","898","2","legacy","1024","2","48000","-16","task","5072186","even","NA","48046","58225","50052","95052","10622","39358","25181","95555","NA","95049","95556","94967","58225","96455","46283","94467","10077","86447","Lexical Decision Task","20","21197","22","yes","1024"
"3.094121596","0","8","fode","non-word","86.95652173913044","86.95652173913044","976.3478260869565","976.3478260869565","black","no","legacy","legacy","legacy","0","uniform","0","undefined","undefined","undefined","0","f","0","0","0","0","22","0","0","0","22","NA","18","22","18","0","18","3","22","0","22","Thu Feb 18 14:59:03 2021","The main experiment item","yes","Lexical_Decision_Task.osexp","/Users/SophieHeath/Desktop","no","Andale Mono","no","18","no","white","no","yes","576","legacy","18","18","3","/Users/SophieHeath/Desktop/subject-5072186.csv","legacy","Lentiform Loewenfeld","3.3.7","yes","yes","600bd7cfb6416f0113b04181","602110864497cf011d9c0822","0","j","NA","space","space","space","NA","j","1259","NA","8172","14467","14176","NA","1259","2","legacy","1024","2","48000","-16","task","5072186","even","NA","48046","58225","50052","97041","10622","39358","25181","97545","NA","97036","97545","96962","58225","98805","46283","96462","10077","86447","Lexical Decision Task","20","22456","23","yes","1024"
"3.145920145","8.51","8","flew","word","87.5","87.5","962","962","black","no","legacy","legacy","legacy","0","uniform","1","undefined","undefined","undefined","1","j","0","0","0","0","23","0","0","0","23","NA","19","23","19","0","19","3","23","0","23","Thu Feb 18 14:59:03 2021","The main experiment item","yes","Lexical_Decision_Task.osexp","/Users/SophieHeath/Desktop","no","Andale Mono","no","18","no","white","no","yes","576","legacy","19","19","3","/Users/SophieHeath/Desktop/subject-5072186.csv","legacy","Lentiform Loewenfeld","3.3.7","yes","yes","600bd7cfb6416f0113b04181","602110864497cf011d9c0822","0","j","NA","space","space","space","NA","j","632","NA","8172","14467","14176","NA","632","2","legacy","1024","2","48000","-16","task","5072186","even","NA","48046","58225","50052","100414","10622","39358","25181","100918","NA","100406","100918","100312","58225","101552","46283","96462","10077","98812","Lexical Decision Task","21","23088","24","yes","1024"
"2.80048796","0","8","pife","non-word","88","88","954.12","954.12","black","no","legacy","legacy","legacy","0","uniform","1","undefined","undefined","undefined","1","f","0","0","0","0","24","0","0","0","24","NA","20","24","20","0","20","3","24","0","24","Thu Feb 18 14:59:03 2021","The main experiment item","yes","Lexical_Decision_Task.osexp","/Users/SophieHeath/Desktop","no","Andale Mono","no","18","no","white","no","yes","576","legacy","20","20","3","/Users/SophieHeath/Desktop/subject-5072186.csv","legacy","Lentiform Loewenfeld","3.3.7","yes","yes","600bd7cfb6416f0113b04181","602110864497cf011d9c0822","0","f","NA","space","space","space","NA","f","765","NA","8172","14467","14176","NA","765","2","legacy","1024","2","48000","-16","task","5072186","even","NA","48046","58225","50052","102124","10622","39358","25181","102627","NA","102121","102627","102059","58225","103393","46283","101558","10077","98812","Lexical Decision Task","22","23853","25","yes","1024"
"2.842815106","7.86","8","lump","word","88.46153846153847","88.46153846153847","946.7307692307693","946.7307692307693","black","no","legacy","legacy","legacy","0","uniform","1","undefined","undefined","undefined","1","j","0","0","0","0","25","0","0","0","25","NA","21","25","21","0","21","3","25","0","25","Thu Feb 18 14:59:03 2021","The main experiment item","yes","Lexical_Decision_Task.osexp","/Users/SophieHeath/Desktop","no","Andale Mono","no","18","no","white","no","yes","576","legacy","21","21","3","/Users/SophieHeath/Desktop/subject-5072186.csv","legacy","Lentiform Loewenfeld","3.3.7","yes","yes","600bd7cfb6416f0113b04181","602110864497cf011d9c0822","0","j","NA","space","space","space","NA","j","762","NA","8172","14467","14176","NA","762","2","legacy","1024","2","48000","-16","task","5072186","even","NA","48046","58225","50052","103966","10622","39358","25181","104470","NA","103963","104470","103904","58225","105233","46283","103404","10077","98812","Lexical Decision Task","23","24615","26","yes","1024"
"2.719886232","7.98","2","quiz","word","88.88888888888889","88.88888888888889","932.7777777777778","932.7777777777778","black","no","legacy","legacy","legacy","0","uniform","1","undefined","undefined","undefined","1","j","0","0","0","0","26","0","0","0","26","NA","22","26","22","0","22","3","26","0","26","Thu Feb 18 14:59:03 2021","The main experiment item","yes","Lexical_Decision_Task.osexp","/Users/SophieHeath/Desktop","no","Andale Mono","no","18","no","white","no","yes","576","legacy","22","22","3","/Users/SophieHeath/Desktop/subject-5072186.csv","legacy","Lentiform Loewenfeld","3.3.7","yes","yes","600bd7cfb6416f0113b04181","602110864497cf011d9c0822","0","j","NA","space","space","space","NA","j","570","NA","8172","14467","14176","NA","570","2","legacy","1024","2","48000","-16","task","5072186","even","NA","48046","58225","50052","105822","10622","39358","25181","106324","NA","105819","106325","105744","58225","106896","46283","105244","10077","98812","Lexical Decision Task","24","25185","27","yes","1024"
"3.443783828","7.65","3","verb","word","89.28571428571429","89.28571428571429","918.9285714285714","918.9285714285714","black","no","legacy","legacy","legacy","0","uniform","1","undefined","undefined","undefined","1","j","0","0","0","0","27","0","0","0","27","NA","23","27","23","0","23","3","27","0","27","Thu Feb 18 14:59:03 2021","The main experiment item","yes","Lexical_Decision_Task.osexp","/Users/SophieHeath/Desktop","no","Andale Mono","no","18","no","white","no","yes","576","legacy","23","23","3","/Users/SophieHeath/Desktop/subject-5072186.csv","legacy","Lentiform Loewenfeld","3.3.7","yes","yes","600bd7cfb6416f0113b04181","602110864497cf011d9c0822","0","j","NA","space","space","space","NA","j","545","NA","8172","14467","14176","NA","545","2","legacy","1024","2","48000","-16","task","5072186","even","NA","48046","58225","50052","107465","10622","39358","25181","107969","NA","107462","107970","107403","58225","108517","46283","106903","10077","98812","Lexical Decision Task","25","25730","28","yes","1024"
"3.218535505","7.85","7","goat","word","89.65517241379311","89.65517241379311","906.7241379310345","906.7241379310345","black","no","legacy","legacy","legacy","0","uniform","1","undefined","undefined","undefined","1","j","0","0","0","0","28","0","0","0","28","NA","24","28","24","0","24","3","28","0","28","Thu Feb 18 14:59:03 2021","The main experiment item","yes","Lexical_Decision_Task.osexp","/Users/SophieHeath/Desktop","no","Andale Mono","no","18","no","white","no","yes","576","legacy","24","24","3","/Users/SophieHeath/Desktop/subject-5072186.csv","legacy","Lentiform Loewenfeld","3.3.7","yes","yes","600bd7cfb6416f0113b04181","602110864497cf011d9c0822","0","j","NA","space","space","space","NA","j","565","NA","8172","14467","14176","NA","565","2","legacy","1024","2","48000","-16","task","5072186","even","NA","48046","58225","50052","109115","10622","39358","25181","109618","NA","109111","109618","109025","58225","110184","46283","108524","10077","98812","Lexical Decision Task","26","26295","29","yes","1024"
"3.274543461","7.46","7","scar","word","90","90","893.1","893.1","black","no","legacy","legacy","legacy","0","uniform","1","undefined","undefined","undefined","1","j","0","0","0","0","29","0","0","0","29","NA","25","29","25","0","25","3","29","0","29","Thu Feb 18 14:59:03 2021","The main experiment item","yes","Lexical_Decision_Task.osexp","/Users/SophieHeath/Desktop","no","Andale Mono","no","18","no","white","no","yes","576","legacy","25","25","3","/Users/SophieHeath/Desktop/subject-5072186.csv","legacy","Lentiform Loewenfeld","3.3.7","yes","yes","600bd7cfb6416f0113b04181","602110864497cf011d9c0822","0","j","NA","space","space","space","NA","j","498","NA","8172","14467","14176","NA","498","2","legacy","1024","2","48000","-16","task","5072186","even","NA","48046","58225","50052","110783","10622","39358","25181","111287","NA","110778","111287","110689","58225","111787","46283","110188","10077","98812","Lexical Decision Task","27","26793","30","yes","1024"
"3.15462682","0","6","noal","non-word","90.3225806451613","90.3225806451613","888.8387096774194","888.8387096774194","black","no","legacy","legacy","legacy","0","uniform","1","undefined","undefined","undefined","1","f","0","0","0","0","30","0","0","0","30","NA","26","30","26","0","26","3","30","0","30","Thu Feb 18 14:59:03 2021","The main experiment item","yes","Lexical_Decision_Task.osexp","/Users/SophieHeath/Desktop","no","Andale Mono","no","18","no","white","no","yes","576","legacy","26","26","3","/Users/SophieHeath/Desktop/subject-5072186.csv","legacy","Lentiform Loewenfeld","3.3.7","yes","yes","600bd7cfb6416f0113b04181","602110864497cf011d9c0822","0","f","NA","space","space","space","NA","f","761","NA","8172","14467","14176","NA","761","2","legacy","1024","2","48000","-16","task","5072186","even","NA","48046","58225","50052","112381","10622","39358","25181","112885","NA","112375","112885","112295","58225","113648","46283","111794","10077","98812","Lexical Decision Task","28","27554","31","yes","1024"
"3.121778632","0","9","sark","non-word","90.625","90.625","887.90625","887.90625","black","no","legacy","legacy","legacy","0","uniform","1","undefined","undefined","undefined","1","f","0","0","0","0","31","0","0","0","31","NA","27","31","27","0","27","3","31","0","31","Thu Feb 18 14:59:03 2021","The main experiment item","yes","Lexical_Decision_Task.osexp","/Users/SophieHeath/Desktop","no","Andale Mono","no","18","no","white","no","yes","576","legacy","27","27","3","/Users/SophieHeath/Desktop/subject-5072186.csv","legacy","Lentiform Loewenfeld","3.3.7","yes","yes","600bd7cfb6416f0113b04181","602110864497cf011d9c0822","0","f","NA","space","space","space","NA","f","859","NA","8172","14467","14176","NA","859","2","legacy","1024","2","48000","-16","task","5072186","even","NA","48046","58225","50052","114221","10622","39358","25181","114724","NA","114218","114725","114158","58225","115586","46283","113658","10077","98812","Lexical Decision Task","29","28413","32","yes","1024"
"3.347850856","10.51","2","rich","word","90.9090909090909","90.9090909090909","881.6060606060606","881.6060606060606","black","no","legacy","legacy","legacy","0","uniform","1","undefined","undefined","undefined","1","j","0","0","0","0","32","0","0","0","32","NA","28","32","28","0","28","3","32","0","32","Thu Feb 18 14:59:03 2021","The main experiment item","yes","Lexical_Decision_Task.osexp","/Users/SophieHeath/Desktop","no","Andale Mono","no","18","no","white","no","yes","576","legacy","28","28","3","/Users/SophieHeath/Desktop/subject-5072186.csv","legacy","Lentiform Loewenfeld","3.3.7","yes","yes","600bd7cfb6416f0113b04181","602110864497cf011d9c0822","0","j","NA","space","space","space","NA","j","680","NA","8172","14467","14176","NA","680","2","legacy","1024","2","48000","-16","task","5072186","even","NA","48046","58225","50052","116165","10622","39358","25181","116670","NA","116161","116671","116094","58225","117353","46283","115593","10077","98812","Lexical Decision Task","30","29093","33","yes","1024"
"2.812467698","0","7","hafe","non-word","91.17647058823529","91.17647058823529","884.1470588235294","884.1470588235294","black","no","legacy","legacy","legacy","0","uniform","1","undefined","undefined","undefined","1","f","0","0","0","0","33","0","0","0","33","NA","29","33","29","0","29","3","33","0","33","Thu Feb 18 14:59:03 2021","The main experiment item","yes","Lexical_Decision_Task.osexp","/Users/SophieHeath/Desktop","no","Andale Mono","no","18","no","white","no","yes","576","legacy","29","29","3","/Users/SophieHeath/Desktop/subject-5072186.csv","legacy","Lentiform Loewenfeld","3.3.7","yes","yes","600bd7cfb6416f0113b04181","602110864497cf011d9c0822","0","f","NA","space","space","space","NA","f","968","NA","8172","14467","14176","NA","968","2","legacy","1024","2","48000","-16","task","5072186","even","NA","48046","58225","50052","117929","10622","39358","25181","118435","NA","117926","118436","117859","58225","119405","46283","117359","10077","98812","Lexical Decision Task","31","30061","34","yes","1024"
"3.529815197","0","3","lerm","non-word","91.42857142857143","91.42857142857143","879.8857142857142","879.8857142857142","black","no","legacy","legacy","legacy","0","uniform","1","undefined","undefined","undefined","1","f","0","0","0","0","34","0","0","0","34","NA","30","34","30","0","30","3","34","0","34","Thu Feb 18 14:59:03 2021","The main experiment item","yes","Lexical_Decision_Task.osexp","/Users/SophieHeath/Desktop","no","Andale Mono","no","18","no","white","no","yes","576","legacy","30","30","3","/Users/SophieHeath/Desktop/subject-5072186.csv","legacy","Lentiform Loewenfeld","3.3.7","yes","yes","600bd7cfb6416f0113b04181","602110864497cf011d9c0822","0","f","NA","space","space","space","NA","f","735","NA","8172","14467","14176","NA","735","2","legacy","1024","2","48000","-16","task","5072186","even","NA","48046","58225","50052","119975","10622","39358","25181","120479","NA","119972","120479","119912","58225","121215","46283","119412","10077","98812","Lexical Decision Task","32","30796","35","yes","1024"
"3.076883066","0","8","mout","non-word","91.66666666666667","91.66666666666667","901.4722222222222","901.4722222222222","black","no","legacy","legacy","legacy","0","uniform","1","undefined","undefined","undefined","1","f","0","0","0","0","35","0","0","0","35","NA","31","35","31","0","31","3","35","0","35","Thu Feb 18 14:59:03 2021","The main experiment item","yes","Lexical_Decision_Task.osexp","/Users/SophieHeath/Desktop","no","Andale Mono","no","18","no","white","no","yes","576","legacy","31","31","3","/Users/SophieHeath/Desktop/subject-5072186.csv","legacy","Lentiform Loewenfeld","3.3.7","yes","yes","600bd7cfb6416f0113b04181","602110864497cf011d9c0822","0","f","NA","space","space","space","NA","f","1657","NA","8172","14467","14176","NA","1657","2","legacy","1024","2","48000","-16","task","5072186","even","NA","48046","58225","50052","121797","10622","39358","25181","122299","NA","121793","122300","121722","58225","123959","46283","121222","10077","98812","Lexical Decision Task","33","32453","36","yes","1024"
"2.899092422","7.27","6","snag","word","91.89189189189189","91.89189189189189","911.7027027027027","911.7027027027027","black","no","legacy","legacy","legacy","0","uniform","1","undefined","undefined","undefined","1","j","0","0","0","0","36","0","0","0","36","NA","32","36","32","0","32","3","36","0","36","Thu Feb 18 14:59:03 2021","The main experiment item","yes","Lexical_Decision_Task.osexp","/Users/SophieHeath/Desktop","no","Andale Mono","no","18","no","white","no","yes","576","legacy","32","32","3","/Users/SophieHeath/Desktop/subject-5072186.csv","legacy","Lentiform Loewenfeld","3.3.7","yes","yes","600bd7cfb6416f0113b04181","602110864497cf011d9c0822","0","j","NA","space","space","space","NA","j","1280","NA","8172","14467","14176","NA","1280","2","legacy","1024","2","48000","-16","task","5072186","even","NA","48046","58225","50052","124542","10622","39358","25181","125046","NA","124538","125046","124466","58225","126327","46283","123966","10077","98812","Lexical Decision Task","34","33733","37","yes","1024"
"2.705007959","6.01","4","wept","word","92.10526315789474","92.10526315789474","912.2894736842105","912.2894736842105","black","no","legacy","legacy","legacy","0","uniform","1","undefined","undefined","undefined","1","j","0","0","0","0","37","0","0","0","37","NA","33","37","33","0","33","3","37","0","37","Thu Feb 18 14:59:03 2021","The main experiment item","yes","Lexical_Decision_Task.osexp","/Users/SophieHeath/Desktop","no","Andale Mono","no","18","no","white","no","yes","576","legacy","33","33","3","/Users/SophieHeath/Desktop/subject-5072186.csv","legacy","Lentiform Loewenfeld","3.3.7","yes","yes","600bd7cfb6416f0113b04181","602110864497cf011d9c0822","0","j","NA","space","space","space","NA","j","934","NA","8172","14467","14176","NA","934","2","legacy","1024","2","48000","-16","task","5072186","even","NA","48046","58225","50052","126892","10622","39358","25181","127396","NA","126889","127397","126833","58225","128332","46283","126332","10077","98812","Lexical Decision Task","35","34667","38","yes","1024"
"3.120135028","0","3","vals","non-word","92.3076923076923","92.3076923076923","905.8205128205128","905.8205128205128","black","no","legacy","legacy","legacy","0","uniform","1","undefined","undefined","undefined","1","f","0","0","0","0","38","0","0","0","38","NA","34","38","34","0","34","3","38","0","38","Thu Feb 18 14:59:03 2021","The main experiment item","yes","Lexical_Decision_Task.osexp","/Users/SophieHeath/Desktop","no","Andale Mono","no","18","no","white","no","yes","576","legacy","34","34","3","/Users/SophieHeath/Desktop/subject-5072186.csv","legacy","Lentiform Loewenfeld","3.3.7","yes","yes","600bd7cfb6416f0113b04181","602110864497cf011d9c0822","0","f","NA","space","space","space","NA","f","660","NA","8172","14467","14176","NA","660","2","legacy","1024","2","48000","-16","task","5072186","even","NA","48046","58225","50052","128899","10622","39358","25181","129402","NA","128896","129403","128839","58225","130064","46283","128339","10077","98812","Lexical Decision Task","36","35327","39","yes","1024"
"2.75025376","10.2","6","jump","word","92.5","92.5","897.7","897.7","black","no","legacy","legacy","legacy","0","uniform","1","undefined","undefined","undefined","1","j","0","0","0","0","39","0","0","0","39","NA","35","39","35","0","35","3","39","0","39","Thu Feb 18 14:59:03 2021","The main experiment item","yes","Lexical_Decision_Task.osexp","/Users/SophieHeath/Desktop","no","Andale Mono","no","18","no","white","no","yes","576","legacy","35","35","3","/Users/SophieHeath/Desktop/subject-5072186.csv","legacy","Lentiform Loewenfeld","3.3.7","yes","yes","600bd7cfb6416f0113b04181","602110864497cf011d9c0822","0","j","NA","space","space","space","NA","j","581","NA","8172","14467","14176","NA","581","2","legacy","1024","2","48000","-16","task","5072186","even","NA","48046","58225","50052","130630","10622","39358","25181","131134","NA","130627","131135","130571","58225","131718","46283","130071","10077","98812","Lexical Decision Task","37","35908","40","yes","1024"
"2.68604012","0","4","pumb","non-word","92.6829268292683","92.6829268292683","927","927","black","no","legacy","legacy","legacy","0","uniform","1","undefined","undefined","undefined","1","f","0","0","0","0","40","0","0","0","40","NA","36","40","36","0","36","3","40","0","40","Thu Feb 18 14:59:03 2021","The main experiment item","yes","Lexical_Decision_Task.osexp","/Users/SophieHeath/Desktop","no","Andale Mono","no","18","no","white","no","yes","576","legacy","36","36","3","/Users/SophieHeath/Desktop/subject-5072186.csv","legacy","Lentiform Loewenfeld","3.3.7","yes","yes","600bd7cfb6416f0113b04181","602110864497cf011d9c0822","0","f","NA","space","space","space","NA","f","2099","NA","8172","14467","14176","NA","2099","2","legacy","1024","2","48000","-16","task","5072186","even","NA","48046","58225","50052","132307","10622","39358","25181","132811","NA","132304","132812","132233","58225","134912","46283","131733","10077","98812","Lexical Decision Task","38","38007","41","yes","1024"
"3.088136089","8.32","9","worm","word","92.85714285714286","92.85714285714286","924.3333333333334","924.3333333333334","black","no","legacy","legacy","legacy","0","uniform","1","undefined","undefined","undefined","1","j","0","0","0","0","41","0","0","0","41","NA","37","41","37","0","37","3","41","0","41","Thu Feb 18 14:59:03 2021","The main experiment item","yes","Lexical_Decision_Task.osexp","/Users/SophieHeath/Desktop","no","Andale Mono","no","18","no","white","no","yes","576","legacy","37","37","3","/Users/SophieHeath/Desktop/subject-5072186.csv","legacy","Lentiform Loewenfeld","3.3.7","yes","yes","600bd7cfb6416f0113b04181","602110864497cf011d9c0822","0","j","NA","space","space","space","NA","j","815","NA","8172","14467","14176","NA","815","2","legacy","1024","2","48000","-16","task","5072186","even","NA","48046","58225","50052","135479","10622","39358","25181","135983","NA","135476","135983","135419","58225","136799","46283","134919","10077","98812","Lexical Decision Task","39","38822","42","yes","1024"
"3.307211407","6.07","7","honk","word","93.02325581395348","93.02325581395348","920.2790697674419","920.2790697674419","black","no","legacy","legacy","legacy","0","uniform","1","undefined","undefined","undefined","1","j","0","0","0","0","42","0","0","0","42","NA","38","42","38","0","38","3","42","0","42","Thu Feb 18 14:59:03 2021","The main experiment item","yes","Lexical_Decision_Task.osexp","/Users/SophieHeath/Desktop","no","Andale Mono","no","18","no","white","no","yes","576","legacy","38","38","3","/Users/SophieHeath/Desktop/subject-5072186.csv","legacy","Lentiform Loewenfeld","3.3.7","yes","yes","600bd7cfb6416f0113b04181","602110864497cf011d9c0822","0","j","NA","space","space","space","NA","j","750","NA","8172","14467","14176","NA","750","2","legacy","1024","2","48000","-16","task","5072186","even","NA","48046","58225","50052","137367","10622","39358","25181","137870","NA","137364","137871","137307","58225","138622","46283","136806","10077","98812","Lexical Decision Task","40","39572","43","yes","1024"
"3.049218023","7.4","9","robe","word","93.18181818181819","93.18181818181819","912.75","912.75","black","no","legacy","legacy","legacy","0","uniform","1","undefined","undefined","undefined","1","j","0","0","0","0","43","0","0","0","43","NA","39","43","39","0","39","3","43","0","43","Thu Feb 18 14:59:03 2021","The main experiment item","yes","Lexical_Decision_Task.osexp","/Users/SophieHeath/Desktop","no","Andale Mono","no","18","no","white","no","yes","576","legacy","39","39","3","/Users/SophieHeath/Desktop/subject-5072186.csv","legacy","Lentiform Loewenfeld","3.3.7","yes","yes","600bd7cfb6416f0113b04181","602110864497cf011d9c0822","0","j","NA","space","space","space","NA","j","589","NA","8172","14467","14176","NA","589","2","legacy","1024","2","48000","-16","task","5072186","even","NA","48046","58225","50052","139192","10622","39358","25181","139698","NA","139189","139698","139129","58225","140289","46283","138628","10077","98812","Lexical Decision Task","41","40161","44","yes","1024"
"2.884795364","0","6","flob","non-word","91.11111111111111","91.11111111111111","917.0444444444445","917.0444444444445","black","no","legacy","legacy","legacy","0","uniform","0","undefined","undefined","undefined","0","f","0","0","0","0","44","0","0","0","44","NA","40","44","40","0","40","3","44","0","44","Thu Feb 18 14:59:03 2021","The main experiment item","yes","Lexical_Decision_Task.osexp","/Users/SophieHeath/Desktop","no","Andale Mono","no","18","no","white","no","yes","576","legacy","40","40","3","/Users/SophieHeath/Desktop/subject-5072186.csv","legacy","Lentiform Loewenfeld","3.3.7","yes","yes","600bd7cfb6416f0113b04181","602110864497cf011d9c0822","0","j","NA","space","space","space","NA","j","1106","NA","8172","14467","14176","NA","1106","2","legacy","1024","2","48000","-16","task","5072186","even","NA","48046","58225","50052","140862","10622","39358","25181","141366","NA","140859","141367","140796","58225","142475","46283","140295","10077","98812","Lexical Decision Task","41","41267","45","yes","1024"
"3.431095062","5.74","9","perk","word","91.30434782608695","91.30434782608695","912.1086956521739","912.1086956521739","black","no","legacy","legacy","legacy","0","uniform","1","undefined","undefined","undefined","1","j","0","0","0","0","45","0","0","0","45","NA","41","45","41","0","41","3","45","0","45","Thu Feb 18 14:59:03 2021","The main experiment item","yes","Lexical_Decision_Task.osexp","/Users/SophieHeath/Desktop","no","Andale Mono","no","18","no","white","no","yes","576","legacy","41","41","3","/Users/SophieHeath/Desktop/subject-5072186.csv","legacy","Lentiform Loewenfeld","3.3.7","yes","yes","600bd7cfb6416f0113b04181","602110864497cf011d9c0822","0","j","NA","space","space","space","NA","j","690","NA","8172","14467","14176","NA","690","2","legacy","1024","2","48000","-16","task","5072186","even","NA","48046","58225","50052","144067","10622","39358","25181","144570","NA","144064","144571","143981","58225","145263","46283","140295","10077","142481","Lexical Decision Task","42","41957","46","yes","1024"
"3.003891166","8.05","2","frog","word","91.48936170212765","91.48936170212765","920.1063829787234","920.1063829787234","black","no","legacy","legacy","legacy","0","uniform","1","undefined","undefined","undefined","1","j","0","0","0","0","46","0","0","0","46","NA","42","46","42","0","42","3","46","0","46","Thu Feb 18 14:59:03 2021","The main experiment item","yes","Lexical_Decision_Task.osexp","/Users/SophieHeath/Desktop","no","Andale Mono","no","18","no","white","no","yes","576","legacy","42","42","3","/Users/SophieHeath/Desktop/subject-5072186.csv","legacy","Lentiform Loewenfeld","3.3.7","yes","yes","600bd7cfb6416f0113b04181","602110864497cf011d9c0822","0","j","NA","space","space","space","NA","j","1288","NA","8172","14467","14176","NA","1288","2","legacy","1024","2","48000","-16","task","5072186","even","NA","48046","58225","50052","145844","10622","39358","25181","146348","NA","145841","146349","145772","58225","147638","46283","145271","10077","142481","Lexical Decision Task","43","43245","47","yes","1024"
"3.209246849","0","7","slem","non-word","91.66666666666667","91.66666666666667","914.4583333333334","914.4583333333334","black","no","legacy","legacy","legacy","0","uniform","1","undefined","undefined","undefined","1","f","0","0","0","0","47","0","0","0","47","NA","43","47","43","0","43","3","47","0","47","Thu Feb 18 14:59:03 2021","The main experiment item","yes","Lexical_Decision_Task.osexp","/Users/SophieHeath/Desktop","no","Andale Mono","no","18","no","white","no","yes","576","legacy","43","43","3","/Users/SophieHeath/Desktop/subject-5072186.csv","legacy","Lentiform Loewenfeld","3.3.7","yes","yes","600bd7cfb6416f0113b04181","602110864497cf011d9c0822","0","f","NA","space","space","space","NA","f","649","NA","8172","14467","14176","NA","649","2","legacy","1024","2","48000","-16","task","5072186","even","NA","48046","58225","50052","148211","10622","39358","25181","148716","NA","148207","148717","148144","58225","149367","46283","147644","10077","142481","Lexical Decision Task","44","43894","48","yes","1024"
"2.898725182","0","7","turl","non-word","91.83673469387755","91.83673469387755","908.795918367347","908.795918367347","black","no","legacy","legacy","legacy","0","uniform","1","undefined","undefined","undefined","1","f","0","0","0","0","48","0","0","0","48","NA","44","48","44","0","44","3","48","0","48","Thu Feb 18 14:59:03 2021","The main experiment item","yes","Lexical_Decision_Task.osexp","/Users/SophieHeath/Desktop","no","Andale Mono","no","18","no","white","no","yes","576","legacy","44","44","3","/Users/SophieHeath/Desktop/subject-5072186.csv","legacy","Lentiform Loewenfeld","3.3.7","yes","yes","600bd7cfb6416f0113b04181","602110864497cf011d9c0822","0","f","NA","space","space","space","NA","f","637","NA","8172","14467","14176","NA","637","2","legacy","1024","2","48000","-16","task","5072186","even","NA","48046","58225","50052","149934","10622","39358","25181","150439","NA","149931","150439","149873","58225","151077","46283","149373","10077","142481","Lexical Decision Task","45","44531","49","yes","1024"
"3.2757719","0","5","slea","non-word","92","92","909.88","909.88","black","no","legacy","legacy","legacy","0","uniform","1","undefined","undefined","undefined","1","f","0","0","0","0","49","0","0","0","49","NA","45","49","45","0","45","3","49","0","49","Thu Feb 18 14:59:03 2021","The main experiment item","yes","Lexical_Decision_Task.osexp","/Users/SophieHeath/Desktop","no","Andale Mono","no","18","no","white","no","yes","576","legacy","45","45","3","/Users/SophieHeath/Desktop/subject-5072186.csv","legacy","Lentiform Loewenfeld","3.3.7","yes","yes","600bd7cfb6416f0113b04181","602110864497cf011d9c0822","0","f","NA","space","space","space","NA","f","963","NA","8172","14467","14176","NA","963","2","legacy","1024","2","48000","-16","task","5072186","even","NA","48046","58225","50052","151644","10622","39358","25181","152149","NA","151641","152150","151584","58225","153115","46283","151083","10077","142481","Lexical Decision Task","46","45494","50","yes","1024"
"3.028977705","0","7","frow","non-word","90.19607843137256","90.19607843137256","903.3725490196078","903.3725490196078","black","no","legacy","legacy","legacy","0","uniform","0","undefined","undefined","undefined","0","f","0","0","0","0","50","0","0","0","50","NA","46","50","46","0","46","3","50","0","50","Thu Feb 18 14:59:03 2021","The main experiment item","yes","Lexical_Decision_Task.osexp","/Users/SophieHeath/Desktop","no","Andale Mono","no","18","no","white","no","yes","576","legacy","46","46","3","/Users/SophieHeath/Desktop/subject-5072186.csv","legacy","Lentiform Loewenfeld","3.3.7","yes","yes","600bd7cfb6416f0113b04181","602110864497cf011d9c0822","0","j","NA","space","space","space","NA","j","578","NA","8172","14467","14176","NA","578","2","legacy","1024","2","48000","-16","task","5072186","even","NA","48046","58225","50052","153683","10622","39358","25181","154186","NA","153680","154187","153621","58225","154767","46283","153120","10077","142481","Lexical Decision Task","46","46072","51","yes","1024"
"3.299579929","0","2","flis","non-word","90.38461538461539","90.38461538461539","903.0769230769231","903.0769230769231","black","no","legacy","legacy","legacy","0","uniform","1","undefined","undefined","undefined","1","f","0","0","0","0","51","0","0","0","51","NA","47","51","47","0","47","3","51","0","51","Thu Feb 18 14:59:03 2021","The main experiment item","yes","Lexical_Decision_Task.osexp","/Users/SophieHeath/Desktop","no","Andale Mono","no","18","no","white","no","yes","576","legacy","47","47","3","/Users/SophieHeath/Desktop/subject-5072186.csv","legacy","Lentiform Loewenfeld","3.3.7","yes","yes","600bd7cfb6416f0113b04181","602110864497cf011d9c0822","0","f","NA","space","space","space","NA","f","888","NA","8172","14467","14176","NA","888","2","legacy","1024","2","48000","-16","task","5072186","even","NA","48046","58225","50052","156346","10622","39358","25181","156851","NA","156343","156851","156275","58225","157741","46283","153120","10077","154775","Lexical Decision Task","47","46960","52","yes","1024"
"3.382617311","0","4","pret","non-word","88.67924528301887","88.67924528301887","906.7924528301887","906.7924528301887","black","no","legacy","legacy","legacy","0","uniform","0","undefined","undefined","undefined","0","f","0","0","0","0","52","0","0","0","52","NA","48","52","48","0","48","3","52","0","52","Thu Feb 18 14:59:03 2021","The main experiment item","yes","Lexical_Decision_Task.osexp","/Users/SophieHeath/Desktop","no","Andale Mono","no","18","no","white","no","yes","576","legacy","48","48","3","/Users/SophieHeath/Desktop/subject-5072186.csv","legacy","Lentiform Loewenfeld","3.3.7","yes","yes","600bd7cfb6416f0113b04181","602110864497cf011d9c0822","0","j","NA","space","space","space","NA","j","1100","NA","8172","14467","14176","NA","1100","2","legacy","1024","2","48000","-16","task","5072186","even","NA","48046","58225","50052","158332","10622","39358","25181","158836","NA","158328","158837","158247","58225","159939","46283","157747","10077","154775","Lexical Decision Task","47","48060","53","yes","1024"
"3.043885998","0","9","gome","non-word","88.88888888888889","88.88888888888889","912.425925925926","912.425925925926","black","no","legacy","legacy","legacy","0","uniform","1","undefined","undefined","undefined","1","f","0","0","0","0","53","0","0","0","53","NA","49","53","49","0","49","3","53","0","53","Thu Feb 18 14:59:03 2021","The main experiment item","yes","Lexical_Decision_Task.osexp","/Users/SophieHeath/Desktop","no","Andale Mono","no","18","no","white","no","yes","576","legacy","49","49","3","/Users/SophieHeath/Desktop/subject-5072186.csv","legacy","Lentiform Loewenfeld","3.3.7","yes","yes","600bd7cfb6416f0113b04181","602110864497cf011d9c0822","0","f","NA","space","space","space","NA","f","1211","NA","8172","14467","14176","NA","1211","2","legacy","1024","2","48000","-16","task","5072186","even","NA","48046","58225","50052","161512","10622","39358","25181","162017","NA","161507","162018","161445","58225","163231","46283","157747","10077","159944","Lexical Decision Task","48","49271","54","yes","1024"
"3.274157849","0","8","leet","non-word","89.0909090909091","89.0909090909091","912.8909090909091","912.8909090909091","black","no","legacy","legacy","legacy","0","uniform","1","undefined","undefined","undefined","1","f","0","0","0","0","54","0","0","0","54","0","50","54","50","0","50","3","54","0","54","Thu Feb 18 14:59:03 2021","The main experiment item","yes","Lexical_Decision_Task.osexp","/Users/SophieHeath/Desktop","no","Andale Mono","no","18","no","white","no","yes","576","legacy","50","50","3","/Users/SophieHeath/Desktop/subject-5072186.csv","legacy","Lentiform Loewenfeld","3.3.7","yes","yes","600bd7cfb6416f0113b04181","602110864497cf011d9c0822","0","f","NA","space","space","space","space","f","938","NA","8172","14467","14176","3922","938","2","legacy","1024","2","48000","-16","task","5072186","even","NA","48046","58225","50052","167803","10622","39358","25181","168307","163800","167797","168307","163746","58225","169247","46283","163245","10077","159944","Lexical Decision Task","49","50209","55","yes","1024"
"2.67699827","0","6","hulf","non-word","89.28571428571429","89.28571428571429","906.8928571428571","906.8928571428571","black","no","legacy","legacy","legacy","0","uniform","1","undefined","undefined","undefined","1","f","0","0","0","0","55","0","0","0","55","0","51","55","51","0","51","3","55","0","55","Thu Feb 18 14:59:03 2021","The main experiment item","yes","Lexical_Decision_Task.osexp","/Users/SophieHeath/Desktop","no","Andale Mono","no","18","no","white","no","yes","576","legacy","51","51","3","/Users/SophieHeath/Desktop/subject-5072186.csv","legacy","Lentiform Loewenfeld","3.3.7","yes","yes","600bd7cfb6416f0113b04181","602110864497cf011d9c0822","0","f","NA","space","space","space","space","f","577","NA","8172","14467","14176","3922","577","2","legacy","1024","2","48000","-16","task","5072186","even","NA","48046","58225","50052","169839","10622","39358","25181","170342","163800","169834","170343","169753","58225","170922","46283","169253","10077","159944","Lexical Decision Task","50","50786","56","yes","1024"
"3.372543801","9.24","8","coat","word","89.47368421052632","89.47368421052632","900.2280701754386","900.2280701754386","black","no","legacy","legacy","legacy","0","uniform","1","undefined","undefined","undefined","1","j","0","0","0","0","56","0","0","0","56","0","52","56","52","0","52","3","56","0","56","Thu Feb 18 14:59:03 2021","The main experiment item","yes","Lexical_Decision_Task.osexp","/Users/SophieHeath/Desktop","no","Andale Mono","no","18","no","white","no","yes","576","legacy","52","52","3","/Users/SophieHeath/Desktop/subject-5072186.csv","legacy","Lentiform Loewenfeld","3.3.7","yes","yes","600bd7cfb6416f0113b04181","602110864497cf011d9c0822","0","j","NA","space","space","space","space","j","527","NA","8172","14467","14176","3922","527","2","legacy","1024","2","48000","-16","task","5072186","even","NA","48046","58225","50052","171492","10622","39358","25181","171995","163800","171488","171996","171428","58225","172526","46283","170928","10077","159944","Lexical Decision Task","51","51313","57","yes","1024"
"2.746890964","9.67","3","plug","word","89.65517241379311","89.65517241379311","894.7586206896551","894.7586206896551","black","no","legacy","legacy","legacy","0","uniform","1","undefined","undefined","undefined","1","j","0","0","0","0","57","0","0","0","57","0","53","57","53","0","53","3","57","0","57","Thu Feb 18 14:59:03 2021","The main experiment item","yes","Lexical_Decision_Task.osexp","/Users/SophieHeath/Desktop","no","Andale Mono","no","18","no","white","no","yes","576","legacy","53","53","3","/Users/SophieHeath/Desktop/subject-5072186.csv","legacy","Lentiform Loewenfeld","3.3.7","yes","yes","600bd7cfb6416f0113b04181","602110864497cf011d9c0822","0","j","NA","space","space","space","space","j","583","NA","8172","14467","14176","3922","583","2","legacy","1024","2","48000","-16","task","5072186","even","NA","48046","58225","50052","173129","10622","39358","25181","173633","163800","173125","173633","173034","58225","174218","46283","172533","10077","159944","Lexical Decision Task","52","51896","58","yes","1024"
"3.263399331","0","8","cour","non-word","89.83050847457628","89.83050847457628","890.5254237288135","890.5254237288135","black","no","legacy","legacy","legacy","0","uniform","1","undefined","undefined","undefined","1","f","0","0","0","0","58","0","0","0","58","0","54","58","54","0","54","3","58","0","58","Thu Feb 18 14:59:03 2021","The main experiment item","yes","Lexical_Decision_Task.osexp","/Users/SophieHeath/Desktop","no","Andale Mono","no","18","no","white","no","yes","576","legacy","54","54","3","/Users/SophieHeath/Desktop/subject-5072186.csv","legacy","Lentiform Loewenfeld","3.3.7","yes","yes","600bd7cfb6416f0113b04181","602110864497cf011d9c0822","0","f","NA","space","space","space","space","f","645","NA","8172","14467","14176","3922","645","2","legacy","1024","2","48000","-16","task","5072186","even","NA","48046","58225","50052","174807","10622","39358","25181","175310","163800","174803","175311","174723","58225","175957","46283","174222","10077","159944","Lexical Decision Task","53","52541","59","yes","1024"
"3.14849993","10.75","7","hour","word","90","90","886.3","886.3","black","no","legacy","legacy","legacy","0","uniform","1","undefined","undefined","undefined","1","j","0","0","0","0","59","0","0","0","59","0","55","59","55","0","55","3","59","0","59","Thu Feb 18 14:59:03 2021","The main experiment item","yes","Lexical_Decision_Task.osexp","/Users/SophieHeath/Desktop","no","Andale Mono","no","18","no","white","no","yes","576","legacy","55","55","3","/Users/SophieHeath/Desktop/subject-5072186.csv","legacy","Lentiform Loewenfeld","3.3.7","yes","yes","600bd7cfb6416f0113b04181","602110864497cf011d9c0822","0","j","NA","space","space","space","space","j","637","NA","8172","14467","14176","3922","637","2","legacy","1024","2","48000","-16","task","5072186","even","NA","48046","58225","50052","176535","10622","39358","25181","177039","163800","176530","177039","176465","58225","177677","46283","175964","10077","159944","Lexical Decision Task","54","53178","60","yes","1024"
"3.216517684","10.87","3","film","word","90.1639344262295","90.1639344262295","889.655737704918","889.655737704918","black","no","legacy","legacy","legacy","0","uniform","1","undefined","undefined","undefined","1","j","0","0","0","0","60","0","0","0","60","0","56","60","56","0","56","3","60","0","60","Thu Feb 18 14:59:03 2021","The main experiment item","yes","Lexical_Decision_Task.osexp","/Users/SophieHeath/Desktop","no","Andale Mono","no","18","no","white","no","yes","576","legacy","56","56","3","/Users/SophieHeath/Desktop/subject-5072186.csv","legacy","Lentiform Loewenfeld","3.3.7","yes","yes","600bd7cfb6416f0113b04181","602110864497cf011d9c0822","0","j","NA","space","space","space","space","j","1091","NA","8172","14467","14176","3922","1091","2","legacy","1024","2","48000","-16","task","5072186","even","NA","48046","58225","50052","178246","10622","39358","25181","178750","163800","178243","178751","178185","58225","179843","46283","177684","10077","159944","Lexical Decision Task","55","54269","61","yes","1024"
"2.937852093","0","7","bamp","non-word","90.3225806451613","90.3225806451613","888.6612903225806","888.6612903225806","black","no","legacy","legacy","legacy","0","uniform","1","undefined","undefined","undefined","1","f","0","0","0","0","61","0","0","0","61","0","57","61","57","0","57","3","61","0","61","Thu Feb 18 14:59:03 2021","The main experiment item","yes","Lexical_Decision_Task.osexp","/Users/SophieHeath/Desktop","no","Andale Mono","no","18","no","white","no","yes","576","legacy","57","57","3","/Users/SophieHeath/Desktop/subject-5072186.csv","legacy","Lentiform Loewenfeld","3.3.7","yes","yes","600bd7cfb6416f0113b04181","602110864497cf011d9c0822","0","f","NA","space","space","space","space","f","828","NA","8172","14467","14176","3922","828","2","legacy","1024","2","48000","-16","task","5072186","even","NA","48046","58225","50052","180406","10622","39358","25181","180909","163800","180403","180910","180350","58225","181739","46283","179849","10077","159944","Lexical Decision Task","56","55097","62","yes","1024"
"3.208172527","10.27","7","deck","word","90.47619047619048","90.47619047619048","883.936507936508","883.936507936508","black","no","legacy","legacy","legacy","0","uniform","1","undefined","undefined","undefined","1","j","0","0","0","0","62","0","0","0","62","0","58","62","58","0","58","3","62","0","62","Thu Feb 18 14:59:03 2021","The main experiment item","yes","Lexical_Decision_Task.osexp","/Users/SophieHeath/Desktop","no","Andale Mono","no","18","no","white","no","yes","576","legacy","58","58","3","/Users/SophieHeath/Desktop/subject-5072186.csv","legacy","Lentiform Loewenfeld","3.3.7","yes","yes","600bd7cfb6416f0113b04181","602110864497cf011d9c0822","0","j","NA","space","space","space","space","j","591","NA","8172","14467","14176","3922","591","2","legacy","1024","2","48000","-16","task","5072186","even","NA","48046","58225","50052","182318","10622","39358","25181","182822","163800","182315","182822","182246","58225","183415","46283","181746","10077","159944","Lexical Decision Task","57","55688","63","yes","1024"
"2.696644658","5.78","2","yolk","word","90.625","90.625","879.796875","879.796875","black","no","legacy","legacy","legacy","0","uniform","1","undefined","undefined","undefined","1","j","0","0","0","0","63","0","0","0","63","0","59","63","59","0","59","3","63","0","63","Thu Feb 18 14:59:03 2021","The main experiment item","yes","Lexical_Decision_Task.osexp","/Users/SophieHeath/Desktop","no","Andale Mono","no","18","no","white","no","yes","576","legacy","59","59","3","/Users/SophieHeath/Desktop/subject-5072186.csv","legacy","Lentiform Loewenfeld","3.3.7","yes","yes","600bd7cfb6416f0113b04181","602110864497cf011d9c0822","0","j","NA","space","space","space","space","j","619","NA","8172","14467","14176","3922","619","2","legacy","1024","2","48000","-16","task","5072186","even","NA","48046","58225","50052","183980","10622","39358","25181","184485","163800","183977","184485","183922","58225","185106","46283","183422","10077","159944","Lexical Decision Task","58","56307","64","yes","1024"
"2.873320602","0","4","lurg","non-word","90.76923076923077","90.76923076923077","876.6769230769231","876.6769230769231","black","no","legacy","legacy","legacy","0","uniform","1","undefined","undefined","undefined","1","f","0","0","0","0","64","0","0","0","64","0","60","64","60","0","60","3","64","0","64","Thu Feb 18 14:59:03 2021","The main experiment item","yes","Lexical_Decision_Task.osexp","/Users/SophieHeath/Desktop","no","Andale Mono","no","18","no","white","no","yes","576","legacy","60","60","3","/Users/SophieHeath/Desktop/subject-5072186.csv","legacy","Lentiform Loewenfeld","3.3.7","yes","yes","600bd7cfb6416f0113b04181","602110864497cf011d9c0822","0","f","NA","space","space","space","space","f","677","NA","8172","14467","14176","3922","677","2","legacy","1024","2","48000","-16","task","5072186","even","NA","48046","58225","50052","185673","10622","39358","25181","186177","163800","185670","186178","185613","58225","186857","46283","185113","10077","159944","Lexical Decision Task","59","56984","65","yes","1024"
"3.081107167","0","6","chot","non-word","90.9090909090909","90.9090909090909","874.4545454545455","874.4545454545455","black","no","legacy","legacy","legacy","0","uniform","1","undefined","undefined","undefined","1","f","0","0","0","0","65","0","0","0","65","0","61","65","61","0","61","3","65","0","65","Thu Feb 18 14:59:03 2021","The main experiment item","yes","Lexical_Decision_Task.osexp","/Users/SophieHeath/Desktop","no","Andale Mono","no","18","no","white","no","yes","576","legacy","61","61","3","/Users/SophieHeath/Desktop/subject-5072186.csv","legacy","Lentiform Loewenfeld","3.3.7","yes","yes","600bd7cfb6416f0113b04181","602110864497cf011d9c0822","0","f","NA","space","space","space","space","f","730","NA","8172","14467","14176","3922","730","2","legacy","1024","2","48000","-16","task","5072186","even","NA","48046","58225","50052","187419","10622","39358","25181","187922","163800","187416","187923","187363","58225","188655","46283","186863","10077","159944","Lexical Decision Task","60","57714","66","yes","1024"
"2.695770526","7.34","6","pawn","word","89.55223880597015","89.55223880597015","874.5671641791045","874.5671641791045","black","no","legacy","legacy","legacy","0","uniform","0","undefined","undefined","undefined","0","j","0","0","0","0","66","0","0","0","66","0","62","66","62","0","62","3","66","0","66","Thu Feb 18 14:59:03 2021","The main experiment item","yes","Lexical_Decision_Task.osexp","/Users/SophieHeath/Desktop","no","Andale Mono","no","18","no","white","no","yes","576","legacy","62","62","3","/Users/SophieHeath/Desktop/subject-5072186.csv","legacy","Lentiform Loewenfeld","3.3.7","yes","yes","600bd7cfb6416f0113b04181","602110864497cf011d9c0822","0","f","NA","space","space","space","space","f","882","NA","8172","14467","14176","3922","882","2","legacy","1024","2","48000","-16","task","5072186","even","NA","48046","58225","50052","189218","10622","39358","25181","189722","163800","189216","189723","189162","58225","190606","46283","188661","10077","159944","Lexical Decision Task","60","58596","67","yes","1024"
"2.799799878","0","4","ciff","non-word","88.23529411764706","88.23529411764706","883.2794117647059","883.2794117647059","black","no","legacy","legacy","legacy","0","uniform","0","undefined","undefined","undefined","0","f","0","0","0","0","67","0","0","0","67","0","63","67","63","0","63","3","67","0","67","Thu Feb 18 14:59:03 2021","The main experiment item","yes","Lexical_Decision_Task.osexp","/Users/SophieHeath/Desktop","no","Andale Mono","no","18","no","white","no","yes","576","legacy","63","63","3","/Users/SophieHeath/Desktop/subject-5072186.csv","legacy","Lentiform Loewenfeld","3.3.7","yes","yes","600bd7cfb6416f0113b04181","602110864497cf011d9c0822","0","j","NA","space","space","space","space","j","1467","NA","8172","14467","14176","3922","1467","2","legacy","1024","2","48000","-16","task","5072186","even","NA","48046","58225","50052","192172","10622","39358","25181","192677","163800","192169","192678","192113","58225","194147","46283","188661","10077","190613","Lexical Decision Task","60","60063","68","yes","1024"
"2.953276337","6.32","4","thaw","word","88.40579710144928","88.40579710144928","883.4782608695652","883.4782608695652","black","no","legacy","legacy","legacy","0","uniform","1","undefined","undefined","undefined","1","j","0","0","0","0","68","0","0","0","68","0","64","68","64","0","64","3","68","0","68","Thu Feb 18 14:59:03 2021","The main experiment item","yes","Lexical_Decision_Task.osexp","/Users/SophieHeath/Desktop","no","Andale Mono","no","18","no","white","no","yes","576","legacy","64","64","3","/Users/SophieHeath/Desktop/subject-5072186.csv","legacy","Lentiform Loewenfeld","3.3.7","yes","yes","600bd7cfb6416f0113b04181","602110864497cf011d9c0822","0","j","NA","space","space","space","space","j","897","NA","8172","14467","14176","3922","897","2","legacy","1024","2","48000","-16","task","5072186","even","NA","48046","58225","50052","195723","10622","39358","25181","196228","163800","195720","196228","195662","58225","197126","46283","188661","10077","194161","Lexical Decision Task","61","60960","69","yes","1024"
"3.100255637","0","6","brax","non-word","87.14285714285714","87.14285714285714","886.9","886.9","black","no","legacy","legacy","legacy","0","uniform","0","undefined","undefined","undefined","0","f","0","0","0","0","69","0","0","0","69","0","65","69","65","0","65","3","69","0","69","Thu Feb 18 14:59:03 2021","The main experiment item","yes","Lexical_Decision_Task.osexp","/Users/SophieHeath/Desktop","no","Andale Mono","no","18","no","white","no","yes","576","legacy","65","65","3","/Users/SophieHeath/Desktop/subject-5072186.csv","legacy","Lentiform Loewenfeld","3.3.7","yes","yes","600bd7cfb6416f0113b04181","602110864497cf011d9c0822","0","j","NA","space","space","space","space","j","1123","NA","8172","14467","14176","3922","1123","2","legacy","1024","2","48000","-16","task","5072186","even","NA","48046","58225","50052","197689","10622","39358","25181","198193","163800","197687","198194","197632","58225","199319","46283","197132","10077","194161","Lexical Decision Task","61","62083","70","yes","1024"
"3.068433376","8.09","2","bulb","word","87.32394366197182","87.32394366197182","883.6197183098592","883.6197183098592","black","no","legacy","legacy","legacy","0","uniform","1","undefined","undefined","undefined","1","j","0","0","0","0","70","0","0","0","70","0","66","70","66","0","66","3","70","0","70","Thu Feb 18 14:59:03 2021","The main experiment item","yes","Lexical_Decision_Task.osexp","/Users/SophieHeath/Desktop","no","Andale Mono","no","18","no","white","no","yes","576","legacy","66","66","3","/Users/SophieHeath/Desktop/subject-5072186.csv","legacy","Lentiform Loewenfeld","3.3.7","yes","yes","600bd7cfb6416f0113b04181","602110864497cf011d9c0822","0","j","NA","space","space","space","space","j","654","NA","8172","14467","14176","3922","654","2","legacy","1024","2","48000","-16","task","5072186","even","NA","48046","58225","50052","200887","10622","39358","25181","201390","163800","200884","201390","200826","58225","202046","46283","197132","10077","199326","Lexical Decision Task","62","62737","71","yes","1024"
"2.668385917","5.48","4","twig","word","87.5","87.5","880.2638888888889","880.2638888888889","black","no","legacy","legacy","legacy","0","uniform","1","undefined","undefined","undefined","1","j","0","0","0","0","71","0","0","0","71","0","67","71","67","0","67","3","71","0","71","Thu Feb 18 14:59:03 2021","The main experiment item","yes","Lexical_Decision_Task.osexp","/Users/SophieHeath/Desktop","no","Andale Mono","no","18","no","white","no","yes","576","legacy","67","67","3","/Users/SophieHeath/Desktop/subject-5072186.csv","legacy","Lentiform Loewenfeld","3.3.7","yes","yes","600bd7cfb6416f0113b04181","602110864497cf011d9c0822","0","j","NA","space","space","space","space","j","642","NA","8172","14467","14176","3922","642","2","legacy","1024","2","48000","-16","task","5072186","even","NA","48046","58225","50052","202609","10622","39358","25181","203112","163800","202606","203113","202552","58225","203756","46283","202052","10077","199326","Lexical Decision Task","63","63379","72","yes","1024"
"3.140404328","10.66","9","deep","word","87.67123287671232","87.67123287671232","876.5753424657535","876.5753424657535","black","no","legacy","legacy","legacy","0","uniform","1","undefined","undefined","undefined","1","j","0","0","0","0","72","0","0","0","72","0","68","72","68","0","68","3","72","0","72","Thu Feb 18 14:59:03 2021","The main experiment item","yes","Lexical_Decision_Task.osexp","/Users/SophieHeath/Desktop","no","Andale Mono","no","18","no","white","no","yes","576","legacy","68","68","3","/Users/SophieHeath/Desktop/subject-5072186.csv","legacy","Lentiform Loewenfeld","3.3.7","yes","yes","600bd7cfb6416f0113b04181","602110864497cf011d9c0822","0","j","NA","space","space","space","space","j","611","NA","8172","14467","14176","3922","611","2","legacy","1024","2","48000","-16","task","5072186","even","NA","48046","58225","50052","204335","10622","39358","25181","204839","163800","204332","204839","204264","58225","205452","46283","203764","10077","199326","Lexical Decision Task","64","63990","73","yes","1024"
"2.980911938","7.15","7","hoop","word","87.83783783783784","87.83783783783784","873.081081081081","873.081081081081","black","no","legacy","legacy","legacy","0","uniform","1","undefined","undefined","undefined","1","j","0","0","0","0","73","0","0","0","73","0","69","73","69","0","69","3","73","0","73","Thu Feb 18 14:59:03 2021","The main experiment item","yes","Lexical_Decision_Task.osexp","/Users/SophieHeath/Desktop","no","Andale Mono","no","18","no","white","no","yes","576","legacy","69","69","3","/Users/SophieHeath/Desktop/subject-5072186.csv","legacy","Lentiform Loewenfeld","3.3.7","yes","yes","600bd7cfb6416f0113b04181","602110864497cf011d9c0822","0","j","NA","space","space","space","space","j","618","NA","8172","14467","14176","3922","618","2","legacy","1024","2","48000","-16","task","5072186","even","NA","48046","58225","50052","206020","10622","39358","25181","206524","163800","206015","206524","205958","58225","207144","46283","205458","10077","199326","Lexical Decision Task","65","64608","74","yes","1024"
"2.899638141","0","3","hapt","non-word","88","88","870.88","870.88","black","no","legacy","legacy","legacy","0","uniform","1","undefined","undefined","undefined","1","f","0","0","0","0","74","0","0","0","74","0","70","74","70","0","70","3","74","0","74","Thu Feb 18 14:59:03 2021","The main experiment item","yes","Lexical_Decision_Task.osexp","/Users/SophieHeath/Desktop","no","Andale Mono","no","18","no","white","no","yes","576","legacy","70","70","3","/Users/SophieHeath/Desktop/subject-5072186.csv","legacy","Lentiform Loewenfeld","3.3.7","yes","yes","600bd7cfb6416f0113b04181","602110864497cf011d9c0822","0","f","NA","space","space","space","space","f","708","NA","8172","14467","14176","3922","708","2","legacy","1024","2","48000","-16","task","5072186","even","NA","48046","58225","50052","207708","10622","39358","25181","208212","163800","207705","208213","207650","58225","208922","46283","207149","10077","199326","Lexical Decision Task","66","65316","75","yes","1024"
"2.695481676","0","7","goke","non-word","88.15789473684211","88.15789473684211","870.6842105263158","870.6842105263158","black","no","legacy","legacy","legacy","0","uniform","1","undefined","undefined","undefined","1","f","0","0","0","0","75","0","0","0","75","0","71","75","71","0","71","3","75","0","75","Thu Feb 18 14:59:03 2021","The main experiment item","yes","Lexical_Decision_Task.osexp","/Users/SophieHeath/Desktop","no","Andale Mono","no","18","no","white","no","yes","576","legacy","71","71","3","/Users/SophieHeath/Desktop/subject-5072186.csv","legacy","Lentiform Loewenfeld","3.3.7","yes","yes","600bd7cfb6416f0113b04181","602110864497cf011d9c0822","0","f","NA","space","space","space","space","f","856","NA","8172","14467","14176","3922","856","2","legacy","1024","2","48000","-16","task","5072186","even","NA","48046","58225","50052","209487","10622","39358","25181","209990","163800","209484","209991","209429","58225","210848","46283","208929","10077","199326","Lexical Decision Task","67","66172","76","yes","1024"
"2.8162413","0","5","nusk","non-word","88.31168831168831","88.31168831168831","871.9480519480519","871.9480519480519","black","no","legacy","legacy","legacy","0","uniform","1","undefined","undefined","undefined","1","f","0","0","0","0","76","0","0","0","76","0","72","76","72","0","72","3","76","0","76","Thu Feb 18 14:59:03 2021","The main experiment item","yes","Lexical_Decision_Task.osexp","/Users/SophieHeath/Desktop","no","Andale Mono","no","18","no","white","no","yes","576","legacy","72","72","3","/Users/SophieHeath/Desktop/subject-5072186.csv","legacy","Lentiform Loewenfeld","3.3.7","yes","yes","600bd7cfb6416f0113b04181","602110864497cf011d9c0822","0","f","NA","space","space","space","space","f","968","NA","8172","14467","14176","3922","968","2","legacy","1024","2","48000","-16","task","5072186","even","NA","48046","58225","50052","211412","10622","39358","25181","211916","163800","211410","211917","211355","58225","212886","46283","210854","10077","199326","Lexical Decision Task","68","67140","77","yes","1024"
"3.495914186","0","4","peng","non-word","88.46153846153847","88.46153846153847","883.7051282051282","883.7051282051282","black","no","legacy","legacy","legacy","0","uniform","1","undefined","undefined","undefined","1","f","0","0","0","0","77","0","0","0","77","0","73","77","73","0","73","3","77","0","77","Thu Feb 18 14:59:03 2021","The main experiment item","yes","Lexical_Decision_Task.osexp","/Users/SophieHeath/Desktop","no","Andale Mono","no","18","no","white","no","yes","576","legacy","73","73","3","/Users/SophieHeath/Desktop/subject-5072186.csv","legacy","Lentiform Loewenfeld","3.3.7","yes","yes","600bd7cfb6416f0113b04181","602110864497cf011d9c0822","0","f","NA","space","space","space","space","f","1789","NA","8172","14467","14176","3922","1789","2","legacy","1024","2","48000","-16","task","5072186","even","NA","48046","58225","50052","213450","10622","39358","25181","213954","163800","213447","213955","213393","58225","215745","46283","212892","10077","199326","Lexical Decision Task","69","68929","78","yes","1024"
"2.843025032","0","9","pusk","non-word","88.60759493670886","88.60759493670886","882.3417721518987","882.3417721518987","black","no","legacy","legacy","legacy","0","uniform","1","undefined","undefined","undefined","1","f","0","0","0","0","78","0","0","0","78","0","74","78","74","0","74","3","78","0","78","Thu Feb 18 14:59:03 2021","The main experiment item","yes","Lexical_Decision_Task.osexp","/Users/SophieHeath/Desktop","no","Andale Mono","no","18","no","white","no","yes","576","legacy","74","74","3","/Users/SophieHeath/Desktop/subject-5072186.csv","legacy","Lentiform Loewenfeld","3.3.7","yes","yes","600bd7cfb6416f0113b04181","602110864497cf011d9c0822","0","f","NA","space","space","space","space","f","776","NA","8172","14467","14176","3922","776","2","legacy","1024","2","48000","-16","task","5072186","even","NA","48046","58225","50052","216330","10622","39358","25181","216835","163800","216327","216836","216251","58225","217614","46283","215751","10077","199326","Lexical Decision Task","70","69705","79","yes","1024"
"3.29439347","8.6","9","wand","word","88.75","88.75","880.6375","880.6375","black","no","legacy","legacy","legacy","0","uniform","1","undefined","undefined","undefined","1","j","0","0","0","0","79","0","0","0","79","0","75","79","75","0","75","3","79","0","79","Thu Feb 18 14:59:03 2021","The main experiment item","yes","Lexical_Decision_Task.osexp","/Users/SophieHeath/Desktop","no","Andale Mono","no","18","no","white","no","yes","576","legacy","75","75","3","/Users/SophieHeath/Desktop/subject-5072186.csv","legacy","Lentiform Loewenfeld","3.3.7","yes","yes","600bd7cfb6416f0113b04181","602110864497cf011d9c0822","0","j","NA","space","space","space","space","j","746","NA","8172","14467","14176","3922","746","2","legacy","1024","2","48000","-16","task","5072186","even","NA","48046","58225","50052","218182","10622","39358","25181","218686","163800","218179","218686","218120","58225","219434","46283","217620","10077","199326","Lexical Decision Task","71","70451","80","yes","1024"
"3.492014979","0","9","yine","non-word","88.88888888888889","88.88888888888889","879.0493827160494","879.0493827160494","black","no","legacy","legacy","legacy","0","uniform","1","undefined","undefined","undefined","1","f","0","0","0","0","80","0","0","0","80","0","76","80","76","0","76","3","80","0","80","Thu Feb 18 14:59:03 2021","The main experiment item","yes","Lexical_Decision_Task.osexp","/Users/SophieHeath/Desktop","no","Andale Mono","no","18","no","white","no","yes","576","legacy","76","76","3","/Users/SophieHeath/Desktop/subject-5072186.csv","legacy","Lentiform Loewenfeld","3.3.7","yes","yes","600bd7cfb6416f0113b04181","602110864497cf011d9c0822","0","f","NA","space","space","space","space","f","752","NA","8172","14467","14176","3922","752","2","legacy","1024","2","48000","-16","task","5072186","even","NA","48046","58225","50052","219997","10622","39358","25181","220500","163800","219994","220501","219940","58225","221255","46283","219440","10077","199326","Lexical Decision Task","72","71203","81","yes","1024"
"3.119255889","6.63","2","itch","word","89.02439024390245","89.02439024390245","875.7682926829268","875.7682926829268","black","no","legacy","legacy","legacy","0","uniform","1","undefined","undefined","undefined","1","j","0","0","0","0","81","0","0","0","81","0","77","81","77","0","77","3","81","0","81","Thu Feb 18 14:59:03 2021","The main experiment item","yes","Lexical_Decision_Task.osexp","/Users/SophieHeath/Desktop","no","Andale Mono","no","18","no","white","no","yes","576","legacy","77","77","3","/Users/SophieHeath/Desktop/subject-5072186.csv","legacy","Lentiform Loewenfeld","3.3.7","yes","yes","600bd7cfb6416f0113b04181","602110864497cf011d9c0822","0","j","NA","space","space","space","space","j","610","NA","8172","14467","14176","3922","610","2","legacy","1024","2","48000","-16","task","5072186","even","NA","48046","58225","50052","221837","10622","39358","25181","222341","163800","221834","222342","221767","58225","222954","46283","221267","10077","199326","Lexical Decision Task","73","71813","82","yes","1024"
"3.384413096","10.15","3","glad","word","89.1566265060241","89.1566265060241","872","872","black","no","legacy","legacy","legacy","0","uniform","1","undefined","undefined","undefined","1","j","0","0","0","0","82","0","0","0","82","0","78","82","78","0","78","3","82","0","82","Thu Feb 18 14:59:03 2021","The main experiment item","yes","Lexical_Decision_Task.osexp","/Users/SophieHeath/Desktop","no","Andale Mono","no","18","no","white","no","yes","576","legacy","78","78","3","/Users/SophieHeath/Desktop/subject-5072186.csv","legacy","Lentiform Loewenfeld","3.3.7","yes","yes","600bd7cfb6416f0113b04181","602110864497cf011d9c0822","0","j","NA","space","space","space","space","j","563","NA","8172","14467","14176","3922","563","2","legacy","1024","2","48000","-16","task","5072186","even","NA","48046","58225","50052","223529","10622","39358","25181","224034","163800","223525","224034","223464","58225","224599","46283","222964","10077","199326","Lexical Decision Task","74","72376","83","yes","1024"
"3.257359335","8","6","brew","word","89.28571428571429","89.28571428571429","869.4404761904761","869.4404761904761","black","no","legacy","legacy","legacy","0","uniform","1","undefined","undefined","undefined","1","j","0","0","0","0","83","0","0","0","83","0","79","83","79","0","79","3","83","0","83","Thu Feb 18 14:59:03 2021","The main experiment item","yes","Lexical_Decision_Task.osexp","/Users/SophieHeath/Desktop","no","Andale Mono","no","18","no","white","no","yes","576","legacy","79","79","3","/Users/SophieHeath/Desktop/subject-5072186.csv","legacy","Lentiform Loewenfeld","3.3.7","yes","yes","600bd7cfb6416f0113b04181","602110864497cf011d9c0822","0","j","NA","space","space","space","space","j","657","NA","8172","14467","14176","3922","657","2","legacy","1024","2","48000","-16","task","5072186","even","NA","48046","58225","50052","225161","10622","39358","25181","225666","163800","225158","225667","225105","58225","226326","46283","224605","10077","199326","Lexical Decision Task","75","73033","84","yes","1024"
"2.838639236","0","4","furg","non-word","89.41176470588235","89.41176470588235","866.0941176470589","866.0941176470589","black","no","legacy","legacy","legacy","0","uniform","1","undefined","undefined","undefined","1","f","0","0","0","0","84","0","0","0","84","0","80","84","80","0","80","3","84","0","84","Thu Feb 18 14:59:03 2021","The main experiment item","yes","Lexical_Decision_Task.osexp","/Users/SophieHeath/Desktop","no","Andale Mono","no","18","no","white","no","yes","576","legacy","80","80","3","/Users/SophieHeath/Desktop/subject-5072186.csv","legacy","Lentiform Loewenfeld","3.3.7","yes","yes","600bd7cfb6416f0113b04181","602110864497cf011d9c0822","0","f","NA","space","space","space","space","f","585","NA","8172","14467","14176","3922","585","2","legacy","1024","2","48000","-16","task","5072186","even","NA","48046","58225","50052","226889","10622","39358","25181","227394","163800","226886","227394","226833","58225","227980","46283","226333","10077","199326","Lexical Decision Task","76","73618","85","yes","1024"
"3.120025233","0","2","nyst","non-word","89.53488372093024","89.53488372093024","864.1046511627907","864.1046511627907","black","no","legacy","legacy","legacy","0","uniform","1","undefined","undefined","undefined","1","f","0","0","0","0","85","0","0","0","85","0","81","85","81","0","81","3","85","0","85","Thu Feb 18 14:59:03 2021","The main experiment item","yes","Lexical_Decision_Task.osexp","/Users/SophieHeath/Desktop","no","Andale Mono","no","18","no","white","no","yes","576","legacy","81","81","3","/Users/SophieHeath/Desktop/subject-5072186.csv","legacy","Lentiform Loewenfeld","3.3.7","yes","yes","600bd7cfb6416f0113b04181","602110864497cf011d9c0822","0","f","NA","space","space","space","space","f","695","NA","8172","14467","14176","3922","695","2","legacy","1024","2","48000","-16","task","5072186","even","NA","48046","58225","50052","228556","10622","39358","25181","229059","163800","228553","229059","228487","58225","229757","46283","227986","10077","199326","Lexical Decision Task","77","74313","86","yes","1024"
"3.460446784","0","5","dess","non-word","89.65517241379311","89.65517241379311","866.448275862069","866.448275862069","black","no","legacy","legacy","legacy","0","uniform","1","undefined","undefined","undefined","1","f","0","0","0","0","86","0","0","0","86","0","82","86","82","0","82","3","86","0","86","Thu Feb 18 14:59:03 2021","The main experiment item","yes","Lexical_Decision_Task.osexp","/Users/SophieHeath/Desktop","no","Andale Mono","no","18","no","white","no","yes","576","legacy","82","82","3","/Users/SophieHeath/Desktop/subject-5072186.csv","legacy","Lentiform Loewenfeld","3.3.7","yes","yes","600bd7cfb6416f0113b04181","602110864497cf011d9c0822","0","f","NA","space","space","space","space","f","1068","NA","8172","14467","14176","3922","1068","2","legacy","1024","2","48000","-16","task","5072186","even","NA","48046","58225","50052","230337","10622","39358","25181","230841","163800","230334","230841","230264","58225","231911","46283","229764","10077","199326","Lexical Decision Task","78","75381","87","yes","1024"
"3.102203805","7.21","3","drip","word","89.77272727272727","89.77272727272727","863.7613636363636","863.7613636363636","black","no","legacy","legacy","legacy","0","uniform","1","undefined","undefined","undefined","1","j","0","0","0","0","87","0","0","0","87","0","83","87","83","0","83","3","87","0","87","Thu Feb 18 14:59:03 2021","The main experiment item","yes","Lexical_Decision_Task.osexp","/Users/SophieHeath/Desktop","no","Andale Mono","no","18","no","white","no","yes","576","legacy","83","83","3","/Users/SophieHeath/Desktop/subject-5072186.csv","legacy","Lentiform Loewenfeld","3.3.7","yes","yes","600bd7cfb6416f0113b04181","602110864497cf011d9c0822","0","j","NA","space","space","space","space","j","630","NA","8172","14467","14176","3922","630","2","legacy","1024","2","48000","-16","task","5072186","even","NA","48046","58225","50052","232474","10622","39358","25181","232977","163800","232471","232978","232417","58225","233610","46283","231917","10077","199326","Lexical Decision Task","79","76011","88","yes","1024"
"2.971428938","9.86","7","spot","word","89.88764044943821","89.88764044943821","860.2921348314607","860.2921348314607","black","no","legacy","legacy","legacy","0","uniform","1","undefined","undefined","undefined","1","j","0","0","0","0","88","0","0","0","88","0","84","88","84","0","84","3","88","0","88","Thu Feb 18 14:59:03 2021","The main experiment item","yes","Lexical_Decision_Task.osexp","/Users/SophieHeath/Desktop","no","Andale Mono","no","18","no","white","no","yes","576","legacy","84","84","3","/Users/SophieHeath/Desktop/subject-5072186.csv","legacy","Lentiform Loewenfeld","3.3.7","yes","yes","600bd7cfb6416f0113b04181","602110864497cf011d9c0822","0","j","NA","space","space","space","space","j","555","NA","8172","14467","14176","3922","555","2","legacy","1024","2","48000","-16","task","5072186","even","NA","48046","58225","50052","234173","10622","39358","25181","234676","163800","234170","234677","234116","58225","235234","46283","233616","10077","199326","Lexical Decision Task","80","76566","89","yes","1024"
"3.20996159","0","4","clee","non-word","90","90","858.4444444444445","858.4444444444445","black","no","legacy","legacy","legacy","0","uniform","1","undefined","undefined","undefined","1","f","0","0","0","0","89","0","0","0","89","0","85","89","85","0","85","3","89","0","89","Thu Feb 18 14:59:03 2021","The main experiment item","yes","Lexical_Decision_Task.osexp","/Users/SophieHeath/Desktop","no","Andale Mono","no","18","no","white","no","yes","576","legacy","85","85","3","/Users/SophieHeath/Desktop/subject-5072186.csv","legacy","Lentiform Loewenfeld","3.3.7","yes","yes","600bd7cfb6416f0113b04181","602110864497cf011d9c0822","0","f","NA","space","space","space","space","f","694","NA","8172","14467","14176","3922","694","2","legacy","1024","2","48000","-16","task","5072186","even","NA","48046","58225","50052","235809","10622","39358","25181","236311","163800","235806","236312","235740","58225","237009","46283","235240","10077","199326","Lexical Decision Task","81","77260","90","yes","1024"
"2.664011697","8.19","4","hawk","word","90.10989010989012","90.10989010989012","858","858","black","no","legacy","legacy","legacy","0","uniform","1","undefined","undefined","undefined","1","j","0","0","0","0","90","0","0","0","90","0","86","90","86","0","86","3","90","0","90","Thu Feb 18 14:59:03 2021","The main experiment item","yes","Lexical_Decision_Task.osexp","/Users/SophieHeath/Desktop","no","Andale Mono","no","18","no","white","no","yes","576","legacy","86","86","3","/Users/SophieHeath/Desktop/subject-5072186.csv","legacy","Lentiform Loewenfeld","3.3.7","yes","yes","600bd7cfb6416f0113b04181","602110864497cf011d9c0822","0","j","NA","space","space","space","space","j","818","NA","8172","14467","14176","3922","818","2","legacy","1024","2","48000","-16","task","5072186","even","NA","48046","58225","50052","237587","10622","39358","25181","238090","163800","237584","238091","237516","58225","238911","46283","237015","10077","199326","Lexical Decision Task","82","78078","91","yes","1024"
"3.269668578","0","7","trag","non-word","90.21739130434783","90.21739130434783","857.3152173913044","857.3152173913044","black","no","legacy","legacy","legacy","0","uniform","1","undefined","undefined","undefined","1","f","0","0","0","0","91","0","0","0","91","0","87","91","87","0","87","3","91","0","91","Thu Feb 18 14:59:03 2021","The main experiment item","yes","Lexical_Decision_Task.osexp","/Users/SophieHeath/Desktop","no","Andale Mono","no","18","no","white","no","yes","576","legacy","87","87","3","/Users/SophieHeath/Desktop/subject-5072186.csv","legacy","Lentiform Loewenfeld","3.3.7","yes","yes","600bd7cfb6416f0113b04181","602110864497cf011d9c0822","0","f","NA","space","space","space","space","f","795","NA","8172","14467","14176","3922","795","2","legacy","1024","2","48000","-16","task","5072186","even","NA","48046","58225","50052","239477","10622","39358","25181","239981","163800","239474","239982","239417","58225","240780","46283","238917","10077","199326","Lexical Decision Task","83","78873","92","yes","1024"
"2.703007489","8.37","3","pulp","word","90.3225806451613","90.3225806451613","855.741935483871","855.741935483871","black","no","legacy","legacy","legacy","0","uniform","1","undefined","undefined","undefined","1","j","0","0","0","0","92","0","0","0","92","0","88","92","88","0","88","3","92","0","92","Thu Feb 18 14:59:03 2021","The main experiment item","yes","Lexical_Decision_Task.osexp","/Users/SophieHeath/Desktop","no","Andale Mono","no","18","no","white","no","yes","576","legacy","88","88","3","/Users/SophieHeath/Desktop/subject-5072186.csv","legacy","Lentiform Loewenfeld","3.3.7","yes","yes","600bd7cfb6416f0113b04181","602110864497cf011d9c0822","0","j","NA","space","space","space","space","j","711","NA","8172","14467","14176","3922","711","2","legacy","1024","2","48000","-16","task","5072186","even","NA","48046","58225","50052","241349","10622","39358","25181","241853","163800","241346","241854","241288","58225","242566","46283","240787","10077","199326","Lexical Decision Task","84","79584","93","yes","1024"
"2.68604012","0","3","mulb","non-word","90.42553191489361","90.42553191489361","852.5","852.5","black","no","legacy","legacy","legacy","0","uniform","1","undefined","undefined","undefined","1","f","0","0","0","0","93","0","0","0","93","0","89","93","89","0","89","3","93","0","93","Thu Feb 18 14:59:03 2021","The main experiment item","yes","Lexical_Decision_Task.osexp","/Users/SophieHeath/Desktop","no","Andale Mono","no","18","no","white","no","yes","576","legacy","89","89","3","/Users/SophieHeath/Desktop/subject-5072186.csv","legacy","Lentiform Loewenfeld","3.3.7","yes","yes","600bd7cfb6416f0113b04181","602110864497cf011d9c0822","0","f","NA","space","space","space","space","f","551","NA","8172","14467","14176","3922","551","2","legacy","1024","2","48000","-16","task","5072186","even","NA","48046","58225","50052","243130","10622","39358","25181","243635","163800","243128","243636","243072","58225","244188","46283","242572","10077","199326","Lexical Decision Task","85","80135","94","yes","1024"
"2.728085817","10.02","9","bike","word","90.52631578947368","90.52631578947368","849.1578947368421","849.1578947368421","black","no","legacy","legacy","legacy","0","uniform","1","undefined","undefined","undefined","1","j","0","0","0","0","94","0","0","0","94","0","90","94","90","0","90","3","94","0","94","Thu Feb 18 14:59:03 2021","The main experiment item","yes","Lexical_Decision_Task.osexp","/Users/SophieHeath/Desktop","no","Andale Mono","no","18","no","white","no","yes","576","legacy","90","90","3","/Users/SophieHeath/Desktop/subject-5072186.csv","legacy","Lentiform Loewenfeld","3.3.7","yes","yes","600bd7cfb6416f0113b04181","602110864497cf011d9c0822","0","j","NA","space","space","space","space","j","535","NA","8172","14467","14176","3922","535","2","legacy","1024","2","48000","-16","task","5072186","even","NA","48046","58225","50052","244752","10622","39358","25181","245256","163800","244749","245256","244694","58225","245793","46283","244194","10077","199326","Lexical Decision Task","86","80670","95","yes","1024"
"2.594027722","9.08","8","skip","word","90.625","90.625","845.7083333333334","845.7083333333334","black","no","legacy","legacy","legacy","0","uniform","1","undefined","undefined","undefined","1","j","0","0","0","0","95","0","0","0","95","0","91","95","91","0","91","3","95","0","95","Thu Feb 18 14:59:03 2021","The main experiment item","yes","Lexical_Decision_Task.osexp","/Users/SophieHeath/Desktop","no","Andale Mono","no","18","no","white","no","yes","576","legacy","91","91","3","/Users/SophieHeath/Desktop/subject-5072186.csv","legacy","Lentiform Loewenfeld","3.3.7","yes","yes","600bd7cfb6416f0113b04181","602110864497cf011d9c0822","0","j","NA","space","space","space","space","j","518","NA","8172","14467","14176","3922","518","2","legacy","1024","2","48000","-16","task","5072186","even","NA","48046","58225","50052","246359","10622","39358","25181","246862","163800","246356","246863","246301","58225","247383","46283","245801","10077","199326","Lexical Decision Task","87","81188","96","yes","1024"
"3.133964479","0","8","graw","non-word","90.72164948453609","90.72164948453609","844.6907216494845","844.6907216494845","black","no","legacy","legacy","legacy","0","uniform","1","undefined","undefined","undefined","1","f","0","0","0","0","96","0","0","0","96","0","92","96","92","0","92","3","96","0","96","Thu Feb 18 14:59:03 2021","The main experiment item","yes","Lexical_Decision_Task.osexp","/Users/SophieHeath/Desktop","no","Andale Mono","no","18","no","white","no","yes","576","legacy","92","92","3","/Users/SophieHeath/Desktop/subject-5072186.csv","legacy","Lentiform Loewenfeld","3.3.7","yes","yes","600bd7cfb6416f0113b04181","602110864497cf011d9c0822","0","f","NA","space","space","space","space","f","747","NA","8172","14467","14176","3922","747","2","legacy","1024","2","48000","-16","task","5072186","even","NA","48046","58225","50052","247959","10622","39358","25181","248463","163800","247955","248464","247888","58225","249213","46283","247388","10077","199326","Lexical Decision Task","88","81935","97","yes","1024"
"3.062080345","0","6","tomp","non-word","90.81632653061224","90.81632653061224","847.6326530612245","847.6326530612245","black","no","legacy","legacy","legacy","0","uniform","1","undefined","undefined","undefined","1","f","0","0","0","0","97","0","0","0","97","0","93","97","93","0","93","3","97","0","97","Thu Feb 18 14:59:03 2021","The main experiment item","yes","Lexical_Decision_Task.osexp","/Users/SophieHeath/Desktop","no","Andale Mono","no","18","no","white","no","yes","576","legacy","93","93","3","/Users/SophieHeath/Desktop/subject-5072186.csv","legacy","Lentiform Loewenfeld","3.3.7","yes","yes","600bd7cfb6416f0113b04181","602110864497cf011d9c0822","0","f","NA","space","space","space","space","f","1133","NA","8172","14467","14176","3922","1133","2","legacy","1024","2","48000","-16","task","5072186","even","NA","48046","58225","50052","249795","10622","39358","25181","250298","163800","249791","250299","249720","58225","251434","46283","249220","10077","199326","Lexical Decision Task","89","83068","98","yes","1024"
"2.6599162","0","2","saff","non-word","90.9090909090909","90.9090909090909","845.6464646464647","845.6464646464647","black","no","legacy","legacy","legacy","0","uniform","1","undefined","undefined","undefined","1","f","0","0","0","0","98","0","0","0","98","0","94","98","94","0","94","3","98","0","98","Thu Feb 18 14:59:03 2021","The main experiment item","yes","Lexical_Decision_Task.osexp","/Users/SophieHeath/Desktop","no","Andale Mono","no","18","no","white","no","yes","576","legacy","94","94","3","/Users/SophieHeath/Desktop/subject-5072186.csv","legacy","Lentiform Loewenfeld","3.3.7","yes","yes","600bd7cfb6416f0113b04181","602110864497cf011d9c0822","0","f","NA","space","space","space","space","f","651","NA","8172","14467","14176","3922","651","2","legacy","1024","2","48000","-16","task","5072186","even","NA","48046","58225","50052","252053","10622","39358","25181","252557","163800","252049","252558","251976","58225","253211","46283","251475","10077","199326","Lexical Decision Task","90","83719","99","yes","1024"
"2.794720352","0","9","koot","non-word","91","91","843.88","843.88","black","no","legacy","legacy","legacy","0","uniform","1","undefined","undefined","undefined","1","f","0","0","0","0","99","0","0","0","99","0","95","99","95","0","95","3","99","0","99","Thu Feb 18 14:59:03 2021","The main experiment item","yes","Lexical_Decision_Task.osexp","/Users/SophieHeath/Desktop","no","Andale Mono","no","18","no","white","no","yes","576","legacy","95","95","3","/Users/SophieHeath/Desktop/subject-5072186.csv","legacy","Lentiform Loewenfeld","3.3.7","yes","yes","600bd7cfb6416f0113b04181","602110864497cf011d9c0822","0","f","NA","space","space","space","space","f","669","NA","8172","14467","14176","3922","669","2","legacy","1024","2","48000","-16","task","5072186","even","NA","48046","58225","50052","253785","10622","39358","25181","254290","163800","253780","254290","253717","58225","254961","46283","253217","10077","199326","Lexical Decision Task","91","84388","100","yes","1024"
