"Log_BG","Log_Freq_HAL","Ortho_N","Stimulus","Type","acc","accuracy","average_response_time","avg_rt","background","bidi","canvas_backend","clock_backend","color_backend","compensation","coordinates","correct","correct_Experimental_intro","correct_Introduction","correct_Practice_intro","correct_experimenter_kb","correct_response","count_End_Of_Experiment","count_End_Of_Practice","count_Experimental_Loop","count_Experimental_intro","count_Fixation","count_Introduction","count_Practice_Loop","count_Practice_intro","count_Stimulus","count_block_break_feedback","count_experimental_sequence","count_experimenter_kb","count_increment_trial_count","count_init_trial_count","count_logger","count_practice_sequence","count_right","count_task","count_wrong","datetime","description","disable_garbage_collection","experiment_file","experiment_path","font_bold","font_family","font_italic","font_size","font_underline","foreground","form_clicks","fullscreen","height","keyboard_backend","live_row","live_row_Experimental_Loop","live_row_Practice_Loop","logfile","mouse_backend","opensesame_codename","opensesame_version","osf_always_upload_data","osf_always_upload_experiment","osf_datanode_id","osf_id","repeat_cycle","response","response_End_Of_Experiment","response_Experimental_intro","response_Introduction","response_Practice_intro","response_block_break_feedback","response_experimenter_kb","response_time","response_time_End_Of_Experiment","response_time_Experimental_intro","response_time_Introduction","response_time_Practice_intro","response_time_block_break_feedback","response_time_experimenter_kb","round_decimals","sampler_backend","sound_buf_size","sound_channels","sound_freq","sound_sample_size","start","subject_nr","subject_parity","time_End_Of_Experiment","time_End_Of_Practice","time_Experimental_Loop","time_Experimental_intro","time_Fixation","time_Introduction","time_Practice_Loop","time_Practice_intro","time_Stimulus","time_block_break_feedback","time_experimental_sequence","time_experimenter_kb","time_increment_trial_count","time_init_trial_count","time_logger","time_practice_sequence","time_right","time_task","time_wrong","title","total_correct","total_response_time","total_responses","uniform_coordinates","width"
"3.431095062","5.74","9","perk","word","100","100","765.2","765.2","black","no","legacy","legacy","legacy","0","uniform","1","undefined","undefined","undefined","1","j","0","0","0","0","4","0","0","0","4","NA","0","4","0","0","0","3","4","0","4","Mon Feb 15 13:10:01 2021","The main experiment item","yes","Lexical_Decision_Task.osexp","/Users/davinaasworth/Documents","no","Andale Mono","no","18","no","white","no","yes","576","legacy","0","0","3","/Users/davinaasworth/Documents/subject-5206966.csv","legacy","Lentiform Loewenfeld","3.3.7","yes","yes","600bd7cfb6416f0113b04181","602110864497cf011d9c0822","0","j","NA","space","space","space","NA","j","943","NA","28389","28057","12065","NA","943","2","legacy","1024","2","48000","-16","task","5206966","even","NA","52683","83076","54687","83109","5367","45509","33440","83614","NA","83106","83614","NA","83076","84558","50872","52156","5329","NA","Lexical Decision Task","5","3826","5","yes","1024"
"2.803231716","5.26","3","kiln","word","83.33333333333333","83.33333333333333","756.6666666666666","756.6666666666666","black","no","legacy","legacy","legacy","0","uniform","0","undefined","undefined","undefined","0","j","0","0","0","0","5","0","0","0","5","NA","1","5","1","0","1","3","5","0","5","Mon Feb 15 13:10:01 2021","The main experiment item","yes","Lexical_Decision_Task.osexp","/Users/davinaasworth/Documents","no","Andale Mono","no","18","no","white","no","yes","576","legacy","1","1","3","/Users/davinaasworth/Documents/subject-5206966.csv","legacy","Lentiform Loewenfeld","3.3.7","yes","yes","600bd7cfb6416f0113b04181","602110864497cf011d9c0822","0","f","NA","space","space","space","NA","f","714","NA","28389","28057","12065","NA","714","2","legacy","1024","2","48000","-16","task","5206966","even","NA","52683","83076","54687","85125","5367","45509","33440","85629","NA","85122","85629","85067","83076","86343","50872","84567","5329","NA","Lexical Decision Task","5","4540","6","yes","1024"
"3.495914186","0","4","peng","non-word","71.42857142857143","71.42857142857143","732.2857142857143","732.2857142857143","black","no","legacy","legacy","legacy","0","uniform","0","undefined","undefined","undefined","0","f","0","0","0","0","6","0","0","0","6","NA","2","6","2","0","2","3","6","0","6","Mon Feb 15 13:10:01 2021","The main experiment item","yes","Lexical_Decision_Task.osexp","/Users/davinaasworth/Documents","no","Andale Mono","no","18","no","white","no","yes","576","legacy","2","2","3","/Users/davinaasworth/Documents/subject-5206966.csv","legacy","Lentiform Loewenfeld","3.3.7","yes","yes","600bd7cfb6416f0113b04181","602110864497cf011d9c0822","0","j","NA","space","space","space","NA","j","586","NA","28389","28057","12065","NA","586","2","legacy","1024","2","48000","-16","task","5206966","even","NA","52683","83076","54687","87907","5367","45509","33440","88410","NA","87904","88411","87849","83076","88997","50872","84567","5329","86348","Lexical Decision Task","5","5126","7","yes","1024"
"3.165936429","0","7","leps","non-word","62.5","62.5","723.375","723.375","black","no","legacy","legacy","legacy","0","uniform","0","undefined","undefined","undefined","0","f","0","0","0","0","7","0","0","0","7","NA","3","7","3","0","3","3","7","0","7","Mon Feb 15 13:10:01 2021","The main experiment item","yes","Lexical_Decision_Task.osexp","/Users/davinaasworth/Documents","no","Andale Mono","no","18","no","white","no","yes","576","legacy","3","3","3","/Users/davinaasworth/Documents/subject-5206966.csv","legacy","Lentiform Loewenfeld","3.3.7","yes","yes","600bd7cfb6416f0113b04181","602110864497cf011d9c0822","0","j","NA","space","space","space","NA","j","661","NA","28389","28057","12065","NA","661","2","legacy","1024","2","48000","-16","task","5206966","even","NA","52683","83076","54687","90560","5367","45509","33440","91063","NA","90557","91064","90503","83076","91726","50872","84567","5329","89003","Lexical Decision Task","5","5787","8","yes","1024"
"2.843025032","0","9","pusk","non-word","66.66666666666667","66.66666666666667","785.8888888888889","785.8888888888889","black","no","legacy","legacy","legacy","0","uniform","1","undefined","undefined","undefined","1","f","0","0","0","0","8","0","0","0","8","NA","4","8","4","0","4","3","8","0","8","Mon Feb 15 13:10:01 2021","The main experiment item","yes","Lexical_Decision_Task.osexp","/Users/davinaasworth/Documents","no","Andale Mono","no","18","no","white","no","yes","576","legacy","4","4","3","/Users/davinaasworth/Documents/subject-5206966.csv","legacy","Lentiform Loewenfeld","3.3.7","yes","yes","600bd7cfb6416f0113b04181","602110864497cf011d9c0822","0","f","NA","space","space","space","NA","f","1286","NA","28389","28057","12065","NA","1286","2","legacy","1024","2","48000","-16","task","5206966","even","NA","52683","83076","54687","93288","5367","45509","33440","93792","NA","93285","93793","93231","83076","95080","50872","84567","5329","91731","Lexical Decision Task","6","7073","9","yes","1024"
"3.443783828","7.65","3","verb","word","70","70","775.1","775.1","black","no","legacy","legacy","legacy","0","uniform","1","undefined","undefined","undefined","1","j","0","0","0","0","9","0","0","0","9","NA","5","9","5","0","5","3","9","0","9","Mon Feb 15 13:10:01 2021","The main experiment item","yes","Lexical_Decision_Task.osexp","/Users/davinaasworth/Documents","no","Andale Mono","no","18","no","white","no","yes","576","legacy","5","5","3","/Users/davinaasworth/Documents/subject-5206966.csv","legacy","Lentiform Loewenfeld","3.3.7","yes","yes","600bd7cfb6416f0113b04181","602110864497cf011d9c0822","0","j","NA","space","space","space","NA","j","678","NA","28389","28057","12065","NA","678","2","legacy","1024","2","48000","-16","task","5206966","even","NA","52683","83076","54687","95640","5367","45509","33440","96143","NA","95637","96144","95586","83076","96823","50872","95085","5329","91731","Lexical Decision Task","7","7751","10","yes","1024"
"2.594027722","9.08","8","skip","word","72.72727272727273","72.72727272727273","768.0909090909091","768.0909090909091","black","no","legacy","legacy","legacy","0","uniform","1","undefined","undefined","undefined","1","j","0","0","0","0","10","0","0","0","10","NA","6","10","6","0","6","3","10","0","10","Mon Feb 15 13:10:01 2021","The main experiment item","yes","Lexical_Decision_Task.osexp","/Users/davinaasworth/Documents","no","Andale Mono","no","18","no","white","no","yes","576","legacy","6","6","3","/Users/davinaasworth/Documents/subject-5206966.csv","legacy","Lentiform Loewenfeld","3.3.7","yes","yes","600bd7cfb6416f0113b04181","602110864497cf011d9c0822","0","j","NA","space","space","space","NA","j","698","NA","28389","28057","12065","NA","698","2","legacy","1024","2","48000","-16","task","5206966","even","NA","52683","83076","54687","97383","5367","45509","33440","97886","NA","97380","97887","97328","83076","98586","50872","96828","5329","91731","Lexical Decision Task","8","8449","11","yes","1024"
"3.119255889","6.63","2","itch","word","75","75","763.9166666666666","763.9166666666666","black","no","legacy","legacy","legacy","0","uniform","1","undefined","undefined","undefined","1","j","0","0","0","0","11","0","0","0","11","NA","7","11","7","0","7","3","11","0","11","Mon Feb 15 13:10:01 2021","The main experiment item","yes","Lexical_Decision_Task.osexp","/Users/davinaasworth/Documents","no","Andale Mono","no","18","no","white","no","yes","576","legacy","7","7","3","/Users/davinaasworth/Documents/subject-5206966.csv","legacy","Lentiform Loewenfeld","3.3.7","yes","yes","600bd7cfb6416f0113b04181","602110864497cf011d9c0822","0","j","NA","space","space","space","NA","j","718","NA","28389","28057","12065","NA","718","2","legacy","1024","2","48000","-16","task","5206966","even","NA","52683","83076","54687","99146","5367","45509","33440","99649","NA","99143","99650","99091","83076","100368","50872","98591","5329","91731","Lexical Decision Task","9","9167","12","yes","1024"
"3.197740804","6.74","3","ache","word","76.92307692307692","76.92307692307692","756.3846153846154","756.3846153846154","black","no","legacy","legacy","legacy","0","uniform","1","undefined","undefined","undefined","1","j","0","0","0","0","12","0","0","0","12","NA","8","12","8","0","8","3","12","0","12","Mon Feb 15 13:10:01 2021","The main experiment item","yes","Lexical_Decision_Task.osexp","/Users/davinaasworth/Documents","no","Andale Mono","no","18","no","white","no","yes","576","legacy","8","8","3","/Users/davinaasworth/Documents/subject-5206966.csv","legacy","Lentiform Loewenfeld","3.3.7","yes","yes","600bd7cfb6416f0113b04181","602110864497cf011d9c0822","0","j","NA","space","space","space","NA","j","666","NA","28389","28057","12065","NA","666","2","legacy","1024","2","48000","-16","task","5206966","even","NA","52683","83076","54687","100928","5367","45509","33440","101432","NA","100925","101432","100874","83076","102098","50872","100374","5329","91731","Lexical Decision Task","10","9833","13","yes","1024"
"2.899638141","0","3","hapt","non-word","78.57142857142857","78.57142857142857","746.4285714285714","746.4285714285714","black","no","legacy","legacy","legacy","0","uniform","1","undefined","undefined","undefined","1","f","0","0","0","0","13","0","0","0","13","NA","9","13","9","0","9","3","13","0","13","Mon Feb 15 13:10:01 2021","The main experiment item","yes","Lexical_Decision_Task.osexp","/Users/davinaasworth/Documents","no","Andale Mono","no","18","no","white","no","yes","576","legacy","9","9","3","/Users/davinaasworth/Documents/subject-5206966.csv","legacy","Lentiform Loewenfeld","3.3.7","yes","yes","600bd7cfb6416f0113b04181","602110864497cf011d9c0822","0","f","NA","space","space","space","NA","f","617","NA","28389","28057","12065","NA","617","2","legacy","1024","2","48000","-16","task","5206966","even","NA","52683","83076","54687","102659","5367","45509","33440","103162","NA","102656","103163","102604","83076","103781","50872","102104","5329","91731","Lexical Decision Task","11","10450","14","yes","1024"
"3.102203805","7.21","3","drip","word","80","80","740.7333333333333","740.7333333333333","black","no","legacy","legacy","legacy","0","uniform","1","undefined","undefined","undefined","1","j","0","0","0","0","14","0","0","0","14","NA","10","14","10","0","10","3","14","0","14","Mon Feb 15 13:10:01 2021","The main experiment item","yes","Lexical_Decision_Task.osexp","/Users/davinaasworth/Documents","no","Andale Mono","no","18","no","white","no","yes","576","legacy","10","10","3","/Users/davinaasworth/Documents/subject-5206966.csv","legacy","Lentiform Loewenfeld","3.3.7","yes","yes","600bd7cfb6416f0113b04181","602110864497cf011d9c0822","0","j","NA","space","space","space","NA","j","661","NA","28389","28057","12065","NA","661","2","legacy","1024","2","48000","-16","task","5206966","even","NA","52683","83076","54687","104341","5367","45509","33440","104845","NA","104338","104846","104287","83076","105508","50872","103787","5329","91731","Lexical Decision Task","12","11111","15","yes","1024"
"2.875447132","0","9","jelt","non-word","81.25","81.25","732.625","732.625","black","no","legacy","legacy","legacy","0","uniform","1","undefined","undefined","undefined","1","f","0","0","0","0","15","0","0","0","15","NA","11","15","11","0","11","3","15","0","15","Mon Feb 15 13:10:01 2021","The main experiment item","yes","Lexical_Decision_Task.osexp","/Users/davinaasworth/Documents","no","Andale Mono","no","18","no","white","no","yes","576","legacy","11","11","3","/Users/davinaasworth/Documents/subject-5206966.csv","legacy","Lentiform Loewenfeld","3.3.7","yes","yes","600bd7cfb6416f0113b04181","602110864497cf011d9c0822","0","f","NA","space","space","space","NA","f","611","NA","28389","28057","12065","NA","611","2","legacy","1024","2","48000","-16","task","5206966","even","NA","52683","83076","54687","106069","5367","45509","33440","106572","NA","106066","106573","106014","83076","107185","50872","105514","5329","91731","Lexical Decision Task","13","11722","16","yes","1024"
"2.966923697","5.4","2","fume","word","82.3529411764706","82.3529411764706","728.7058823529412","728.7058823529412","black","no","legacy","legacy","legacy","0","uniform","1","undefined","undefined","undefined","1","j","0","0","0","0","16","0","0","0","16","NA","12","16","12","0","12","3","16","0","16","Mon Feb 15 13:10:01 2021","The main experiment item","yes","Lexical_Decision_Task.osexp","/Users/davinaasworth/Documents","no","Andale Mono","no","18","no","white","no","yes","576","legacy","12","12","3","/Users/davinaasworth/Documents/subject-5206966.csv","legacy","Lentiform Loewenfeld","3.3.7","yes","yes","600bd7cfb6416f0113b04181","602110864497cf011d9c0822","0","j","NA","space","space","space","NA","j","666","NA","28389","28057","12065","NA","666","2","legacy","1024","2","48000","-16","task","5206966","even","NA","52683","83076","54687","107746","5367","45509","33440","108249","NA","107743","108250","107691","83076","108917","50872","107191","5329","91731","Lexical Decision Task","14","12388","17","yes","1024"
"3.031408464","0","7","drow","non-word","83.33333333333333","83.33333333333333","763.1111111111111","763.1111111111111","black","no","legacy","legacy","legacy","0","uniform","1","undefined","undefined","undefined","1","f","0","0","0","0","17","0","0","0","17","NA","13","17","13","0","13","3","17","0","17","Mon Feb 15 13:10:01 2021","The main experiment item","yes","Lexical_Decision_Task.osexp","/Users/davinaasworth/Documents","no","Andale Mono","no","18","no","white","no","yes","576","legacy","13","13","3","/Users/davinaasworth/Documents/subject-5206966.csv","legacy","Lentiform Loewenfeld","3.3.7","yes","yes","600bd7cfb6416f0113b04181","602110864497cf011d9c0822","0","f","NA","space","space","space","NA","f","1348","NA","28389","28057","12065","NA","1348","2","legacy","1024","2","48000","-16","task","5206966","even","NA","52683","83076","54687","109477","5367","45509","33440","109981","NA","109474","109981","109422","83076","111330","50872","108922","5329","91731","Lexical Decision Task","15","13736","18","yes","1024"
"3.091901331","0","9","nipe","non-word","84.21052631578948","84.21052631578948","769.0526315789474","769.0526315789474","black","no","legacy","legacy","legacy","0","uniform","1","undefined","undefined","undefined","1","f","0","0","0","0","18","0","0","0","18","NA","14","18","14","0","14","3","18","0","18","Mon Feb 15 13:10:01 2021","The main experiment item","yes","Lexical_Decision_Task.osexp","/Users/davinaasworth/Documents","no","Andale Mono","no","18","no","white","no","yes","576","legacy","14","14","3","/Users/davinaasworth/Documents/subject-5206966.csv","legacy","Lentiform Loewenfeld","3.3.7","yes","yes","600bd7cfb6416f0113b04181","602110864497cf011d9c0822","0","f","NA","space","space","space","NA","f","876","NA","28389","28057","12065","NA","876","2","legacy","1024","2","48000","-16","task","5206966","even","NA","52683","83076","54687","111890","5367","45509","33440","112394","NA","111887","112395","111835","83076","113272","50872","111334","5329","91731","Lexical Decision Task","16","14612","19","yes","1024"
"3.194328374","9.42","6","harm","word","85","85","766.45","766.45","black","no","legacy","legacy","legacy","0","uniform","1","undefined","undefined","undefined","1","j","0","0","0","0","19","0","0","0","19","NA","15","19","15","0","15","3","19","0","19","Mon Feb 15 13:10:01 2021","The main experiment item","yes","Lexical_Decision_Task.osexp","/Users/davinaasworth/Documents","no","Andale Mono","no","18","no","white","no","yes","576","legacy","15","15","3","/Users/davinaasworth/Documents/subject-5206966.csv","legacy","Lentiform Loewenfeld","3.3.7","yes","yes","600bd7cfb6416f0113b04181","602110864497cf011d9c0822","0","j","NA","space","space","space","NA","j","717","NA","28389","28057","12065","NA","717","2","legacy","1024","2","48000","-16","task","5206966","even","NA","52683","83076","54687","113834","5367","45509","33440","114338","NA","113830","114338","113778","83076","115055","50872","113277","5329","91731","Lexical Decision Task","17","15329","20","yes","1024"
"2.95456409","0","4","taud","non-word","85.71428571428571","85.71428571428571","766.6666666666666","766.6666666666666","black","no","legacy","legacy","legacy","0","uniform","1","undefined","undefined","undefined","1","f","0","0","0","0","20","0","0","0","20","NA","16","20","16","0","16","3","20","0","20","Mon Feb 15 13:10:01 2021","The main experiment item","yes","Lexical_Decision_Task.osexp","/Users/davinaasworth/Documents","no","Andale Mono","no","18","no","white","no","yes","576","legacy","16","16","3","/Users/davinaasworth/Documents/subject-5206966.csv","legacy","Lentiform Loewenfeld","3.3.7","yes","yes","600bd7cfb6416f0113b04181","602110864497cf011d9c0822","0","f","NA","space","space","space","NA","f","771","NA","28389","28057","12065","NA","771","2","legacy","1024","2","48000","-16","task","5206966","even","NA","52683","83076","54687","115615","5367","45509","33440","116119","NA","115612","116120","115561","83076","116892","50872","115060","5329","91731","Lexical Decision Task","18","16100","21","yes","1024"
"3.15462682","0","6","noal","non-word","81.81818181818181","81.81818181818181","763.5","763.5","black","no","legacy","legacy","legacy","0","uniform","0","undefined","undefined","undefined","0","f","0","0","0","0","21","0","0","0","21","NA","17","21","17","0","17","3","21","0","21","Mon Feb 15 13:10:01 2021","The main experiment item","yes","Lexical_Decision_Task.osexp","/Users/davinaasworth/Documents","no","Andale Mono","no","18","no","white","no","yes","576","legacy","17","17","3","/Users/davinaasworth/Documents/subject-5206966.csv","legacy","Lentiform Loewenfeld","3.3.7","yes","yes","600bd7cfb6416f0113b04181","602110864497cf011d9c0822","0","j","NA","space","space","space","NA","j","697","NA","28389","28057","12065","NA","697","2","legacy","1024","2","48000","-16","task","5206966","even","NA","52683","83076","54687","117452","5367","45509","33440","117956","NA","117449","117957","117398","83076","118655","50872","116898","5329","91731","Lexical Decision Task","18","16797","22","yes","1024"
"3.384413096","10.15","3","glad","word","82.6086956521739","82.6086956521739","768.304347826087","768.304347826087","black","no","legacy","legacy","legacy","0","uniform","1","undefined","undefined","undefined","1","j","0","0","0","0","22","0","0","0","22","NA","18","22","18","0","18","3","22","0","22","Mon Feb 15 13:10:01 2021","The main experiment item","yes","Lexical_Decision_Task.osexp","/Users/davinaasworth/Documents","no","Andale Mono","no","18","no","white","no","yes","576","legacy","18","18","3","/Users/davinaasworth/Documents/subject-5206966.csv","legacy","Lentiform Loewenfeld","3.3.7","yes","yes","600bd7cfb6416f0113b04181","602110864497cf011d9c0822","0","j","NA","space","space","space","NA","j","874","NA","28389","28057","12065","NA","874","2","legacy","1024","2","48000","-16","task","5206966","even","NA","52683","83076","54687","120218","5367","45509","33440","120722","NA","120215","120723","120161","83076","121598","50872","116898","5329","118661","Lexical Decision Task","19","17671","23","yes","1024"
"3.062080345","0","6","tomp","non-word","83.33333333333333","83.33333333333333","759.0833333333334","759.0833333333334","black","no","legacy","legacy","legacy","0","uniform","1","undefined","undefined","undefined","1","f","0","0","0","0","23","0","0","0","23","NA","19","23","19","0","19","3","23","0","23","Mon Feb 15 13:10:01 2021","The main experiment item","yes","Lexical_Decision_Task.osexp","/Users/davinaasworth/Documents","no","Andale Mono","no","18","no","white","no","yes","576","legacy","19","19","3","/Users/davinaasworth/Documents/subject-5206966.csv","legacy","Lentiform Loewenfeld","3.3.7","yes","yes","600bd7cfb6416f0113b04181","602110864497cf011d9c0822","0","f","NA","space","space","space","NA","f","547","NA","28389","28057","12065","NA","547","2","legacy","1024","2","48000","-16","task","5206966","even","NA","52683","83076","54687","122158","5367","45509","33440","122662","NA","122156","122663","122104","83076","123211","50872","121604","5329","118661","Lexical Decision Task","20","18218","24","yes","1024"
"2.778633532","0","3","jurp","non-word","84","84","754.56","754.56","black","no","legacy","legacy","legacy","0","uniform","1","undefined","undefined","undefined","1","f","0","0","0","0","24","0","0","0","24","NA","20","24","20","0","20","3","24","0","24","Mon Feb 15 13:10:01 2021","The main experiment item","yes","Lexical_Decision_Task.osexp","/Users/davinaasworth/Documents","no","Andale Mono","no","18","no","white","no","yes","576","legacy","20","20","3","/Users/davinaasworth/Documents/subject-5206966.csv","legacy","Lentiform Loewenfeld","3.3.7","yes","yes","600bd7cfb6416f0113b04181","602110864497cf011d9c0822","0","f","NA","space","space","space","NA","f","646","NA","28389","28057","12065","NA","646","2","legacy","1024","2","48000","-16","task","5206966","even","NA","52683","83076","54687","123773","5367","45509","33440","124275","NA","123770","124276","123717","83076","124923","50872","123216","5329","118661","Lexical Decision Task","21","18864","25","yes","1024"
"2.695770526","7.34","6","pawn","word","84.61538461538461","84.61538461538461","750.6538461538462","750.6538461538462","black","no","legacy","legacy","legacy","0","uniform","1","undefined","undefined","undefined","1","j","0","0","0","0","25","0","0","0","25","NA","21","25","21","0","21","3","25","0","25","Mon Feb 15 13:10:01 2021","The main experiment item","yes","Lexical_Decision_Task.osexp","/Users/davinaasworth/Documents","no","Andale Mono","no","18","no","white","no","yes","576","legacy","21","21","3","/Users/davinaasworth/Documents/subject-5206966.csv","legacy","Lentiform Loewenfeld","3.3.7","yes","yes","600bd7cfb6416f0113b04181","602110864497cf011d9c0822","0","j","NA","space","space","space","NA","j","653","NA","28389","28057","12065","NA","653","2","legacy","1024","2","48000","-16","task","5206966","even","NA","52683","83076","54687","125485","5367","45509","33440","125989","NA","125482","125990","125429","83076","126644","50872","124928","5329","118661","Lexical Decision Task","22","19517","26","yes","1024"
"3.276537627","9.15","5","trap","word","85.18518518518519","85.18518518518519","755.5925925925926","755.5925925925926","black","no","legacy","legacy","legacy","0","uniform","1","undefined","undefined","undefined","1","j","0","0","0","0","26","0","0","0","26","NA","22","26","22","0","22","3","26","0","26","Mon Feb 15 13:10:01 2021","The main experiment item","yes","Lexical_Decision_Task.osexp","/Users/davinaasworth/Documents","no","Andale Mono","no","18","no","white","no","yes","576","legacy","22","22","3","/Users/davinaasworth/Documents/subject-5206966.csv","legacy","Lentiform Loewenfeld","3.3.7","yes","yes","600bd7cfb6416f0113b04181","602110864497cf011d9c0822","0","j","NA","space","space","space","NA","j","884","NA","28389","28057","12065","NA","884","2","legacy","1024","2","48000","-16","task","5206966","even","NA","52683","83076","54687","127203","5367","45509","33440","127707","NA","127201","127708","127149","83076","128593","50872","126648","5329","118661","Lexical Decision Task","23","20401","27","yes","1024"
"2.981215883","10.66","5","hair","word","85.71428571428571","85.71428571428571","753.5","753.5","black","no","legacy","legacy","legacy","0","uniform","1","undefined","undefined","undefined","1","j","0","0","0","0","27","0","0","0","27","NA","23","27","23","0","23","3","27","0","27","Mon Feb 15 13:10:01 2021","The main experiment item","yes","Lexical_Decision_Task.osexp","/Users/davinaasworth/Documents","no","Andale Mono","no","18","no","white","no","yes","576","legacy","23","23","3","/Users/davinaasworth/Documents/subject-5206966.csv","legacy","Lentiform Loewenfeld","3.3.7","yes","yes","600bd7cfb6416f0113b04181","602110864497cf011d9c0822","0","j","NA","space","space","space","NA","j","697","NA","28389","28057","12065","NA","697","2","legacy","1024","2","48000","-16","task","5206966","even","NA","52683","83076","54687","129152","5367","45509","33440","129655","NA","129149","129656","129098","83076","130354","50872","128598","5329","118661","Lexical Decision Task","24","21098","28","yes","1024"
"3.316948329","0","1","besc","non-word","86.20689655172414","86.20689655172414","750.2413793103449","750.2413793103449","black","no","legacy","legacy","legacy","0","uniform","1","undefined","undefined","undefined","1","f","0","0","0","0","28","0","0","0","28","NA","24","28","24","0","24","3","28","0","28","Mon Feb 15 13:10:01 2021","The main experiment item","yes","Lexical_Decision_Task.osexp","/Users/davinaasworth/Documents","no","Andale Mono","no","18","no","white","no","yes","576","legacy","24","24","3","/Users/davinaasworth/Documents/subject-5206966.csv","legacy","Lentiform Loewenfeld","3.3.7","yes","yes","600bd7cfb6416f0113b04181","602110864497cf011d9c0822","0","f","NA","space","space","space","NA","f","659","NA","28389","28057","12065","NA","659","2","legacy","1024","2","48000","-16","task","5206966","even","NA","52683","83076","54687","130914","5367","45509","33440","131418","NA","130912","131419","130860","83076","132079","50872","130359","5329","118661","Lexical Decision Task","25","21757","29","yes","1024"
"2.8162413","0","5","nusk","non-word","86.66666666666667","86.66666666666667","750.4333333333333","750.4333333333333","black","no","legacy","legacy","legacy","0","uniform","1","undefined","undefined","undefined","1","f","0","0","0","0","29","0","0","0","29","NA","25","29","25","0","25","3","29","0","29","Mon Feb 15 13:10:01 2021","The main experiment item","yes","Lexical_Decision_Task.osexp","/Users/davinaasworth/Documents","no","Andale Mono","no","18","no","white","no","yes","576","legacy","25","25","3","/Users/davinaasworth/Documents/subject-5206966.csv","legacy","Lentiform Loewenfeld","3.3.7","yes","yes","600bd7cfb6416f0113b04181","602110864497cf011d9c0822","0","f","NA","space","space","space","NA","f","756","NA","28389","28057","12065","NA","756","2","legacy","1024","2","48000","-16","task","5206966","even","NA","52683","83076","54687","132639","5367","45509","33440","133143","NA","132637","133144","132585","83076","133901","50872","132085","5329","118661","Lexical Decision Task","26","22513","30","yes","1024"
"3.067070856","9.39","3","loud","word","87.09677419354838","87.09677419354838","745.8064516129032","745.8064516129032","black","no","legacy","legacy","legacy","0","uniform","1","undefined","undefined","undefined","1","j","0","0","0","0","30","0","0","0","30","NA","26","30","26","0","26","3","30","0","30","Mon Feb 15 13:10:01 2021","The main experiment item","yes","Lexical_Decision_Task.osexp","/Users/davinaasworth/Documents","no","Andale Mono","no","18","no","white","no","yes","576","legacy","26","26","3","/Users/davinaasworth/Documents/subject-5206966.csv","legacy","Lentiform Loewenfeld","3.3.7","yes","yes","600bd7cfb6416f0113b04181","602110864497cf011d9c0822","0","j","NA","space","space","space","NA","j","607","NA","28389","28057","12065","NA","607","2","legacy","1024","2","48000","-16","task","5206966","even","NA","52683","83076","54687","134461","5367","45509","33440","134965","NA","134458","134966","134407","83076","135574","50872","133906","5329","118661","Lexical Decision Task","27","23120","31","yes","1024"
"3.378276681","6.39","8","bran","word","84.375","84.375","741.15625","741.15625","black","no","legacy","legacy","legacy","0","uniform","0","undefined","undefined","undefined","0","j","0","0","0","0","31","0","0","0","31","NA","27","31","27","0","27","3","31","0","31","Mon Feb 15 13:10:01 2021","The main experiment item","yes","Lexical_Decision_Task.osexp","/Users/davinaasworth/Documents","no","Andale Mono","no","18","no","white","no","yes","576","legacy","27","27","3","/Users/davinaasworth/Documents/subject-5206966.csv","legacy","Lentiform Loewenfeld","3.3.7","yes","yes","600bd7cfb6416f0113b04181","602110864497cf011d9c0822","0","f","NA","space","space","space","NA","f","597","NA","28389","28057","12065","NA","597","2","legacy","1024","2","48000","-16","task","5206966","even","NA","52683","83076","54687","136134","5367","45509","33440","136637","NA","136131","136638","136080","83076","137236","50872","135580","5329","118661","Lexical Decision Task","27","23717","32","yes","1024"
"3.037294994","8.64","7","roof","word","84.84848484848484","84.84848484848484","739.5151515151515","739.5151515151515","black","no","legacy","legacy","legacy","0","uniform","1","undefined","undefined","undefined","1","j","0","0","0","0","32","0","0","0","32","NA","28","32","28","0","28","3","32","0","32","Mon Feb 15 13:10:01 2021","The main experiment item","yes","Lexical_Decision_Task.osexp","/Users/davinaasworth/Documents","no","Andale Mono","no","18","no","white","no","yes","576","legacy","28","28","3","/Users/davinaasworth/Documents/subject-5206966.csv","legacy","Lentiform Loewenfeld","3.3.7","yes","yes","600bd7cfb6416f0113b04181","602110864497cf011d9c0822","0","j","NA","space","space","space","NA","j","687","NA","28389","28057","12065","NA","687","2","legacy","1024","2","48000","-16","task","5206966","even","NA","52683","83076","54687","138799","5367","45509","33440","139303","NA","138796","139304","138742","83076","139992","50872","135580","5329","137241","Lexical Decision Task","28","24404","33","yes","1024"
"2.82129731","6.72","5","plum","word","85.29411764705883","85.29411764705883","741.1764705882352","741.1764705882352","black","no","legacy","legacy","legacy","0","uniform","1","undefined","undefined","undefined","1","j","0","0","0","0","33","0","0","0","33","NA","29","33","29","0","29","3","33","0","33","Mon Feb 15 13:10:01 2021","The main experiment item","yes","Lexical_Decision_Task.osexp","/Users/davinaasworth/Documents","no","Andale Mono","no","18","no","white","no","yes","576","legacy","29","29","3","/Users/davinaasworth/Documents/subject-5206966.csv","legacy","Lentiform Loewenfeld","3.3.7","yes","yes","600bd7cfb6416f0113b04181","602110864497cf011d9c0822","0","j","NA","space","space","space","NA","j","796","NA","28389","28057","12065","NA","796","2","legacy","1024","2","48000","-16","task","5206966","even","NA","52683","83076","54687","140552","5367","45509","33440","141055","NA","140549","141056","140498","83076","141853","50872","139998","5329","137241","Lexical Decision Task","29","25200","34","yes","1024"
"3.531734309","0","6","lerd","non-word","85.71428571428571","85.71428571428571","738.7714285714286","738.7714285714286","black","no","legacy","legacy","legacy","0","uniform","1","undefined","undefined","undefined","1","f","0","0","0","0","34","0","0","0","34","NA","30","34","30","0","30","3","34","0","34","Mon Feb 15 13:10:01 2021","The main experiment item","yes","Lexical_Decision_Task.osexp","/Users/davinaasworth/Documents","no","Andale Mono","no","18","no","white","no","yes","576","legacy","30","30","3","/Users/davinaasworth/Documents/subject-5206966.csv","legacy","Lentiform Loewenfeld","3.3.7","yes","yes","600bd7cfb6416f0113b04181","602110864497cf011d9c0822","0","f","NA","space","space","space","NA","f","657","NA","28389","28057","12065","NA","657","2","legacy","1024","2","48000","-16","task","5206966","even","NA","52683","83076","54687","142411","5367","45509","33440","142915","NA","142408","142916","142357","83076","143574","50872","141857","5329","137241","Lexical Decision Task","30","25857","35","yes","1024"
"2.858136002","0","4","phip","non-word","86.11111111111111","86.11111111111111","748.1111111111111","748.1111111111111","black","no","legacy","legacy","legacy","0","uniform","1","undefined","undefined","undefined","1","f","0","0","0","0","35","0","0","0","35","NA","31","35","31","0","31","3","35","0","35","Mon Feb 15 13:10:01 2021","The main experiment item","yes","Lexical_Decision_Task.osexp","/Users/davinaasworth/Documents","no","Andale Mono","no","18","no","white","no","yes","576","legacy","31","31","3","/Users/davinaasworth/Documents/subject-5206966.csv","legacy","Lentiform Loewenfeld","3.3.7","yes","yes","600bd7cfb6416f0113b04181","602110864497cf011d9c0822","0","f","NA","space","space","space","NA","f","1075","NA","28389","28057","12065","NA","1075","2","legacy","1024","2","48000","-16","task","5206966","even","NA","52683","83076","54687","144134","5367","45509","33440","144637","NA","144131","144638","144080","83076","145714","50872","143580","5329","137241","Lexical Decision Task","31","26932","36","yes","1024"
"2.996511672","0","7","hoil","non-word","86.48648648648648","86.48648648648648","770.9459459459459","770.9459459459459","black","no","legacy","legacy","legacy","0","uniform","1","undefined","undefined","undefined","1","f","0","0","0","0","36","0","0","0","36","NA","32","36","32","0","32","3","36","0","36","Mon Feb 15 13:10:01 2021","The main experiment item","yes","Lexical_Decision_Task.osexp","/Users/davinaasworth/Documents","no","Andale Mono","no","18","no","white","no","yes","576","legacy","32","32","3","/Users/davinaasworth/Documents/subject-5206966.csv","legacy","Lentiform Loewenfeld","3.3.7","yes","yes","600bd7cfb6416f0113b04181","602110864497cf011d9c0822","0","f","NA","space","space","space","NA","f","1593","NA","28389","28057","12065","NA","1593","2","legacy","1024","2","48000","-16","task","5206966","even","NA","52683","83076","54687","146274","5367","45509","33440","146777","NA","146271","146778","146220","83076","148372","50872","145720","5329","137241","Lexical Decision Task","32","28525","37","yes","1024"
"2.845304797","0","6","buct","non-word","86.84210526315789","86.84210526315789","771.3157894736842","771.3157894736842","black","no","legacy","legacy","legacy","0","uniform","1","undefined","undefined","undefined","1","f","0","0","0","0","37","0","0","0","37","NA","33","37","33","0","33","3","37","0","37","Mon Feb 15 13:10:01 2021","The main experiment item","yes","Lexical_Decision_Task.osexp","/Users/davinaasworth/Documents","no","Andale Mono","no","18","no","white","no","yes","576","legacy","33","33","3","/Users/davinaasworth/Documents/subject-5206966.csv","legacy","Lentiform Loewenfeld","3.3.7","yes","yes","600bd7cfb6416f0113b04181","602110864497cf011d9c0822","0","f","NA","space","space","space","NA","f","785","NA","28389","28057","12065","NA","785","2","legacy","1024","2","48000","-16","task","5206966","even","NA","52683","83076","54687","148932","5367","45509","33440","149435","NA","148929","149436","148878","83076","150222","50872","148377","5329","137241","Lexical Decision Task","33","29310","38","yes","1024"
"2.64476673","0","5","moft","non-word","87.17948717948718","87.17948717948718","769","769","black","no","legacy","legacy","legacy","0","uniform","1","undefined","undefined","undefined","1","f","0","0","0","0","38","0","0","0","38","NA","34","38","34","0","34","3","38","0","38","Mon Feb 15 13:10:01 2021","The main experiment item","yes","Lexical_Decision_Task.osexp","/Users/davinaasworth/Documents","no","Andale Mono","no","18","no","white","no","yes","576","legacy","34","34","3","/Users/davinaasworth/Documents/subject-5206966.csv","legacy","Lentiform Loewenfeld","3.3.7","yes","yes","600bd7cfb6416f0113b04181","602110864497cf011d9c0822","0","f","NA","space","space","space","NA","f","681","NA","28389","28057","12065","NA","681","2","legacy","1024","2","48000","-16","task","5206966","even","NA","52683","83076","54687","150782","5367","45509","33440","151286","NA","150779","151287","150728","83076","151969","50872","150228","5329","137241","Lexical Decision Task","34","29991","39","yes","1024"
"2.809559715","8.44","4","volt","word","87.5","87.5","765.875","765.875","black","no","legacy","legacy","legacy","0","uniform","1","undefined","undefined","undefined","1","j","0","0","0","0","39","0","0","0","39","NA","35","39","35","0","35","3","39","0","39","Mon Feb 15 13:10:01 2021","The main experiment item","yes","Lexical_Decision_Task.osexp","/Users/davinaasworth/Documents","no","Andale Mono","no","18","no","white","no","yes","576","legacy","35","35","3","/Users/davinaasworth/Documents/subject-5206966.csv","legacy","Lentiform Loewenfeld","3.3.7","yes","yes","600bd7cfb6416f0113b04181","602110864497cf011d9c0822","0","j","NA","space","space","space","NA","j","644","NA","28389","28057","12065","NA","644","2","legacy","1024","2","48000","-16","task","5206966","even","NA","52683","83076","54687","152529","5367","45509","33440","153033","NA","152526","153034","152475","83076","153679","50872","151975","5329","137241","Lexical Decision Task","35","30635","40","yes","1024"
"2.706148589","0","4","hube","non-word","87.8048780487805","87.8048780487805","767.4878048780488","767.4878048780488","black","no","legacy","legacy","legacy","0","uniform","1","undefined","undefined","undefined","1","f","0","0","0","0","40","0","0","0","40","NA","36","40","36","0","36","3","40","0","40","Mon Feb 15 13:10:01 2021","The main experiment item","yes","Lexical_Decision_Task.osexp","/Users/davinaasworth/Documents","no","Andale Mono","no","18","no","white","no","yes","576","legacy","36","36","3","/Users/davinaasworth/Documents/subject-5206966.csv","legacy","Lentiform Loewenfeld","3.3.7","yes","yes","600bd7cfb6416f0113b04181","602110864497cf011d9c0822","0","f","NA","space","space","space","NA","f","832","NA","28389","28057","12065","NA","832","2","legacy","1024","2","48000","-16","task","5206966","even","NA","52683","83076","54687","154240","5367","45509","33440","154743","NA","154236","154744","154184","83076","155577","50872","153684","5329","137241","Lexical Decision Task","36","31467","41","yes","1024"
"3.29439347","8.6","9","wand","word","88.0952380952381","88.0952380952381","774.7619047619048","774.7619047619048","black","no","legacy","legacy","legacy","0","uniform","1","undefined","undefined","undefined","1","j","0","0","0","0","41","0","0","0","41","NA","37","41","37","0","37","3","41","0","41","Mon Feb 15 13:10:01 2021","The main experiment item","yes","Lexical_Decision_Task.osexp","/Users/davinaasworth/Documents","no","Andale Mono","no","18","no","white","no","yes","576","legacy","37","37","3","/Users/davinaasworth/Documents/subject-5206966.csv","legacy","Lentiform Loewenfeld","3.3.7","yes","yes","600bd7cfb6416f0113b04181","602110864497cf011d9c0822","0","j","NA","space","space","space","NA","j","1073","NA","28389","28057","12065","NA","1073","2","legacy","1024","2","48000","-16","task","5206966","even","NA","52683","83076","54687","156138","5367","45509","33440","156642","NA","156135","156642","156083","83076","157716","50872","155582","5329","137241","Lexical Decision Task","37","32540","42","yes","1024"
"2.980911938","7.15","7","hoop","word","88.37209302325581","88.37209302325581","770.6976744186046","770.6976744186046","black","no","legacy","legacy","legacy","0","uniform","1","undefined","undefined","undefined","1","j","0","0","0","0","42","0","0","0","42","NA","38","42","38","0","38","3","42","0","42","Mon Feb 15 13:10:01 2021","The main experiment item","yes","Lexical_Decision_Task.osexp","/Users/davinaasworth/Documents","no","Andale Mono","no","18","no","white","no","yes","576","legacy","38","38","3","/Users/davinaasworth/Documents/subject-5206966.csv","legacy","Lentiform Loewenfeld","3.3.7","yes","yes","600bd7cfb6416f0113b04181","602110864497cf011d9c0822","0","j","NA","space","space","space","NA","j","600","NA","28389","28057","12065","NA","600","2","legacy","1024","2","48000","-16","task","5206966","even","NA","52683","83076","54687","158275","5367","45509","33440","158779","NA","158273","158780","158221","83076","159381","50872","157721","5329","137241","Lexical Decision Task","38","33140","43","yes","1024"
"2.719886232","7.98","2","quiz","word","88.63636363636364","88.63636363636364","768.2954545454545","768.2954545454545","black","no","legacy","legacy","legacy","0","uniform","1","undefined","undefined","undefined","1","j","0","0","0","0","43","0","0","0","43","NA","39","43","39","0","39","3","43","0","43","Mon Feb 15 13:10:01 2021","The main experiment item","yes","Lexical_Decision_Task.osexp","/Users/davinaasworth/Documents","no","Andale Mono","no","18","no","white","no","yes","576","legacy","39","39","3","/Users/davinaasworth/Documents/subject-5206966.csv","legacy","Lentiform Loewenfeld","3.3.7","yes","yes","600bd7cfb6416f0113b04181","602110864497cf011d9c0822","0","j","NA","space","space","space","NA","j","665","NA","28389","28057","12065","NA","665","2","legacy","1024","2","48000","-16","task","5206966","even","NA","52683","83076","54687","159940","5367","45509","33440","160444","NA","159937","160445","159886","83076","161111","50872","159386","5329","137241","Lexical Decision Task","39","33805","44","yes","1024"
"3.368162872","0","4","ferk","non-word","88.88888888888889","88.88888888888889","766.9111111111112","766.9111111111112","black","no","legacy","legacy","legacy","0","uniform","1","undefined","undefined","undefined","1","f","0","0","0","0","44","0","0","0","44","NA","40","44","40","0","40","3","44","0","44","Mon Feb 15 13:10:01 2021","The main experiment item","yes","Lexical_Decision_Task.osexp","/Users/davinaasworth/Documents","no","Andale Mono","no","18","no","white","no","yes","576","legacy","40","40","3","/Users/davinaasworth/Documents/subject-5206966.csv","legacy","Lentiform Loewenfeld","3.3.7","yes","yes","600bd7cfb6416f0113b04181","602110864497cf011d9c0822","0","f","NA","space","space","space","NA","f","706","NA","28389","28057","12065","NA","706","2","legacy","1024","2","48000","-16","task","5206966","even","NA","52683","83076","54687","161671","5367","45509","33440","162175","NA","161668","162176","161617","83076","162883","50872","161117","5329","137241","Lexical Decision Task","40","34511","45","yes","1024"
"2.75025376","10.2","6","jump","word","89.1304347826087","89.1304347826087","765.9130434782609","765.9130434782609","black","no","legacy","legacy","legacy","0","uniform","1","undefined","undefined","undefined","1","j","0","0","0","0","45","0","0","0","45","NA","41","45","41","0","41","3","45","0","45","Mon Feb 15 13:10:01 2021","The main experiment item","yes","Lexical_Decision_Task.osexp","/Users/davinaasworth/Documents","no","Andale Mono","no","18","no","white","no","yes","576","legacy","41","41","3","/Users/davinaasworth/Documents/subject-5206966.csv","legacy","Lentiform Loewenfeld","3.3.7","yes","yes","600bd7cfb6416f0113b04181","602110864497cf011d9c0822","0","j","NA","space","space","space","NA","j","721","NA","28389","28057","12065","NA","721","2","legacy","1024","2","48000","-16","task","5206966","even","NA","52683","83076","54687","163444","5367","45509","33440","163948","NA","163441","163948","163389","83076","164670","50872","162889","5329","137241","Lexical Decision Task","41","35232","46","yes","1024"
"2.813801082","5.47","7","nook","word","87.23404255319149","87.23404255319149","766","766","black","no","legacy","legacy","legacy","0","uniform","0","undefined","undefined","undefined","0","j","0","0","0","0","46","0","0","0","46","NA","42","46","42","0","42","3","46","0","46","Mon Feb 15 13:10:01 2021","The main experiment item","yes","Lexical_Decision_Task.osexp","/Users/davinaasworth/Documents","no","Andale Mono","no","18","no","white","no","yes","576","legacy","42","42","3","/Users/davinaasworth/Documents/subject-5206966.csv","legacy","Lentiform Loewenfeld","3.3.7","yes","yes","600bd7cfb6416f0113b04181","602110864497cf011d9c0822","0","f","NA","space","space","space","NA","f","770","NA","28389","28057","12065","NA","770","2","legacy","1024","2","48000","-16","task","5206966","even","NA","52683","83076","54687","165230","5367","45509","33440","165733","NA","165226","165734","165176","83076","166505","50872","164676","5329","137241","Lexical Decision Task","41","36002","47","yes","1024"
"3.218535505","7.85","7","goat","word","87.5","87.5","762.5625","762.5625","black","no","legacy","legacy","legacy","0","uniform","1","undefined","undefined","undefined","1","j","0","0","0","0","47","0","0","0","47","NA","43","47","43","0","43","3","47","0","47","Mon Feb 15 13:10:01 2021","The main experiment item","yes","Lexical_Decision_Task.osexp","/Users/davinaasworth/Documents","no","Andale Mono","no","18","no","white","no","yes","576","legacy","43","43","3","/Users/davinaasworth/Documents/subject-5206966.csv","legacy","Lentiform Loewenfeld","3.3.7","yes","yes","600bd7cfb6416f0113b04181","602110864497cf011d9c0822","0","j","NA","space","space","space","NA","j","601","NA","28389","28057","12065","NA","601","2","legacy","1024","2","48000","-16","task","5206966","even","NA","52683","83076","54687","168068","5367","45509","33440","168572","NA","168065","168573","168011","83076","169175","50872","164676","5329","166511","Lexical Decision Task","42","36603","48","yes","1024"
"3.529815197","0","3","lerm","non-word","87.75510204081633","87.75510204081633","760.8571428571429","760.8571428571429","black","no","legacy","legacy","legacy","0","uniform","1","undefined","undefined","undefined","1","f","0","0","0","0","48","0","0","0","48","NA","44","48","44","0","44","3","48","0","48","Mon Feb 15 13:10:01 2021","The main experiment item","yes","Lexical_Decision_Task.osexp","/Users/davinaasworth/Documents","no","Andale Mono","no","18","no","white","no","yes","576","legacy","44","44","3","/Users/davinaasworth/Documents/subject-5206966.csv","legacy","Lentiform Loewenfeld","3.3.7","yes","yes","600bd7cfb6416f0113b04181","602110864497cf011d9c0822","0","f","NA","space","space","space","NA","f","679","NA","28389","28057","12065","NA","679","2","legacy","1024","2","48000","-16","task","5206966","even","NA","52683","83076","54687","169734","5367","45509","33440","170238","NA","169731","170239","169681","83076","170919","50872","169180","5329","166511","Lexical Decision Task","43","37282","49","yes","1024"
"2.68604012","0","4","pumb","non-word","86","86","770.9","770.9","black","no","legacy","legacy","legacy","0","uniform","0","undefined","undefined","undefined","0","f","0","0","0","0","49","0","0","0","49","NA","45","49","45","0","45","3","49","0","49","Mon Feb 15 13:10:01 2021","The main experiment item","yes","Lexical_Decision_Task.osexp","/Users/davinaasworth/Documents","no","Andale Mono","no","18","no","white","no","yes","576","legacy","45","45","3","/Users/davinaasworth/Documents/subject-5206966.csv","legacy","Lentiform Loewenfeld","3.3.7","yes","yes","600bd7cfb6416f0113b04181","602110864497cf011d9c0822","0","j","NA","space","space","space","NA","j","1263","NA","28389","28057","12065","NA","1263","2","legacy","1024","2","48000","-16","task","5206966","even","NA","52683","83076","54687","171479","5367","45509","33440","171982","NA","171476","171983","171424","83076","173247","50872","170924","5329","166511","Lexical Decision Task","43","38545","50","yes","1024"
"3.003891166","8.05","2","frog","word","86.27450980392157","86.27450980392157","769.8627450980392","769.8627450980392","black","no","legacy","legacy","legacy","0","uniform","1","undefined","undefined","undefined","1","j","0","0","0","0","50","0","0","0","50","NA","46","50","46","0","46","3","50","0","50","Mon Feb 15 13:10:01 2021","The main experiment item","yes","Lexical_Decision_Task.osexp","/Users/davinaasworth/Documents","no","Andale Mono","no","18","no","white","no","yes","576","legacy","46","46","3","/Users/davinaasworth/Documents/subject-5206966.csv","legacy","Lentiform Loewenfeld","3.3.7","yes","yes","600bd7cfb6416f0113b04181","602110864497cf011d9c0822","0","j","NA","space","space","space","NA","j","718","NA","28389","28057","12065","NA","718","2","legacy","1024","2","48000","-16","task","5206966","even","NA","52683","83076","54687","174810","5367","45509","33440","175315","NA","174807","175315","174753","83076","176034","50872","170924","5329","173253","Lexical Decision Task","44","39263","51","yes","1024"
"2.807758206","6.25","4","hurl","word","86.53846153846153","86.53846153846153","769.1153846153846","769.1153846153846","black","no","legacy","legacy","legacy","0","uniform","1","undefined","undefined","undefined","1","j","0","0","0","0","51","0","0","0","51","NA","47","51","47","0","47","3","51","0","51","Mon Feb 15 13:10:01 2021","The main experiment item","yes","Lexical_Decision_Task.osexp","/Users/davinaasworth/Documents","no","Andale Mono","no","18","no","white","no","yes","576","legacy","47","47","3","/Users/davinaasworth/Documents/subject-5206966.csv","legacy","Lentiform Loewenfeld","3.3.7","yes","yes","600bd7cfb6416f0113b04181","602110864497cf011d9c0822","0","j","NA","space","space","space","NA","j","731","NA","28389","28057","12065","NA","731","2","legacy","1024","2","48000","-16","task","5206966","even","NA","52683","83076","54687","176595","5367","45509","33440","177099","NA","176592","177100","176540","83076","177832","50872","176039","5329","173253","Lexical Decision Task","45","39994","52","yes","1024"
"2.937852093","0","7","bamp","non-word","86.79245283018868","86.79245283018868","769.188679245283","769.188679245283","black","no","legacy","legacy","legacy","0","uniform","1","undefined","undefined","undefined","1","f","0","0","0","0","52","0","0","0","52","NA","48","52","48","0","48","3","52","0","52","Mon Feb 15 13:10:01 2021","The main experiment item","yes","Lexical_Decision_Task.osexp","/Users/davinaasworth/Documents","no","Andale Mono","no","18","no","white","no","yes","576","legacy","48","48","3","/Users/davinaasworth/Documents/subject-5206966.csv","legacy","Lentiform Loewenfeld","3.3.7","yes","yes","600bd7cfb6416f0113b04181","602110864497cf011d9c0822","0","f","NA","space","space","space","NA","f","773","NA","28389","28057","12065","NA","773","2","legacy","1024","2","48000","-16","task","5206966","even","NA","52683","83076","54687","178393","5367","45509","33440","178896","NA","178390","178897","178338","83076","179671","50872","177838","5329","173253","Lexical Decision Task","46","40767","53","yes","1024"
"3.168890155","0","6","thet","non-word","87.03703703703704","87.03703703703704","772.7407407407408","772.7407407407408","black","no","legacy","legacy","legacy","0","uniform","1","undefined","undefined","undefined","1","f","0","0","0","0","53","0","0","0","53","NA","49","53","49","0","49","3","53","0","53","Mon Feb 15 13:10:01 2021","The main experiment item","yes","Lexical_Decision_Task.osexp","/Users/davinaasworth/Documents","no","Andale Mono","no","18","no","white","no","yes","576","legacy","49","49","3","/Users/davinaasworth/Documents/subject-5206966.csv","legacy","Lentiform Loewenfeld","3.3.7","yes","yes","600bd7cfb6416f0113b04181","602110864497cf011d9c0822","0","f","NA","space","space","space","NA","f","961","NA","28389","28057","12065","NA","961","2","legacy","1024","2","48000","-16","task","5206966","even","NA","52683","83076","54687","180229","5367","45509","33440","180733","NA","180227","180734","180176","83076","181696","50872","179675","5329","173253","Lexical Decision Task","47","41728","54","yes","1024"
"3.374198258","0","8","vist","non-word","85.45454545454545","85.45454545454545","771.2727272727273","771.2727272727273","black","no","legacy","legacy","legacy","0","uniform","0","undefined","undefined","undefined","0","f","0","0","0","0","54","0","0","0","54","0","50","54","50","0","50","3","54","0","54","Mon Feb 15 13:10:01 2021","The main experiment item","yes","Lexical_Decision_Task.osexp","/Users/davinaasworth/Documents","no","Andale Mono","no","18","no","white","no","yes","576","legacy","50","50","3","/Users/davinaasworth/Documents/subject-5206966.csv","legacy","Lentiform Loewenfeld","3.3.7","yes","yes","600bd7cfb6416f0113b04181","602110864497cf011d9c0822","0","j","NA","space","space","space","space","j","692","NA","28389","28057","12065","78065","692","2","legacy","1024","2","48000","-16","task","5206966","even","NA","52683","83076","54687","260352","5367","45509","33440","260857","182230","260349","260857","182201","83076","261551","50872","181701","5329","173253","Lexical Decision Task","47","42420","55","yes","1024"
"3.149629599","0","2","cleb","non-word","85.71428571428571","85.71428571428571","772.2857142857143","772.2857142857143","black","no","legacy","legacy","legacy","0","uniform","1","undefined","undefined","undefined","1","f","0","0","0","0","55","0","0","0","55","0","51","55","51","0","51","3","55","0","55","Mon Feb 15 13:10:01 2021","The main experiment item","yes","Lexical_Decision_Task.osexp","/Users/davinaasworth/Documents","no","Andale Mono","no","18","no","white","no","yes","576","legacy","51","51","3","/Users/davinaasworth/Documents/subject-5206966.csv","legacy","Lentiform Loewenfeld","3.3.7","yes","yes","600bd7cfb6416f0113b04181","602110864497cf011d9c0822","0","f","NA","space","space","space","space","f","828","NA","28389","28057","12065","78065","828","2","legacy","1024","2","48000","-16","task","5206966","even","NA","52683","83076","54687","263120","5367","45509","33440","263626","182230","263113","263626","263058","83076","264455","50872","181701","5329","261557","Lexical Decision Task","48","43248","56","yes","1024"
"3.20996159","0","4","clee","non-word","85.96491228070175","85.96491228070175","771.3508771929825","771.3508771929825","black","no","legacy","legacy","legacy","0","uniform","1","undefined","undefined","undefined","1","f","0","0","0","0","56","0","0","0","56","0","52","56","52","0","52","3","56","0","56","Mon Feb 15 13:10:01 2021","The main experiment item","yes","Lexical_Decision_Task.osexp","/Users/davinaasworth/Documents","no","Andale Mono","no","18","no","white","no","yes","576","legacy","52","52","3","/Users/davinaasworth/Documents/subject-5206966.csv","legacy","Lentiform Loewenfeld","3.3.7","yes","yes","600bd7cfb6416f0113b04181","602110864497cf011d9c0822","0","f","NA","space","space","space","space","f","719","NA","28389","28057","12065","78065","719","2","legacy","1024","2","48000","-16","task","5206966","even","NA","52683","83076","54687","265015","5367","45509","33440","265519","182230","265012","265519","264961","83076","266239","50872","264460","5329","261557","Lexical Decision Task","49","43967","57","yes","1024"
"2.728085817","10.02","9","bike","word","86.20689655172414","86.20689655172414","768","768","black","no","legacy","legacy","legacy","0","uniform","1","undefined","undefined","undefined","1","j","0","0","0","0","57","0","0","0","57","0","53","57","53","0","53","3","57","0","57","Mon Feb 15 13:10:01 2021","The main experiment item","yes","Lexical_Decision_Task.osexp","/Users/davinaasworth/Documents","no","Andale Mono","no","18","no","white","no","yes","576","legacy","53","53","3","/Users/davinaasworth/Documents/subject-5206966.csv","legacy","Lentiform Loewenfeld","3.3.7","yes","yes","600bd7cfb6416f0113b04181","602110864497cf011d9c0822","0","j","NA","space","space","space","space","j","577","NA","28389","28057","12065","78065","577","2","legacy","1024","2","48000","-16","task","5206966","even","NA","52683","83076","54687","266799","5367","45509","33440","267302","182230","266796","267303","266745","83076","267881","50872","266244","5329","261557","Lexical Decision Task","50","44544","58","yes","1024"
"3.311895072","0","9","gung","non-word","86.44067796610169","86.44067796610169","767.2881355932203","767.2881355932203","black","no","legacy","legacy","legacy","0","uniform","1","undefined","undefined","undefined","1","f","0","0","0","0","58","0","0","0","58","0","54","58","54","0","54","3","58","0","58","Mon Feb 15 13:10:01 2021","The main experiment item","yes","Lexical_Decision_Task.osexp","/Users/davinaasworth/Documents","no","Andale Mono","no","18","no","white","no","yes","576","legacy","54","54","3","/Users/davinaasworth/Documents/subject-5206966.csv","legacy","Lentiform Loewenfeld","3.3.7","yes","yes","600bd7cfb6416f0113b04181","602110864497cf011d9c0822","0","f","NA","space","space","space","space","f","726","NA","28389","28057","12065","78065","726","2","legacy","1024","2","48000","-16","task","5206966","even","NA","52683","83076","54687","268441","5367","45509","33440","268944","182230","268438","268945","268387","83076","269672","50872","267887","5329","261557","Lexical Decision Task","51","45270","59","yes","1024"
"2.972357144","0","5","dasp","non-word","86.66666666666667","86.66666666666667","767.2333333333333","767.2333333333333","black","no","legacy","legacy","legacy","0","uniform","1","undefined","undefined","undefined","1","f","0","0","0","0","59","0","0","0","59","0","55","59","55","0","55","3","59","0","59","Mon Feb 15 13:10:01 2021","The main experiment item","yes","Lexical_Decision_Task.osexp","/Users/davinaasworth/Documents","no","Andale Mono","no","18","no","white","no","yes","576","legacy","55","55","3","/Users/davinaasworth/Documents/subject-5206966.csv","legacy","Lentiform Loewenfeld","3.3.7","yes","yes","600bd7cfb6416f0113b04181","602110864497cf011d9c0822","0","f","NA","space","space","space","space","f","764","NA","28389","28057","12065","78065","764","2","legacy","1024","2","48000","-16","task","5206966","even","NA","52683","83076","54687","270232","5367","45509","33440","270736","182230","270229","270737","270178","83076","271502","50872","269678","5329","261557","Lexical Decision Task","52","46034","60","yes","1024"
"2.714888338","0","3","brug","non-word","86.88524590163935","86.88524590163935","765.5409836065573","765.5409836065573","black","no","legacy","legacy","legacy","0","uniform","1","undefined","undefined","undefined","1","f","0","0","0","0","60","0","0","0","60","0","56","60","56","0","56","3","60","0","60","Mon Feb 15 13:10:01 2021","The main experiment item","yes","Lexical_Decision_Task.osexp","/Users/davinaasworth/Documents","no","Andale Mono","no","18","no","white","no","yes","576","legacy","56","56","3","/Users/davinaasworth/Documents/subject-5206966.csv","legacy","Lentiform Loewenfeld","3.3.7","yes","yes","600bd7cfb6416f0113b04181","602110864497cf011d9c0822","0","f","NA","space","space","space","space","f","664","NA","28389","28057","12065","78065","664","2","legacy","1024","2","48000","-16","task","5206966","even","NA","52683","83076","54687","272063","5367","45509","33440","272567","182230","272060","272568","272008","83076","273233","50872","271508","5329","261557","Lexical Decision Task","53","46698","61","yes","1024"
"2.972819734","0","4","scew","non-word","87.09677419354838","87.09677419354838","767.8548387096774","767.8548387096774","black","no","legacy","legacy","legacy","0","uniform","1","undefined","undefined","undefined","1","f","0","0","0","0","61","0","0","0","61","0","57","61","57","0","57","3","61","0","61","Mon Feb 15 13:10:01 2021","The main experiment item","yes","Lexical_Decision_Task.osexp","/Users/davinaasworth/Documents","no","Andale Mono","no","18","no","white","no","yes","576","legacy","57","57","3","/Users/davinaasworth/Documents/subject-5206966.csv","legacy","Lentiform Loewenfeld","3.3.7","yes","yes","600bd7cfb6416f0113b04181","602110864497cf011d9c0822","0","f","NA","space","space","space","space","f","909","NA","28389","28057","12065","78065","909","2","legacy","1024","2","48000","-16","task","5206966","even","NA","52683","83076","54687","273792","5367","45509","33440","274295","182230","273789","274296","273738","83076","275206","50872","273238","5329","261557","Lexical Decision Task","54","47607","62","yes","1024"
"2.897810299","0","5","glur","non-word","85.71428571428571","85.71428571428571","769.8412698412699","769.8412698412699","black","no","legacy","legacy","legacy","0","uniform","0","undefined","undefined","undefined","0","f","0","0","0","0","62","0","0","0","62","0","58","62","58","0","58","3","62","0","62","Mon Feb 15 13:10:01 2021","The main experiment item","yes","Lexical_Decision_Task.osexp","/Users/davinaasworth/Documents","no","Andale Mono","no","18","no","white","no","yes","576","legacy","58","58","3","/Users/davinaasworth/Documents/subject-5206966.csv","legacy","Lentiform Loewenfeld","3.3.7","yes","yes","600bd7cfb6416f0113b04181","602110864497cf011d9c0822","0","j","NA","space","space","space","space","j","893","NA","28389","28057","12065","78065","893","2","legacy","1024","2","48000","-16","task","5206966","even","NA","52683","83076","54687","275765","5367","45509","33440","276269","182230","275762","276270","275711","83076","277164","50872","275211","5329","261557","Lexical Decision Task","54","48500","63","yes","1024"
"3.22685757","9.99","7","roll","word","85.9375","85.9375","768.125","768.125","black","no","legacy","legacy","legacy","0","uniform","1","undefined","undefined","undefined","1","j","0","0","0","0","63","0","0","0","63","0","59","63","59","0","59","3","63","0","63","Mon Feb 15 13:10:01 2021","The main experiment item","yes","Lexical_Decision_Task.osexp","/Users/davinaasworth/Documents","no","Andale Mono","no","18","no","white","no","yes","576","legacy","59","59","3","/Users/davinaasworth/Documents/subject-5206966.csv","legacy","Lentiform Loewenfeld","3.3.7","yes","yes","600bd7cfb6416f0113b04181","602110864497cf011d9c0822","0","j","NA","space","space","space","space","j","660","NA","28389","28057","12065","78065","660","2","legacy","1024","2","48000","-16","task","5206966","even","NA","52683","83076","54687","278728","5367","45509","33440","279231","182230","278724","279232","278670","83076","279893","50872","275211","5329","277169","Lexical Decision Task","55","49160","64","yes","1024"
"3.382617311","0","4","pret","non-word","86.15384615384616","86.15384615384616","766.4615384615385","766.4615384615385","black","no","legacy","legacy","legacy","0","uniform","1","undefined","undefined","undefined","1","f","0","0","0","0","64","0","0","0","64","0","60","64","60","0","60","3","64","0","64","Mon Feb 15 13:10:01 2021","The main experiment item","yes","Lexical_Decision_Task.osexp","/Users/davinaasworth/Documents","no","Andale Mono","no","18","no","white","no","yes","576","legacy","60","60","3","/Users/davinaasworth/Documents/subject-5206966.csv","legacy","Lentiform Loewenfeld","3.3.7","yes","yes","600bd7cfb6416f0113b04181","602110864497cf011d9c0822","0","f","NA","space","space","space","space","f","660","NA","28389","28057","12065","78065","660","2","legacy","1024","2","48000","-16","task","5206966","even","NA","52683","83076","54687","280453","5367","45509","33440","280956","182230","280450","280957","280399","83076","281618","50872","279898","5329","277169","Lexical Decision Task","56","49820","65","yes","1024"
"3.307211407","6.07","7","honk","word","86.36363636363636","86.36363636363636","766.9090909090909","766.9090909090909","black","no","legacy","legacy","legacy","0","uniform","1","undefined","undefined","undefined","1","j","0","0","0","0","65","0","0","0","65","0","61","65","61","0","61","3","65","0","65","Mon Feb 15 13:10:01 2021","The main experiment item","yes","Lexical_Decision_Task.osexp","/Users/davinaasworth/Documents","no","Andale Mono","no","18","no","white","no","yes","576","legacy","61","61","3","/Users/davinaasworth/Documents/subject-5206966.csv","legacy","Lentiform Loewenfeld","3.3.7","yes","yes","600bd7cfb6416f0113b04181","602110864497cf011d9c0822","0","j","NA","space","space","space","space","j","796","NA","28389","28057","12065","78065","796","2","legacy","1024","2","48000","-16","task","5206966","even","NA","52683","83076","54687","282179","5367","45509","33440","282682","182230","282176","282683","282124","83076","283480","50872","281623","5329","277169","Lexical Decision Task","57","50616","66","yes","1024"
"3.492014979","0","9","yine","non-word","86.56716417910448","86.56716417910448","766.8955223880597","766.8955223880597","black","no","legacy","legacy","legacy","0","uniform","1","undefined","undefined","undefined","1","f","0","0","0","0","66","0","0","0","66","0","62","66","62","0","62","3","66","0","66","Mon Feb 15 13:10:01 2021","The main experiment item","yes","Lexical_Decision_Task.osexp","/Users/davinaasworth/Documents","no","Andale Mono","no","18","no","white","no","yes","576","legacy","62","62","3","/Users/davinaasworth/Documents/subject-5206966.csv","legacy","Lentiform Loewenfeld","3.3.7","yes","yes","600bd7cfb6416f0113b04181","602110864497cf011d9c0822","0","f","NA","space","space","space","space","f","766","NA","28389","28057","12065","78065","766","2","legacy","1024","2","48000","-16","task","5206966","even","NA","52683","83076","54687","284040","5367","45509","33440","284543","182230","284037","284544","283986","83076","285311","50872","283486","5329","277169","Lexical Decision Task","58","51382","67","yes","1024"
"2.990042563","6.64","9","plow","word","86.76470588235294","86.76470588235294","767.1029411764706","767.1029411764706","black","no","legacy","legacy","legacy","0","uniform","1","undefined","undefined","undefined","1","j","0","0","0","0","67","0","0","0","67","0","63","67","63","0","63","3","67","0","67","Mon Feb 15 13:10:01 2021","The main experiment item","yes","Lexical_Decision_Task.osexp","/Users/davinaasworth/Documents","no","Andale Mono","no","18","no","white","no","yes","576","legacy","63","63","3","/Users/davinaasworth/Documents/subject-5206966.csv","legacy","Lentiform Loewenfeld","3.3.7","yes","yes","600bd7cfb6416f0113b04181","602110864497cf011d9c0822","0","j","NA","space","space","space","space","j","781","NA","28389","28057","12065","78065","781","2","legacy","1024","2","48000","-16","task","5206966","even","NA","52683","83076","54687","285870","5367","45509","33440","286374","182230","285868","286375","285817","83076","287157","50872","285316","5329","277169","Lexical Decision Task","59","52163","68","yes","1024"
"3.064581521","5.51","6","cask","word","85.5072463768116","85.5072463768116","776.4782608695652","776.4782608695652","black","no","legacy","legacy","legacy","0","uniform","0","undefined","undefined","undefined","0","j","0","0","0","0","68","0","0","0","68","0","64","68","64","0","64","3","68","0","68","Mon Feb 15 13:10:01 2021","The main experiment item","yes","Lexical_Decision_Task.osexp","/Users/davinaasworth/Documents","no","Andale Mono","no","18","no","white","no","yes","576","legacy","64","64","3","/Users/davinaasworth/Documents/subject-5206966.csv","legacy","Lentiform Loewenfeld","3.3.7","yes","yes","600bd7cfb6416f0113b04181","602110864497cf011d9c0822","0","f","NA","space","space","space","space","f","1414","NA","28389","28057","12065","78065","1414","2","legacy","1024","2","48000","-16","task","5206966","even","NA","52683","83076","54687","287717","5367","45509","33440","288221","182230","287714","288222","287663","83076","289637","50872","287162","5329","277169","Lexical Decision Task","59","53577","69","yes","1024"
"2.709837904","6.85","8","skim","word","85.71428571428571","85.71428571428571","774.3571428571429","774.3571428571429","black","no","legacy","legacy","legacy","0","uniform","1","undefined","undefined","undefined","1","j","0","0","0","0","69","0","0","0","69","0","65","69","65","0","65","3","69","0","69","Mon Feb 15 13:10:01 2021","The main experiment item","yes","Lexical_Decision_Task.osexp","/Users/davinaasworth/Documents","no","Andale Mono","no","18","no","white","no","yes","576","legacy","65","65","3","/Users/davinaasworth/Documents/subject-5206966.csv","legacy","Lentiform Loewenfeld","3.3.7","yes","yes","600bd7cfb6416f0113b04181","602110864497cf011d9c0822","0","j","NA","space","space","space","space","j","628","NA","28389","28057","12065","78065","628","2","legacy","1024","2","48000","-16","task","5206966","even","NA","52683","83076","54687","291200","5367","45509","33440","291705","182230","291197","291705","291142","83076","292334","50872","287162","5329","289642","Lexical Decision Task","60","54205","70","yes","1024"
"2.67699827","0","6","hulf","non-word","85.91549295774648","85.91549295774648","773.8591549295775","773.8591549295775","black","no","legacy","legacy","legacy","0","uniform","1","undefined","undefined","undefined","1","f","0","0","0","0","70","0","0","0","70","0","66","70","66","0","66","3","70","0","70","Mon Feb 15 13:10:01 2021","The main experiment item","yes","Lexical_Decision_Task.osexp","/Users/davinaasworth/Documents","no","Andale Mono","no","18","no","white","no","yes","576","legacy","66","66","3","/Users/davinaasworth/Documents/subject-5206966.csv","legacy","Lentiform Loewenfeld","3.3.7","yes","yes","600bd7cfb6416f0113b04181","602110864497cf011d9c0822","0","f","NA","space","space","space","space","f","739","NA","28389","28057","12065","78065","739","2","legacy","1024","2","48000","-16","task","5206966","even","NA","52683","83076","54687","292894","5367","45509","33440","293397","182230","292891","293398","292840","83076","294139","50872","292339","5329","289642","Lexical Decision Task","61","54944","71","yes","1024"
"2.782472624","10.55","2","huge","word","86.11111111111111","86.11111111111111","772.9861111111111","772.9861111111111","black","no","legacy","legacy","legacy","0","uniform","1","undefined","undefined","undefined","1","j","0","0","0","0","71","0","0","0","71","0","67","71","67","0","67","3","71","0","71","Mon Feb 15 13:10:01 2021","The main experiment item","yes","Lexical_Decision_Task.osexp","/Users/davinaasworth/Documents","no","Andale Mono","no","18","no","white","no","yes","576","legacy","67","67","3","/Users/davinaasworth/Documents/subject-5206966.csv","legacy","Lentiform Loewenfeld","3.3.7","yes","yes","600bd7cfb6416f0113b04181","602110864497cf011d9c0822","0","j","NA","space","space","space","space","j","711","NA","28389","28057","12065","78065","711","2","legacy","1024","2","48000","-16","task","5206966","even","NA","52683","83076","54687","294699","5367","45509","33440","295203","182230","294696","295204","294645","83076","295917","50872","294144","5329","289642","Lexical Decision Task","62","55655","72","yes","1024"
"3.2757719","0","5","slea","non-word","86.3013698630137","86.3013698630137","772.3835616438356","772.3835616438356","black","no","legacy","legacy","legacy","0","uniform","1","undefined","undefined","undefined","1","f","0","0","0","0","72","0","0","0","72","0","68","72","68","0","68","3","72","0","72","Mon Feb 15 13:10:01 2021","The main experiment item","yes","Lexical_Decision_Task.osexp","/Users/davinaasworth/Documents","no","Andale Mono","no","18","no","white","no","yes","576","legacy","68","68","3","/Users/davinaasworth/Documents/subject-5206966.csv","legacy","Lentiform Loewenfeld","3.3.7","yes","yes","600bd7cfb6416f0113b04181","602110864497cf011d9c0822","0","f","NA","space","space","space","space","f","729","NA","28389","28057","12065","78065","729","2","legacy","1024","2","48000","-16","task","5206966","even","NA","52683","83076","54687","296476","5367","45509","33440","296980","182230","296473","296981","296422","83076","297711","50872","295921","5329","289642","Lexical Decision Task","63","56384","73","yes","1024"
"2.767650507","0","6","yolt","non-word","86.48648648648648","86.48648648648648","771.5540540540541","771.5540540540541","black","no","legacy","legacy","legacy","0","uniform","1","undefined","undefined","undefined","1","f","0","0","0","0","73","0","0","0","73","0","69","73","69","0","69","3","73","0","73","Mon Feb 15 13:10:01 2021","The main experiment item","yes","Lexical_Decision_Task.osexp","/Users/davinaasworth/Documents","no","Andale Mono","no","18","no","white","no","yes","576","legacy","69","69","3","/Users/davinaasworth/Documents/subject-5206966.csv","legacy","Lentiform Loewenfeld","3.3.7","yes","yes","600bd7cfb6416f0113b04181","602110864497cf011d9c0822","0","f","NA","space","space","space","space","f","711","NA","28389","28057","12065","78065","711","2","legacy","1024","2","48000","-16","task","5206966","even","NA","52683","83076","54687","298270","5367","45509","33440","298773","182230","298267","298774","298216","83076","299486","50872","297716","5329","289642","Lexical Decision Task","64","57095","74","yes","1024"
"2.705007959","6.01","4","wept","word","86.66666666666667","86.66666666666667","772.0533333333333","772.0533333333333","black","no","legacy","legacy","legacy","0","uniform","1","undefined","undefined","undefined","1","j","0","0","0","0","74","0","0","0","74","0","70","74","70","0","70","3","74","0","74","Mon Feb 15 13:10:01 2021","The main experiment item","yes","Lexical_Decision_Task.osexp","/Users/davinaasworth/Documents","no","Andale Mono","no","18","no","white","no","yes","576","legacy","70","70","3","/Users/davinaasworth/Documents/subject-5206966.csv","legacy","Lentiform Loewenfeld","3.3.7","yes","yes","600bd7cfb6416f0113b04181","602110864497cf011d9c0822","0","j","NA","space","space","space","space","j","809","NA","28389","28057","12065","78065","809","2","legacy","1024","2","48000","-16","task","5206966","even","NA","52683","83076","54687","300046","5367","45509","33440","300549","182230","300043","300550","299992","83076","301360","50872","299492","5329","289642","Lexical Decision Task","65","57904","75","yes","1024"
"2.698387659","6.66","7","skid","word","86.84210526315789","86.84210526315789","772.0657894736842","772.0657894736842","black","no","legacy","legacy","legacy","0","uniform","1","undefined","undefined","undefined","1","j","0","0","0","0","75","0","0","0","75","0","71","75","71","0","71","3","75","0","75","Mon Feb 15 13:10:01 2021","The main experiment item","yes","Lexical_Decision_Task.osexp","/Users/davinaasworth/Documents","no","Andale Mono","no","18","no","white","no","yes","576","legacy","71","71","3","/Users/davinaasworth/Documents/subject-5206966.csv","legacy","Lentiform Loewenfeld","3.3.7","yes","yes","600bd7cfb6416f0113b04181","602110864497cf011d9c0822","0","j","NA","space","space","space","space","j","773","NA","28389","28057","12065","78065","773","2","legacy","1024","2","48000","-16","task","5206966","even","NA","52683","83076","54687","301920","5367","45509","33440","302424","182230","301917","302425","301866","83076","303199","50872","301366","5329","289642","Lexical Decision Task","66","58677","76","yes","1024"
"2.920123326","7.43","4","duel","word","87.01298701298701","87.01298701298701","770.4545454545455","770.4545454545455","black","no","legacy","legacy","legacy","0","uniform","1","undefined","undefined","undefined","1","j","0","0","0","0","76","0","0","0","76","0","72","76","72","0","72","3","76","0","76","Mon Feb 15 13:10:01 2021","The main experiment item","yes","Lexical_Decision_Task.osexp","/Users/davinaasworth/Documents","no","Andale Mono","no","18","no","white","no","yes","576","legacy","72","72","3","/Users/davinaasworth/Documents/subject-5206966.csv","legacy","Lentiform Loewenfeld","3.3.7","yes","yes","600bd7cfb6416f0113b04181","602110864497cf011d9c0822","0","j","NA","space","space","space","space","j","648","NA","28389","28057","12065","78065","648","2","legacy","1024","2","48000","-16","task","5206966","even","NA","52683","83076","54687","303759","5367","45509","33440","304262","182230","303756","304263","303704","83076","304912","50872","303204","5329","289642","Lexical Decision Task","67","59325","77","yes","1024"
"3.088136089","8.32","9","worm","word","87.17948717948718","87.17948717948718","769.4358974358975","769.4358974358975","black","no","legacy","legacy","legacy","0","uniform","1","undefined","undefined","undefined","1","j","0","0","0","0","77","0","0","0","77","0","73","77","73","0","73","3","77","0","77","Mon Feb 15 13:10:01 2021","The main experiment item","yes","Lexical_Decision_Task.osexp","/Users/davinaasworth/Documents","no","Andale Mono","no","18","no","white","no","yes","576","legacy","73","73","3","/Users/davinaasworth/Documents/subject-5206966.csv","legacy","Lentiform Loewenfeld","3.3.7","yes","yes","600bd7cfb6416f0113b04181","602110864497cf011d9c0822","0","j","NA","space","space","space","space","j","691","NA","28389","28057","12065","78065","691","2","legacy","1024","2","48000","-16","task","5206966","even","NA","52683","83076","54687","305472","5367","45509","33440","305975","182230","305469","305976","305418","83076","306668","50872","304917","5329","289642","Lexical Decision Task","68","60016","78","yes","1024"
"2.703007489","8.37","3","pulp","word","87.34177215189874","87.34177215189874","768.8987341772151","768.8987341772151","black","no","legacy","legacy","legacy","0","uniform","1","undefined","undefined","undefined","1","j","0","0","0","0","78","0","0","0","78","0","74","78","74","0","74","3","78","0","78","Mon Feb 15 13:10:01 2021","The main experiment item","yes","Lexical_Decision_Task.osexp","/Users/davinaasworth/Documents","no","Andale Mono","no","18","no","white","no","yes","576","legacy","74","74","3","/Users/davinaasworth/Documents/subject-5206966.csv","legacy","Lentiform Loewenfeld","3.3.7","yes","yes","600bd7cfb6416f0113b04181","602110864497cf011d9c0822","0","j","NA","space","space","space","space","j","727","NA","28389","28057","12065","78065","727","2","legacy","1024","2","48000","-16","task","5206966","even","NA","52683","83076","54687","307227","5367","45509","33440","307731","182230","307224","307732","307173","83076","308460","50872","306673","5329","289642","Lexical Decision Task","69","60743","79","yes","1024"
"3.120135028","0","3","vals","non-word","87.5","87.5","766.775","766.775","black","no","legacy","legacy","legacy","0","uniform","1","undefined","undefined","undefined","1","f","0","0","0","0","79","0","0","0","79","0","75","79","75","0","75","3","79","0","79","Mon Feb 15 13:10:01 2021","The main experiment item","yes","Lexical_Decision_Task.osexp","/Users/davinaasworth/Documents","no","Andale Mono","no","18","no","white","no","yes","576","legacy","75","75","3","/Users/davinaasworth/Documents/subject-5206966.csv","legacy","Lentiform Loewenfeld","3.3.7","yes","yes","600bd7cfb6416f0113b04181","602110864497cf011d9c0822","0","f","NA","space","space","space","space","f","599","NA","28389","28057","12065","78065","599","2","legacy","1024","2","48000","-16","task","5206966","even","NA","52683","83076","54687","309021","5367","45509","33440","309524","182230","309018","309525","308966","83076","310126","50872","308465","5329","289642","Lexical Decision Task","70","61342","80","yes","1024"
"3.100255637","0","6","brax","non-word","87.65432098765432","87.65432098765432","770.2469135802469","770.2469135802469","black","no","legacy","legacy","legacy","0","uniform","1","undefined","undefined","undefined","1","f","0","0","0","0","80","0","0","0","80","0","76","80","76","0","76","3","80","0","80","Mon Feb 15 13:10:01 2021","The main experiment item","yes","Lexical_Decision_Task.osexp","/Users/davinaasworth/Documents","no","Andale Mono","no","18","no","white","no","yes","576","legacy","76","76","3","/Users/davinaasworth/Documents/subject-5206966.csv","legacy","Lentiform Loewenfeld","3.3.7","yes","yes","600bd7cfb6416f0113b04181","602110864497cf011d9c0822","0","f","NA","space","space","space","space","f","1048","NA","28389","28057","12065","78065","1048","2","legacy","1024","2","48000","-16","task","5206966","even","NA","52683","83076","54687","310685","5367","45509","33440","311189","182230","310682","311190","310631","83076","312239","50872","310131","5329","289642","Lexical Decision Task","71","62390","81","yes","1024"
"2.884795364","0","6","flob","non-word","87.8048780487805","87.8048780487805","770.109756097561","770.109756097561","black","no","legacy","legacy","legacy","0","uniform","1","undefined","undefined","undefined","1","f","0","0","0","0","81","0","0","0","81","0","77","81","77","0","77","3","81","0","81","Mon Feb 15 13:10:01 2021","The main experiment item","yes","Lexical_Decision_Task.osexp","/Users/davinaasworth/Documents","no","Andale Mono","no","18","no","white","no","yes","576","legacy","77","77","3","/Users/davinaasworth/Documents/subject-5206966.csv","legacy","Lentiform Loewenfeld","3.3.7","yes","yes","600bd7cfb6416f0113b04181","602110864497cf011d9c0822","0","f","NA","space","space","space","space","f","759","NA","28389","28057","12065","78065","759","2","legacy","1024","2","48000","-16","task","5206966","even","NA","52683","83076","54687","312801","5367","45509","33440","313304","182230","312798","313305","312745","83076","314065","50872","312245","5329","289642","Lexical Decision Task","72","63149","82","yes","1024"
"2.819763221","0","2","durp","non-word","87.95180722891567","87.95180722891567","770.0843373493976","770.0843373493976","black","no","legacy","legacy","legacy","0","uniform","1","undefined","undefined","undefined","1","f","0","0","0","0","82","0","0","0","82","0","78","82","78","0","78","3","82","0","82","Mon Feb 15 13:10:01 2021","The main experiment item","yes","Lexical_Decision_Task.osexp","/Users/davinaasworth/Documents","no","Andale Mono","no","18","no","white","no","yes","576","legacy","78","78","3","/Users/davinaasworth/Documents/subject-5206966.csv","legacy","Lentiform Loewenfeld","3.3.7","yes","yes","600bd7cfb6416f0113b04181","602110864497cf011d9c0822","0","f","NA","space","space","space","space","f","768","NA","28389","28057","12065","78065","768","2","legacy","1024","2","48000","-16","task","5206966","even","NA","52683","83076","54687","314624","5367","45509","33440","315128","182230","314621","315129","314570","83076","315898","50872","314070","5329","289642","Lexical Decision Task","73","63917","83","yes","1024"
"2.839898939","8.99","6","soap","word","88.0952380952381","88.0952380952381","768.1547619047619","768.1547619047619","black","no","legacy","legacy","legacy","0","uniform","1","undefined","undefined","undefined","1","j","0","0","0","0","83","0","0","0","83","0","79","83","79","0","79","3","83","0","83","Mon Feb 15 13:10:01 2021","The main experiment item","yes","Lexical_Decision_Task.osexp","/Users/davinaasworth/Documents","no","Andale Mono","no","18","no","white","no","yes","576","legacy","79","79","3","/Users/davinaasworth/Documents/subject-5206966.csv","legacy","Lentiform Loewenfeld","3.3.7","yes","yes","600bd7cfb6416f0113b04181","602110864497cf011d9c0822","0","j","NA","space","space","space","space","j","608","NA","28389","28057","12065","78065","608","2","legacy","1024","2","48000","-16","task","5206966","even","NA","52683","83076","54687","316458","5367","45509","33440","316962","182230","316455","316963","316403","83076","317572","50872","315903","5329","289642","Lexical Decision Task","74","64525","84","yes","1024"
"3.14849993","10.75","7","hour","word","88.23529411764706","88.23529411764706","766.0235294117647","766.0235294117647","black","no","legacy","legacy","legacy","0","uniform","1","undefined","undefined","undefined","1","j","0","0","0","0","84","0","0","0","84","0","80","84","80","0","80","3","84","0","84","Mon Feb 15 13:10:01 2021","The main experiment item","yes","Lexical_Decision_Task.osexp","/Users/davinaasworth/Documents","no","Andale Mono","no","18","no","white","no","yes","576","legacy","80","80","3","/Users/davinaasworth/Documents/subject-5206966.csv","legacy","Lentiform Loewenfeld","3.3.7","yes","yes","600bd7cfb6416f0113b04181","602110864497cf011d9c0822","0","j","NA","space","space","space","space","j","587","NA","28389","28057","12065","78065","587","2","legacy","1024","2","48000","-16","task","5206966","even","NA","52683","83076","54687","318131","5367","45509","33440","318634","182230","318128","318635","318077","83076","319223","50872","317577","5329","289642","Lexical Decision Task","75","65112","85","yes","1024"
"3.274543461","7.46","7","scar","word","88.37209302325581","88.37209302325581","765.3488372093024","765.3488372093024","black","no","legacy","legacy","legacy","0","uniform","1","undefined","undefined","undefined","1","j","0","0","0","0","85","0","0","0","85","0","81","85","81","0","81","3","85","0","85","Mon Feb 15 13:10:01 2021","The main experiment item","yes","Lexical_Decision_Task.osexp","/Users/davinaasworth/Documents","no","Andale Mono","no","18","no","white","no","yes","576","legacy","81","81","3","/Users/davinaasworth/Documents/subject-5206966.csv","legacy","Lentiform Loewenfeld","3.3.7","yes","yes","600bd7cfb6416f0113b04181","602110864497cf011d9c0822","0","j","NA","space","space","space","space","j","708","NA","28389","28057","12065","78065","708","2","legacy","1024","2","48000","-16","task","5206966","even","NA","52683","83076","54687","319784","5367","45509","33440","320288","182230","319781","320288","319729","83076","320997","50872","319229","5329","289642","Lexical Decision Task","76","65820","86","yes","1024"
"3.299579929","0","2","flis","non-word","88.50574712643679","88.50574712643679","767.3333333333334","767.3333333333334","black","no","legacy","legacy","legacy","0","uniform","1","undefined","undefined","undefined","1","f","0","0","0","0","86","0","0","0","86","0","82","86","82","0","82","3","86","0","86","Mon Feb 15 13:10:01 2021","The main experiment item","yes","Lexical_Decision_Task.osexp","/Users/davinaasworth/Documents","no","Andale Mono","no","18","no","white","no","yes","576","legacy","82","82","3","/Users/davinaasworth/Documents/subject-5206966.csv","legacy","Lentiform Loewenfeld","3.3.7","yes","yes","600bd7cfb6416f0113b04181","602110864497cf011d9c0822","0","f","NA","space","space","space","space","f","938","NA","28389","28057","12065","78065","938","2","legacy","1024","2","48000","-16","task","5206966","even","NA","52683","83076","54687","321557","5367","45509","33440","322061","182230","321554","322062","321502","83076","323002","50872","321002","5329","289642","Lexical Decision Task","77","66758","87","yes","1024"
"2.576725172","0","8","gowl","non-word","88.63636363636364","88.63636363636364","769.1136363636364","769.1136363636364","black","no","legacy","legacy","legacy","0","uniform","1","undefined","undefined","undefined","1","f","0","0","0","0","87","0","0","0","87","0","83","87","83","0","83","3","87","0","87","Mon Feb 15 13:10:01 2021","The main experiment item","yes","Lexical_Decision_Task.osexp","/Users/davinaasworth/Documents","no","Andale Mono","no","18","no","white","no","yes","576","legacy","83","83","3","/Users/davinaasworth/Documents/subject-5206966.csv","legacy","Lentiform Loewenfeld","3.3.7","yes","yes","600bd7cfb6416f0113b04181","602110864497cf011d9c0822","0","f","NA","space","space","space","space","f","924","NA","28389","28057","12065","78065","924","2","legacy","1024","2","48000","-16","task","5206966","even","NA","52683","83076","54687","323561","5367","45509","33440","324064","182230","323558","324065","323507","83076","324990","50872","323007","5329","289642","Lexical Decision Task","78","67682","88","yes","1024"
"3.225825991","0","7","talm","non-word","88.76404494382022","88.76404494382022","770.7303370786517","770.7303370786517","black","no","legacy","legacy","legacy","0","uniform","1","undefined","undefined","undefined","1","f","0","0","0","0","88","0","0","0","88","0","84","88","84","0","84","3","88","0","88","Mon Feb 15 13:10:01 2021","The main experiment item","yes","Lexical_Decision_Task.osexp","/Users/davinaasworth/Documents","no","Andale Mono","no","18","no","white","no","yes","576","legacy","84","84","3","/Users/davinaasworth/Documents/subject-5206966.csv","legacy","Lentiform Loewenfeld","3.3.7","yes","yes","600bd7cfb6416f0113b04181","602110864497cf011d9c0822","0","f","NA","space","space","space","space","f","913","NA","28389","28057","12065","78065","913","2","legacy","1024","2","48000","-16","task","5206966","even","NA","52683","83076","54687","325550","5367","45509","33440","326054","182230","325547","326055","325496","83076","326969","50872","324995","5329","289642","Lexical Decision Task","79","68595","89","yes","1024"
"3.082307743","9.68","8","camp","word","88.88888888888889","88.88888888888889","769.0333333333333","769.0333333333333","black","no","legacy","legacy","legacy","0","uniform","1","undefined","undefined","undefined","1","j","0","0","0","0","89","0","0","0","89","0","85","89","85","0","85","3","89","0","89","Mon Feb 15 13:10:01 2021","The main experiment item","yes","Lexical_Decision_Task.osexp","/Users/davinaasworth/Documents","no","Andale Mono","no","18","no","white","no","yes","576","legacy","85","85","3","/Users/davinaasworth/Documents/subject-5206966.csv","legacy","Lentiform Loewenfeld","3.3.7","yes","yes","600bd7cfb6416f0113b04181","602110864497cf011d9c0822","0","j","NA","space","space","space","space","j","618","NA","28389","28057","12065","78065","618","2","legacy","1024","2","48000","-16","task","5206966","even","NA","52683","83076","54687","327529","5367","45509","33440","328033","182230","327526","328033","327475","83076","328652","50872","326974","5329","289642","Lexical Decision Task","80","69213","90","yes","1024"
"3.132473155","0","4","glim","non-word","87.91208791208791","87.91208791208791","770.065934065934","770.065934065934","black","no","legacy","legacy","legacy","0","uniform","0","undefined","undefined","undefined","0","f","0","0","0","0","90","0","0","0","90","0","86","90","86","0","86","3","90","0","90","Mon Feb 15 13:10:01 2021","The main experiment item","yes","Lexical_Decision_Task.osexp","/Users/davinaasworth/Documents","no","Andale Mono","no","18","no","white","no","yes","576","legacy","86","86","3","/Users/davinaasworth/Documents/subject-5206966.csv","legacy","Lentiform Loewenfeld","3.3.7","yes","yes","600bd7cfb6416f0113b04181","602110864497cf011d9c0822","0","j","NA","space","space","space","space","j","863","NA","28389","28057","12065","78065","863","2","legacy","1024","2","48000","-16","task","5206966","even","NA","52683","83076","54687","329213","5367","45509","33440","329716","182230","329210","329717","329158","83076","330581","50872","328658","5329","289642","Lexical Decision Task","80","70076","91","yes","1024"
"3.440331212","7.35","6","stew","word","88.04347826086956","88.04347826086956","767.9347826086956","767.9347826086956","black","no","legacy","legacy","legacy","0","uniform","1","undefined","undefined","undefined","1","j","0","0","0","0","91","0","0","0","91","0","87","91","87","0","87","3","91","0","91","Mon Feb 15 13:10:01 2021","The main experiment item","yes","Lexical_Decision_Task.osexp","/Users/davinaasworth/Documents","no","Andale Mono","no","18","no","white","no","yes","576","legacy","87","87","3","/Users/davinaasworth/Documents/subject-5206966.csv","legacy","Lentiform Loewenfeld","3.3.7","yes","yes","600bd7cfb6416f0113b04181","602110864497cf011d9c0822","0","j","NA","space","space","space","space","j","574","NA","28389","28057","12065","78065","574","2","legacy","1024","2","48000","-16","task","5206966","even","NA","52683","83076","54687","332144","5367","45509","33440","332648","182230","332141","332649","332087","83076","333224","50872","328658","5329","330586","Lexical Decision Task","81","70650","92","yes","1024"
"2.953276337","6.32","4","thaw","word","87.09677419354838","87.09677419354838","766.752688172043","766.752688172043","black","no","legacy","legacy","legacy","0","uniform","0","undefined","undefined","undefined","0","j","0","0","0","0","92","0","0","0","92","0","88","92","88","0","88","3","92","0","92","Mon Feb 15 13:10:01 2021","The main experiment item","yes","Lexical_Decision_Task.osexp","/Users/davinaasworth/Documents","no","Andale Mono","no","18","no","white","no","yes","576","legacy","88","88","3","/Users/davinaasworth/Documents/subject-5206966.csv","legacy","Lentiform Loewenfeld","3.3.7","yes","yes","600bd7cfb6416f0113b04181","602110864497cf011d9c0822","0","f","NA","space","space","space","space","f","658","NA","28389","28057","12065","78065","658","2","legacy","1024","2","48000","-16","task","5206966","even","NA","52683","83076","54687","333783","5367","45509","33440","334287","182230","333781","334288","333730","83076","334947","50872","333229","5329","330586","Lexical Decision Task","81","71308","93","yes","1024"
"2.979548375","8.71","4","soup","word","87.23404255319149","87.23404255319149","764.936170212766","764.936170212766","black","no","legacy","legacy","legacy","0","uniform","1","undefined","undefined","undefined","1","j","0","0","0","0","93","0","0","0","93","0","89","93","89","0","89","3","93","0","93","Mon Feb 15 13:10:01 2021","The main experiment item","yes","Lexical_Decision_Task.osexp","/Users/davinaasworth/Documents","no","Andale Mono","no","18","no","white","no","yes","576","legacy","89","89","3","/Users/davinaasworth/Documents/subject-5206966.csv","legacy","Lentiform Loewenfeld","3.3.7","yes","yes","600bd7cfb6416f0113b04181","602110864497cf011d9c0822","0","j","NA","space","space","space","space","j","596","NA","28389","28057","12065","78065","596","2","legacy","1024","2","48000","-16","task","5206966","even","NA","52683","83076","54687","336511","5367","45509","33440","337014","182230","336507","337015","336452","83076","337612","50872","333229","5329","334952","Lexical Decision Task","82","71904","94","yes","1024"
"2.971428938","9.86","7","spot","word","87.36842105263158","87.36842105263158","762.7684210526315","762.7684210526315","black","no","legacy","legacy","legacy","0","uniform","1","undefined","undefined","undefined","1","j","0","0","0","0","94","0","0","0","94","0","90","94","90","0","90","3","94","0","94","Mon Feb 15 13:10:01 2021","The main experiment item","yes","Lexical_Decision_Task.osexp","/Users/davinaasworth/Documents","no","Andale Mono","no","18","no","white","no","yes","576","legacy","90","90","3","/Users/davinaasworth/Documents/subject-5206966.csv","legacy","Lentiform Loewenfeld","3.3.7","yes","yes","600bd7cfb6416f0113b04181","602110864497cf011d9c0822","0","j","NA","space","space","space","space","j","559","NA","28389","28057","12065","78065","559","2","legacy","1024","2","48000","-16","task","5206966","even","NA","52683","83076","54687","338172","5367","45509","33440","338675","182230","338169","338676","338117","83076","339237","50872","337617","5329","334952","Lexical Decision Task","83","72463","95","yes","1024"
"2.664011697","8.19","4","hawk","word","87.5","87.5","763.125","763.125","black","no","legacy","legacy","legacy","0","uniform","1","undefined","undefined","undefined","1","j","0","0","0","0","95","0","0","0","95","0","91","95","91","0","91","3","95","0","95","Mon Feb 15 13:10:01 2021","The main experiment item","yes","Lexical_Decision_Task.osexp","/Users/davinaasworth/Documents","no","Andale Mono","no","18","no","white","no","yes","576","legacy","91","91","3","/Users/davinaasworth/Documents/subject-5206966.csv","legacy","Lentiform Loewenfeld","3.3.7","yes","yes","600bd7cfb6416f0113b04181","602110864497cf011d9c0822","0","j","NA","space","space","space","space","j","797","NA","28389","28057","12065","78065","797","2","legacy","1024","2","48000","-16","task","5206966","even","NA","52683","83076","54687","339797","5367","45509","33440","340301","182230","339794","340301","339742","83076","341099","50872","339241","5329","334952","Lexical Decision Task","84","73260","96","yes","1024"
"3.134602053","0","8","jart","non-word","87.62886597938144","87.62886597938144","762.6082474226804","762.6082474226804","black","no","legacy","legacy","legacy","0","uniform","1","undefined","undefined","undefined","1","f","0","0","0","0","96","0","0","0","96","0","92","96","92","0","92","3","96","0","96","Mon Feb 15 13:10:01 2021","The main experiment item","yes","Lexical_Decision_Task.osexp","/Users/davinaasworth/Documents","no","Andale Mono","no","18","no","white","no","yes","576","legacy","92","92","3","/Users/davinaasworth/Documents/subject-5206966.csv","legacy","Lentiform Loewenfeld","3.3.7","yes","yes","600bd7cfb6416f0113b04181","602110864497cf011d9c0822","0","f","NA","space","space","space","space","f","713","NA","28389","28057","12065","78065","713","2","legacy","1024","2","48000","-16","task","5206966","even","NA","52683","83076","54687","341660","5367","45509","33440","342164","182230","341657","342165","341605","83076","342879","50872","341105","5329","334952","Lexical Decision Task","85","73973","97","yes","1024"
"3.282244367","0","6","fute","non-word","87.75510204081633","87.75510204081633","761.6632653061224","761.6632653061224","black","no","legacy","legacy","legacy","0","uniform","1","undefined","undefined","undefined","1","f","0","0","0","0","97","0","0","0","97","0","93","97","93","0","93","3","97","0","97","Mon Feb 15 13:10:01 2021","The main experiment item","yes","Lexical_Decision_Task.osexp","/Users/davinaasworth/Documents","no","Andale Mono","no","18","no","white","no","yes","576","legacy","93","93","3","/Users/davinaasworth/Documents/subject-5206966.csv","legacy","Lentiform Loewenfeld","3.3.7","yes","yes","600bd7cfb6416f0113b04181","602110864497cf011d9c0822","0","f","NA","space","space","space","space","f","670","NA","28389","28057","12065","78065","670","2","legacy","1024","2","48000","-16","task","5206966","even","NA","52683","83076","54687","343439","5367","45509","33440","343943","182230","343436","343943","343384","83076","344614","50872","342884","5329","334952","Lexical Decision Task","86","74643","98","yes","1024"
"3.131833513","7.66","4","limb","word","87.87878787878788","87.87878787878788","762.4848484848485","762.4848484848485","black","no","legacy","legacy","legacy","0","uniform","1","undefined","undefined","undefined","1","j","0","0","0","0","98","0","0","0","98","0","94","98","94","0","94","3","98","0","98","Mon Feb 15 13:10:01 2021","The main experiment item","yes","Lexical_Decision_Task.osexp","/Users/davinaasworth/Documents","no","Andale Mono","no","18","no","white","no","yes","576","legacy","94","94","3","/Users/davinaasworth/Documents/subject-5206966.csv","legacy","Lentiform Loewenfeld","3.3.7","yes","yes","600bd7cfb6416f0113b04181","602110864497cf011d9c0822","0","j","NA","space","space","space","space","j","843","NA","28389","28057","12065","78065","843","2","legacy","1024","2","48000","-16","task","5206966","even","NA","52683","83076","54687","345175","5367","45509","33440","345678","182230","345172","345679","345120","83076","346523","50872","344620","5329","334952","Lexical Decision Task","87","75486","99","yes","1024"
