"Log_BG","Log_Freq_HAL","Ortho_N","Stimulus","Type","acc","accuracy","average_response_time","avg_rt","background","bidi","canvas_backend","clock_backend","color_backend","compensation","coordinates","correct","correct_Experimental_intro","correct_Introduction","correct_Practice_intro","correct_experimenter_kb","correct_response","count_End_Of_Experiment","count_End_Of_Practice","count_Experimental_Loop","count_Experimental_intro","count_Fixation","count_Introduction","count_Practice_Loop","count_Practice_intro","count_Stimulus","count_block_break_feedback","count_experimental_sequence","count_experimenter_kb","count_increment_trial_count","count_init_trial_count","count_logger","count_practice_sequence","count_right","count_task","count_wrong","datetime","description","disable_garbage_collection","experiment_file","experiment_path","font_bold","font_family","font_italic","font_size","font_underline","foreground","form_clicks","fullscreen","height","keyboard_backend","live_row","live_row_Experimental_Loop","live_row_Practice_Loop","logfile","mouse_backend","opensesame_codename","opensesame_version","osf_always_upload_data","osf_always_upload_experiment","osf_datanode_id","osf_id","repeat_cycle","response","response_End_Of_Experiment","response_Experimental_intro","response_Introduction","response_Practice_intro","response_block_break_feedback","response_experimenter_kb","response_time","response_time_End_Of_Experiment","response_time_Experimental_intro","response_time_Introduction","response_time_Practice_intro","response_time_block_break_feedback","response_time_experimenter_kb","round_decimals","sampler_backend","sound_buf_size","sound_channels","sound_freq","sound_sample_size","start","subject_nr","subject_parity","time_End_Of_Experiment","time_End_Of_Practice","time_Experimental_Loop","time_Experimental_intro","time_Fixation","time_Introduction","time_Practice_Loop","time_Practice_intro","time_Stimulus","time_block_break_feedback","time_experimental_sequence","time_experimenter_kb","time_increment_trial_count","time_init_trial_count","time_logger","time_practice_sequence","time_right","time_task","time_wrong","title","total_correct","total_response_time","total_responses","uniform_coordinates","width"
"2.907588697","8.91","9","mood","word","100","100","795.4","795.4","black","no","legacy","legacy","legacy","0","uniform","1","undefined","undefined","undefined","1","j","0","0","0","0","4","0","0","0","4","NA","0","4","0","0","0","3","4","0","4","Fri Feb 19 09:57:12 2021","The main experiment item","yes","Lexical_Decision_Task.osexp","/Users/sam/Downloads","no","Andale Mono","no","18","no","white","no","yes","576","legacy","0","0","3","/Users/sam/Downloads/subject-5222873.csv","legacy","Lentiform Loewenfeld","3.3.7","yes","yes","600bd7cfb6416f0113b04181","602110864497cf011d9c0822","0","j","NA","space","space","space","NA","j","540","NA","3092","10494","6318","NA","540","2","legacy","1024","2","48000","-16","task","5222873","odd","NA","30367","35463","32370","35488","5760","22589","16267","35991","NA","35486","35992","NA","35463","36533","28685","29836","5700","NA","Lexical Decision Task","5","3977","5","yes","1024"
"3.474361976","5.24","6","veer","word","100","100","859.3333333333334","859.3333333333334","black","no","legacy","legacy","legacy","0","uniform","1","undefined","undefined","undefined","1","j","0","0","0","0","5","0","0","0","5","NA","1","5","1","0","1","3","5","0","5","Fri Feb 19 09:57:12 2021","The main experiment item","yes","Lexical_Decision_Task.osexp","/Users/sam/Downloads","no","Andale Mono","no","18","no","white","no","yes","576","legacy","1","1","3","/Users/sam/Downloads/subject-5222873.csv","legacy","Lentiform Loewenfeld","3.3.7","yes","yes","600bd7cfb6416f0113b04181","602110864497cf011d9c0822","0","j","NA","space","space","space","NA","j","1179","NA","3092","10494","6318","NA","1179","2","legacy","1024","2","48000","-16","task","5222873","odd","NA","30367","35463","32370","37105","5760","22589","16267","37608","NA","37102","37608","37039","35463","38788","28685","36539","5700","NA","Lexical Decision Task","6","5156","6","yes","1024"
"3.077974404","10.41","8","tool","word","100","100","824.8571428571429","824.8571428571429","black","no","legacy","legacy","legacy","0","uniform","1","undefined","undefined","undefined","1","j","0","0","0","0","6","0","0","0","6","NA","2","6","2","0","2","3","6","0","6","Fri Feb 19 09:57:12 2021","The main experiment item","yes","Lexical_Decision_Task.osexp","/Users/sam/Downloads","no","Andale Mono","no","18","no","white","no","yes","576","legacy","2","2","3","/Users/sam/Downloads/subject-5222873.csv","legacy","Lentiform Loewenfeld","3.3.7","yes","yes","600bd7cfb6416f0113b04181","602110864497cf011d9c0822","0","j","NA","space","space","space","NA","j","618","NA","3092","10494","6318","NA","618","2","legacy","1024","2","48000","-16","task","5222873","odd","NA","30367","35463","32370","39353","5760","22589","16267","39856","NA","39350","39856","39292","35463","40475","28685","38792","5700","NA","Lexical Decision Task","7","5774","7","yes","1024"
"2.6599162","0","2","saff","non-word","100","100","819","819","black","no","legacy","legacy","legacy","0","uniform","1","undefined","undefined","undefined","1","f","0","0","0","0","7","0","0","0","7","NA","3","7","3","0","3","3","7","0","7","Fri Feb 19 09:57:12 2021","The main experiment item","yes","Lexical_Decision_Task.osexp","/Users/sam/Downloads","no","Andale Mono","no","18","no","white","no","yes","576","legacy","3","3","3","/Users/sam/Downloads/subject-5222873.csv","legacy","Lentiform Loewenfeld","3.3.7","yes","yes","600bd7cfb6416f0113b04181","602110864497cf011d9c0822","0","f","NA","space","space","space","NA","f","778","NA","3092","10494","6318","NA","778","2","legacy","1024","2","48000","-16","task","5222873","odd","NA","30367","35463","32370","41042","5760","22589","16267","41545","NA","41039","41545","40979","35463","42324","28685","40479","5700","NA","Lexical Decision Task","8","6552","8","yes","1024"
"2.821076612","0","4","lult","non-word","100","100","820.3333333333334","820.3333333333334","black","no","legacy","legacy","legacy","0","uniform","1","undefined","undefined","undefined","1","f","0","0","0","0","8","0","0","0","8","NA","4","8","4","0","4","3","8","0","8","Fri Feb 19 09:57:12 2021","The main experiment item","yes","Lexical_Decision_Task.osexp","/Users/sam/Downloads","no","Andale Mono","no","18","no","white","no","yes","576","legacy","4","4","3","/Users/sam/Downloads/subject-5222873.csv","legacy","Lentiform Loewenfeld","3.3.7","yes","yes","600bd7cfb6416f0113b04181","602110864497cf011d9c0822","0","f","NA","space","space","space","NA","f","831","NA","3092","10494","6318","NA","831","2","legacy","1024","2","48000","-16","task","5222873","odd","NA","30367","35463","32370","42889","5760","22589","16267","43392","NA","42886","43392","42828","35463","44224","28685","42328","5700","NA","Lexical Decision Task","9","7383","9","yes","1024"
"2.899638141","0","3","hapt","non-word","100","100","809","809","black","no","legacy","legacy","legacy","0","uniform","1","undefined","undefined","undefined","1","f","0","0","0","0","9","0","0","0","9","NA","5","9","5","0","5","3","9","0","9","Fri Feb 19 09:57:12 2021","The main experiment item","yes","Lexical_Decision_Task.osexp","/Users/sam/Downloads","no","Andale Mono","no","18","no","white","no","yes","576","legacy","5","5","3","/Users/sam/Downloads/subject-5222873.csv","legacy","Lentiform Loewenfeld","3.3.7","yes","yes","600bd7cfb6416f0113b04181","602110864497cf011d9c0822","0","f","NA","space","space","space","NA","f","707","NA","3092","10494","6318","NA","707","2","legacy","1024","2","48000","-16","task","5222873","odd","NA","30367","35463","32370","44790","5760","22589","16267","45293","NA","44788","45293","44728","35463","46001","28685","44228","5700","NA","Lexical Decision Task","10","8090","10","yes","1024"
"2.803231716","5.26","3","kiln","word","90.9090909090909","90.9090909090909","854.6363636363636","854.6363636363636","black","no","legacy","legacy","legacy","0","uniform","0","undefined","undefined","undefined","0","j","0","0","0","0","10","0","0","0","10","NA","6","10","6","0","6","3","10","0","10","Fri Feb 19 09:57:12 2021","The main experiment item","yes","Lexical_Decision_Task.osexp","/Users/sam/Downloads","no","Andale Mono","no","18","no","white","no","yes","576","legacy","6","6","3","/Users/sam/Downloads/subject-5222873.csv","legacy","Lentiform Loewenfeld","3.3.7","yes","yes","600bd7cfb6416f0113b04181","602110864497cf011d9c0822","0","f","NA","space","space","space","NA","f","1311","NA","3092","10494","6318","NA","1311","2","legacy","1024","2","48000","-16","task","5222873","odd","NA","30367","35463","32370","46567","5760","22589","16267","47070","NA","46565","47070","46504","35463","48382","28685","46004","5700","NA","Lexical Decision Task","10","9401","11","yes","1024"
"2.64476673","0","5","moft","non-word","91.66666666666667","91.66666666666667","857.8333333333334","857.8333333333334","black","no","legacy","legacy","legacy","0","uniform","1","undefined","undefined","undefined","1","f","0","0","0","0","11","0","0","0","11","NA","7","11","7","0","7","3","11","0","11","Fri Feb 19 09:57:12 2021","The main experiment item","yes","Lexical_Decision_Task.osexp","/Users/sam/Downloads","no","Andale Mono","no","18","no","white","no","yes","576","legacy","7","7","3","/Users/sam/Downloads/subject-5222873.csv","legacy","Lentiform Loewenfeld","3.3.7","yes","yes","600bd7cfb6416f0113b04181","602110864497cf011d9c0822","0","f","NA","space","space","space","NA","f","893","NA","3092","10494","6318","NA","893","2","legacy","1024","2","48000","-16","task","5222873","odd","NA","30367","35463","32370","49951","5760","22589","16267","50454","NA","49948","50454","49886","35463","51347","28685","46004","5700","48386","Lexical Decision Task","11","10294","12","yes","1024"
"2.744553742","0","2","nawk","non-word","84.61538461538461","84.61538461538461","877.6923076923077","877.6923076923077","black","no","legacy","legacy","legacy","0","uniform","0","undefined","undefined","undefined","0","f","0","0","0","0","12","0","0","0","12","NA","8","12","8","0","8","3","12","0","12","Fri Feb 19 09:57:12 2021","The main experiment item","yes","Lexical_Decision_Task.osexp","/Users/sam/Downloads","no","Andale Mono","no","18","no","white","no","yes","576","legacy","8","8","3","/Users/sam/Downloads/subject-5222873.csv","legacy","Lentiform Loewenfeld","3.3.7","yes","yes","600bd7cfb6416f0113b04181","602110864497cf011d9c0822","0","j","NA","space","space","space","NA","j","1116","NA","3092","10494","6318","NA","1116","2","legacy","1024","2","48000","-16","task","5222873","odd","NA","30367","35463","32370","51913","5760","22589","16267","52416","NA","51910","52416","51852","35463","53533","28685","51351","5700","48386","Lexical Decision Task","11","11410","13","yes","1024"
"2.812467698","0","7","hafe","non-word","85.71428571428571","85.71428571428571","862.2142857142857","862.2142857142857","black","no","legacy","legacy","legacy","0","uniform","1","undefined","undefined","undefined","1","f","0","0","0","0","13","0","0","0","13","NA","9","13","9","0","9","3","13","0","13","Fri Feb 19 09:57:12 2021","The main experiment item","yes","Lexical_Decision_Task.osexp","/Users/sam/Downloads","no","Andale Mono","no","18","no","white","no","yes","576","legacy","9","9","3","/Users/sam/Downloads/subject-5222873.csv","legacy","Lentiform Loewenfeld","3.3.7","yes","yes","600bd7cfb6416f0113b04181","602110864497cf011d9c0822","0","f","NA","space","space","space","NA","f","661","NA","3092","10494","6318","NA","661","2","legacy","1024","2","48000","-16","task","5222873","odd","NA","30367","35463","32370","55099","5760","22589","16267","55603","NA","55096","55603","55037","35463","56264","28685","51351","5700","53537","Lexical Decision Task","12","12071","14","yes","1024"
"3.299579929","0","2","flis","non-word","86.66666666666667","86.66666666666667","845.6","845.6","black","no","legacy","legacy","legacy","0","uniform","1","undefined","undefined","undefined","1","f","0","0","0","0","14","0","0","0","14","NA","10","14","10","0","10","3","14","0","14","Fri Feb 19 09:57:12 2021","The main experiment item","yes","Lexical_Decision_Task.osexp","/Users/sam/Downloads","no","Andale Mono","no","18","no","white","no","yes","576","legacy","10","10","3","/Users/sam/Downloads/subject-5222873.csv","legacy","Lentiform Loewenfeld","3.3.7","yes","yes","600bd7cfb6416f0113b04181","602110864497cf011d9c0822","0","f","NA","space","space","space","NA","f","613","NA","3092","10494","6318","NA","613","2","legacy","1024","2","48000","-16","task","5222873","odd","NA","30367","35463","32370","56832","5760","22589","16267","57335","NA","56829","57335","56767","35463","57949","28685","56267","5700","53537","Lexical Decision Task","13","12684","15","yes","1024"
"3.031812271","6.52","3","gulp","word","87.5","87.5","836.75","836.75","black","no","legacy","legacy","legacy","0","uniform","1","undefined","undefined","undefined","1","j","0","0","0","0","15","0","0","0","15","NA","11","15","11","0","11","3","15","0","15","Fri Feb 19 09:57:12 2021","The main experiment item","yes","Lexical_Decision_Task.osexp","/Users/sam/Downloads","no","Andale Mono","no","18","no","white","no","yes","576","legacy","11","11","3","/Users/sam/Downloads/subject-5222873.csv","legacy","Lentiform Loewenfeld","3.3.7","yes","yes","600bd7cfb6416f0113b04181","602110864497cf011d9c0822","0","j","NA","space","space","space","NA","j","704","NA","3092","10494","6318","NA","704","2","legacy","1024","2","48000","-16","task","5222873","odd","NA","30367","35463","32370","58515","5760","22589","16267","59018","NA","58513","59018","58453","35463","59722","28685","57953","5700","53537","Lexical Decision Task","14","13388","16","yes","1024"
"3.121778632","0","9","sark","non-word","88.23529411764706","88.23529411764706","839.7647058823529","839.7647058823529","black","no","legacy","legacy","legacy","0","uniform","1","undefined","undefined","undefined","1","f","0","0","0","0","16","0","0","0","16","NA","12","16","12","0","12","3","16","0","16","Fri Feb 19 09:57:12 2021","The main experiment item","yes","Lexical_Decision_Task.osexp","/Users/sam/Downloads","no","Andale Mono","no","18","no","white","no","yes","576","legacy","12","12","3","/Users/sam/Downloads/subject-5222873.csv","legacy","Lentiform Loewenfeld","3.3.7","yes","yes","600bd7cfb6416f0113b04181","602110864497cf011d9c0822","0","f","NA","space","space","space","NA","f","888","NA","3092","10494","6318","NA","888","2","legacy","1024","2","48000","-16","task","5222873","odd","NA","30367","35463","32370","60287","5760","22589","16267","60790","NA","60284","60790","60226","35463","61678","28685","59726","5700","53537","Lexical Decision Task","15","14276","17","yes","1024"
"2.594027722","9.08","8","skip","word","88.88888888888889","88.88888888888889","832.2222222222222","832.2222222222222","black","no","legacy","legacy","legacy","0","uniform","1","undefined","undefined","undefined","1","j","0","0","0","0","17","0","0","0","17","NA","13","17","13","0","13","3","17","0","17","Fri Feb 19 09:57:12 2021","The main experiment item","yes","Lexical_Decision_Task.osexp","/Users/sam/Downloads","no","Andale Mono","no","18","no","white","no","yes","576","legacy","13","13","3","/Users/sam/Downloads/subject-5222873.csv","legacy","Lentiform Loewenfeld","3.3.7","yes","yes","600bd7cfb6416f0113b04181","602110864497cf011d9c0822","0","j","NA","space","space","space","NA","j","704","NA","3092","10494","6318","NA","704","2","legacy","1024","2","48000","-16","task","5222873","odd","NA","30367","35463","32370","62247","5760","22589","16267","62751","NA","62245","62751","62182","35463","63456","28685","61682","5700","53537","Lexical Decision Task","16","14980","18","yes","1024"
"3.028977705","0","7","frow","non-word","89.47368421052632","89.47368421052632","840.8947368421053","840.8947368421053","black","no","legacy","legacy","legacy","0","uniform","1","undefined","undefined","undefined","1","f","0","0","0","0","18","0","0","0","18","NA","14","18","14","0","14","3","18","0","18","Fri Feb 19 09:57:12 2021","The main experiment item","yes","Lexical_Decision_Task.osexp","/Users/sam/Downloads","no","Andale Mono","no","18","no","white","no","yes","576","legacy","14","14","3","/Users/sam/Downloads/subject-5222873.csv","legacy","Lentiform Loewenfeld","3.3.7","yes","yes","600bd7cfb6416f0113b04181","602110864497cf011d9c0822","0","f","NA","space","space","space","NA","f","997","NA","3092","10494","6318","NA","997","2","legacy","1024","2","48000","-16","task","5222873","odd","NA","30367","35463","32370","64021","5760","22589","16267","64524","NA","64018","64524","63960","35463","65522","28685","63460","5700","53537","Lexical Decision Task","17","15977","19","yes","1024"
"3.384413096","10.15","3","glad","word","90","90","829.4","829.4","black","no","legacy","legacy","legacy","0","uniform","1","undefined","undefined","undefined","1","j","0","0","0","0","19","0","0","0","19","NA","15","19","15","0","15","3","19","0","19","Fri Feb 19 09:57:12 2021","The main experiment item","yes","Lexical_Decision_Task.osexp","/Users/sam/Downloads","no","Andale Mono","no","18","no","white","no","yes","576","legacy","15","15","3","/Users/sam/Downloads/subject-5222873.csv","legacy","Lentiform Loewenfeld","3.3.7","yes","yes","600bd7cfb6416f0113b04181","602110864497cf011d9c0822","0","j","NA","space","space","space","NA","j","611","NA","3092","10494","6318","NA","611","2","legacy","1024","2","48000","-16","task","5222873","odd","NA","30367","35463","32370","66089","5760","22589","16267","66592","NA","66086","66592","66026","35463","67204","28685","65526","5700","53537","Lexical Decision Task","18","16588","20","yes","1024"
"2.809559715","8.44","4","volt","word","90.47619047619048","90.47619047619048","826.1428571428571","826.1428571428571","black","no","legacy","legacy","legacy","0","uniform","1","undefined","undefined","undefined","1","j","0","0","0","0","20","0","0","0","20","NA","16","20","16","0","16","3","20","0","20","Fri Feb 19 09:57:12 2021","The main experiment item","yes","Lexical_Decision_Task.osexp","/Users/sam/Downloads","no","Andale Mono","no","18","no","white","no","yes","576","legacy","16","16","3","/Users/sam/Downloads/subject-5222873.csv","legacy","Lentiform Loewenfeld","3.3.7","yes","yes","600bd7cfb6416f0113b04181","602110864497cf011d9c0822","0","j","NA","space","space","space","NA","j","761","NA","3092","10494","6318","NA","761","2","legacy","1024","2","48000","-16","task","5222873","odd","NA","30367","35463","32370","67769","5760","22589","16267","68272","NA","67766","68273","67708","35463","69035","28685","67208","5700","53537","Lexical Decision Task","19","17349","21","yes","1024"
"2.980911938","7.15","7","hoop","word","90.9090909090909","90.9090909090909","816.9545454545455","816.9545454545455","black","no","legacy","legacy","legacy","0","uniform","1","undefined","undefined","undefined","1","j","0","0","0","0","21","0","0","0","21","NA","17","21","17","0","17","3","21","0","21","Fri Feb 19 09:57:12 2021","The main experiment item","yes","Lexical_Decision_Task.osexp","/Users/sam/Downloads","no","Andale Mono","no","18","no","white","no","yes","576","legacy","17","17","3","/Users/sam/Downloads/subject-5222873.csv","legacy","Lentiform Loewenfeld","3.3.7","yes","yes","600bd7cfb6416f0113b04181","602110864497cf011d9c0822","0","j","NA","space","space","space","NA","j","624","NA","3092","10494","6318","NA","624","2","legacy","1024","2","48000","-16","task","5222873","odd","NA","30367","35463","32370","69600","5760","22589","16267","70104","NA","69598","70104","69539","35463","70729","28685","69039","5700","53537","Lexical Decision Task","20","17973","22","yes","1024"
"2.981215883","10.66","5","hair","word","91.30434782608695","91.30434782608695","809.5217391304348","809.5217391304348","black","no","legacy","legacy","legacy","0","uniform","1","undefined","undefined","undefined","1","j","0","0","0","0","22","0","0","0","22","NA","18","22","18","0","18","3","22","0","22","Fri Feb 19 09:57:12 2021","The main experiment item","yes","Lexical_Decision_Task.osexp","/Users/sam/Downloads","no","Andale Mono","no","18","no","white","no","yes","576","legacy","18","18","3","/Users/sam/Downloads/subject-5222873.csv","legacy","Lentiform Loewenfeld","3.3.7","yes","yes","600bd7cfb6416f0113b04181","602110864497cf011d9c0822","0","j","NA","space","space","space","NA","j","646","NA","3092","10494","6318","NA","646","2","legacy","1024","2","48000","-16","task","5222873","odd","NA","30367","35463","32370","71294","5760","22589","16267","71797","NA","71292","71797","71233","35463","72444","28685","70733","5700","53537","Lexical Decision Task","21","18619","23","yes","1024"
"2.68604012","0","3","mulb","non-word","91.66666666666667","91.66666666666667","810.4166666666666","810.4166666666666","black","no","legacy","legacy","legacy","0","uniform","1","undefined","undefined","undefined","1","f","0","0","0","0","23","0","0","0","23","NA","19","23","19","0","19","3","23","0","23","Fri Feb 19 09:57:12 2021","The main experiment item","yes","Lexical_Decision_Task.osexp","/Users/sam/Downloads","no","Andale Mono","no","18","no","white","no","yes","576","legacy","19","19","3","/Users/sam/Downloads/subject-5222873.csv","legacy","Lentiform Loewenfeld","3.3.7","yes","yes","600bd7cfb6416f0113b04181","602110864497cf011d9c0822","0","f","NA","space","space","space","NA","f","831","NA","3092","10494","6318","NA","831","2","legacy","1024","2","48000","-16","task","5222873","odd","NA","30367","35463","32370","73008","5760","22589","16267","73511","NA","73005","73511","72947","35463","74343","28685","72447","5700","53537","Lexical Decision Task","22","19450","24","yes","1024"
"3.132473155","0","4","glim","non-word","92","92","827.88","827.88","black","no","legacy","legacy","legacy","0","uniform","1","undefined","undefined","undefined","1","f","0","0","0","0","24","0","0","0","24","NA","20","24","20","0","20","3","24","0","24","Fri Feb 19 09:57:12 2021","The main experiment item","yes","Lexical_Decision_Task.osexp","/Users/sam/Downloads","no","Andale Mono","no","18","no","white","no","yes","576","legacy","20","20","3","/Users/sam/Downloads/subject-5222873.csv","legacy","Lentiform Loewenfeld","3.3.7","yes","yes","600bd7cfb6416f0113b04181","602110864497cf011d9c0822","0","f","NA","space","space","space","NA","f","1247","NA","3092","10494","6318","NA","1247","2","legacy","1024","2","48000","-16","task","5222873","odd","NA","30367","35463","32370","74908","5760","22589","16267","75411","NA","74905","75411","74846","35463","76659","28685","74346","5700","53537","Lexical Decision Task","23","20697","25","yes","1024"
"2.983324025","9.56","2","debt","word","92.3076923076923","92.3076923076923","825.8076923076923","825.8076923076923","black","no","legacy","legacy","legacy","0","uniform","1","undefined","undefined","undefined","1","j","0","0","0","0","25","0","0","0","25","NA","21","25","21","0","21","3","25","0","25","Fri Feb 19 09:57:12 2021","The main experiment item","yes","Lexical_Decision_Task.osexp","/Users/sam/Downloads","no","Andale Mono","no","18","no","white","no","yes","576","legacy","21","21","3","/Users/sam/Downloads/subject-5222873.csv","legacy","Lentiform Loewenfeld","3.3.7","yes","yes","600bd7cfb6416f0113b04181","602110864497cf011d9c0822","0","j","NA","space","space","space","NA","j","774","NA","3092","10494","6318","NA","774","2","legacy","1024","2","48000","-16","task","5222873","odd","NA","30367","35463","32370","77226","5760","22589","16267","77729","NA","77223","77729","77163","35463","78504","28685","76663","5700","53537","Lexical Decision Task","24","21471","26","yes","1024"
"3.031408464","0","7","drow","non-word","88.88888888888889","88.88888888888889","822.1481481481482","822.1481481481482","black","no","legacy","legacy","legacy","0","uniform","0","undefined","undefined","undefined","0","f","0","0","0","0","26","0","0","0","26","NA","22","26","22","0","22","3","26","0","26","Fri Feb 19 09:57:12 2021","The main experiment item","yes","Lexical_Decision_Task.osexp","/Users/sam/Downloads","no","Andale Mono","no","18","no","white","no","yes","576","legacy","22","22","3","/Users/sam/Downloads/subject-5222873.csv","legacy","Lentiform Loewenfeld","3.3.7","yes","yes","600bd7cfb6416f0113b04181","602110864497cf011d9c0822","0","j","NA","space","space","space","NA","j","727","NA","3092","10494","6318","NA","727","2","legacy","1024","2","48000","-16","task","5222873","odd","NA","30367","35463","32370","79070","5760","22589","16267","79573","NA","79067","79574","79008","35463","80302","28685","78508","5700","53537","Lexical Decision Task","24","22198","27","yes","1024"
"2.668385917","5.48","4","twig","word","89.28571428571429","89.28571428571429","813.75","813.75","black","no","legacy","legacy","legacy","0","uniform","1","undefined","undefined","undefined","1","j","0","0","0","0","27","0","0","0","27","NA","23","27","23","0","23","3","27","0","27","Fri Feb 19 09:57:12 2021","The main experiment item","yes","Lexical_Decision_Task.osexp","/Users/sam/Downloads","no","Andale Mono","no","18","no","white","no","yes","576","legacy","23","23","3","/Users/sam/Downloads/subject-5222873.csv","legacy","Lentiform Loewenfeld","3.3.7","yes","yes","600bd7cfb6416f0113b04181","602110864497cf011d9c0822","0","j","NA","space","space","space","NA","j","587","NA","3092","10494","6318","NA","587","2","legacy","1024","2","48000","-16","task","5222873","odd","NA","30367","35463","32370","81869","5760","22589","16267","82372","NA","81866","82372","81805","35463","82960","28685","78508","5700","80305","Lexical Decision Task","25","22785","28","yes","1024"
"3.488597715","0","9","nain","non-word","89.65517241379311","89.65517241379311","810.4137931034483","810.4137931034483","black","no","legacy","legacy","legacy","0","uniform","1","undefined","undefined","undefined","1","f","0","0","0","0","28","0","0","0","28","NA","24","28","24","0","24","3","28","0","28","Fri Feb 19 09:57:12 2021","The main experiment item","yes","Lexical_Decision_Task.osexp","/Users/sam/Downloads","no","Andale Mono","no","18","no","white","no","yes","576","legacy","24","24","3","/Users/sam/Downloads/subject-5222873.csv","legacy","Lentiform Loewenfeld","3.3.7","yes","yes","600bd7cfb6416f0113b04181","602110864497cf011d9c0822","0","f","NA","space","space","space","NA","f","717","NA","3092","10494","6318","NA","717","2","legacy","1024","2","48000","-16","task","5222873","odd","NA","30367","35463","32370","83526","5760","22589","16267","84029","NA","83523","84029","83464","35463","84747","28685","82964","5700","80305","Lexical Decision Task","26","23502","29","yes","1024"
"2.706148589","0","4","hube","non-word","90","90","814.5","814.5","black","no","legacy","legacy","legacy","0","uniform","1","undefined","undefined","undefined","1","f","0","0","0","0","29","0","0","0","29","NA","25","29","25","0","25","3","29","0","29","Fri Feb 19 09:57:12 2021","The main experiment item","yes","Lexical_Decision_Task.osexp","/Users/sam/Downloads","no","Andale Mono","no","18","no","white","no","yes","576","legacy","25","25","3","/Users/sam/Downloads/subject-5222873.csv","legacy","Lentiform Loewenfeld","3.3.7","yes","yes","600bd7cfb6416f0113b04181","602110864497cf011d9c0822","0","f","NA","space","space","space","NA","f","933","NA","3092","10494","6318","NA","933","2","legacy","1024","2","48000","-16","task","5222873","odd","NA","30367","35463","32370","85319","5760","22589","16267","85822","NA","85316","85822","85251","35463","86756","28685","84750","5700","80305","Lexical Decision Task","27","24435","30","yes","1024"
"2.86332286","6.71","2","feud","word","90.3225806451613","90.3225806451613","810.0645161290323","810.0645161290323","black","no","legacy","legacy","legacy","0","uniform","1","undefined","undefined","undefined","1","j","0","0","0","0","30","0","0","0","30","NA","26","30","26","0","26","3","30","0","30","Fri Feb 19 09:57:12 2021","The main experiment item","yes","Lexical_Decision_Task.osexp","/Users/sam/Downloads","no","Andale Mono","no","18","no","white","no","yes","576","legacy","26","26","3","/Users/sam/Downloads/subject-5222873.csv","legacy","Lentiform Loewenfeld","3.3.7","yes","yes","600bd7cfb6416f0113b04181","602110864497cf011d9c0822","0","j","NA","space","space","space","NA","j","677","NA","3092","10494","6318","NA","677","2","legacy","1024","2","48000","-16","task","5222873","odd","NA","30367","35463","32370","87321","5760","22589","16267","87824","NA","87318","87824","87259","35463","88502","28685","86759","5700","80305","Lexical Decision Task","28","25112","31","yes","1024"
"2.898725182","0","7","turl","non-word","90.625","90.625","804.5625","804.5625","black","no","legacy","legacy","legacy","0","uniform","1","undefined","undefined","undefined","1","f","0","0","0","0","31","0","0","0","31","NA","27","31","27","0","27","3","31","0","31","Fri Feb 19 09:57:12 2021","The main experiment item","yes","Lexical_Decision_Task.osexp","/Users/sam/Downloads","no","Andale Mono","no","18","no","white","no","yes","576","legacy","27","27","3","/Users/sam/Downloads/subject-5222873.csv","legacy","Lentiform Loewenfeld","3.3.7","yes","yes","600bd7cfb6416f0113b04181","602110864497cf011d9c0822","0","f","NA","space","space","space","NA","f","634","NA","3092","10494","6318","NA","634","2","legacy","1024","2","48000","-16","task","5222873","odd","NA","30367","35463","32370","89067","5760","22589","16267","89571","NA","89065","89571","89006","35463","90205","28685","88506","5700","80305","Lexical Decision Task","29","25746","32","yes","1024"
"2.782472624","10.55","2","huge","word","90.9090909090909","90.9090909090909","794.1818181818181","794.1818181818181","black","no","legacy","legacy","legacy","0","uniform","1","undefined","undefined","undefined","1","j","0","0","0","0","32","0","0","0","32","NA","28","32","28","0","28","3","32","0","32","Fri Feb 19 09:57:12 2021","The main experiment item","yes","Lexical_Decision_Task.osexp","/Users/sam/Downloads","no","Andale Mono","no","18","no","white","no","yes","576","legacy","28","28","3","/Users/sam/Downloads/subject-5222873.csv","legacy","Lentiform Loewenfeld","3.3.7","yes","yes","600bd7cfb6416f0113b04181","602110864497cf011d9c0822","0","j","NA","space","space","space","NA","j","462","NA","3092","10494","6318","NA","462","2","legacy","1024","2","48000","-16","task","5222873","odd","NA","30367","35463","32370","90772","5760","22589","16267","91274","NA","90769","91274","90709","35463","91736","28685","90209","5700","80305","Lexical Decision Task","30","26208","33","yes","1024"
"3.14849993","10.75","7","hour","word","91.17647058823529","91.17647058823529","788.9411764705883","788.9411764705883","black","no","legacy","legacy","legacy","0","uniform","1","undefined","undefined","undefined","1","j","0","0","0","0","33","0","0","0","33","NA","29","33","29","0","29","3","33","0","33","Fri Feb 19 09:57:12 2021","The main experiment item","yes","Lexical_Decision_Task.osexp","/Users/sam/Downloads","no","Andale Mono","no","18","no","white","no","yes","576","legacy","29","29","3","/Users/sam/Downloads/subject-5222873.csv","legacy","Lentiform Loewenfeld","3.3.7","yes","yes","600bd7cfb6416f0113b04181","602110864497cf011d9c0822","0","j","NA","space","space","space","NA","j","616","NA","3092","10494","6318","NA","616","2","legacy","1024","2","48000","-16","task","5222873","odd","NA","30367","35463","32370","92300","5760","22589","16267","92803","NA","92297","92803","92240","35463","93420","28685","91740","5700","80305","Lexical Decision Task","31","26824","34","yes","1024"
"3.22685757","9.99","7","roll","word","91.42857142857143","91.42857142857143","786.7428571428571","786.7428571428571","black","no","legacy","legacy","legacy","0","uniform","1","undefined","undefined","undefined","1","j","0","0","0","0","34","0","0","0","34","NA","30","34","30","0","30","3","34","0","34","Fri Feb 19 09:57:12 2021","The main experiment item","yes","Lexical_Decision_Task.osexp","/Users/sam/Downloads","no","Andale Mono","no","18","no","white","no","yes","576","legacy","30","30","3","/Users/sam/Downloads/subject-5222873.csv","legacy","Lentiform Loewenfeld","3.3.7","yes","yes","600bd7cfb6416f0113b04181","602110864497cf011d9c0822","0","j","NA","space","space","space","NA","j","712","NA","3092","10494","6318","NA","712","2","legacy","1024","2","48000","-16","task","5222873","odd","NA","30367","35463","32370","93986","5760","22589","16267","94489","NA","93983","94489","93924","35463","95202","28685","93424","5700","80305","Lexical Decision Task","32","27536","35","yes","1024"
"2.95456409","0","4","taud","non-word","91.66666666666667","91.66666666666667","780.1388888888889","780.1388888888889","black","no","legacy","legacy","legacy","0","uniform","1","undefined","undefined","undefined","1","f","0","0","0","0","35","0","0","0","35","NA","31","35","31","0","31","3","35","0","35","Fri Feb 19 09:57:12 2021","The main experiment item","yes","Lexical_Decision_Task.osexp","/Users/sam/Downloads","no","Andale Mono","no","18","no","white","no","yes","576","legacy","31","31","3","/Users/sam/Downloads/subject-5222873.csv","legacy","Lentiform Loewenfeld","3.3.7","yes","yes","600bd7cfb6416f0113b04181","602110864497cf011d9c0822","0","f","NA","space","space","space","NA","f","549","NA","3092","10494","6318","NA","549","2","legacy","1024","2","48000","-16","task","5222873","odd","NA","30367","35463","32370","95770","5760","22589","16267","96273","NA","95767","96273","95707","35463","96823","28685","95207","5700","80305","Lexical Decision Task","33","28085","36","yes","1024"
"3.302475237","0","7","leel","non-word","91.89189189189189","91.89189189189189","779.7567567567568","779.7567567567568","black","no","legacy","legacy","legacy","0","uniform","1","undefined","undefined","undefined","1","f","0","0","0","0","36","0","0","0","36","NA","32","36","32","0","32","3","36","0","36","Fri Feb 19 09:57:12 2021","The main experiment item","yes","Lexical_Decision_Task.osexp","/Users/sam/Downloads","no","Andale Mono","no","18","no","white","no","yes","576","legacy","32","32","3","/Users/sam/Downloads/subject-5222873.csv","legacy","Lentiform Loewenfeld","3.3.7","yes","yes","600bd7cfb6416f0113b04181","602110864497cf011d9c0822","0","f","NA","space","space","space","NA","f","766","NA","3092","10494","6318","NA","766","2","legacy","1024","2","48000","-16","task","5222873","odd","NA","30367","35463","32370","97387","5760","22589","16267","97891","NA","97385","97891","97327","35463","98658","28685","96827","5700","80305","Lexical Decision Task","34","28851","37","yes","1024"
"3.2757719","0","5","slea","non-word","92.10526315789474","92.10526315789474","786.6842105263158","786.6842105263158","black","no","legacy","legacy","legacy","0","uniform","1","undefined","undefined","undefined","1","f","0","0","0","0","37","0","0","0","37","NA","33","37","33","0","33","3","37","0","37","Fri Feb 19 09:57:12 2021","The main experiment item","yes","Lexical_Decision_Task.osexp","/Users/sam/Downloads","no","Andale Mono","no","18","no","white","no","yes","576","legacy","33","33","3","/Users/sam/Downloads/subject-5222873.csv","legacy","Lentiform Loewenfeld","3.3.7","yes","yes","600bd7cfb6416f0113b04181","602110864497cf011d9c0822","0","f","NA","space","space","space","NA","f","1043","NA","3092","10494","6318","NA","1043","2","legacy","1024","2","48000","-16","task","5222873","odd","NA","30367","35463","32370","99223","5760","22589","16267","99726","NA","99219","99726","99162","35463","100770","28685","98662","5700","80305","Lexical Decision Task","35","29894","38","yes","1024"
"3.156347201","0","8","lasp","non-word","92.3076923076923","92.3076923076923","785.8974358974359","785.8974358974359","black","no","legacy","legacy","legacy","0","uniform","1","undefined","undefined","undefined","1","f","0","0","0","0","38","0","0","0","38","NA","34","38","34","0","34","3","38","0","38","Fri Feb 19 09:57:12 2021","The main experiment item","yes","Lexical_Decision_Task.osexp","/Users/sam/Downloads","no","Andale Mono","no","18","no","white","no","yes","576","legacy","34","34","3","/Users/sam/Downloads/subject-5222873.csv","legacy","Lentiform Loewenfeld","3.3.7","yes","yes","600bd7cfb6416f0113b04181","602110864497cf011d9c0822","0","f","NA","space","space","space","NA","f","756","NA","3092","10494","6318","NA","756","2","legacy","1024","2","48000","-16","task","5222873","odd","NA","30367","35463","32370","101333","5760","22589","16267","101836","NA","101331","101836","101273","35463","102593","28685","100773","5700","80305","Lexical Decision Task","36","30650","39","yes","1024"
"2.868644438","10.52","4","town","word","92.5","92.5","779","779","black","no","legacy","legacy","legacy","0","uniform","1","undefined","undefined","undefined","1","j","0","0","0","0","39","0","0","0","39","NA","35","39","35","0","35","3","39","0","39","Fri Feb 19 09:57:12 2021","The main experiment item","yes","Lexical_Decision_Task.osexp","/Users/sam/Downloads","no","Andale Mono","no","18","no","white","no","yes","576","legacy","35","35","3","/Users/sam/Downloads/subject-5222873.csv","legacy","Lentiform Loewenfeld","3.3.7","yes","yes","600bd7cfb6416f0113b04181","602110864497cf011d9c0822","0","j","NA","space","space","space","NA","j","510","NA","3092","10494","6318","NA","510","2","legacy","1024","2","48000","-16","task","5222873","odd","NA","30367","35463","32370","103157","5760","22589","16267","103660","NA","103154","103660","103097","35463","104171","28685","102597","5700","80305","Lexical Decision Task","37","31160","40","yes","1024"
"2.884795364","0","6","flob","non-word","92.6829268292683","92.6829268292683","781.7317073170732","781.7317073170732","black","no","legacy","legacy","legacy","0","uniform","1","undefined","undefined","undefined","1","f","0","0","0","0","40","0","0","0","40","NA","36","40","36","0","36","3","40","0","40","Fri Feb 19 09:57:12 2021","The main experiment item","yes","Lexical_Decision_Task.osexp","/Users/sam/Downloads","no","Andale Mono","no","18","no","white","no","yes","576","legacy","36","36","3","/Users/sam/Downloads/subject-5222873.csv","legacy","Lentiform Loewenfeld","3.3.7","yes","yes","600bd7cfb6416f0113b04181","602110864497cf011d9c0822","0","f","NA","space","space","space","NA","f","891","NA","3092","10494","6318","NA","891","2","legacy","1024","2","48000","-16","task","5222873","odd","NA","30367","35463","32370","104737","5760","22589","16267","105240","NA","104734","105240","104675","35463","106132","28685","104175","5700","80305","Lexical Decision Task","38","32051","41","yes","1024"
"3.131833513","7.66","4","limb","word","92.85714285714286","92.85714285714286","773.7142857142857","773.7142857142857","black","no","legacy","legacy","legacy","0","uniform","1","undefined","undefined","undefined","1","j","0","0","0","0","41","0","0","0","41","NA","37","41","37","0","37","3","41","0","41","Fri Feb 19 09:57:12 2021","The main experiment item","yes","Lexical_Decision_Task.osexp","/Users/sam/Downloads","no","Andale Mono","no","18","no","white","no","yes","576","legacy","37","37","3","/Users/sam/Downloads/subject-5222873.csv","legacy","Lentiform Loewenfeld","3.3.7","yes","yes","600bd7cfb6416f0113b04181","602110864497cf011d9c0822","0","j","NA","space","space","space","NA","j","445","NA","3092","10494","6318","NA","445","2","legacy","1024","2","48000","-16","task","5222873","odd","NA","30367","35463","32370","106695","5760","22589","16267","107199","NA","106693","107199","106636","35463","107645","28685","106136","5700","80305","Lexical Decision Task","39","32496","42","yes","1024"
"3.134602053","0","8","jart","non-word","93.02325581395348","93.02325581395348","767.6511627906976","767.6511627906976","black","no","legacy","legacy","legacy","0","uniform","1","undefined","undefined","undefined","1","f","0","0","0","0","42","0","0","0","42","NA","38","42","38","0","38","3","42","0","42","Fri Feb 19 09:57:12 2021","The main experiment item","yes","Lexical_Decision_Task.osexp","/Users/sam/Downloads","no","Andale Mono","no","18","no","white","no","yes","576","legacy","38","38","3","/Users/sam/Downloads/subject-5222873.csv","legacy","Lentiform Loewenfeld","3.3.7","yes","yes","600bd7cfb6416f0113b04181","602110864497cf011d9c0822","0","f","NA","space","space","space","NA","f","513","NA","3092","10494","6318","NA","513","2","legacy","1024","2","48000","-16","task","5222873","odd","NA","30367","35463","32370","108211","5760","22589","16267","108714","NA","108208","108715","108149","35463","109229","28685","107649","5700","80305","Lexical Decision Task","40","33009","43","yes","1024"
"3.037294994","8.64","7","roof","word","93.18181818181819","93.18181818181819","761.5909090909091","761.5909090909091","black","no","legacy","legacy","legacy","0","uniform","1","undefined","undefined","undefined","1","j","0","0","0","0","43","0","0","0","43","NA","39","43","39","0","39","3","43","0","43","Fri Feb 19 09:57:12 2021","The main experiment item","yes","Lexical_Decision_Task.osexp","/Users/sam/Downloads","no","Andale Mono","no","18","no","white","no","yes","576","legacy","39","39","3","/Users/sam/Downloads/subject-5222873.csv","legacy","Lentiform Loewenfeld","3.3.7","yes","yes","600bd7cfb6416f0113b04181","602110864497cf011d9c0822","0","j","NA","space","space","space","NA","j","501","NA","3092","10494","6318","NA","501","2","legacy","1024","2","48000","-16","task","5222873","odd","NA","30367","35463","32370","109796","5760","22589","16267","110298","NA","109793","110299","109732","35463","110801","28685","109232","5700","80305","Lexical Decision Task","41","33510","44","yes","1024"
"2.807758206","6.25","4","hurl","word","93.33333333333333","93.33333333333333","763.3111111111111","763.3111111111111","black","no","legacy","legacy","legacy","0","uniform","1","undefined","undefined","undefined","1","j","0","0","0","0","44","0","0","0","44","NA","40","44","40","0","40","3","44","0","44","Fri Feb 19 09:57:12 2021","The main experiment item","yes","Lexical_Decision_Task.osexp","/Users/sam/Downloads","no","Andale Mono","no","18","no","white","no","yes","576","legacy","40","40","3","/Users/sam/Downloads/subject-5222873.csv","legacy","Lentiform Loewenfeld","3.3.7","yes","yes","600bd7cfb6416f0113b04181","602110864497cf011d9c0822","0","j","NA","space","space","space","NA","j","839","NA","3092","10494","6318","NA","839","2","legacy","1024","2","48000","-16","task","5222873","odd","NA","30367","35463","32370","111366","5760","22589","16267","111869","NA","111363","111869","111304","35463","112709","28685","110804","5700","80305","Lexical Decision Task","42","34349","45","yes","1024"
"2.664328519","0","4","plux","non-word","93.47826086956522","93.47826086956522","763.195652173913","763.195652173913","black","no","legacy","legacy","legacy","0","uniform","1","undefined","undefined","undefined","1","f","0","0","0","0","45","0","0","0","45","NA","41","45","41","0","41","3","45","0","45","Fri Feb 19 09:57:12 2021","The main experiment item","yes","Lexical_Decision_Task.osexp","/Users/sam/Downloads","no","Andale Mono","no","18","no","white","no","yes","576","legacy","41","41","3","/Users/sam/Downloads/subject-5222873.csv","legacy","Lentiform Loewenfeld","3.3.7","yes","yes","600bd7cfb6416f0113b04181","602110864497cf011d9c0822","0","f","NA","space","space","space","NA","f","758","NA","3092","10494","6318","NA","758","2","legacy","1024","2","48000","-16","task","5222873","odd","NA","30367","35463","32370","113274","5760","22589","16267","113777","NA","113271","113777","113213","35463","114536","28685","112713","5700","80305","Lexical Decision Task","43","35107","46","yes","1024"
"2.813801082","5.47","7","nook","word","93.61702127659575","93.61702127659575","769.1276595744681","769.1276595744681","black","no","legacy","legacy","legacy","0","uniform","1","undefined","undefined","undefined","1","j","0","0","0","0","46","0","0","0","46","NA","42","46","42","0","42","3","46","0","46","Fri Feb 19 09:57:12 2021","The main experiment item","yes","Lexical_Decision_Task.osexp","/Users/sam/Downloads","no","Andale Mono","no","18","no","white","no","yes","576","legacy","42","42","3","/Users/sam/Downloads/subject-5222873.csv","legacy","Lentiform Loewenfeld","3.3.7","yes","yes","600bd7cfb6416f0113b04181","602110864497cf011d9c0822","0","j","NA","space","space","space","NA","j","1042","NA","3092","10494","6318","NA","1042","2","legacy","1024","2","48000","-16","task","5222873","odd","NA","30367","35463","32370","115101","5760","22589","16267","115604","NA","115099","115604","115039","35463","116647","28685","114539","5700","80305","Lexical Decision Task","44","36149","47","yes","1024"
"2.664011697","8.19","4","hawk","word","93.75","93.75","766.0833333333334","766.0833333333334","black","no","legacy","legacy","legacy","0","uniform","1","undefined","undefined","undefined","1","j","0","0","0","0","47","0","0","0","47","NA","43","47","43","0","43","3","47","0","47","Fri Feb 19 09:57:12 2021","The main experiment item","yes","Lexical_Decision_Task.osexp","/Users/sam/Downloads","no","Andale Mono","no","18","no","white","no","yes","576","legacy","43","43","3","/Users/sam/Downloads/subject-5222873.csv","legacy","Lentiform Loewenfeld","3.3.7","yes","yes","600bd7cfb6416f0113b04181","602110864497cf011d9c0822","0","j","NA","space","space","space","NA","j","623","NA","3092","10494","6318","NA","623","2","legacy","1024","2","48000","-16","task","5222873","odd","NA","30367","35463","32370","117214","5760","22589","16267","117717","NA","117211","117717","117151","35463","118341","28685","116651","5700","80305","Lexical Decision Task","45","36772","48","yes","1024"
"2.895974732","6.65","5","sift","word","93.87755102040816","93.87755102040816","771.8367346938776","771.8367346938776","black","no","legacy","legacy","legacy","0","uniform","1","undefined","undefined","undefined","1","j","0","0","0","0","48","0","0","0","48","NA","44","48","44","0","44","3","48","0","48","Fri Feb 19 09:57:12 2021","The main experiment item","yes","Lexical_Decision_Task.osexp","/Users/sam/Downloads","no","Andale Mono","no","18","no","white","no","yes","576","legacy","44","44","3","/Users/sam/Downloads/subject-5222873.csv","legacy","Lentiform Loewenfeld","3.3.7","yes","yes","600bd7cfb6416f0113b04181","602110864497cf011d9c0822","0","j","NA","space","space","space","NA","j","1048","NA","3092","10494","6318","NA","1048","2","legacy","1024","2","48000","-16","task","5222873","odd","NA","30367","35463","32370","118907","5760","22589","16267","119410","NA","118904","119410","118845","35463","120459","28685","118344","5700","80305","Lexical Decision Task","46","37820","49","yes","1024"
"2.980306438","0","7","slun","non-word","94","94","776.78","776.78","black","no","legacy","legacy","legacy","0","uniform","1","undefined","undefined","undefined","1","f","0","0","0","0","49","0","0","0","49","NA","45","49","45","0","45","3","49","0","49","Fri Feb 19 09:57:12 2021","The main experiment item","yes","Lexical_Decision_Task.osexp","/Users/sam/Downloads","no","Andale Mono","no","18","no","white","no","yes","576","legacy","45","45","3","/Users/sam/Downloads/subject-5222873.csv","legacy","Lentiform Loewenfeld","3.3.7","yes","yes","600bd7cfb6416f0113b04181","602110864497cf011d9c0822","0","f","NA","space","space","space","NA","f","1019","NA","3092","10494","6318","NA","1019","2","legacy","1024","2","48000","-16","task","5222873","odd","NA","30367","35463","32370","121025","5760","22589","16267","121528","NA","121022","121528","120963","35463","122548","28685","120462","5700","80305","Lexical Decision Task","47","38839","50","yes","1024"
"2.705007959","6.01","4","wept","word","92.15686274509804","92.15686274509804","773.0588235294117","773.0588235294117","black","no","legacy","legacy","legacy","0","uniform","0","undefined","undefined","undefined","0","j","0","0","0","0","50","0","0","0","50","NA","46","50","46","0","46","3","50","0","50","Fri Feb 19 09:57:12 2021","The main experiment item","yes","Lexical_Decision_Task.osexp","/Users/sam/Downloads","no","Andale Mono","no","18","no","white","no","yes","576","legacy","46","46","3","/Users/sam/Downloads/subject-5222873.csv","legacy","Lentiform Loewenfeld","3.3.7","yes","yes","600bd7cfb6416f0113b04181","602110864497cf011d9c0822","0","f","NA","space","space","space","NA","f","587","NA","3092","10494","6318","NA","587","2","legacy","1024","2","48000","-16","task","5222873","odd","NA","30367","35463","32370","123115","5760","22589","16267","123618","NA","123112","123618","123052","35463","124207","28685","122552","5700","80305","Lexical Decision Task","47","39426","51","yes","1024"
"2.69019608","9.01","2","myth","word","92.3076923076923","92.3076923076923","769.4038461538462","769.4038461538462","black","no","legacy","legacy","legacy","0","uniform","1","undefined","undefined","undefined","1","j","0","0","0","0","51","0","0","0","51","NA","47","51","47","0","47","3","51","0","51","Fri Feb 19 09:57:12 2021","The main experiment item","yes","Lexical_Decision_Task.osexp","/Users/sam/Downloads","no","Andale Mono","no","18","no","white","no","yes","576","legacy","47","47","3","/Users/sam/Downloads/subject-5222873.csv","legacy","Lentiform Loewenfeld","3.3.7","yes","yes","600bd7cfb6416f0113b04181","602110864497cf011d9c0822","0","j","NA","space","space","space","NA","j","583","NA","3092","10494","6318","NA","583","2","legacy","1024","2","48000","-16","task","5222873","odd","NA","30367","35463","32370","125776","5760","22589","16267","126280","NA","125773","126281","125710","35463","126865","28685","122552","5700","124210","Lexical Decision Task","48","40009","52","yes","1024"
"2.703007489","8.37","3","pulp","word","92.45283018867924","92.45283018867924","766.6415094339623","766.6415094339623","black","no","legacy","legacy","legacy","0","uniform","1","undefined","undefined","undefined","1","j","0","0","0","0","52","0","0","0","52","NA","48","52","48","0","48","3","52","0","52","Fri Feb 19 09:57:12 2021","The main experiment item","yes","Lexical_Decision_Task.osexp","/Users/sam/Downloads","no","Andale Mono","no","18","no","white","no","yes","576","legacy","48","48","3","/Users/sam/Downloads/subject-5222873.csv","legacy","Lentiform Loewenfeld","3.3.7","yes","yes","600bd7cfb6416f0113b04181","602110864497cf011d9c0822","0","j","NA","space","space","space","NA","j","623","NA","3092","10494","6318","NA","623","2","legacy","1024","2","48000","-16","task","5222873","odd","NA","30367","35463","32370","127430","5760","22589","16267","127933","NA","127427","127933","127369","35463","128557","28685","126869","5700","124210","Lexical Decision Task","49","40632","53","yes","1024"
"3.440331212","7.35","6","stew","word","92.5925925925926","92.5925925925926","765.7592592592592","765.7592592592592","black","no","legacy","legacy","legacy","0","uniform","1","undefined","undefined","undefined","1","j","0","0","0","0","53","0","0","0","53","NA","49","53","49","0","49","3","53","0","53","Fri Feb 19 09:57:12 2021","The main experiment item","yes","Lexical_Decision_Task.osexp","/Users/sam/Downloads","no","Andale Mono","no","18","no","white","no","yes","576","legacy","49","49","3","/Users/sam/Downloads/subject-5222873.csv","legacy","Lentiform Loewenfeld","3.3.7","yes","yes","600bd7cfb6416f0113b04181","602110864497cf011d9c0822","0","j","NA","space","space","space","NA","j","719","NA","3092","10494","6318","NA","719","2","legacy","1024","2","48000","-16","task","5222873","odd","NA","30367","35463","32370","129123","5760","22589","16267","129626","NA","129120","129626","129061","35463","130346","28685","128561","5700","124210","Lexical Decision Task","50","41351","54","yes","1024"
"2.80048796","0","8","pife","non-word","92.72727272727273","92.72727272727273","788.7272727272727","788.7272727272727","black","no","legacy","legacy","legacy","0","uniform","1","undefined","undefined","undefined","1","f","0","0","0","0","54","0","0","0","54","0","50","54","50","0","50","3","54","0","54","Fri Feb 19 09:57:12 2021","The main experiment item","yes","Lexical_Decision_Task.osexp","/Users/sam/Downloads","no","Andale Mono","no","18","no","white","no","yes","576","legacy","50","50","3","/Users/sam/Downloads/subject-5222873.csv","legacy","Lentiform Loewenfeld","3.3.7","yes","yes","600bd7cfb6416f0113b04181","602110864497cf011d9c0822","0","f","NA","space","space","space","space","f","2029","NA","3092","10494","6318","11265","2029","2","legacy","1024","2","48000","-16","task","5222873","odd","NA","30367","35463","32370","142204","5760","22589","16267","142707","130880","142201","142707","130850","35463","144737","28685","130350","5700","124210","Lexical Decision Task","51","43380","55","yes","1024"
"3.067070856","9.39","3","loud","word","92.85714285714286","92.85714285714286","783.6071428571429","783.6071428571429","black","no","legacy","legacy","legacy","0","uniform","1","undefined","undefined","undefined","1","j","0","0","0","0","55","0","0","0","55","0","51","55","51","0","51","3","55","0","55","Fri Feb 19 09:57:12 2021","The main experiment item","yes","Lexical_Decision_Task.osexp","/Users/sam/Downloads","no","Andale Mono","no","18","no","white","no","yes","576","legacy","51","51","3","/Users/sam/Downloads/subject-5222873.csv","legacy","Lentiform Loewenfeld","3.3.7","yes","yes","600bd7cfb6416f0113b04181","602110864497cf011d9c0822","0","j","NA","space","space","space","space","j","502","NA","3092","10494","6318","11265","502","2","legacy","1024","2","48000","-16","task","5222873","odd","NA","30367","35463","32370","145305","5760","22589","16267","145808","130880","145302","145808","145240","35463","146311","28685","144740","5700","124210","Lexical Decision Task","52","43882","56","yes","1024"
"2.880623071","0","9","curp","non-word","92.98245614035088","92.98245614035088","781.578947368421","781.578947368421","black","no","legacy","legacy","legacy","0","uniform","1","undefined","undefined","undefined","1","f","0","0","0","0","56","0","0","0","56","0","52","56","52","0","52","3","56","0","56","Fri Feb 19 09:57:12 2021","The main experiment item","yes","Lexical_Decision_Task.osexp","/Users/sam/Downloads","no","Andale Mono","no","18","no","white","no","yes","576","legacy","52","52","3","/Users/sam/Downloads/subject-5222873.csv","legacy","Lentiform Loewenfeld","3.3.7","yes","yes","600bd7cfb6416f0113b04181","602110864497cf011d9c0822","0","f","NA","space","space","space","space","f","668","NA","3092","10494","6318","11265","668","2","legacy","1024","2","48000","-16","task","5222873","odd","NA","30367","35463","32370","146877","5760","22589","16267","147380","130880","146874","147380","146815","35463","148048","28685","146315","5700","124210","Lexical Decision Task","53","44550","57","yes","1024"
"3.174641193","0","3","ramb","non-word","91.37931034482759","91.37931034482759","776.6379310344828","776.6379310344828","black","no","legacy","legacy","legacy","0","uniform","0","undefined","undefined","undefined","0","f","0","0","0","0","57","0","0","0","57","0","53","57","53","0","53","3","57","0","57","Fri Feb 19 09:57:12 2021","The main experiment item","yes","Lexical_Decision_Task.osexp","/Users/sam/Downloads","no","Andale Mono","no","18","no","white","no","yes","576","legacy","53","53","3","/Users/sam/Downloads/subject-5222873.csv","legacy","Lentiform Loewenfeld","3.3.7","yes","yes","600bd7cfb6416f0113b04181","602110864497cf011d9c0822","0","j","NA","space","space","space","space","j","495","NA","3092","10494","6318","11265","495","2","legacy","1024","2","48000","-16","task","5222873","odd","NA","30367","35463","32370","148616","5760","22589","16267","149119","130880","148613","149119","148552","35463","149615","28685","148052","5700","124210","Lexical Decision Task","53","45045","58","yes","1024"
"2.799799878","0","4","ciff","non-word","91.52542372881356","91.52542372881356","778.7966101694915","778.7966101694915","black","no","legacy","legacy","legacy","0","uniform","1","undefined","undefined","undefined","1","f","0","0","0","0","58","0","0","0","58","0","54","58","54","0","54","3","58","0","58","Fri Feb 19 09:57:12 2021","The main experiment item","yes","Lexical_Decision_Task.osexp","/Users/sam/Downloads","no","Andale Mono","no","18","no","white","no","yes","576","legacy","54","54","3","/Users/sam/Downloads/subject-5222873.csv","legacy","Lentiform Loewenfeld","3.3.7","yes","yes","600bd7cfb6416f0113b04181","602110864497cf011d9c0822","0","f","NA","space","space","space","space","f","904","NA","3092","10494","6318","11265","904","2","legacy","1024","2","48000","-16","task","5222873","odd","NA","30367","35463","32370","151184","5760","22589","16267","151686","130880","151180","151687","151118","35463","152591","28685","148052","5700","149618","Lexical Decision Task","54","45949","59","yes","1024"
"2.972819734","0","4","scew","non-word","90","90","786.1833333333333","786.1833333333333","black","no","legacy","legacy","legacy","0","uniform","0","undefined","undefined","undefined","0","f","0","0","0","0","59","0","0","0","59","0","55","59","55","0","55","3","59","0","59","Fri Feb 19 09:57:12 2021","The main experiment item","yes","Lexical_Decision_Task.osexp","/Users/sam/Downloads","no","Andale Mono","no","18","no","white","no","yes","576","legacy","55","55","3","/Users/sam/Downloads/subject-5222873.csv","legacy","Lentiform Loewenfeld","3.3.7","yes","yes","600bd7cfb6416f0113b04181","602110864497cf011d9c0822","0","j","NA","space","space","space","space","j","1222","NA","3092","10494","6318","11265","1222","2","legacy","1024","2","48000","-16","task","5222873","odd","NA","30367","35463","32370","153158","5760","22589","16267","153661","130880","153155","153661","153095","35463","154884","28685","152595","5700","149618","Lexical Decision Task","54","47171","60","yes","1024"
"2.858136002","0","4","phip","non-word","90.1639344262295","90.1639344262295","797.2295081967213","797.2295081967213","black","no","legacy","legacy","legacy","0","uniform","1","undefined","undefined","undefined","1","f","0","0","0","0","60","0","0","0","60","0","56","60","56","0","56","3","60","0","60","Fri Feb 19 09:57:12 2021","The main experiment item","yes","Lexical_Decision_Task.osexp","/Users/sam/Downloads","no","Andale Mono","no","18","no","white","no","yes","576","legacy","56","56","3","/Users/sam/Downloads/subject-5222873.csv","legacy","Lentiform Loewenfeld","3.3.7","yes","yes","600bd7cfb6416f0113b04181","602110864497cf011d9c0822","0","f","NA","space","space","space","space","f","1460","NA","3092","10494","6318","11265","1460","2","legacy","1024","2","48000","-16","task","5222873","odd","NA","30367","35463","32370","156451","5760","22589","16267","156955","130880","156449","156955","156388","35463","158416","28685","152595","5700","154888","Lexical Decision Task","55","48631","61","yes","1024"
"3.159867847","5.98","5","brim","word","90.3225806451613","90.3225806451613","802.5322580645161","802.5322580645161","black","no","legacy","legacy","legacy","0","uniform","1","undefined","undefined","undefined","1","j","0","0","0","0","61","0","0","0","61","0","57","61","57","0","57","3","61","0","61","Fri Feb 19 09:57:12 2021","The main experiment item","yes","Lexical_Decision_Task.osexp","/Users/sam/Downloads","no","Andale Mono","no","18","no","white","no","yes","576","legacy","57","57","3","/Users/sam/Downloads/subject-5222873.csv","legacy","Lentiform Loewenfeld","3.3.7","yes","yes","600bd7cfb6416f0113b04181","602110864497cf011d9c0822","0","j","NA","space","space","space","space","j","1126","NA","3092","10494","6318","11265","1126","2","legacy","1024","2","48000","-16","task","5222873","odd","NA","30367","35463","32370","158982","5760","22589","16267","159485","130880","158979","159485","158920","35463","160612","28685","158420","5700","154888","Lexical Decision Task","56","49757","62","yes","1024"
"3.29439347","8.6","9","wand","word","90.47619047619048","90.47619047619048","798.6031746031746","798.6031746031746","black","no","legacy","legacy","legacy","0","uniform","1","undefined","undefined","undefined","1","j","0","0","0","0","62","0","0","0","62","0","58","62","58","0","58","3","62","0","62","Fri Feb 19 09:57:12 2021","The main experiment item","yes","Lexical_Decision_Task.osexp","/Users/sam/Downloads","no","Andale Mono","no","18","no","white","no","yes","576","legacy","58","58","3","/Users/sam/Downloads/subject-5222873.csv","legacy","Lentiform Loewenfeld","3.3.7","yes","yes","600bd7cfb6416f0113b04181","602110864497cf011d9c0822","0","j","NA","space","space","space","space","j","555","NA","3092","10494","6318","11265","555","2","legacy","1024","2","48000","-16","task","5222873","odd","NA","30367","35463","32370","161178","5760","22589","16267","161681","130880","161175","161681","161115","35463","162237","28685","160615","5700","154888","Lexical Decision Task","57","50312","63","yes","1024"
"3.153104174","10.89","6","door","word","90.625","90.625","794.25","794.25","black","no","legacy","legacy","legacy","0","uniform","1","undefined","undefined","undefined","1","j","0","0","0","0","63","0","0","0","63","0","59","63","59","0","59","3","63","0","63","Fri Feb 19 09:57:12 2021","The main experiment item","yes","Lexical_Decision_Task.osexp","/Users/sam/Downloads","no","Andale Mono","no","18","no","white","no","yes","576","legacy","59","59","3","/Users/sam/Downloads/subject-5222873.csv","legacy","Lentiform Loewenfeld","3.3.7","yes","yes","600bd7cfb6416f0113b04181","602110864497cf011d9c0822","0","j","NA","space","space","space","space","j","520","NA","3092","10494","6318","11265","520","2","legacy","1024","2","48000","-16","task","5222873","odd","NA","30367","35463","32370","162803","5760","22589","16267","163306","130880","162800","163306","162741","35463","163827","28685","162241","5700","154888","Lexical Decision Task","58","50832","64","yes","1024"
"3.049218023","7.4","9","robe","word","90.76923076923077","90.76923076923077","797.723076923077","797.723076923077","black","no","legacy","legacy","legacy","0","uniform","1","undefined","undefined","undefined","1","j","0","0","0","0","64","0","0","0","64","0","60","64","60","0","60","3","64","0","64","Fri Feb 19 09:57:12 2021","The main experiment item","yes","Lexical_Decision_Task.osexp","/Users/sam/Downloads","no","Andale Mono","no","18","no","white","no","yes","576","legacy","60","60","3","/Users/sam/Downloads/subject-5222873.csv","legacy","Lentiform Loewenfeld","3.3.7","yes","yes","600bd7cfb6416f0113b04181","602110864497cf011d9c0822","0","j","NA","space","space","space","space","j","1020","NA","3092","10494","6318","11265","1020","2","legacy","1024","2","48000","-16","task","5222873","odd","NA","30367","35463","32370","164393","5760","22589","16267","164896","130880","164390","164896","164331","35463","165917","28685","163831","5700","154888","Lexical Decision Task","59","51852","65","yes","1024"
"3.460446784","0","5","dess","non-word","90.9090909090909","90.9090909090909","796.1060606060606","796.1060606060606","black","no","legacy","legacy","legacy","0","uniform","1","undefined","undefined","undefined","1","f","0","0","0","0","65","0","0","0","65","0","61","65","61","0","61","3","65","0","65","Fri Feb 19 09:57:12 2021","The main experiment item","yes","Lexical_Decision_Task.osexp","/Users/sam/Downloads","no","Andale Mono","no","18","no","white","no","yes","576","legacy","61","61","3","/Users/sam/Downloads/subject-5222873.csv","legacy","Lentiform Loewenfeld","3.3.7","yes","yes","600bd7cfb6416f0113b04181","602110864497cf011d9c0822","0","f","NA","space","space","space","space","f","691","NA","3092","10494","6318","11265","691","2","legacy","1024","2","48000","-16","task","5222873","odd","NA","30367","35463","32370","166483","5760","22589","16267","166987","130880","166481","166987","166421","35463","167679","28685","165921","5700","154888","Lexical Decision Task","60","52543","66","yes","1024"
"3.274157849","0","8","leet","non-word","91.04477611940298","91.04477611940298","799.0298507462686","799.0298507462686","black","no","legacy","legacy","legacy","0","uniform","1","undefined","undefined","undefined","1","f","0","0","0","0","66","0","0","0","66","0","62","66","62","0","62","3","66","0","66","Fri Feb 19 09:57:12 2021","The main experiment item","yes","Lexical_Decision_Task.osexp","/Users/sam/Downloads","no","Andale Mono","no","18","no","white","no","yes","576","legacy","62","62","3","/Users/sam/Downloads/subject-5222873.csv","legacy","Lentiform Loewenfeld","3.3.7","yes","yes","600bd7cfb6416f0113b04181","602110864497cf011d9c0822","0","f","NA","space","space","space","space","f","992","NA","3092","10494","6318","11265","992","2","legacy","1024","2","48000","-16","task","5222873","odd","NA","30367","35463","32370","168246","5760","22589","16267","168750","130880","168243","168750","168183","35463","169743","28685","167683","5700","154888","Lexical Decision Task","61","53535","67","yes","1024"
"2.873320602","0","4","lurg","non-word","91.17647058823529","91.17647058823529","797.4264705882352","797.4264705882352","black","no","legacy","legacy","legacy","0","uniform","1","undefined","undefined","undefined","1","f","0","0","0","0","67","0","0","0","67","0","63","67","63","0","63","3","67","0","67","Fri Feb 19 09:57:12 2021","The main experiment item","yes","Lexical_Decision_Task.osexp","/Users/sam/Downloads","no","Andale Mono","no","18","no","white","no","yes","576","legacy","63","63","3","/Users/sam/Downloads/subject-5222873.csv","legacy","Lentiform Loewenfeld","3.3.7","yes","yes","600bd7cfb6416f0113b04181","602110864497cf011d9c0822","0","f","NA","space","space","space","space","f","690","NA","3092","10494","6318","11265","690","2","legacy","1024","2","48000","-16","task","5222873","odd","NA","30367","35463","32370","170311","5760","22589","16267","170814","130880","170308","170814","170248","35463","171505","28685","169748","5700","154888","Lexical Decision Task","62","54225","68","yes","1024"
"2.693726949","5.08","3","swig","word","91.30434782608695","91.30434782608695","798.4057971014493","798.4057971014493","black","no","legacy","legacy","legacy","0","uniform","1","undefined","undefined","undefined","1","j","0","0","0","0","68","0","0","0","68","0","64","68","64","0","64","3","68","0","68","Fri Feb 19 09:57:12 2021","The main experiment item","yes","Lexical_Decision_Task.osexp","/Users/sam/Downloads","no","Andale Mono","no","18","no","white","no","yes","576","legacy","64","64","3","/Users/sam/Downloads/subject-5222873.csv","legacy","Lentiform Loewenfeld","3.3.7","yes","yes","600bd7cfb6416f0113b04181","602110864497cf011d9c0822","0","j","NA","space","space","space","space","j","865","NA","3092","10494","6318","11265","865","2","legacy","1024","2","48000","-16","task","5222873","odd","NA","30367","35463","32370","172070","5760","22589","16267","172573","130880","172067","172573","172008","35463","173439","28685","171508","5700","154888","Lexical Decision Task","63","55090","69","yes","1024"
"3.091901331","0","9","nipe","non-word","91.42857142857143","91.42857142857143","798.3142857142857","798.3142857142857","black","no","legacy","legacy","legacy","0","uniform","1","undefined","undefined","undefined","1","f","0","0","0","0","69","0","0","0","69","0","65","69","65","0","65","3","69","0","69","Fri Feb 19 09:57:12 2021","The main experiment item","yes","Lexical_Decision_Task.osexp","/Users/sam/Downloads","no","Andale Mono","no","18","no","white","no","yes","576","legacy","65","65","3","/Users/sam/Downloads/subject-5222873.csv","legacy","Lentiform Loewenfeld","3.3.7","yes","yes","600bd7cfb6416f0113b04181","602110864497cf011d9c0822","0","f","NA","space","space","space","space","f","792","NA","3092","10494","6318","11265","792","2","legacy","1024","2","48000","-16","task","5222873","odd","NA","30367","35463","32370","174006","5760","22589","16267","174509","130880","174003","174509","173943","35463","175302","28685","173443","5700","154888","Lexical Decision Task","64","55882","70","yes","1024"
"3.374198258","0","8","vist","non-word","90.14084507042253","90.14084507042253","795.5633802816901","795.5633802816901","black","no","legacy","legacy","legacy","0","uniform","0","undefined","undefined","undefined","0","f","0","0","0","0","70","0","0","0","70","0","66","70","66","0","66","3","70","0","70","Fri Feb 19 09:57:12 2021","The main experiment item","yes","Lexical_Decision_Task.osexp","/Users/sam/Downloads","no","Andale Mono","no","18","no","white","no","yes","576","legacy","66","66","3","/Users/sam/Downloads/subject-5222873.csv","legacy","Lentiform Loewenfeld","3.3.7","yes","yes","600bd7cfb6416f0113b04181","602110864497cf011d9c0822","0","j","NA","space","space","space","space","j","603","NA","3092","10494","6318","11265","603","2","legacy","1024","2","48000","-16","task","5222873","odd","NA","30367","35463","32370","175867","5760","22589","16267","176371","130880","175865","176371","175806","35463","176975","28685","175306","5700","154888","Lexical Decision Task","64","56485","71","yes","1024"
"3.081107167","0","6","chot","non-word","90.27777777777777","90.27777777777777","794.1388888888889","794.1388888888889","black","no","legacy","legacy","legacy","0","uniform","1","undefined","undefined","undefined","1","f","0","0","0","0","71","0","0","0","71","0","67","71","67","0","67","3","71","0","71","Fri Feb 19 09:57:12 2021","The main experiment item","yes","Lexical_Decision_Task.osexp","/Users/sam/Downloads","no","Andale Mono","no","18","no","white","no","yes","576","legacy","67","67","3","/Users/sam/Downloads/subject-5222873.csv","legacy","Lentiform Loewenfeld","3.3.7","yes","yes","600bd7cfb6416f0113b04181","602110864497cf011d9c0822","0","f","NA","space","space","space","space","f","693","NA","3092","10494","6318","11265","693","2","legacy","1024","2","48000","-16","task","5222873","odd","NA","30367","35463","32370","178543","5760","22589","16267","179046","130880","178540","179047","178479","35463","179741","28685","175306","5700","176979","Lexical Decision Task","65","57178","72","yes","1024"
"2.695481676","0","7","goke","non-word","90.41095890410959","90.41095890410959","792.4383561643835","792.4383561643835","black","no","legacy","legacy","legacy","0","uniform","1","undefined","undefined","undefined","1","f","0","0","0","0","72","0","0","0","72","0","68","72","68","0","68","3","72","0","72","Fri Feb 19 09:57:12 2021","The main experiment item","yes","Lexical_Decision_Task.osexp","/Users/sam/Downloads","no","Andale Mono","no","18","no","white","no","yes","576","legacy","68","68","3","/Users/sam/Downloads/subject-5222873.csv","legacy","Lentiform Loewenfeld","3.3.7","yes","yes","600bd7cfb6416f0113b04181","602110864497cf011d9c0822","0","f","NA","space","space","space","space","f","670","NA","3092","10494","6318","11265","670","2","legacy","1024","2","48000","-16","task","5222873","odd","NA","30367","35463","32370","180307","5760","22589","16267","180810","130880","180304","180810","180244","35463","181481","28685","179744","5700","176979","Lexical Decision Task","66","57848","73","yes","1024"
"3.347850856","10.51","2","rich","word","90.54054054054055","90.54054054054055","789.7027027027027","789.7027027027027","black","no","legacy","legacy","legacy","0","uniform","1","undefined","undefined","undefined","1","j","0","0","0","0","73","0","0","0","73","0","69","73","69","0","69","3","73","0","73","Fri Feb 19 09:57:12 2021","The main experiment item","yes","Lexical_Decision_Task.osexp","/Users/sam/Downloads","no","Andale Mono","no","18","no","white","no","yes","576","legacy","69","69","3","/Users/sam/Downloads/subject-5222873.csv","legacy","Lentiform Loewenfeld","3.3.7","yes","yes","600bd7cfb6416f0113b04181","602110864497cf011d9c0822","0","j","NA","space","space","space","space","j","590","NA","3092","10494","6318","11265","590","2","legacy","1024","2","48000","-16","task","5222873","odd","NA","30367","35463","32370","182047","5760","22589","16267","182550","130880","182044","182550","181985","35463","183141","28685","181485","5700","176979","Lexical Decision Task","67","58438","74","yes","1024"
"3.120135028","0","3","vals","non-word","90.66666666666667","90.66666666666667","796.4933333333333","796.4933333333333","black","no","legacy","legacy","legacy","0","uniform","1","undefined","undefined","undefined","1","f","0","0","0","0","74","0","0","0","74","0","70","74","70","0","70","3","74","0","74","Fri Feb 19 09:57:12 2021","The main experiment item","yes","Lexical_Decision_Task.osexp","/Users/sam/Downloads","no","Andale Mono","no","18","no","white","no","yes","576","legacy","70","70","3","/Users/sam/Downloads/subject-5222873.csv","legacy","Lentiform Loewenfeld","3.3.7","yes","yes","600bd7cfb6416f0113b04181","602110864497cf011d9c0822","0","f","NA","space","space","space","space","f","1299","NA","3092","10494","6318","11265","1299","2","legacy","1024","2","48000","-16","task","5222873","odd","NA","30367","35463","32370","183707","5760","22589","16267","184209","130880","183704","184210","183645","35463","185510","28685","183145","5700","176979","Lexical Decision Task","68","59737","75","yes","1024"
"3.067193647","6.73","6","raft","word","90.78947368421052","90.78947368421052","799.2105263157895","799.2105263157895","black","no","legacy","legacy","legacy","0","uniform","1","undefined","undefined","undefined","1","j","0","0","0","0","75","0","0","0","75","0","71","75","71","0","71","3","75","0","75","Fri Feb 19 09:57:12 2021","The main experiment item","yes","Lexical_Decision_Task.osexp","/Users/sam/Downloads","no","Andale Mono","no","18","no","white","no","yes","576","legacy","71","71","3","/Users/sam/Downloads/subject-5222873.csv","legacy","Lentiform Loewenfeld","3.3.7","yes","yes","600bd7cfb6416f0113b04181","602110864497cf011d9c0822","0","j","NA","space","space","space","space","j","1003","NA","3092","10494","6318","11265","1003","2","legacy","1024","2","48000","-16","task","5222873","odd","NA","30367","35463","32370","186076","5760","22589","16267","186579","130880","186073","186579","186014","35463","187583","28685","185514","5700","176979","Lexical Decision Task","69","60740","76","yes","1024"
"3.492014979","0","9","yine","non-word","90.9090909090909","90.9090909090909","797.6623376623377","797.6623376623377","black","no","legacy","legacy","legacy","0","uniform","1","undefined","undefined","undefined","1","f","0","0","0","0","76","0","0","0","76","0","72","76","72","0","72","3","76","0","76","Fri Feb 19 09:57:12 2021","The main experiment item","yes","Lexical_Decision_Task.osexp","/Users/sam/Downloads","no","Andale Mono","no","18","no","white","no","yes","576","legacy","72","72","3","/Users/sam/Downloads/subject-5222873.csv","legacy","Lentiform Loewenfeld","3.3.7","yes","yes","600bd7cfb6416f0113b04181","602110864497cf011d9c0822","0","f","NA","space","space","space","space","f","680","NA","3092","10494","6318","11265","680","2","legacy","1024","2","48000","-16","task","5222873","odd","NA","30367","35463","32370","188148","5760","22589","16267","188652","130880","188146","188652","188087","35463","189333","28685","187587","5700","176979","Lexical Decision Task","70","61420","77","yes","1024"
"2.979548375","8.71","4","soup","word","91.02564102564102","91.02564102564102","795.7435897435897","795.7435897435897","black","no","legacy","legacy","legacy","0","uniform","1","undefined","undefined","undefined","1","j","0","0","0","0","77","0","0","0","77","0","73","77","73","0","73","3","77","0","77","Fri Feb 19 09:57:12 2021","The main experiment item","yes","Lexical_Decision_Task.osexp","/Users/sam/Downloads","no","Andale Mono","no","18","no","white","no","yes","576","legacy","73","73","3","/Users/sam/Downloads/subject-5222873.csv","legacy","Lentiform Loewenfeld","3.3.7","yes","yes","600bd7cfb6416f0113b04181","602110864497cf011d9c0822","0","j","NA","space","space","space","space","j","648","NA","3092","10494","6318","11265","648","2","legacy","1024","2","48000","-16","task","5222873","odd","NA","30367","35463","32370","189899","5760","22589","16267","190402","130880","189897","190402","189837","35463","191051","28685","189337","5700","176979","Lexical Decision Task","71","62068","78","yes","1024"
"2.845304797","0","6","buct","non-word","91.13924050632912","91.13924050632912","793.0759493670886","793.0759493670886","black","no","legacy","legacy","legacy","0","uniform","1","undefined","undefined","undefined","1","f","0","0","0","0","78","0","0","0","78","0","74","78","74","0","74","3","78","0","78","Fri Feb 19 09:57:12 2021","The main experiment item","yes","Lexical_Decision_Task.osexp","/Users/sam/Downloads","no","Andale Mono","no","18","no","white","no","yes","576","legacy","74","74","3","/Users/sam/Downloads/subject-5222873.csv","legacy","Lentiform Loewenfeld","3.3.7","yes","yes","600bd7cfb6416f0113b04181","602110864497cf011d9c0822","0","f","NA","space","space","space","space","f","585","NA","3092","10494","6318","11265","585","2","legacy","1024","2","48000","-16","task","5222873","odd","NA","30367","35463","32370","191616","5760","22589","16267","192119","130880","191613","192119","191555","35463","192706","28685","191055","5700","176979","Lexical Decision Task","72","62653","79","yes","1024"
"3.303771854","0","9","dath","non-word","91.25","91.25","792.075","792.075","black","no","legacy","legacy","legacy","0","uniform","1","undefined","undefined","undefined","1","f","0","0","0","0","79","0","0","0","79","0","75","79","75","0","75","3","79","0","79","Fri Feb 19 09:57:12 2021","The main experiment item","yes","Lexical_Decision_Task.osexp","/Users/sam/Downloads","no","Andale Mono","no","18","no","white","no","yes","576","legacy","75","75","3","/Users/sam/Downloads/subject-5222873.csv","legacy","Lentiform Loewenfeld","3.3.7","yes","yes","600bd7cfb6416f0113b04181","602110864497cf011d9c0822","0","f","NA","space","space","space","space","f","713","NA","3092","10494","6318","11265","713","2","legacy","1024","2","48000","-16","task","5222873","odd","NA","30367","35463","32370","193273","5760","22589","16267","193776","130880","193270","193776","193210","35463","194490","28685","192710","5700","176979","Lexical Decision Task","73","63366","80","yes","1024"
"2.728085817","10.02","9","bike","word","91.35802469135803","91.35802469135803","789.4567901234568","789.4567901234568","black","no","legacy","legacy","legacy","0","uniform","1","undefined","undefined","undefined","1","j","0","0","0","0","80","0","0","0","80","0","76","80","76","0","76","3","80","0","80","Fri Feb 19 09:57:12 2021","The main experiment item","yes","Lexical_Decision_Task.osexp","/Users/sam/Downloads","no","Andale Mono","no","18","no","white","no","yes","576","legacy","76","76","3","/Users/sam/Downloads/subject-5222873.csv","legacy","Lentiform Loewenfeld","3.3.7","yes","yes","600bd7cfb6416f0113b04181","602110864497cf011d9c0822","0","j","NA","space","space","space","space","j","580","NA","3092","10494","6318","11265","580","2","legacy","1024","2","48000","-16","task","5222873","odd","NA","30367","35463","32370","195056","5760","22589","16267","195560","130880","195053","195560","194994","35463","196142","28685","194494","5700","176979","Lexical Decision Task","74","63946","81","yes","1024"
"3.248054965","7.86","5","glow","word","91.46341463414635","91.46341463414635","785.6341463414634","785.6341463414634","black","no","legacy","legacy","legacy","0","uniform","1","undefined","undefined","undefined","1","j","0","0","0","0","81","0","0","0","81","0","77","81","77","0","77","3","81","0","81","Fri Feb 19 09:57:12 2021","The main experiment item","yes","Lexical_Decision_Task.osexp","/Users/sam/Downloads","no","Andale Mono","no","18","no","white","no","yes","576","legacy","77","77","3","/Users/sam/Downloads/subject-5222873.csv","legacy","Lentiform Loewenfeld","3.3.7","yes","yes","600bd7cfb6416f0113b04181","602110864497cf011d9c0822","0","j","NA","space","space","space","space","j","476","NA","3092","10494","6318","11265","476","2","legacy","1024","2","48000","-16","task","5222873","odd","NA","30367","35463","32370","196708","5760","22589","16267","197211","130880","196705","197211","196645","35463","197688","28685","196145","5700","176979","Lexical Decision Task","75","64422","82","yes","1024"
"2.899092422","7.27","6","snag","word","91.56626506024097","91.56626506024097","783.0361445783133","783.0361445783133","black","no","legacy","legacy","legacy","0","uniform","1","undefined","undefined","undefined","1","j","0","0","0","0","82","0","0","0","82","0","78","82","78","0","78","3","82","0","82","Fri Feb 19 09:57:12 2021","The main experiment item","yes","Lexical_Decision_Task.osexp","/Users/sam/Downloads","no","Andale Mono","no","18","no","white","no","yes","576","legacy","78","78","3","/Users/sam/Downloads/subject-5222873.csv","legacy","Lentiform Loewenfeld","3.3.7","yes","yes","600bd7cfb6416f0113b04181","602110864497cf011d9c0822","0","j","NA","space","space","space","space","j","570","NA","3092","10494","6318","11265","570","2","legacy","1024","2","48000","-16","task","5222873","odd","NA","30367","35463","32370","198255","5760","22589","16267","198759","130880","198252","198759","198192","35463","199330","28685","197692","5700","176979","Lexical Decision Task","76","64992","83","yes","1024"
"2.68604012","0","4","pumb","non-word","91.66666666666667","91.66666666666667","782.6904761904761","782.6904761904761","black","no","legacy","legacy","legacy","0","uniform","1","undefined","undefined","undefined","1","f","0","0","0","0","83","0","0","0","83","0","79","83","79","0","79","3","83","0","83","Fri Feb 19 09:57:12 2021","The main experiment item","yes","Lexical_Decision_Task.osexp","/Users/sam/Downloads","no","Andale Mono","no","18","no","white","no","yes","576","legacy","79","79","3","/Users/sam/Downloads/subject-5222873.csv","legacy","Lentiform Loewenfeld","3.3.7","yes","yes","600bd7cfb6416f0113b04181","602110864497cf011d9c0822","0","f","NA","space","space","space","space","f","754","NA","3092","10494","6318","11265","754","2","legacy","1024","2","48000","-16","task","5222873","odd","NA","30367","35463","32370","199896","5760","22589","16267","200399","130880","199893","200399","199834","35463","201155","28685","199334","5700","176979","Lexical Decision Task","77","65746","84","yes","1024"
"3.133964479","0","8","graw","non-word","91.76470588235294","91.76470588235294","781.564705882353","781.564705882353","black","no","legacy","legacy","legacy","0","uniform","1","undefined","undefined","undefined","1","f","0","0","0","0","84","0","0","0","84","0","80","84","80","0","80","3","84","0","84","Fri Feb 19 09:57:12 2021","The main experiment item","yes","Lexical_Decision_Task.osexp","/Users/sam/Downloads","no","Andale Mono","no","18","no","white","no","yes","576","legacy","80","80","3","/Users/sam/Downloads/subject-5222873.csv","legacy","Lentiform Loewenfeld","3.3.7","yes","yes","600bd7cfb6416f0113b04181","602110864497cf011d9c0822","0","f","NA","space","space","space","space","f","687","NA","3092","10494","6318","11265","687","2","legacy","1024","2","48000","-16","task","5222873","odd","NA","30367","35463","32370","201723","5760","22589","16267","202226","130880","201720","202226","201659","35463","202915","28685","201159","5700","176979","Lexical Decision Task","78","66433","85","yes","1024"
"3.443783828","7.65","3","verb","word","91.86046511627907","91.86046511627907","778.2209302325581","778.2209302325581","black","no","legacy","legacy","legacy","0","uniform","1","undefined","undefined","undefined","1","j","0","0","0","0","85","0","0","0","85","0","81","85","81","0","81","3","85","0","85","Fri Feb 19 09:57:12 2021","The main experiment item","yes","Lexical_Decision_Task.osexp","/Users/sam/Downloads","no","Andale Mono","no","18","no","white","no","yes","576","legacy","81","81","3","/Users/sam/Downloads/subject-5222873.csv","legacy","Lentiform Loewenfeld","3.3.7","yes","yes","600bd7cfb6416f0113b04181","602110864497cf011d9c0822","0","j","NA","space","space","space","space","j","494","NA","3092","10494","6318","11265","494","2","legacy","1024","2","48000","-16","task","5222873","odd","NA","30367","35463","32370","203480","5760","22589","16267","203984","130880","203477","203984","203418","35463","204479","28685","202918","5700","176979","Lexical Decision Task","79","66927","86","yes","1024"
"3.1430148","7.92","8","bald","word","91.95402298850574","91.95402298850574","775.3908045977012","775.3908045977012","black","no","legacy","legacy","legacy","0","uniform","1","undefined","undefined","undefined","1","j","0","0","0","0","86","0","0","0","86","0","82","86","82","0","82","3","86","0","86","Fri Feb 19 09:57:12 2021","The main experiment item","yes","Lexical_Decision_Task.osexp","/Users/sam/Downloads","no","Andale Mono","no","18","no","white","no","yes","576","legacy","82","82","3","/Users/sam/Downloads/subject-5222873.csv","legacy","Lentiform Loewenfeld","3.3.7","yes","yes","600bd7cfb6416f0113b04181","602110864497cf011d9c0822","0","j","NA","space","space","space","space","j","532","NA","3092","10494","6318","11265","532","2","legacy","1024","2","48000","-16","task","5222873","odd","NA","30367","35463","32370","205042","5760","22589","16267","205545","130880","205040","205545","204983","35463","206079","28685","204483","5700","176979","Lexical Decision Task","80","67459","87","yes","1024"
"3.039414119","0","9","meep","non-word","92.04545454545455","92.04545454545455","773.7045454545455","773.7045454545455","black","no","legacy","legacy","legacy","0","uniform","1","undefined","undefined","undefined","1","f","0","0","0","0","87","0","0","0","87","0","83","87","83","0","83","3","87","0","87","Fri Feb 19 09:57:12 2021","The main experiment item","yes","Lexical_Decision_Task.osexp","/Users/sam/Downloads","no","Andale Mono","no","18","no","white","no","yes","576","legacy","83","83","3","/Users/sam/Downloads/subject-5222873.csv","legacy","Lentiform Loewenfeld","3.3.7","yes","yes","600bd7cfb6416f0113b04181","602110864497cf011d9c0822","0","f","NA","space","space","space","space","f","627","NA","3092","10494","6318","11265","627","2","legacy","1024","2","48000","-16","task","5222873","odd","NA","30367","35463","32370","206645","5760","22589","16267","207148","130880","206642","207148","206583","35463","207776","28685","206083","5700","176979","Lexical Decision Task","81","68086","88","yes","1024"
"2.696356389","0","1","pizz","non-word","92.13483146067416","92.13483146067416","773.7415730337078","773.7415730337078","black","no","legacy","legacy","legacy","0","uniform","1","undefined","undefined","undefined","1","f","0","0","0","0","88","0","0","0","88","0","84","88","84","0","84","3","88","0","88","Fri Feb 19 09:57:12 2021","The main experiment item","yes","Lexical_Decision_Task.osexp","/Users/sam/Downloads","no","Andale Mono","no","18","no","white","no","yes","576","legacy","84","84","3","/Users/sam/Downloads/subject-5222873.csv","legacy","Lentiform Loewenfeld","3.3.7","yes","yes","600bd7cfb6416f0113b04181","602110864497cf011d9c0822","0","f","NA","space","space","space","space","f","777","NA","3092","10494","6318","11265","777","2","legacy","1024","2","48000","-16","task","5222873","odd","NA","30367","35463","32370","208344","5760","22589","16267","208847","130880","208341","208847","208280","35463","209625","28685","207780","5700","176979","Lexical Decision Task","82","68863","89","yes","1024"
"3.197740804","6.74","3","ache","word","92.22222222222223","92.22222222222223","772.8888888888889","772.8888888888889","black","no","legacy","legacy","legacy","0","uniform","1","undefined","undefined","undefined","1","j","0","0","0","0","89","0","0","0","89","0","85","89","85","0","85","3","89","0","89","Fri Feb 19 09:57:12 2021","The main experiment item","yes","Lexical_Decision_Task.osexp","/Users/sam/Downloads","no","Andale Mono","no","18","no","white","no","yes","576","legacy","85","85","3","/Users/sam/Downloads/subject-5222873.csv","legacy","Lentiform Loewenfeld","3.3.7","yes","yes","600bd7cfb6416f0113b04181","602110864497cf011d9c0822","0","j","NA","space","space","space","space","j","697","NA","3092","10494","6318","11265","697","2","legacy","1024","2","48000","-16","task","5222873","odd","NA","30367","35463","32370","210189","5760","22589","16267","210692","130880","210187","210692","210129","35463","211390","28685","209629","5700","176979","Lexical Decision Task","83","69560","90","yes","1024"
"3.705778213","0","6","stin","non-word","92.3076923076923","92.3076923076923","776.2417582417582","776.2417582417582","black","no","legacy","legacy","legacy","0","uniform","1","undefined","undefined","undefined","1","f","0","0","0","0","90","0","0","0","90","0","86","90","86","0","86","3","90","0","90","Fri Feb 19 09:57:12 2021","The main experiment item","yes","Lexical_Decision_Task.osexp","/Users/sam/Downloads","no","Andale Mono","no","18","no","white","no","yes","576","legacy","86","86","3","/Users/sam/Downloads/subject-5222873.csv","legacy","Lentiform Loewenfeld","3.3.7","yes","yes","600bd7cfb6416f0113b04181","602110864497cf011d9c0822","0","f","NA","space","space","space","space","f","1078","NA","3092","10494","6318","11265","1078","2","legacy","1024","2","48000","-16","task","5222873","odd","NA","30367","35463","32370","211955","5760","22589","16267","212459","130880","211953","212459","211894","35463","213538","28685","211394","5700","176979","Lexical Decision Task","84","70638","91","yes","1024"
"3.397302518","7.01","2","knit","word","92.3913043478261","92.3913043478261","774.9782608695652","774.9782608695652","black","no","legacy","legacy","legacy","0","uniform","1","undefined","undefined","undefined","1","j","0","0","0","0","91","0","0","0","91","0","87","91","87","0","87","3","91","0","91","Fri Feb 19 09:57:12 2021","The main experiment item","yes","Lexical_Decision_Task.osexp","/Users/sam/Downloads","no","Andale Mono","no","18","no","white","no","yes","576","legacy","87","87","3","/Users/sam/Downloads/subject-5222873.csv","legacy","Lentiform Loewenfeld","3.3.7","yes","yes","600bd7cfb6416f0113b04181","602110864497cf011d9c0822","0","j","NA","space","space","space","space","j","660","NA","3092","10494","6318","11265","660","2","legacy","1024","2","48000","-16","task","5222873","odd","NA","30367","35463","32370","214104","5760","22589","16267","214607","130880","214101","214607","214042","35463","215269","28685","213542","5700","176979","Lexical Decision Task","85","71298","92","yes","1024"
"3.531734309","0","6","lerd","non-word","92.47311827956989","92.47311827956989","772.7849462365591","772.7849462365591","black","no","legacy","legacy","legacy","0","uniform","1","undefined","undefined","undefined","1","f","0","0","0","0","92","0","0","0","92","0","88","92","88","0","88","3","92","0","92","Fri Feb 19 09:57:12 2021","The main experiment item","yes","Lexical_Decision_Task.osexp","/Users/sam/Downloads","no","Andale Mono","no","18","no","white","no","yes","576","legacy","88","88","3","/Users/sam/Downloads/subject-5222873.csv","legacy","Lentiform Loewenfeld","3.3.7","yes","yes","600bd7cfb6416f0113b04181","602110864497cf011d9c0822","0","f","NA","space","space","space","space","f","571","NA","3092","10494","6318","11265","571","2","legacy","1024","2","48000","-16","task","5222873","odd","NA","30367","35463","32370","215834","5760","22589","16267","216337","130880","215831","216337","215772","35463","216910","28685","215272","5700","176979","Lexical Decision Task","86","71869","93","yes","1024"
"2.819763221","0","2","durp","non-word","92.55319148936171","92.55319148936171","771.1808510638298","771.1808510638298","black","no","legacy","legacy","legacy","0","uniform","1","undefined","undefined","undefined","1","f","0","0","0","0","93","0","0","0","93","0","89","93","89","0","89","3","93","0","93","Fri Feb 19 09:57:12 2021","The main experiment item","yes","Lexical_Decision_Task.osexp","/Users/sam/Downloads","no","Andale Mono","no","18","no","white","no","yes","576","legacy","89","89","3","/Users/sam/Downloads/subject-5222873.csv","legacy","Lentiform Loewenfeld","3.3.7","yes","yes","600bd7cfb6416f0113b04181","602110864497cf011d9c0822","0","f","NA","space","space","space","space","f","622","NA","3092","10494","6318","11265","622","2","legacy","1024","2","48000","-16","task","5222873","odd","NA","30367","35463","32370","217474","5760","22589","16267","217977","130880","217471","217977","217414","35463","218601","28685","216913","5700","176979","Lexical Decision Task","87","72491","94","yes","1024"
"3.076883066","0","8","mout","non-word","92.63157894736842","92.63157894736842","770.3368421052631","770.3368421052631","black","no","legacy","legacy","legacy","0","uniform","1","undefined","undefined","undefined","1","f","0","0","0","0","94","0","0","0","94","0","90","94","90","0","90","3","94","0","94","Fri Feb 19 09:57:12 2021","The main experiment item","yes","Lexical_Decision_Task.osexp","/Users/sam/Downloads","no","Andale Mono","no","18","no","white","no","yes","576","legacy","90","90","3","/Users/sam/Downloads/subject-5222873.csv","legacy","Lentiform Loewenfeld","3.3.7","yes","yes","600bd7cfb6416f0113b04181","602110864497cf011d9c0822","0","f","NA","space","space","space","space","f","691","NA","3092","10494","6318","11265","691","2","legacy","1024","2","48000","-16","task","5222873","odd","NA","30367","35463","32370","219169","5760","22589","16267","219672","130880","219166","219672","219105","35463","220364","28685","218604","5700","176979","Lexical Decision Task","88","73182","95","yes","1024"
"2.698387659","6.66","7","skid","word","92.70833333333333","92.70833333333333","780.1666666666666","780.1666666666666","black","no","legacy","legacy","legacy","0","uniform","1","undefined","undefined","undefined","1","j","0","0","0","0","95","0","0","0","95","0","91","95","91","0","91","3","95","0","95","Fri Feb 19 09:57:12 2021","The main experiment item","yes","Lexical_Decision_Task.osexp","/Users/sam/Downloads","no","Andale Mono","no","18","no","white","no","yes","576","legacy","91","91","3","/Users/sam/Downloads/subject-5222873.csv","legacy","Lentiform Loewenfeld","3.3.7","yes","yes","600bd7cfb6416f0113b04181","602110864497cf011d9c0822","0","j","NA","space","space","space","space","j","1714","NA","3092","10494","6318","11265","1714","2","legacy","1024","2","48000","-16","task","5222873","odd","NA","30367","35463","32370","220933","5760","22589","16267","221436","130880","220930","221436","220868","35463","223151","28685","220368","5700","176979","Lexical Decision Task","89","74896","96","yes","1024"
"2.839898939","8.99","6","soap","word","92.78350515463917","92.78350515463917","778.8556701030927","778.8556701030927","black","no","legacy","legacy","legacy","0","uniform","1","undefined","undefined","undefined","1","j","0","0","0","0","96","0","0","0","96","0","92","96","92","0","92","3","96","0","96","Fri Feb 19 09:57:12 2021","The main experiment item","yes","Lexical_Decision_Task.osexp","/Users/sam/Downloads","no","Andale Mono","no","18","no","white","no","yes","576","legacy","92","92","3","/Users/sam/Downloads/subject-5222873.csv","legacy","Lentiform Loewenfeld","3.3.7","yes","yes","600bd7cfb6416f0113b04181","602110864497cf011d9c0822","0","j","NA","space","space","space","space","j","653","NA","3092","10494","6318","11265","653","2","legacy","1024","2","48000","-16","task","5222873","odd","NA","30367","35463","32370","223719","5760","22589","16267","224221","130880","223716","224221","223655","35463","224875","28685","223155","5700","176979","Lexical Decision Task","90","75549","97","yes","1024"
"2.838639236","0","4","furg","non-word","92.85714285714286","92.85714285714286","777.4897959183673","777.4897959183673","black","no","legacy","legacy","legacy","0","uniform","1","undefined","undefined","undefined","1","f","0","0","0","0","97","0","0","0","97","0","93","97","93","0","93","3","97","0","97","Fri Feb 19 09:57:12 2021","The main experiment item","yes","Lexical_Decision_Task.osexp","/Users/sam/Downloads","no","Andale Mono","no","18","no","white","no","yes","576","legacy","93","93","3","/Users/sam/Downloads/subject-5222873.csv","legacy","Lentiform Loewenfeld","3.3.7","yes","yes","600bd7cfb6416f0113b04181","602110864497cf011d9c0822","0","f","NA","space","space","space","space","f","645","NA","3092","10494","6318","11265","645","2","legacy","1024","2","48000","-16","task","5222873","odd","NA","30367","35463","32370","225448","5760","22589","16267","225952","130880","225446","225952","225379","35463","226599","28685","224879","5700","176979","Lexical Decision Task","91","76194","98","yes","1024"
"2.696644658","5.78","2","yolk","word","92.92929292929293","92.92929292929293","776.5050505050505","776.5050505050505","black","no","legacy","legacy","legacy","0","uniform","1","undefined","undefined","undefined","1","j","0","0","0","0","98","0","0","0","98","0","94","98","94","0","94","3","98","0","98","Fri Feb 19 09:57:12 2021","The main experiment item","yes","Lexical_Decision_Task.osexp","/Users/sam/Downloads","no","Andale Mono","no","18","no","white","no","yes","576","legacy","94","94","3","/Users/sam/Downloads/subject-5222873.csv","legacy","Lentiform Loewenfeld","3.3.7","yes","yes","600bd7cfb6416f0113b04181","602110864497cf011d9c0822","0","j","NA","space","space","space","space","j","680","NA","3092","10494","6318","11265","680","2","legacy","1024","2","48000","-16","task","5222873","odd","NA","30367","35463","32370","227166","5760","22589","16267","227669","130880","227163","227669","227103","35463","228350","28685","226602","5700","176979","Lexical Decision Task","92","76874","99","yes","1024"
"2.937852093","0","7","bamp","non-word","92","92","769.71","769.71","black","no","legacy","legacy","legacy","0","uniform","0","undefined","undefined","undefined","0","f","0","0","0","0","99","0","0","0","99","0","95","99","95","0","95","3","99","0","99","Fri Feb 19 09:57:12 2021","The main experiment item","yes","Lexical_Decision_Task.osexp","/Users/sam/Downloads","no","Andale Mono","no","18","no","white","no","yes","576","legacy","95","95","3","/Users/sam/Downloads/subject-5222873.csv","legacy","Lentiform Loewenfeld","3.3.7","yes","yes","600bd7cfb6416f0113b04181","602110864497cf011d9c0822","0","j","NA","space","space","space","space","j","97","NA","3092","10494","6318","11265","97","2","legacy","1024","2","48000","-16","task","5222873","odd","NA","30367","35463","32370","228919","5760","22589","16267","229421","130880","228916","229422","228854","35463","229520","28685","228354","5700","176979","Lexical Decision Task","92","76971","100","yes","1024"
"2.875447132","0","9","jelt","non-word","92.07920792079207","92.07920792079207","770.960396039604","770.960396039604","black","no","legacy","legacy","legacy","0","uniform","1","undefined","undefined","undefined","1","f","0","0","0","0","100","0","0","0","100","0","96","100","96","0","96","3","100","0","100","Fri Feb 19 09:57:12 2021","The main experiment item","yes","Lexical_Decision_Task.osexp","/Users/sam/Downloads","no","Andale Mono","no","18","no","white","no","yes","576","legacy","96","96","3","/Users/sam/Downloads/subject-5222873.csv","legacy","Lentiform Loewenfeld","3.3.7","yes","yes","600bd7cfb6416f0113b04181","602110864497cf011d9c0822","0","f","NA","space","space","space","space","f","896","NA","3092","10494","6318","11265","896","2","legacy","1024","2","48000","-16","task","5222873","odd","NA","30367","35463","32370","231089","5760","22589","16267","231592","130880","231086","231592","231024","35463","232489","28685","228354","5700","229524","Lexical Decision Task","93","77867","101","yes","1024"
