"Log_BG","Log_Freq_HAL","Ortho_N","Stimulus","Type","acc","accuracy","average_response_time","avg_rt","background","bidi","canvas_backend","clock_backend","color_backend","compensation","coordinates","correct","correct_Experimental_intro","correct_Introduction","correct_Practice_intro","correct_experimenter_kb","correct_response","count_End_Of_Experiment","count_End_Of_Practice","count_Experimental_Loop","count_Experimental_intro","count_Fixation","count_Introduction","count_Practice_Loop","count_Practice_intro","count_Stimulus","count_block_break_feedback","count_experimental_sequence","count_experimenter_kb","count_increment_trial_count","count_init_trial_count","count_logger","count_practice_sequence","count_right","count_task","count_wrong","datetime","description","disable_garbage_collection","experiment_file","experiment_path","font_bold","font_family","font_italic","font_size","font_underline","foreground","form_clicks","fullscreen","height","keyboard_backend","live_row","live_row_Experimental_Loop","live_row_Practice_Loop","logfile","mouse_backend","opensesame_codename","opensesame_version","osf_always_upload_data","osf_always_upload_experiment","osf_datanode_id","osf_id","repeat_cycle","response","response_End_Of_Experiment","response_Experimental_intro","response_Introduction","response_Practice_intro","response_block_break_feedback","response_experimenter_kb","response_time","response_time_End_Of_Experiment","response_time_Experimental_intro","response_time_Introduction","response_time_Practice_intro","response_time_block_break_feedback","response_time_experimenter_kb","round_decimals","sampler_backend","sound_buf_size","sound_channels","sound_freq","sound_sample_size","start","subject_nr","subject_parity","time_End_Of_Experiment","time_End_Of_Practice","time_Experimental_Loop","time_Experimental_intro","time_Fixation","time_Introduction","time_Practice_Loop","time_Practice_intro","time_Stimulus","time_block_break_feedback","time_experimental_sequence","time_experimenter_kb","time_increment_trial_count","time_init_trial_count","time_logger","time_practice_sequence","time_right","time_task","time_wrong","title","total_correct","total_response_time","total_responses","uniform_coordinates","width"
"2.6599162","0","2","saff","non-word","100","100","1065.6","1065.6","black","no","legacy","legacy","legacy","0","uniform","1","undefined","undefined","undefined","1","f","0","0","0","0","4","0","0","0","4","NA","0","4","0","0","0","3","4","0","4","Tue Feb 16 13:27:39 2021","The main experiment item","yes","Lexical_Decision_Task.osexp","C:/Users/myarh/OneDrive/Documents","no","Andale Mono","no","18","no","white","no","yes","576","legacy","0","0","3","C:/Users/myarh/OneDrive/Documents/subject-5201996.csv","legacy","Lentiform Loewenfeld","3.3.7","yes","yes","600bd7cfb6416f0113b04181","602110864497cf011d9c0822","0","f","NA","j","j","j","NA","f","1103","NA","1374","11665","3391","NA","1103","2","legacy","1024","2","48000","-16","task","5201996","even","NA","46970","50346","48972","50405","23221","38280","34889","50907","NA","50404","50908","NA","50346","52012","45103","46443","23175","NA","Lexical Decision Task","5","5328","5","yes","1024"
"2.675164031","8.57","6","glue","word","100","100","999.8333333333334","999.8333333333334","black","no","legacy","legacy","legacy","0","uniform","1","undefined","undefined","undefined","1","j","0","0","0","0","5","0","0","0","5","NA","1","5","1","0","1","3","5","0","5","Tue Feb 16 13:27:39 2021","The main experiment item","yes","Lexical_Decision_Task.osexp","C:/Users/myarh/OneDrive/Documents","no","Andale Mono","no","18","no","white","no","yes","576","legacy","1","1","3","C:/Users/myarh/OneDrive/Documents/subject-5201996.csv","legacy","Lentiform Loewenfeld","3.3.7","yes","yes","600bd7cfb6416f0113b04181","602110864497cf011d9c0822","0","j","NA","j","j","j","NA","j","671","NA","1374","11665","3391","NA","671","2","legacy","1024","2","48000","-16","task","5201996","even","NA","46970","50346","48972","52798","23221","38280","34889","53300","NA","52797","53300","52681","50346","53971","45103","52181","23175","NA","Lexical Decision Task","6","5999","6","yes","1024"
"3.194328374","9.42","6","harm","word","100","100","956","956","black","no","legacy","legacy","legacy","0","uniform","1","undefined","undefined","undefined","1","j","0","0","0","0","6","0","0","0","6","NA","2","6","2","0","2","3","6","0","6","Tue Feb 16 13:27:39 2021","The main experiment item","yes","Lexical_Decision_Task.osexp","C:/Users/myarh/OneDrive/Documents","no","Andale Mono","no","18","no","white","no","yes","576","legacy","2","2","3","C:/Users/myarh/OneDrive/Documents/subject-5201996.csv","legacy","Lentiform Loewenfeld","3.3.7","yes","yes","600bd7cfb6416f0113b04181","602110864497cf011d9c0822","0","j","NA","j","j","j","NA","j","693","NA","1374","11665","3391","NA","693","2","legacy","1024","2","48000","-16","task","5201996","even","NA","46970","50346","48972","54571","23221","38280","34889","55073","NA","54569","55073","54493","50346","55767","45103","53992","23175","NA","Lexical Decision Task","7","6692","7","yes","1024"
"3.003891166","8.05","2","frog","word","100","100","902","902","black","no","legacy","legacy","legacy","0","uniform","1","undefined","undefined","undefined","1","j","0","0","0","0","7","0","0","0","7","NA","3","7","3","0","3","3","7","0","7","Tue Feb 16 13:27:39 2021","The main experiment item","yes","Lexical_Decision_Task.osexp","C:/Users/myarh/OneDrive/Documents","no","Andale Mono","no","18","no","white","no","yes","576","legacy","3","3","3","C:/Users/myarh/OneDrive/Documents/subject-5201996.csv","legacy","Lentiform Loewenfeld","3.3.7","yes","yes","600bd7cfb6416f0113b04181","602110864497cf011d9c0822","0","j","NA","j","j","j","NA","j","524","NA","1374","11665","3391","NA","524","2","legacy","1024","2","48000","-16","task","5201996","even","NA","46970","50346","48972","56381","23221","38280","34889","56884","NA","56379","56884","56300","50346","57409","45103","55800","23175","NA","Lexical Decision Task","8","7216","8","yes","1024"
"2.668385917","5.48","4","twig","word","100","100","858","858","black","no","legacy","legacy","legacy","0","uniform","1","undefined","undefined","undefined","1","j","0","0","0","0","8","0","0","0","8","NA","4","8","4","0","4","3","8","0","8","Tue Feb 16 13:27:39 2021","The main experiment item","yes","Lexical_Decision_Task.osexp","C:/Users/myarh/OneDrive/Documents","no","Andale Mono","no","18","no","white","no","yes","576","legacy","4","4","3","C:/Users/myarh/OneDrive/Documents/subject-5201996.csv","legacy","Lentiform Loewenfeld","3.3.7","yes","yes","600bd7cfb6416f0113b04181","602110864497cf011d9c0822","0","j","NA","j","j","j","NA","j","506","NA","1374","11665","3391","NA","506","2","legacy","1024","2","48000","-16","task","5201996","even","NA","46970","50346","48972","58046","23221","38280","34889","58548","NA","58044","58548","57966","50346","59055","45103","57465","23175","NA","Lexical Decision Task","9","7722","9","yes","1024"
"3.440331212","7.35","6","stew","word","100","100","826","826","black","no","legacy","legacy","legacy","0","uniform","1","undefined","undefined","undefined","1","j","0","0","0","0","9","0","0","0","9","NA","5","9","5","0","5","3","9","0","9","Tue Feb 16 13:27:39 2021","The main experiment item","yes","Lexical_Decision_Task.osexp","C:/Users/myarh/OneDrive/Documents","no","Andale Mono","no","18","no","white","no","yes","576","legacy","5","5","3","C:/Users/myarh/OneDrive/Documents/subject-5201996.csv","legacy","Lentiform Loewenfeld","3.3.7","yes","yes","600bd7cfb6416f0113b04181","602110864497cf011d9c0822","0","j","NA","j","j","j","NA","j","538","NA","1374","11665","3391","NA","538","2","legacy","1024","2","48000","-16","task","5201996","even","NA","46970","50346","48972","59679","23221","38280","34889","60181","NA","59677","60181","59596","50346","60720","45103","59096","23175","NA","Lexical Decision Task","10","8260","10","yes","1024"
"2.714888338","0","3","brug","non-word","100","100","833.8181818181819","833.8181818181819","black","no","legacy","legacy","legacy","0","uniform","1","undefined","undefined","undefined","1","f","0","0","0","0","10","0","0","0","10","NA","6","10","6","0","6","3","10","0","10","Tue Feb 16 13:27:39 2021","The main experiment item","yes","Lexical_Decision_Task.osexp","C:/Users/myarh/OneDrive/Documents","no","Andale Mono","no","18","no","white","no","yes","576","legacy","6","6","3","C:/Users/myarh/OneDrive/Documents/subject-5201996.csv","legacy","Lentiform Loewenfeld","3.3.7","yes","yes","600bd7cfb6416f0113b04181","602110864497cf011d9c0822","0","f","NA","j","j","j","NA","f","912","NA","1374","11665","3391","NA","912","2","legacy","1024","2","48000","-16","task","5201996","even","NA","46970","50346","48972","61332","23221","38280","34889","61834","NA","61330","61834","61253","50346","62747","45103","60753","23175","NA","Lexical Decision Task","11","9172","11","yes","1024"
"3.031812271","6.52","3","gulp","word","100","100","829.25","829.25","black","no","legacy","legacy","legacy","0","uniform","1","undefined","undefined","undefined","1","j","0","0","0","0","11","0","0","0","11","NA","7","11","7","0","7","3","11","0","11","Tue Feb 16 13:27:39 2021","The main experiment item","yes","Lexical_Decision_Task.osexp","C:/Users/myarh/OneDrive/Documents","no","Andale Mono","no","18","no","white","no","yes","576","legacy","7","7","3","C:/Users/myarh/OneDrive/Documents/subject-5201996.csv","legacy","Lentiform Loewenfeld","3.3.7","yes","yes","600bd7cfb6416f0113b04181","602110864497cf011d9c0822","0","j","NA","j","j","j","NA","j","779","NA","1374","11665","3391","NA","779","2","legacy","1024","2","48000","-16","task","5201996","even","NA","46970","50346","48972","63441","23221","38280","34889","63944","NA","63440","63944","63364","50346","64723","45103","62864","23175","NA","Lexical Decision Task","12","9951","12","yes","1024"
"2.576725172","0","8","gowl","non-word","100","100","887.2307692307693","887.2307692307693","black","no","legacy","legacy","legacy","0","uniform","1","undefined","undefined","undefined","1","f","0","0","0","0","12","0","0","0","12","NA","8","12","8","0","8","3","12","0","12","Tue Feb 16 13:27:39 2021","The main experiment item","yes","Lexical_Decision_Task.osexp","C:/Users/myarh/OneDrive/Documents","no","Andale Mono","no","18","no","white","no","yes","576","legacy","8","8","3","C:/Users/myarh/OneDrive/Documents/subject-5201996.csv","legacy","Lentiform Loewenfeld","3.3.7","yes","yes","600bd7cfb6416f0113b04181","602110864497cf011d9c0822","0","f","NA","j","j","j","NA","f","1583","NA","1374","11665","3391","NA","1583","2","legacy","1024","2","48000","-16","task","5201996","even","NA","46970","50346","48972","65352","23221","38280","34889","65854","NA","65350","65854","65273","50346","67438","45103","64773","23175","NA","Lexical Decision Task","13","11534","13","yes","1024"
"2.782472624","10.55","2","huge","word","100","100","869.1428571428571","869.1428571428571","black","no","legacy","legacy","legacy","0","uniform","1","undefined","undefined","undefined","1","j","0","0","0","0","13","0","0","0","13","NA","9","13","9","0","9","3","13","0","13","Tue Feb 16 13:27:39 2021","The main experiment item","yes","Lexical_Decision_Task.osexp","C:/Users/myarh/OneDrive/Documents","no","Andale Mono","no","18","no","white","no","yes","576","legacy","9","9","3","C:/Users/myarh/OneDrive/Documents/subject-5201996.csv","legacy","Lentiform Loewenfeld","3.3.7","yes","yes","600bd7cfb6416f0113b04181","602110864497cf011d9c0822","0","j","NA","j","j","j","NA","j","634","NA","1374","11665","3391","NA","634","2","legacy","1024","2","48000","-16","task","5201996","even","NA","46970","50346","48972","68112","23221","38280","34889","68614","NA","68110","68614","68034","50346","69248","45103","67534","23175","NA","Lexical Decision Task","14","12168","14","yes","1024"
"3.347850856","10.51","2","rich","word","100","100","851.7333333333333","851.7333333333333","black","no","legacy","legacy","legacy","0","uniform","1","undefined","undefined","undefined","1","j","0","0","0","0","14","0","0","0","14","NA","10","14","10","0","10","3","14","0","14","Tue Feb 16 13:27:39 2021","The main experiment item","yes","Lexical_Decision_Task.osexp","C:/Users/myarh/OneDrive/Documents","no","Andale Mono","no","18","no","white","no","yes","576","legacy","10","10","3","C:/Users/myarh/OneDrive/Documents/subject-5201996.csv","legacy","Lentiform Loewenfeld","3.3.7","yes","yes","600bd7cfb6416f0113b04181","602110864497cf011d9c0822","0","j","NA","j","j","j","NA","j","608","NA","1374","11665","3391","NA","608","2","legacy","1024","2","48000","-16","task","5201996","even","NA","46970","50346","48972","69861","23221","38280","34889","70364","NA","69859","70364","69781","50346","70973","45103","69281","23175","NA","Lexical Decision Task","15","12776","15","yes","1024"
"2.708989954","9.28","9","bowl","word","100","100","833.375","833.375","black","no","legacy","legacy","legacy","0","uniform","1","undefined","undefined","undefined","1","j","0","0","0","0","15","0","0","0","15","NA","11","15","11","0","11","3","15","0","15","Tue Feb 16 13:27:39 2021","The main experiment item","yes","Lexical_Decision_Task.osexp","C:/Users/myarh/OneDrive/Documents","no","Andale Mono","no","18","no","white","no","yes","576","legacy","11","11","3","C:/Users/myarh/OneDrive/Documents/subject-5201996.csv","legacy","Lentiform Loewenfeld","3.3.7","yes","yes","600bd7cfb6416f0113b04181","602110864497cf011d9c0822","0","j","NA","j","j","j","NA","j","558","NA","1374","11665","3391","NA","558","2","legacy","1024","2","48000","-16","task","5201996","even","NA","46970","50346","48972","71669","23221","38280","34889","72171","NA","71667","72171","71594","50346","72730","45103","71094","23175","NA","Lexical Decision Task","16","13334","16","yes","1024"
"2.952953801","0","8","clax","non-word","100","100","875.0588235294117","875.0588235294117","black","no","legacy","legacy","legacy","0","uniform","1","undefined","undefined","undefined","1","f","0","0","0","0","16","0","0","0","16","NA","12","16","12","0","12","3","16","0","16","Tue Feb 16 13:27:39 2021","The main experiment item","yes","Lexical_Decision_Task.osexp","C:/Users/myarh/OneDrive/Documents","no","Andale Mono","no","18","no","white","no","yes","576","legacy","12","12","3","C:/Users/myarh/OneDrive/Documents/subject-5201996.csv","legacy","Lentiform Loewenfeld","3.3.7","yes","yes","600bd7cfb6416f0113b04181","602110864497cf011d9c0822","0","f","NA","j","j","j","NA","f","1542","NA","1374","11665","3391","NA","1542","2","legacy","1024","2","48000","-16","task","5201996","even","NA","46970","50346","48972","73447","23221","38280","34889","73949","NA","73444","73949","73355","50346","75491","45103","72854","23175","NA","Lexical Decision Task","17","14876","17","yes","1024"
"2.875447132","0","9","jelt","non-word","100","100","888.8888888888889","888.8888888888889","black","no","legacy","legacy","legacy","0","uniform","1","undefined","undefined","undefined","1","f","0","0","0","0","17","0","0","0","17","NA","13","17","13","0","13","3","17","0","17","Tue Feb 16 13:27:39 2021","The main experiment item","yes","Lexical_Decision_Task.osexp","C:/Users/myarh/OneDrive/Documents","no","Andale Mono","no","18","no","white","no","yes","576","legacy","13","13","3","C:/Users/myarh/OneDrive/Documents/subject-5201996.csv","legacy","Lentiform Loewenfeld","3.3.7","yes","yes","600bd7cfb6416f0113b04181","602110864497cf011d9c0822","0","f","NA","j","j","j","NA","f","1124","NA","1374","11665","3391","NA","1124","2","legacy","1024","2","48000","-16","task","5201996","even","NA","46970","50346","48972","76107","23221","38280","34889","76608","NA","76105","76608","76026","50346","77733","45103","75526","23175","NA","Lexical Decision Task","18","16000","18","yes","1024"
"3.230789326","5.38","5","prim","word","100","100","881.421052631579","881.421052631579","black","no","legacy","legacy","legacy","0","uniform","1","undefined","undefined","undefined","1","j","0","0","0","0","18","0","0","0","18","NA","14","18","14","0","14","3","18","0","18","Tue Feb 16 13:27:39 2021","The main experiment item","yes","Lexical_Decision_Task.osexp","C:/Users/myarh/OneDrive/Documents","no","Andale Mono","no","18","no","white","no","yes","576","legacy","14","14","3","C:/Users/myarh/OneDrive/Documents/subject-5201996.csv","legacy","Lentiform Loewenfeld","3.3.7","yes","yes","600bd7cfb6416f0113b04181","602110864497cf011d9c0822","0","j","NA","j","j","j","NA","j","747","NA","1374","11665","3391","NA","747","2","legacy","1024","2","48000","-16","task","5201996","even","NA","46970","50346","48972","78462","23221","38280","34889","78967","NA","78460","78967","78357","50346","79715","45103","77857","23175","NA","Lexical Decision Task","19","16747","19","yes","1024"
"2.794720352","0","9","koot","non-word","100","100","886","886","black","no","legacy","legacy","legacy","0","uniform","1","undefined","undefined","undefined","1","f","0","0","0","0","19","0","0","0","19","NA","15","19","15","0","15","3","19","0","19","Tue Feb 16 13:27:39 2021","The main experiment item","yes","Lexical_Decision_Task.osexp","C:/Users/myarh/OneDrive/Documents","no","Andale Mono","no","18","no","white","no","yes","576","legacy","15","15","3","C:/Users/myarh/OneDrive/Documents/subject-5201996.csv","legacy","Lentiform Loewenfeld","3.3.7","yes","yes","600bd7cfb6416f0113b04181","602110864497cf011d9c0822","0","f","NA","j","j","j","NA","f","973","NA","1374","11665","3391","NA","973","2","legacy","1024","2","48000","-16","task","5201996","even","NA","46970","50346","48972","80373","23221","38280","34889","80875","NA","80371","80875","80294","50346","81849","45103","79794","23175","NA","Lexical Decision Task","20","17720","20","yes","1024"
"2.664328519","0","4","plux","non-word","100","100","881.952380952381","881.952380952381","black","no","legacy","legacy","legacy","0","uniform","1","undefined","undefined","undefined","1","f","0","0","0","0","20","0","0","0","20","NA","16","20","16","0","16","3","20","0","20","Tue Feb 16 13:27:39 2021","The main experiment item","yes","Lexical_Decision_Task.osexp","C:/Users/myarh/OneDrive/Documents","no","Andale Mono","no","18","no","white","no","yes","576","legacy","16","16","3","C:/Users/myarh/OneDrive/Documents/subject-5201996.csv","legacy","Lentiform Loewenfeld","3.3.7","yes","yes","600bd7cfb6416f0113b04181","602110864497cf011d9c0822","0","f","NA","j","j","j","NA","f","801","NA","1374","11665","3391","NA","801","2","legacy","1024","2","48000","-16","task","5201996","even","NA","46970","50346","48972","82555","23221","38280","34889","83057","NA","82553","83057","82476","50346","83858","45103","81976","23175","NA","Lexical Decision Task","21","18521","21","yes","1024"
"2.986323777","10.85","8","ship","word","100","100","868.8181818181819","868.8181818181819","black","no","legacy","legacy","legacy","0","uniform","1","undefined","undefined","undefined","1","j","0","0","0","0","21","0","0","0","21","NA","17","21","17","0","17","3","21","0","21","Tue Feb 16 13:27:39 2021","The main experiment item","yes","Lexical_Decision_Task.osexp","C:/Users/myarh/OneDrive/Documents","no","Andale Mono","no","18","no","white","no","yes","576","legacy","17","17","3","C:/Users/myarh/OneDrive/Documents/subject-5201996.csv","legacy","Lentiform Loewenfeld","3.3.7","yes","yes","600bd7cfb6416f0113b04181","602110864497cf011d9c0822","0","j","NA","j","j","j","NA","j","593","NA","1374","11665","3391","NA","593","2","legacy","1024","2","48000","-16","task","5201996","even","NA","46970","50346","48972","84466","23221","38280","34889","84968","NA","84464","84968","84388","50346","85562","45103","83888","23175","NA","Lexical Decision Task","22","19114","22","yes","1024"
"3.218535505","7.85","7","goat","word","100","100","857.1739130434783","857.1739130434783","black","no","legacy","legacy","legacy","0","uniform","1","undefined","undefined","undefined","1","j","0","0","0","0","22","0","0","0","22","NA","18","22","18","0","18","3","22","0","22","Tue Feb 16 13:27:39 2021","The main experiment item","yes","Lexical_Decision_Task.osexp","C:/Users/myarh/OneDrive/Documents","no","Andale Mono","no","18","no","white","no","yes","576","legacy","18","18","3","C:/Users/myarh/OneDrive/Documents/subject-5201996.csv","legacy","Lentiform Loewenfeld","3.3.7","yes","yes","600bd7cfb6416f0113b04181","602110864497cf011d9c0822","0","j","NA","j","j","j","NA","j","601","NA","1374","11665","3391","NA","601","2","legacy","1024","2","48000","-16","task","5201996","even","NA","46970","50346","48972","86263","23221","38280","34889","86766","NA","86261","86766","86185","50346","87368","45103","85685","23175","NA","Lexical Decision Task","23","19715","23","yes","1024"
"3.208978517","10.33","4","fish","word","100","100","847.7083333333334","847.7083333333334","black","no","legacy","legacy","legacy","0","uniform","1","undefined","undefined","undefined","1","j","0","0","0","0","23","0","0","0","23","NA","19","23","19","0","19","3","23","0","23","Tue Feb 16 13:27:39 2021","The main experiment item","yes","Lexical_Decision_Task.osexp","C:/Users/myarh/OneDrive/Documents","no","Andale Mono","no","18","no","white","no","yes","576","legacy","19","19","3","C:/Users/myarh/OneDrive/Documents/subject-5201996.csv","legacy","Lentiform Loewenfeld","3.3.7","yes","yes","600bd7cfb6416f0113b04181","602110864497cf011d9c0822","0","j","NA","j","j","j","NA","j","630","NA","1374","11665","3391","NA","630","2","legacy","1024","2","48000","-16","task","5201996","even","NA","46970","50346","48972","88071","23221","38280","34889","88573","NA","88069","88573","87986","50346","89204","45103","87486","23175","NA","Lexical Decision Task","24","20345","24","yes","1024"
"3.316948329","0","1","besc","non-word","100","100","844.28","844.28","black","no","legacy","legacy","legacy","0","uniform","1","undefined","undefined","undefined","1","f","0","0","0","0","24","0","0","0","24","NA","20","24","20","0","20","3","24","0","24","Tue Feb 16 13:27:39 2021","The main experiment item","yes","Lexical_Decision_Task.osexp","C:/Users/myarh/OneDrive/Documents","no","Andale Mono","no","18","no","white","no","yes","576","legacy","20","20","3","C:/Users/myarh/OneDrive/Documents/subject-5201996.csv","legacy","Lentiform Loewenfeld","3.3.7","yes","yes","600bd7cfb6416f0113b04181","602110864497cf011d9c0822","0","f","NA","j","j","j","NA","f","762","NA","1374","11665","3391","NA","762","2","legacy","1024","2","48000","-16","task","5201996","even","NA","46970","50346","48972","89815","23221","38280","34889","90317","NA","89813","90317","89736","50346","91080","45103","89236","23175","NA","Lexical Decision Task","25","21107","25","yes","1024"
"2.64476673","0","5","moft","non-word","100","100","846.2692307692307","846.2692307692307","black","no","legacy","legacy","legacy","0","uniform","1","undefined","undefined","undefined","1","f","0","0","0","0","25","0","0","0","25","NA","21","25","21","0","21","3","25","0","25","Tue Feb 16 13:27:39 2021","The main experiment item","yes","Lexical_Decision_Task.osexp","C:/Users/myarh/OneDrive/Documents","no","Andale Mono","no","18","no","white","no","yes","576","legacy","21","21","3","C:/Users/myarh/OneDrive/Documents/subject-5201996.csv","legacy","Lentiform Loewenfeld","3.3.7","yes","yes","600bd7cfb6416f0113b04181","602110864497cf011d9c0822","0","f","NA","j","j","j","NA","f","896","NA","1374","11665","3391","NA","896","2","legacy","1024","2","48000","-16","task","5201996","even","NA","46970","50346","48972","91724","23221","38280","34889","92226","NA","91722","92226","91648","50346","93123","45103","91148","23175","NA","Lexical Decision Task","26","22003","26","yes","1024"
"3.374198258","0","8","vist","non-word","100","100","900.8888888888889","900.8888888888889","black","no","legacy","legacy","legacy","0","uniform","1","undefined","undefined","undefined","1","f","0","0","0","0","26","0","0","0","26","NA","22","26","22","0","22","3","26","0","26","Tue Feb 16 13:27:39 2021","The main experiment item","yes","Lexical_Decision_Task.osexp","C:/Users/myarh/OneDrive/Documents","no","Andale Mono","no","18","no","white","no","yes","576","legacy","22","22","3","C:/Users/myarh/OneDrive/Documents/subject-5201996.csv","legacy","Lentiform Loewenfeld","3.3.7","yes","yes","600bd7cfb6416f0113b04181","602110864497cf011d9c0822","0","f","NA","j","j","j","NA","f","2321","NA","1374","11665","3391","NA","2321","2","legacy","1024","2","48000","-16","task","5201996","even","NA","46970","50346","48972","93895","23221","38280","34889","94396","NA","93893","94396","93816","50346","96718","45103","93316","23175","NA","Lexical Decision Task","27","24324","27","yes","1024"
"3.303771854","0","9","dath","non-word","100","100","904.0357142857143","904.0357142857143","black","no","legacy","legacy","legacy","0","uniform","1","undefined","undefined","undefined","1","f","0","0","0","0","27","0","0","0","27","NA","23","27","23","0","23","3","27","0","27","Tue Feb 16 13:27:39 2021","The main experiment item","yes","Lexical_Decision_Task.osexp","C:/Users/myarh/OneDrive/Documents","no","Andale Mono","no","18","no","white","no","yes","576","legacy","23","23","3","C:/Users/myarh/OneDrive/Documents/subject-5201996.csv","legacy","Lentiform Loewenfeld","3.3.7","yes","yes","600bd7cfb6416f0113b04181","602110864497cf011d9c0822","0","f","NA","j","j","j","NA","f","989","NA","1374","11665","3391","NA","989","2","legacy","1024","2","48000","-16","task","5201996","even","NA","46970","50346","48972","97423","23221","38280","34889","97924","NA","97421","97925","97342","50346","98914","45103","96842","23175","NA","Lexical Decision Task","28","25313","28","yes","1024"
"3.488597715","0","9","nain","non-word","100","100","906.7931034482758","906.7931034482758","black","no","legacy","legacy","legacy","0","uniform","1","undefined","undefined","undefined","1","f","0","0","0","0","28","0","0","0","28","NA","24","28","24","0","24","3","28","0","28","Tue Feb 16 13:27:39 2021","The main experiment item","yes","Lexical_Decision_Task.osexp","C:/Users/myarh/OneDrive/Documents","no","Andale Mono","no","18","no","white","no","yes","576","legacy","24","24","3","C:/Users/myarh/OneDrive/Documents/subject-5201996.csv","legacy","Lentiform Loewenfeld","3.3.7","yes","yes","600bd7cfb6416f0113b04181","602110864497cf011d9c0822","0","f","NA","j","j","j","NA","f","984","NA","1374","11665","3391","NA","984","2","legacy","1024","2","48000","-16","task","5201996","even","NA","46970","50346","48972","99620","23221","38280","34889","100121","NA","99618","100121","99541","50346","101106","45103","99041","23175","NA","Lexical Decision Task","29","26297","29","yes","1024"
"3.248054965","7.86","5","glow","word","100","100","896.7666666666667","896.7666666666667","black","no","legacy","legacy","legacy","0","uniform","1","undefined","undefined","undefined","1","j","0","0","0","0","29","0","0","0","29","NA","25","29","25","0","25","3","29","0","29","Tue Feb 16 13:27:39 2021","The main experiment item","yes","Lexical_Decision_Task.osexp","C:/Users/myarh/OneDrive/Documents","no","Andale Mono","no","18","no","white","no","yes","576","legacy","25","25","3","C:/Users/myarh/OneDrive/Documents/subject-5201996.csv","legacy","Lentiform Loewenfeld","3.3.7","yes","yes","600bd7cfb6416f0113b04181","602110864497cf011d9c0822","0","j","NA","j","j","j","NA","j","606","NA","1374","11665","3391","NA","606","2","legacy","1024","2","48000","-16","task","5201996","even","NA","46970","50346","48972","101725","23221","38280","34889","102227","NA","101723","102227","101645","50346","102833","45103","101144","23175","NA","Lexical Decision Task","30","26903","30","yes","1024"
"2.69019608","9.01","2","myth","word","100","100","892.258064516129","892.258064516129","black","no","legacy","legacy","legacy","0","uniform","1","undefined","undefined","undefined","1","j","0","0","0","0","30","0","0","0","30","NA","26","30","26","0","26","3","30","0","30","Tue Feb 16 13:27:39 2021","The main experiment item","yes","Lexical_Decision_Task.osexp","C:/Users/myarh/OneDrive/Documents","no","Andale Mono","no","18","no","white","no","yes","576","legacy","26","26","3","C:/Users/myarh/OneDrive/Documents/subject-5201996.csv","legacy","Lentiform Loewenfeld","3.3.7","yes","yes","600bd7cfb6416f0113b04181","602110864497cf011d9c0822","0","j","NA","j","j","j","NA","j","757","NA","1374","11665","3391","NA","757","2","legacy","1024","2","48000","-16","task","5201996","even","NA","46970","50346","48972","103541","23221","38280","34889","104043","NA","103539","104043","103462","50346","104801","45103","102962","23175","NA","Lexical Decision Task","31","27660","31","yes","1024"
"2.907588697","8.91","9","mood","word","100","100","882.21875","882.21875","black","no","legacy","legacy","legacy","0","uniform","1","undefined","undefined","undefined","1","j","0","0","0","0","31","0","0","0","31","NA","27","31","27","0","27","3","31","0","31","Tue Feb 16 13:27:39 2021","The main experiment item","yes","Lexical_Decision_Task.osexp","C:/Users/myarh/OneDrive/Documents","no","Andale Mono","no","18","no","white","no","yes","576","legacy","27","27","3","C:/Users/myarh/OneDrive/Documents/subject-5201996.csv","legacy","Lentiform Loewenfeld","3.3.7","yes","yes","600bd7cfb6416f0113b04181","602110864497cf011d9c0822","0","j","NA","j","j","j","NA","j","571","NA","1374","11665","3391","NA","571","2","legacy","1024","2","48000","-16","task","5201996","even","NA","46970","50346","48972","105407","23221","38280","34889","105909","NA","105405","105909","105325","50346","106481","45103","104825","23175","NA","Lexical Decision Task","32","28231","32","yes","1024"
"2.898725182","0","7","turl","non-word","100","100","906","906","black","no","legacy","legacy","legacy","0","uniform","1","undefined","undefined","undefined","1","f","0","0","0","0","32","0","0","0","32","NA","28","32","28","0","28","3","32","0","32","Tue Feb 16 13:27:39 2021","The main experiment item","yes","Lexical_Decision_Task.osexp","C:/Users/myarh/OneDrive/Documents","no","Andale Mono","no","18","no","white","no","yes","576","legacy","28","28","3","C:/Users/myarh/OneDrive/Documents/subject-5201996.csv","legacy","Lentiform Loewenfeld","3.3.7","yes","yes","600bd7cfb6416f0113b04181","602110864497cf011d9c0822","0","f","NA","j","j","j","NA","f","1667","NA","1374","11665","3391","NA","1667","2","legacy","1024","2","48000","-16","task","5201996","even","NA","46970","50346","48972","107084","23221","38280","34889","107586","NA","107082","107586","107005","50346","109254","45103","106505","23175","NA","Lexical Decision Task","33","29898","33","yes","1024"
"3.492014979","0","9","yine","non-word","100","100","911.7352941176471","911.7352941176471","black","no","legacy","legacy","legacy","0","uniform","1","undefined","undefined","undefined","1","f","0","0","0","0","33","0","0","0","33","NA","29","33","29","0","29","3","33","0","33","Tue Feb 16 13:27:39 2021","The main experiment item","yes","Lexical_Decision_Task.osexp","C:/Users/myarh/OneDrive/Documents","no","Andale Mono","no","18","no","white","no","yes","576","legacy","29","29","3","C:/Users/myarh/OneDrive/Documents/subject-5201996.csv","legacy","Lentiform Loewenfeld","3.3.7","yes","yes","600bd7cfb6416f0113b04181","602110864497cf011d9c0822","0","f","NA","j","j","j","NA","f","1101","NA","1374","11665","3391","NA","1101","2","legacy","1024","2","48000","-16","task","5201996","even","NA","46970","50346","48972","109869","23221","38280","34889","110371","NA","109867","110371","109790","50346","111473","45103","109290","23175","NA","Lexical Decision Task","34","30999","34","yes","1024"
"2.842815106","7.86","8","lump","word","100","100","908.6","908.6","black","no","legacy","legacy","legacy","0","uniform","1","undefined","undefined","undefined","1","j","0","0","0","0","34","0","0","0","34","NA","30","34","30","0","30","3","34","0","34","Tue Feb 16 13:27:39 2021","The main experiment item","yes","Lexical_Decision_Task.osexp","C:/Users/myarh/OneDrive/Documents","no","Andale Mono","no","18","no","white","no","yes","576","legacy","30","30","3","C:/Users/myarh/OneDrive/Documents/subject-5201996.csv","legacy","Lentiform Loewenfeld","3.3.7","yes","yes","600bd7cfb6416f0113b04181","602110864497cf011d9c0822","0","j","NA","j","j","j","NA","j","802","NA","1374","11665","3391","NA","802","2","legacy","1024","2","48000","-16","task","5201996","even","NA","46970","50346","48972","112179","23221","38280","34889","112681","NA","112177","112681","112099","50346","113483","45103","111599","23175","NA","Lexical Decision Task","35","31801","35","yes","1024"
"2.744553742","0","2","nawk","non-word","100","100","955.7222222222222","955.7222222222222","black","no","legacy","legacy","legacy","0","uniform","1","undefined","undefined","undefined","1","f","0","0","0","0","35","0","0","0","35","NA","31","35","31","0","31","3","35","0","35","Tue Feb 16 13:27:39 2021","The main experiment item","yes","Lexical_Decision_Task.osexp","C:/Users/myarh/OneDrive/Documents","no","Andale Mono","no","18","no","white","no","yes","576","legacy","31","31","3","C:/Users/myarh/OneDrive/Documents/subject-5201996.csv","legacy","Lentiform Loewenfeld","3.3.7","yes","yes","600bd7cfb6416f0113b04181","602110864497cf011d9c0822","0","f","NA","j","j","j","NA","f","2605","NA","1374","11665","3391","NA","2605","2","legacy","1024","2","48000","-16","task","5201996","even","NA","46970","50346","48972","114181","23221","38280","34889","114683","NA","114179","114683","114102","50346","117288","45103","113602","23175","NA","Lexical Decision Task","36","34406","36","yes","1024"
"3.134602053","0","8","jart","non-word","100","100","952.1351351351351","952.1351351351351","black","no","legacy","legacy","legacy","0","uniform","1","undefined","undefined","undefined","1","f","0","0","0","0","36","0","0","0","36","NA","32","36","32","0","32","3","36","0","36","Tue Feb 16 13:27:39 2021","The main experiment item","yes","Lexical_Decision_Task.osexp","C:/Users/myarh/OneDrive/Documents","no","Andale Mono","no","18","no","white","no","yes","576","legacy","32","32","3","C:/Users/myarh/OneDrive/Documents/subject-5201996.csv","legacy","Lentiform Loewenfeld","3.3.7","yes","yes","600bd7cfb6416f0113b04181","602110864497cf011d9c0822","0","f","NA","j","j","j","NA","f","823","NA","1374","11665","3391","NA","823","2","legacy","1024","2","48000","-16","task","5201996","even","NA","46970","50346","48972","117977","23221","38280","34889","118479","NA","117975","118479","117897","50346","119303","45103","117397","23175","NA","Lexical Decision Task","37","35229","37","yes","1024"
"3.22685757","9.99","7","roll","word","100","100","954.1578947368421","954.1578947368421","black","no","legacy","legacy","legacy","0","uniform","1","undefined","undefined","undefined","1","j","0","0","0","0","37","0","0","0","37","NA","33","37","33","0","33","3","37","0","37","Tue Feb 16 13:27:39 2021","The main experiment item","yes","Lexical_Decision_Task.osexp","C:/Users/myarh/OneDrive/Documents","no","Andale Mono","no","18","no","white","no","yes","576","legacy","33","33","3","C:/Users/myarh/OneDrive/Documents/subject-5201996.csv","legacy","Lentiform Loewenfeld","3.3.7","yes","yes","600bd7cfb6416f0113b04181","602110864497cf011d9c0822","0","j","NA","j","j","j","NA","j","1029","NA","1374","11665","3391","NA","1029","2","legacy","1024","2","48000","-16","task","5201996","even","NA","46970","50346","48972","119922","23221","38280","34889","120424","NA","119920","120424","119843","50346","121453","45103","119343","23175","NA","Lexical Decision Task","38","36258","38","yes","1024"
"3.091901331","0","9","nipe","non-word","100","100","960.3333333333334","960.3333333333334","black","no","legacy","legacy","legacy","0","uniform","1","undefined","undefined","undefined","1","f","0","0","0","0","38","0","0","0","38","NA","34","38","34","0","34","3","38","0","38","Tue Feb 16 13:27:39 2021","The main experiment item","yes","Lexical_Decision_Task.osexp","C:/Users/myarh/OneDrive/Documents","no","Andale Mono","no","18","no","white","no","yes","576","legacy","34","34","3","C:/Users/myarh/OneDrive/Documents/subject-5201996.csv","legacy","Lentiform Loewenfeld","3.3.7","yes","yes","600bd7cfb6416f0113b04181","602110864497cf011d9c0822","0","f","NA","j","j","j","NA","f","1195","NA","1374","11665","3391","NA","1195","2","legacy","1024","2","48000","-16","task","5201996","even","NA","46970","50346","48972","122157","23221","38280","34889","122659","NA","122155","122659","122076","50346","123855","45103","121576","23175","NA","Lexical Decision Task","39","37453","39","yes","1024"
"2.981215883","10.66","5","hair","word","100","100","960.975","960.975","black","no","legacy","legacy","legacy","0","uniform","1","undefined","undefined","undefined","1","j","0","0","0","0","39","0","0","0","39","NA","35","39","35","0","35","3","39","0","39","Tue Feb 16 13:27:39 2021","The main experiment item","yes","Lexical_Decision_Task.osexp","C:/Users/myarh/OneDrive/Documents","no","Andale Mono","no","18","no","white","no","yes","576","legacy","35","35","3","C:/Users/myarh/OneDrive/Documents/subject-5201996.csv","legacy","Lentiform Loewenfeld","3.3.7","yes","yes","600bd7cfb6416f0113b04181","602110864497cf011d9c0822","0","j","NA","j","j","j","NA","j","986","NA","1374","11665","3391","NA","986","2","legacy","1024","2","48000","-16","task","5201996","even","NA","46970","50346","48972","124487","23221","38280","34889","124988","NA","124485","124989","124408","50346","125976","45103","123908","23175","NA","Lexical Decision Task","40","38439","40","yes","1024"
"3.153001286","8.7","5","palm","word","100","100","954.5365853658536","954.5365853658536","black","no","legacy","legacy","legacy","0","uniform","1","undefined","undefined","undefined","1","j","0","0","0","0","40","0","0","0","40","NA","36","40","36","0","36","3","40","0","40","Tue Feb 16 13:27:39 2021","The main experiment item","yes","Lexical_Decision_Task.osexp","C:/Users/myarh/OneDrive/Documents","no","Andale Mono","no","18","no","white","no","yes","576","legacy","36","36","3","C:/Users/myarh/OneDrive/Documents/subject-5201996.csv","legacy","Lentiform Loewenfeld","3.3.7","yes","yes","600bd7cfb6416f0113b04181","602110864497cf011d9c0822","0","j","NA","j","j","j","NA","j","697","NA","1374","11665","3391","NA","697","2","legacy","1024","2","48000","-16","task","5201996","even","NA","46970","50346","48972","126673","23221","38280","34889","127174","NA","126671","127174","126591","50346","127872","45103","126091","23175","NA","Lexical Decision Task","41","39136","41","yes","1024"
"3.088136089","8.32","9","worm","word","100","100","946.6428571428571","946.6428571428571","black","no","legacy","legacy","legacy","0","uniform","1","undefined","undefined","undefined","1","j","0","0","0","0","41","0","0","0","41","NA","37","41","37","0","37","3","41","0","41","Tue Feb 16 13:27:39 2021","The main experiment item","yes","Lexical_Decision_Task.osexp","C:/Users/myarh/OneDrive/Documents","no","Andale Mono","no","18","no","white","no","yes","576","legacy","37","37","3","C:/Users/myarh/OneDrive/Documents/subject-5201996.csv","legacy","Lentiform Loewenfeld","3.3.7","yes","yes","600bd7cfb6416f0113b04181","602110864497cf011d9c0822","0","j","NA","j","j","j","NA","j","623","NA","1374","11665","3391","NA","623","2","legacy","1024","2","48000","-16","task","5201996","even","NA","46970","50346","48972","128483","23221","38280","34889","128985","NA","128482","128985","128403","50346","129608","45103","127903","23175","NA","Lexical Decision Task","42","39759","42","yes","1024"
"3.531734309","0","6","lerd","non-word","100","100","939.953488372093","939.953488372093","black","no","legacy","legacy","legacy","0","uniform","1","undefined","undefined","undefined","1","f","0","0","0","0","42","0","0","0","42","NA","38","42","38","0","38","3","42","0","42","Tue Feb 16 13:27:39 2021","The main experiment item","yes","Lexical_Decision_Task.osexp","C:/Users/myarh/OneDrive/Documents","no","Andale Mono","no","18","no","white","no","yes","576","legacy","38","38","3","C:/Users/myarh/OneDrive/Documents/subject-5201996.csv","legacy","Lentiform Loewenfeld","3.3.7","yes","yes","600bd7cfb6416f0113b04181","602110864497cf011d9c0822","0","f","NA","j","j","j","NA","f","659","NA","1374","11665","3391","NA","659","2","legacy","1024","2","48000","-16","task","5201996","even","NA","46970","50346","48972","130222","23221","38280","34889","130725","NA","130220","130725","130141","50346","131385","45103","129641","23175","NA","Lexical Decision Task","43","40418","43","yes","1024"
"3.031408464","0","7","drow","non-word","100","100","936.3636363636364","936.3636363636364","black","no","legacy","legacy","legacy","0","uniform","1","undefined","undefined","undefined","1","f","0","0","0","0","43","0","0","0","43","NA","39","43","39","0","39","3","43","0","43","Tue Feb 16 13:27:39 2021","The main experiment item","yes","Lexical_Decision_Task.osexp","C:/Users/myarh/OneDrive/Documents","no","Andale Mono","no","18","no","white","no","yes","576","legacy","39","39","3","C:/Users/myarh/OneDrive/Documents/subject-5201996.csv","legacy","Lentiform Loewenfeld","3.3.7","yes","yes","600bd7cfb6416f0113b04181","602110864497cf011d9c0822","0","f","NA","j","j","j","NA","f","782","NA","1374","11665","3391","NA","782","2","legacy","1024","2","48000","-16","task","5201996","even","NA","46970","50346","48972","131989","23221","38280","34889","132490","NA","131987","132490","131910","50346","133273","45103","131410","23175","NA","Lexical Decision Task","44","41200","44","yes","1024"
"3.431095062","5.74","9","perk","word","100","100","931.6444444444444","931.6444444444444","black","no","legacy","legacy","legacy","0","uniform","1","undefined","undefined","undefined","1","j","0","0","0","0","44","0","0","0","44","NA","40","44","40","0","40","3","44","0","44","Tue Feb 16 13:27:39 2021","The main experiment item","yes","Lexical_Decision_Task.osexp","C:/Users/myarh/OneDrive/Documents","no","Andale Mono","no","18","no","white","no","yes","576","legacy","40","40","3","C:/Users/myarh/OneDrive/Documents/subject-5201996.csv","legacy","Lentiform Loewenfeld","3.3.7","yes","yes","600bd7cfb6416f0113b04181","602110864497cf011d9c0822","0","j","NA","j","j","j","NA","j","724","NA","1374","11665","3391","NA","724","2","legacy","1024","2","48000","-16","task","5201996","even","NA","46970","50346","48972","133968","23221","38280","34889","134470","NA","133966","134470","133891","50346","135196","45103","133390","23175","NA","Lexical Decision Task","45","41924","45","yes","1024"
"2.966923697","5.4","2","fume","word","100","100","925.4782608695652","925.4782608695652","black","no","legacy","legacy","legacy","0","uniform","1","undefined","undefined","undefined","1","j","0","0","0","0","45","0","0","0","45","NA","41","45","41","0","41","3","45","0","45","Tue Feb 16 13:27:39 2021","The main experiment item","yes","Lexical_Decision_Task.osexp","C:/Users/myarh/OneDrive/Documents","no","Andale Mono","no","18","no","white","no","yes","576","legacy","41","41","3","C:/Users/myarh/OneDrive/Documents/subject-5201996.csv","legacy","Lentiform Loewenfeld","3.3.7","yes","yes","600bd7cfb6416f0113b04181","602110864497cf011d9c0822","0","j","NA","j","j","j","NA","j","648","NA","1374","11665","3391","NA","648","2","legacy","1024","2","48000","-16","task","5201996","even","NA","46970","50346","48972","135805","23221","38280","34889","136307","NA","135803","136307","135718","50346","136957","45103","135218","23175","NA","Lexical Decision Task","46","42572","46","yes","1024"
"3.159867847","5.98","5","brim","word","100","100","949.9148936170212","949.9148936170212","black","no","legacy","legacy","legacy","0","uniform","1","undefined","undefined","undefined","1","j","0","0","0","0","46","0","0","0","46","NA","42","46","42","0","42","3","46","0","46","Tue Feb 16 13:27:39 2021","The main experiment item","yes","Lexical_Decision_Task.osexp","C:/Users/myarh/OneDrive/Documents","no","Andale Mono","no","18","no","white","no","yes","576","legacy","42","42","3","C:/Users/myarh/OneDrive/Documents/subject-5201996.csv","legacy","Lentiform Loewenfeld","3.3.7","yes","yes","600bd7cfb6416f0113b04181","602110864497cf011d9c0822","0","j","NA","j","j","j","NA","j","2074","NA","1374","11665","3391","NA","2074","2","legacy","1024","2","48000","-16","task","5201996","even","NA","46970","50346","48972","137655","23221","38280","34889","138157","NA","137653","138157","137575","50346","140232","45103","137075","23175","NA","Lexical Decision Task","47","44646","47","yes","1024"
"2.80048796","0","8","pife","non-word","100","100","946.5208333333334","946.5208333333334","black","no","legacy","legacy","legacy","0","uniform","1","undefined","undefined","undefined","1","f","0","0","0","0","47","0","0","0","47","NA","43","47","43","0","43","3","47","0","47","Tue Feb 16 13:27:39 2021","The main experiment item","yes","Lexical_Decision_Task.osexp","C:/Users/myarh/OneDrive/Documents","no","Andale Mono","no","18","no","white","no","yes","576","legacy","43","43","3","C:/Users/myarh/OneDrive/Documents/subject-5201996.csv","legacy","Lentiform Loewenfeld","3.3.7","yes","yes","600bd7cfb6416f0113b04181","602110864497cf011d9c0822","0","f","NA","j","j","j","NA","f","787","NA","1374","11665","3391","NA","787","2","legacy","1024","2","48000","-16","task","5201996","even","NA","46970","50346","48972","140858","23221","38280","34889","141360","NA","140856","141361","140779","50346","142149","45103","140279","23175","NA","Lexical Decision Task","48","45433","48","yes","1024"
"3.259832699","0","9","flar","non-word","100","100","948.6530612244898","948.6530612244898","black","no","legacy","legacy","legacy","0","uniform","1","undefined","undefined","undefined","1","f","0","0","0","0","48","0","0","0","48","NA","44","48","44","0","44","3","48","0","48","Tue Feb 16 13:27:39 2021","The main experiment item","yes","Lexical_Decision_Task.osexp","C:/Users/myarh/OneDrive/Documents","no","Andale Mono","no","18","no","white","no","yes","576","legacy","44","44","3","C:/Users/myarh/OneDrive/Documents/subject-5201996.csv","legacy","Lentiform Loewenfeld","3.3.7","yes","yes","600bd7cfb6416f0113b04181","602110864497cf011d9c0822","0","f","NA","j","j","j","NA","f","1051","NA","1374","11665","3391","NA","1051","2","legacy","1024","2","48000","-16","task","5201996","even","NA","46970","50346","48972","142781","23221","38280","34889","143283","NA","142779","143283","142701","50346","144335","45103","142201","23175","NA","Lexical Decision Task","49","46484","49","yes","1024"
"3.307211407","6.07","7","honk","word","100","100","943.54","943.54","black","no","legacy","legacy","legacy","0","uniform","1","undefined","undefined","undefined","1","j","0","0","0","0","49","0","0","0","49","NA","45","49","45","0","45","3","49","0","49","Tue Feb 16 13:27:39 2021","The main experiment item","yes","Lexical_Decision_Task.osexp","C:/Users/myarh/OneDrive/Documents","no","Andale Mono","no","18","no","white","no","yes","576","legacy","45","45","3","C:/Users/myarh/OneDrive/Documents/subject-5201996.csv","legacy","Lentiform Loewenfeld","3.3.7","yes","yes","600bd7cfb6416f0113b04181","602110864497cf011d9c0822","0","j","NA","j","j","j","NA","j","693","NA","1374","11665","3391","NA","693","2","legacy","1024","2","48000","-16","task","5201996","even","NA","46970","50346","48972","144941","23221","38280","34889","145444","NA","144939","145444","144863","50346","146138","45103","144363","23175","NA","Lexical Decision Task","50","47177","50","yes","1024"
"2.845304797","0","6","buct","non-word","100","100","939.5098039215686","939.5098039215686","black","no","legacy","legacy","legacy","0","uniform","1","undefined","undefined","undefined","1","f","0","0","0","0","50","0","0","0","50","NA","46","50","46","0","46","3","50","0","50","Tue Feb 16 13:27:39 2021","The main experiment item","yes","Lexical_Decision_Task.osexp","C:/Users/myarh/OneDrive/Documents","no","Andale Mono","no","18","no","white","no","yes","576","legacy","46","46","3","C:/Users/myarh/OneDrive/Documents/subject-5201996.csv","legacy","Lentiform Loewenfeld","3.3.7","yes","yes","600bd7cfb6416f0113b04181","602110864497cf011d9c0822","0","f","NA","j","j","j","NA","f","738","NA","1374","11665","3391","NA","738","2","legacy","1024","2","48000","-16","task","5201996","even","NA","46970","50346","48972","146750","23221","38280","34889","147253","NA","146749","147253","146673","50346","147992","45103","146173","23175","NA","Lexical Decision Task","51","47915","51","yes","1024"
"3.066077331","0","7","vorn","non-word","100","100","935.7307692307693","935.7307692307693","black","no","legacy","legacy","legacy","0","uniform","1","undefined","undefined","undefined","1","f","0","0","0","0","51","0","0","0","51","NA","47","51","47","0","47","3","51","0","51","Tue Feb 16 13:27:39 2021","The main experiment item","yes","Lexical_Decision_Task.osexp","C:/Users/myarh/OneDrive/Documents","no","Andale Mono","no","18","no","white","no","yes","576","legacy","47","47","3","C:/Users/myarh/OneDrive/Documents/subject-5201996.csv","legacy","Lentiform Loewenfeld","3.3.7","yes","yes","600bd7cfb6416f0113b04181","602110864497cf011d9c0822","0","f","NA","j","j","j","NA","f","743","NA","1374","11665","3391","NA","743","2","legacy","1024","2","48000","-16","task","5201996","even","NA","46970","50346","48972","148694","23221","38280","34889","149195","NA","148692","149196","148616","50346","149940","45103","148116","23175","NA","Lexical Decision Task","52","48658","52","yes","1024"
"3.028977705","0","7","frow","non-word","100","100","945.4905660377359","945.4905660377359","black","no","legacy","legacy","legacy","0","uniform","1","undefined","undefined","undefined","1","f","0","0","0","0","52","0","0","0","52","NA","48","52","48","0","48","3","52","0","52","Tue Feb 16 13:27:39 2021","The main experiment item","yes","Lexical_Decision_Task.osexp","C:/Users/myarh/OneDrive/Documents","no","Andale Mono","no","18","no","white","no","yes","576","legacy","48","48","3","C:/Users/myarh/OneDrive/Documents/subject-5201996.csv","legacy","Lentiform Loewenfeld","3.3.7","yes","yes","600bd7cfb6416f0113b04181","602110864497cf011d9c0822","0","f","NA","j","j","j","NA","f","1453","NA","1374","11665","3391","NA","1453","2","legacy","1024","2","48000","-16","task","5201996","even","NA","46970","50346","48972","150550","23221","38280","34889","151052","NA","150548","151052","150472","50346","152506","45103","149972","23175","NA","Lexical Decision Task","53","50111","53","yes","1024"
"3.145920145","8.51","8","flew","word","100","100","940.6666666666666","940.6666666666666","black","no","legacy","legacy","legacy","0","uniform","1","undefined","undefined","undefined","1","j","0","0","0","0","53","0","0","0","53","NA","49","53","49","0","49","3","53","0","53","Tue Feb 16 13:27:39 2021","The main experiment item","yes","Lexical_Decision_Task.osexp","C:/Users/myarh/OneDrive/Documents","no","Andale Mono","no","18","no","white","no","yes","576","legacy","49","49","3","C:/Users/myarh/OneDrive/Documents/subject-5201996.csv","legacy","Lentiform Loewenfeld","3.3.7","yes","yes","600bd7cfb6416f0113b04181","602110864497cf011d9c0822","0","j","NA","j","j","j","NA","j","685","NA","1374","11665","3391","NA","685","2","legacy","1024","2","48000","-16","task","5201996","even","NA","46970","50346","48972","153212","23221","38280","34889","153714","NA","153210","153714","153133","50346","154400","45103","152633","23175","NA","Lexical Decision Task","54","50796","54","yes","1024"
"2.899638141","0","3","hapt","non-word","100","100","937.3818181818182","937.3818181818182","black","no","legacy","legacy","legacy","0","uniform","1","undefined","undefined","undefined","1","f","0","0","0","0","54","0","0","0","54","0","50","54","50","0","50","3","54","0","54","Tue Feb 16 13:27:39 2021","The main experiment item","yes","Lexical_Decision_Task.osexp","C:/Users/myarh/OneDrive/Documents","no","Andale Mono","no","18","no","white","no","yes","576","legacy","50","50","3","C:/Users/myarh/OneDrive/Documents/subject-5201996.csv","legacy","Lentiform Loewenfeld","3.3.7","yes","yes","600bd7cfb6416f0113b04181","602110864497cf011d9c0822","0","f","NA","j","j","j","j","f","760","NA","1374","11665","3391","5911","760","2","legacy","1024","2","48000","-16","task","5201996","even","NA","46970","50346","48972","160978","23221","38280","34889","161480","154987","160976","161480","154936","50346","162242","45103","154436","23175","NA","Lexical Decision Task","55","51556","55","yes","1024"
"3.274543461","7.46","7","scar","word","100","100","929.2678571428571","929.2678571428571","black","no","legacy","legacy","legacy","0","uniform","1","undefined","undefined","undefined","1","j","0","0","0","0","55","0","0","0","55","0","51","55","51","0","51","3","55","0","55","Tue Feb 16 13:27:39 2021","The main experiment item","yes","Lexical_Decision_Task.osexp","C:/Users/myarh/OneDrive/Documents","no","Andale Mono","no","18","no","white","no","yes","576","legacy","51","51","3","C:/Users/myarh/OneDrive/Documents/subject-5201996.csv","legacy","Lentiform Loewenfeld","3.3.7","yes","yes","600bd7cfb6416f0113b04181","602110864497cf011d9c0822","0","j","NA","j","j","j","j","j","483","NA","1374","11665","3391","5911","483","2","legacy","1024","2","48000","-16","task","5201996","even","NA","46970","50346","48972","162934","23221","38280","34889","163436","154987","162933","163436","162858","50346","163920","45103","162358","23175","NA","Lexical Decision Task","56","52039","56","yes","1024"
"2.893578687","8.69","3","surf","word","100","100","921.7017543859649","921.7017543859649","black","no","legacy","legacy","legacy","0","uniform","1","undefined","undefined","undefined","1","j","0","0","0","0","56","0","0","0","56","0","52","56","52","0","52","3","56","0","56","Tue Feb 16 13:27:39 2021","The main experiment item","yes","Lexical_Decision_Task.osexp","C:/Users/myarh/OneDrive/Documents","no","Andale Mono","no","18","no","white","no","yes","576","legacy","52","52","3","C:/Users/myarh/OneDrive/Documents/subject-5201996.csv","legacy","Lentiform Loewenfeld","3.3.7","yes","yes","600bd7cfb6416f0113b04181","602110864497cf011d9c0822","0","j","NA","j","j","j","j","j","498","NA","1374","11665","3391","5911","498","2","legacy","1024","2","48000","-16","task","5201996","even","NA","46970","50346","48972","164527","23221","38280","34889","165029","154987","164525","165029","164449","50346","165528","45103","163949","23175","NA","Lexical Decision Task","57","52537","57","yes","1024"
"2.67699827","0","6","hulf","non-word","100","100","917.7931034482758","917.7931034482758","black","no","legacy","legacy","legacy","0","uniform","1","undefined","undefined","undefined","1","f","0","0","0","0","57","0","0","0","57","0","53","57","53","0","53","3","57","0","57","Tue Feb 16 13:27:39 2021","The main experiment item","yes","Lexical_Decision_Task.osexp","C:/Users/myarh/OneDrive/Documents","no","Andale Mono","no","18","no","white","no","yes","576","legacy","53","53","3","C:/Users/myarh/OneDrive/Documents/subject-5201996.csv","legacy","Lentiform Loewenfeld","3.3.7","yes","yes","600bd7cfb6416f0113b04181","602110864497cf011d9c0822","0","f","NA","j","j","j","j","f","695","NA","1374","11665","3391","5911","695","2","legacy","1024","2","48000","-16","task","5201996","even","NA","46970","50346","48972","166219","23221","38280","34889","166720","154987","166217","166720","166140","50346","167417","45103","165640","23175","NA","Lexical Decision Task","58","53232","58","yes","1024"
"3.474361976","5.24","6","veer","word","98.30508474576271","98.30508474576271","916.3389830508474","916.3389830508474","black","no","legacy","legacy","legacy","0","uniform","0","undefined","undefined","undefined","0","j","0","0","0","0","58","0","0","0","58","0","54","58","54","0","54","3","58","0","58","Tue Feb 16 13:27:39 2021","The main experiment item","yes","Lexical_Decision_Task.osexp","C:/Users/myarh/OneDrive/Documents","no","Andale Mono","no","18","no","white","no","yes","576","legacy","54","54","3","C:/Users/myarh/OneDrive/Documents/subject-5201996.csv","legacy","Lentiform Loewenfeld","3.3.7","yes","yes","600bd7cfb6416f0113b04181","602110864497cf011d9c0822","0","f","NA","j","j","j","j","f","832","NA","1374","11665","3391","5911","832","2","legacy","1024","2","48000","-16","task","5201996","even","NA","46970","50346","48972","168115","23221","38280","34889","168617","154987","168113","168617","168037","50346","169450","45103","167537","23175","NA","Lexical Decision Task","58","54064","59","yes","1024"
"2.95456409","0","4","taud","non-word","98.33333333333333","98.33333333333333","913.6","913.6","black","no","legacy","legacy","legacy","0","uniform","1","undefined","undefined","undefined","1","f","0","0","0","0","59","0","0","0","59","0","55","59","55","0","55","3","59","0","59","Tue Feb 16 13:27:39 2021","The main experiment item","yes","Lexical_Decision_Task.osexp","C:/Users/myarh/OneDrive/Documents","no","Andale Mono","no","18","no","white","no","yes","576","legacy","55","55","3","C:/Users/myarh/OneDrive/Documents/subject-5201996.csv","legacy","Lentiform Loewenfeld","3.3.7","yes","yes","600bd7cfb6416f0113b04181","602110864497cf011d9c0822","0","f","NA","j","j","j","j","f","752","NA","1374","11665","3391","5911","752","2","legacy","1024","2","48000","-16","task","5201996","even","NA","46970","50346","48972","171057","23221","38280","34889","171558","154987","171055","171559","170978","50346","172312","45103","167537","23175","169478","Lexical Decision Task","59","54816","60","yes","1024"
"2.843025032","0","9","pusk","non-word","98.36065573770492","98.36065573770492","909.0655737704918","909.0655737704918","black","no","legacy","legacy","legacy","0","uniform","1","undefined","undefined","undefined","1","f","0","0","0","0","60","0","0","0","60","0","56","60","56","0","56","3","60","0","60","Tue Feb 16 13:27:39 2021","The main experiment item","yes","Lexical_Decision_Task.osexp","C:/Users/myarh/OneDrive/Documents","no","Andale Mono","no","18","no","white","no","yes","576","legacy","56","56","3","C:/Users/myarh/OneDrive/Documents/subject-5201996.csv","legacy","Lentiform Loewenfeld","3.3.7","yes","yes","600bd7cfb6416f0113b04181","602110864497cf011d9c0822","0","f","NA","j","j","j","j","f","637","NA","1374","11665","3391","5911","637","2","legacy","1024","2","48000","-16","task","5201996","even","NA","46970","50346","48972","173004","23221","38280","34889","173505","154987","173002","173506","172926","50346","174144","45103","172425","23175","169478","Lexical Decision Task","60","55453","61","yes","1024"
"3.481012421","8.34","5","teen","word","98.38709677419355","98.38709677419355","903.0483870967741","903.0483870967741","black","no","legacy","legacy","legacy","0","uniform","1","undefined","undefined","undefined","1","j","0","0","0","0","61","0","0","0","61","0","57","61","57","0","57","3","61","0","61","Tue Feb 16 13:27:39 2021","The main experiment item","yes","Lexical_Decision_Task.osexp","C:/Users/myarh/OneDrive/Documents","no","Andale Mono","no","18","no","white","no","yes","576","legacy","57","57","3","C:/Users/myarh/OneDrive/Documents/subject-5201996.csv","legacy","Lentiform Loewenfeld","3.3.7","yes","yes","600bd7cfb6416f0113b04181","602110864497cf011d9c0822","0","j","NA","j","j","j","j","j","536","NA","1374","11665","3391","5911","536","2","legacy","1024","2","48000","-16","task","5201996","even","NA","46970","50346","48972","174756","23221","38280","34889","175258","154987","174754","175258","174678","50346","175796","45103","174178","23175","169478","Lexical Decision Task","61","55989","62","yes","1024"
"3.105055783","0","2","norp","non-word","98.41269841269842","98.41269841269842","899.063492063492","899.063492063492","black","no","legacy","legacy","legacy","0","uniform","1","undefined","undefined","undefined","1","f","0","0","0","0","62","0","0","0","62","0","58","62","58","0","58","3","62","0","62","Tue Feb 16 13:27:39 2021","The main experiment item","yes","Lexical_Decision_Task.osexp","C:/Users/myarh/OneDrive/Documents","no","Andale Mono","no","18","no","white","no","yes","576","legacy","58","58","3","C:/Users/myarh/OneDrive/Documents/subject-5201996.csv","legacy","Lentiform Loewenfeld","3.3.7","yes","yes","600bd7cfb6416f0113b04181","602110864497cf011d9c0822","0","f","NA","j","j","j","j","f","652","NA","1374","11665","3391","5911","652","2","legacy","1024","2","48000","-16","task","5201996","even","NA","46970","50346","48972","176491","23221","38280","34889","176994","154987","176489","176994","176415","50346","177647","45103","175915","23175","169478","Lexical Decision Task","62","56641","63","yes","1024"
"3.209246849","0","7","slem","non-word","98.4375","98.4375","895.03125","895.03125","black","no","legacy","legacy","legacy","0","uniform","1","undefined","undefined","undefined","1","f","0","0","0","0","63","0","0","0","63","0","59","63","59","0","59","3","63","0","63","Tue Feb 16 13:27:39 2021","The main experiment item","yes","Lexical_Decision_Task.osexp","C:/Users/myarh/OneDrive/Documents","no","Andale Mono","no","18","no","white","no","yes","576","legacy","59","59","3","C:/Users/myarh/OneDrive/Documents/subject-5201996.csv","legacy","Lentiform Loewenfeld","3.3.7","yes","yes","600bd7cfb6416f0113b04181","602110864497cf011d9c0822","0","f","NA","j","j","j","j","f","641","NA","1374","11665","3391","5911","641","2","legacy","1024","2","48000","-16","task","5201996","even","NA","46970","50346","48972","178284","23221","38280","34889","178786","154987","178283","178786","178208","50346","179428","45103","177708","23175","169478","Lexical Decision Task","63","57282","64","yes","1024"
"2.812467698","0","7","hafe","non-word","98.46153846153847","98.46153846153847","892.723076923077","892.723076923077","black","no","legacy","legacy","legacy","0","uniform","1","undefined","undefined","undefined","1","f","0","0","0","0","64","0","0","0","64","0","60","64","60","0","60","3","64","0","64","Tue Feb 16 13:27:39 2021","The main experiment item","yes","Lexical_Decision_Task.osexp","C:/Users/myarh/OneDrive/Documents","no","Andale Mono","no","18","no","white","no","yes","576","legacy","60","60","3","C:/Users/myarh/OneDrive/Documents/subject-5201996.csv","legacy","Lentiform Loewenfeld","3.3.7","yes","yes","600bd7cfb6416f0113b04181","602110864497cf011d9c0822","0","f","NA","j","j","j","j","f","745","NA","1374","11665","3391","5911","745","2","legacy","1024","2","48000","-16","task","5201996","even","NA","46970","50346","48972","180135","23221","38280","34889","180636","154987","180133","180637","180055","50346","181383","45103","179555","23175","169478","Lexical Decision Task","64","58027","65","yes","1024"
"2.793790385","5.67","9","swab","word","98.48484848484848","98.48484848484848","890.1212121212121","890.1212121212121","black","no","legacy","legacy","legacy","0","uniform","1","undefined","undefined","undefined","1","j","0","0","0","0","65","0","0","0","65","0","61","65","61","0","61","3","65","0","65","Tue Feb 16 13:27:39 2021","The main experiment item","yes","Lexical_Decision_Task.osexp","C:/Users/myarh/OneDrive/Documents","no","Andale Mono","no","18","no","white","no","yes","576","legacy","61","61","3","C:/Users/myarh/OneDrive/Documents/subject-5201996.csv","legacy","Lentiform Loewenfeld","3.3.7","yes","yes","600bd7cfb6416f0113b04181","602110864497cf011d9c0822","0","j","NA","j","j","j","j","j","721","NA","1374","11665","3391","5911","721","2","legacy","1024","2","48000","-16","task","5201996","even","NA","46970","50346","48972","181998","23221","38280","34889","182499","154987","181995","182500","181919","50346","183222","45103","181419","23175","169478","Lexical Decision Task","65","58748","66","yes","1024"
"2.75025376","10.2","6","jump","word","98.50746268656717","98.50746268656717","884.955223880597","884.955223880597","black","no","legacy","legacy","legacy","0","uniform","1","undefined","undefined","undefined","1","j","0","0","0","0","66","0","0","0","66","0","62","66","62","0","62","3","66","0","66","Tue Feb 16 13:27:39 2021","The main experiment item","yes","Lexical_Decision_Task.osexp","C:/Users/myarh/OneDrive/Documents","no","Andale Mono","no","18","no","white","no","yes","576","legacy","62","62","3","C:/Users/myarh/OneDrive/Documents/subject-5201996.csv","legacy","Lentiform Loewenfeld","3.3.7","yes","yes","600bd7cfb6416f0113b04181","602110864497cf011d9c0822","0","j","NA","j","j","j","j","j","544","NA","1374","11665","3391","5911","544","2","legacy","1024","2","48000","-16","task","5201996","even","NA","46970","50346","48972","183921","23221","38280","34889","184423","154987","183920","184423","183843","50346","184968","45103","183343","23175","169478","Lexical Decision Task","66","59292","67","yes","1024"
"3.302475237","0","7","leel","non-word","98.52941176470588","98.52941176470588","880.6470588235294","880.6470588235294","black","no","legacy","legacy","legacy","0","uniform","1","undefined","undefined","undefined","1","f","0","0","0","0","67","0","0","0","67","0","63","67","63","0","63","3","67","0","67","Tue Feb 16 13:27:39 2021","The main experiment item","yes","Lexical_Decision_Task.osexp","C:/Users/myarh/OneDrive/Documents","no","Andale Mono","no","18","no","white","no","yes","576","legacy","63","63","3","C:/Users/myarh/OneDrive/Documents/subject-5201996.csv","legacy","Lentiform Loewenfeld","3.3.7","yes","yes","600bd7cfb6416f0113b04181","602110864497cf011d9c0822","0","f","NA","j","j","j","j","f","592","NA","1374","11665","3391","5911","592","2","legacy","1024","2","48000","-16","task","5201996","even","NA","46970","50346","48972","185573","23221","38280","34889","186075","154987","185571","186075","185495","50346","186668","45103","184995","23175","169478","Lexical Decision Task","67","59884","68","yes","1024"
"3.311895072","0","9","gung","non-word","98.55072463768116","98.55072463768116","877.4927536231884","877.4927536231884","black","no","legacy","legacy","legacy","0","uniform","1","undefined","undefined","undefined","1","f","0","0","0","0","68","0","0","0","68","0","64","68","64","0","64","3","68","0","68","Tue Feb 16 13:27:39 2021","The main experiment item","yes","Lexical_Decision_Task.osexp","C:/Users/myarh/OneDrive/Documents","no","Andale Mono","no","18","no","white","no","yes","576","legacy","64","64","3","C:/Users/myarh/OneDrive/Documents/subject-5201996.csv","legacy","Lentiform Loewenfeld","3.3.7","yes","yes","600bd7cfb6416f0113b04181","602110864497cf011d9c0822","0","f","NA","j","j","j","j","f","663","NA","1374","11665","3391","5911","663","2","legacy","1024","2","48000","-16","task","5201996","even","NA","46970","50346","48972","187364","23221","38280","34889","187865","154987","187362","187866","187285","50346","188530","45103","186785","23175","169478","Lexical Decision Task","68","60547","69","yes","1024"
"3.705778213","0","6","stin","non-word","98.57142857142857","98.57142857142857","873.7714285714286","873.7714285714286","black","no","legacy","legacy","legacy","0","uniform","1","undefined","undefined","undefined","1","f","0","0","0","0","69","0","0","0","69","0","65","69","65","0","65","3","69","0","69","Tue Feb 16 13:27:39 2021","The main experiment item","yes","Lexical_Decision_Task.osexp","C:/Users/myarh/OneDrive/Documents","no","Andale Mono","no","18","no","white","no","yes","576","legacy","65","65","3","C:/Users/myarh/OneDrive/Documents/subject-5201996.csv","legacy","Lentiform Loewenfeld","3.3.7","yes","yes","600bd7cfb6416f0113b04181","602110864497cf011d9c0822","0","f","NA","j","j","j","j","f","617","NA","1374","11665","3391","5911","617","2","legacy","1024","2","48000","-16","task","5201996","even","NA","46970","50346","48972","189144","23221","38280","34889","189646","154987","189142","189646","189066","50346","190264","45103","188566","23175","169478","Lexical Decision Task","69","61164","70","yes","1024"
"3.529815197","0","3","lerm","non-word","98.59154929577464","98.59154929577464","869.8028169014085","869.8028169014085","black","no","legacy","legacy","legacy","0","uniform","1","undefined","undefined","undefined","1","f","0","0","0","0","70","0","0","0","70","0","66","70","66","0","66","3","70","0","70","Tue Feb 16 13:27:39 2021","The main experiment item","yes","Lexical_Decision_Task.osexp","C:/Users/myarh/OneDrive/Documents","no","Andale Mono","no","18","no","white","no","yes","576","legacy","66","66","3","C:/Users/myarh/OneDrive/Documents/subject-5201996.csv","legacy","Lentiform Loewenfeld","3.3.7","yes","yes","600bd7cfb6416f0113b04181","602110864497cf011d9c0822","0","f","NA","j","j","j","j","f","592","NA","1374","11665","3391","5911","592","2","legacy","1024","2","48000","-16","task","5201996","even","NA","46970","50346","48972","190876","23221","38280","34889","191378","154987","190874","191378","190797","50346","191972","45103","190297","23175","169478","Lexical Decision Task","70","61756","71","yes","1024"
"3.495914186","0","4","peng","non-word","97.22222222222223","97.22222222222223","865.7916666666666","865.7916666666666","black","no","legacy","legacy","legacy","0","uniform","0","undefined","undefined","undefined","0","f","0","0","0","0","71","0","0","0","71","0","67","71","67","0","67","3","71","0","71","Tue Feb 16 13:27:39 2021","The main experiment item","yes","Lexical_Decision_Task.osexp","C:/Users/myarh/OneDrive/Documents","no","Andale Mono","no","18","no","white","no","yes","576","legacy","67","67","3","C:/Users/myarh/OneDrive/Documents/subject-5201996.csv","legacy","Lentiform Loewenfeld","3.3.7","yes","yes","600bd7cfb6416f0113b04181","602110864497cf011d9c0822","0","j","NA","j","j","j","j","j","581","NA","1374","11665","3391","5911","581","2","legacy","1024","2","48000","-16","task","5201996","even","NA","46970","50346","48972","192666","23221","38280","34889","193168","154987","192664","193169","192590","50346","193751","45103","192090","23175","169478","Lexical Decision Task","70","62337","72","yes","1024"
"2.68604012","0","4","pumb","non-word","97.26027397260275","97.26027397260275","862.7945205479452","862.7945205479452","black","no","legacy","legacy","legacy","0","uniform","1","undefined","undefined","undefined","1","f","0","0","0","0","72","0","0","0","72","0","68","72","68","0","68","3","72","0","72","Tue Feb 16 13:27:39 2021","The main experiment item","yes","Lexical_Decision_Task.osexp","C:/Users/myarh/OneDrive/Documents","no","Andale Mono","no","18","no","white","no","yes","576","legacy","68","68","3","C:/Users/myarh/OneDrive/Documents/subject-5201996.csv","legacy","Lentiform Loewenfeld","3.3.7","yes","yes","600bd7cfb6416f0113b04181","602110864497cf011d9c0822","0","f","NA","j","j","j","j","f","647","NA","1374","11665","3391","5911","647","2","legacy","1024","2","48000","-16","task","5201996","even","NA","46970","50346","48972","195387","23221","38280","34889","195888","154987","195384","195888","195291","50346","196536","45103","192090","23175","193791","Lexical Decision Task","71","62984","73","yes","1024"
"3.263399331","0","8","cour","non-word","97.29729729729729","97.29729729729729","860.3378378378378","860.3378378378378","black","no","legacy","legacy","legacy","0","uniform","1","undefined","undefined","undefined","1","f","0","0","0","0","73","0","0","0","73","0","69","73","69","0","69","3","73","0","73","Tue Feb 16 13:27:39 2021","The main experiment item","yes","Lexical_Decision_Task.osexp","C:/Users/myarh/OneDrive/Documents","no","Andale Mono","no","18","no","white","no","yes","576","legacy","69","69","3","C:/Users/myarh/OneDrive/Documents/subject-5201996.csv","legacy","Lentiform Loewenfeld","3.3.7","yes","yes","600bd7cfb6416f0113b04181","602110864497cf011d9c0822","0","f","NA","j","j","j","j","f","681","NA","1374","11665","3391","5911","681","2","legacy","1024","2","48000","-16","task","5201996","even","NA","46970","50346","48972","197149","23221","38280","34889","197650","154987","197147","197651","197072","50346","198333","45103","196572","23175","193791","Lexical Decision Task","72","63665","74","yes","1024"
"2.895974732","6.65","5","sift","word","96","96","857.2133333333334","857.2133333333334","black","no","legacy","legacy","legacy","0","uniform","0","undefined","undefined","undefined","0","j","0","0","0","0","74","0","0","0","74","0","70","74","70","0","70","3","74","0","74","Tue Feb 16 13:27:39 2021","The main experiment item","yes","Lexical_Decision_Task.osexp","C:/Users/myarh/OneDrive/Documents","no","Andale Mono","no","18","no","white","no","yes","576","legacy","70","70","3","C:/Users/myarh/OneDrive/Documents/subject-5201996.csv","legacy","Lentiform Loewenfeld","3.3.7","yes","yes","600bd7cfb6416f0113b04181","602110864497cf011d9c0822","0","f","NA","j","j","j","j","f","626","NA","1374","11665","3391","5911","626","2","legacy","1024","2","48000","-16","task","5201996","even","NA","46970","50346","48972","198957","23221","38280","34889","199458","154987","198955","199459","198864","50346","200087","45103","198364","23175","193791","Lexical Decision Task","72","64291","75","yes","1024"
"2.990042563","6.64","9","plow","word","96.05263157894737","96.05263157894737","857.328947368421","857.328947368421","black","no","legacy","legacy","legacy","0","uniform","1","undefined","undefined","undefined","1","j","0","0","0","0","75","0","0","0","75","0","71","75","71","0","71","3","75","0","75","Tue Feb 16 13:27:39 2021","The main experiment item","yes","Lexical_Decision_Task.osexp","C:/Users/myarh/OneDrive/Documents","no","Andale Mono","no","18","no","white","no","yes","576","legacy","71","71","3","C:/Users/myarh/OneDrive/Documents/subject-5201996.csv","legacy","Lentiform Loewenfeld","3.3.7","yes","yes","600bd7cfb6416f0113b04181","602110864497cf011d9c0822","0","j","NA","j","j","j","j","j","866","NA","1374","11665","3391","5911","866","2","legacy","1024","2","48000","-16","task","5201996","even","NA","46970","50346","48972","201746","23221","38280","34889","202248","154987","201744","202248","201668","50346","203116","45103","198364","23175","200168","Lexical Decision Task","73","65157","76","yes","1024"
"3.216517684","10.87","3","film","word","96.1038961038961","96.1038961038961","853.0909090909091","853.0909090909091","black","no","legacy","legacy","legacy","0","uniform","1","undefined","undefined","undefined","1","j","0","0","0","0","76","0","0","0","76","0","72","76","72","0","72","3","76","0","76","Tue Feb 16 13:27:39 2021","The main experiment item","yes","Lexical_Decision_Task.osexp","C:/Users/myarh/OneDrive/Documents","no","Andale Mono","no","18","no","white","no","yes","576","legacy","72","72","3","C:/Users/myarh/OneDrive/Documents/subject-5201996.csv","legacy","Lentiform Loewenfeld","3.3.7","yes","yes","600bd7cfb6416f0113b04181","602110864497cf011d9c0822","0","j","NA","j","j","j","j","j","531","NA","1374","11665","3391","5911","531","2","legacy","1024","2","48000","-16","task","5201996","even","NA","46970","50346","48972","203813","23221","38280","34889","204314","154987","203811","204314","203736","50346","204846","45103","203235","23175","200168","Lexical Decision Task","74","65688","77","yes","1024"
"3.068433376","8.09","2","bulb","word","96.15384615384616","96.15384615384616","849.6153846153846","849.6153846153846","black","no","legacy","legacy","legacy","0","uniform","1","undefined","undefined","undefined","1","j","0","0","0","0","77","0","0","0","77","0","73","77","73","0","73","3","77","0","77","Tue Feb 16 13:27:39 2021","The main experiment item","yes","Lexical_Decision_Task.osexp","C:/Users/myarh/OneDrive/Documents","no","Andale Mono","no","18","no","white","no","yes","576","legacy","73","73","3","C:/Users/myarh/OneDrive/Documents/subject-5201996.csv","legacy","Lentiform Loewenfeld","3.3.7","yes","yes","600bd7cfb6416f0113b04181","602110864497cf011d9c0822","0","j","NA","j","j","j","j","j","582","NA","1374","11665","3391","5911","582","2","legacy","1024","2","48000","-16","task","5201996","even","NA","46970","50346","48972","205461","23221","38280","34889","205962","154987","205458","205962","205384","50346","206545","45103","204884","23175","200168","Lexical Decision Task","75","66270","78","yes","1024"
"3.077974404","10.41","8","tool","word","96.20253164556962","96.20253164556962","845.126582278481","845.126582278481","black","no","legacy","legacy","legacy","0","uniform","1","undefined","undefined","undefined","1","j","0","0","0","0","78","0","0","0","78","0","74","78","74","0","74","3","78","0","78","Tue Feb 16 13:27:39 2021","The main experiment item","yes","Lexical_Decision_Task.osexp","C:/Users/myarh/OneDrive/Documents","no","Andale Mono","no","18","no","white","no","yes","576","legacy","74","74","3","C:/Users/myarh/OneDrive/Documents/subject-5201996.csv","legacy","Lentiform Loewenfeld","3.3.7","yes","yes","600bd7cfb6416f0113b04181","602110864497cf011d9c0822","0","j","NA","j","j","j","j","j","495","NA","1374","11665","3391","5911","495","2","legacy","1024","2","48000","-16","task","5201996","even","NA","46970","50346","48972","207179","23221","38280","34889","207680","154987","207178","207681","207102","50346","208177","45103","206602","23175","200168","Lexical Decision Task","76","66765","79","yes","1024"
"2.698100546","0","9","mulk","non-word","96.25","96.25","842.95","842.95","black","no","legacy","legacy","legacy","0","uniform","1","undefined","undefined","undefined","1","f","0","0","0","0","79","0","0","0","79","0","75","79","75","0","75","3","79","0","79","Tue Feb 16 13:27:39 2021","The main experiment item","yes","Lexical_Decision_Task.osexp","C:/Users/myarh/OneDrive/Documents","no","Andale Mono","no","18","no","white","no","yes","576","legacy","75","75","3","C:/Users/myarh/OneDrive/Documents/subject-5201996.csv","legacy","Lentiform Loewenfeld","3.3.7","yes","yes","600bd7cfb6416f0113b04181","602110864497cf011d9c0822","0","f","NA","j","j","j","j","f","671","NA","1374","11665","3391","5911","671","2","legacy","1024","2","48000","-16","task","5201996","even","NA","46970","50346","48972","208788","23221","38280","34889","209289","154987","208786","209290","208710","50346","209962","45103","208209","23175","200168","Lexical Decision Task","77","67436","80","yes","1024"
"3.174641193","0","3","ramb","non-word","96.29629629629629","96.29629629629629","842.9135802469136","842.9135802469136","black","no","legacy","legacy","legacy","0","uniform","1","undefined","undefined","undefined","1","f","0","0","0","0","80","0","0","0","80","0","76","80","76","0","76","3","80","0","80","Tue Feb 16 13:27:39 2021","The main experiment item","yes","Lexical_Decision_Task.osexp","C:/Users/myarh/OneDrive/Documents","no","Andale Mono","no","18","no","white","no","yes","576","legacy","76","76","3","C:/Users/myarh/OneDrive/Documents/subject-5201996.csv","legacy","Lentiform Loewenfeld","3.3.7","yes","yes","600bd7cfb6416f0113b04181","602110864497cf011d9c0822","0","f","NA","j","j","j","j","f","840","NA","1374","11665","3391","5911","840","2","legacy","1024","2","48000","-16","task","5201996","even","NA","46970","50346","48972","210667","23221","38280","34889","211168","154987","210665","211168","210578","50346","212009","45103","210078","23175","200168","Lexical Decision Task","78","68276","81","yes","1024"
"3.121778632","0","9","sark","non-word","96.34146341463415","96.34146341463415","842.3780487804878","842.3780487804878","black","no","legacy","legacy","legacy","0","uniform","1","undefined","undefined","undefined","1","f","0","0","0","0","81","0","0","0","81","0","77","81","77","0","77","3","81","0","81","Tue Feb 16 13:27:39 2021","The main experiment item","yes","Lexical_Decision_Task.osexp","C:/Users/myarh/OneDrive/Documents","no","Andale Mono","no","18","no","white","no","yes","576","legacy","77","77","3","C:/Users/myarh/OneDrive/Documents/subject-5201996.csv","legacy","Lentiform Loewenfeld","3.3.7","yes","yes","600bd7cfb6416f0113b04181","602110864497cf011d9c0822","0","f","NA","j","j","j","j","f","799","NA","1374","11665","3391","5911","799","2","legacy","1024","2","48000","-16","task","5201996","even","NA","46970","50346","48972","212610","23221","38280","34889","213112","154987","212608","213112","212531","50346","213912","45103","212031","23175","200168","Lexical Decision Task","79","69075","82","yes","1024"
"3.208172527","10.27","7","deck","word","96.3855421686747","96.3855421686747","841.3493975903615","841.3493975903615","black","no","legacy","legacy","legacy","0","uniform","1","undefined","undefined","undefined","1","j","0","0","0","0","82","0","0","0","82","0","78","82","78","0","78","3","82","0","82","Tue Feb 16 13:27:39 2021","The main experiment item","yes","Lexical_Decision_Task.osexp","C:/Users/myarh/OneDrive/Documents","no","Andale Mono","no","18","no","white","no","yes","576","legacy","78","78","3","C:/Users/myarh/OneDrive/Documents/subject-5201996.csv","legacy","Lentiform Loewenfeld","3.3.7","yes","yes","600bd7cfb6416f0113b04181","602110864497cf011d9c0822","0","j","NA","j","j","j","j","j","757","NA","1374","11665","3391","5911","757","2","legacy","1024","2","48000","-16","task","5201996","even","NA","46970","50346","48972","214617","23221","38280","34889","215118","154987","214615","215118","214539","50346","215877","45103","214038","23175","200168","Lexical Decision Task","80","69832","83","yes","1024"
"2.880623071","0","9","curp","non-word","96.42857142857143","96.42857142857143","840.7142857142857","840.7142857142857","black","no","legacy","legacy","legacy","0","uniform","1","undefined","undefined","undefined","1","f","0","0","0","0","83","0","0","0","83","0","79","83","79","0","79","3","83","0","83","Tue Feb 16 13:27:39 2021","The main experiment item","yes","Lexical_Decision_Task.osexp","C:/Users/myarh/OneDrive/Documents","no","Andale Mono","no","18","no","white","no","yes","576","legacy","79","79","3","C:/Users/myarh/OneDrive/Documents/subject-5201996.csv","legacy","Lentiform Loewenfeld","3.3.7","yes","yes","600bd7cfb6416f0113b04181","602110864497cf011d9c0822","0","f","NA","j","j","j","j","f","788","NA","1374","11665","3391","5911","788","2","legacy","1024","2","48000","-16","task","5201996","even","NA","46970","50346","48972","216574","23221","38280","34889","217076","154987","216572","217076","216496","50346","217866","45103","215996","23175","200168","Lexical Decision Task","81","70620","84","yes","1024"
"3.137775856","7.39","5","comb","word","96.47058823529412","96.47058823529412","838.1058823529412","838.1058823529412","black","no","legacy","legacy","legacy","0","uniform","1","undefined","undefined","undefined","1","j","0","0","0","0","84","0","0","0","84","0","80","84","80","0","80","3","84","0","84","Tue Feb 16 13:27:39 2021","The main experiment item","yes","Lexical_Decision_Task.osexp","C:/Users/myarh/OneDrive/Documents","no","Andale Mono","no","18","no","white","no","yes","576","legacy","80","80","3","C:/Users/myarh/OneDrive/Documents/subject-5201996.csv","legacy","Lentiform Loewenfeld","3.3.7","yes","yes","600bd7cfb6416f0113b04181","602110864497cf011d9c0822","0","j","NA","j","j","j","j","j","619","NA","1374","11665","3391","5911","619","2","legacy","1024","2","48000","-16","task","5201996","even","NA","46970","50346","48972","218561","23221","38280","34889","219063","154987","218559","219063","218484","50346","219683","45103","217984","23175","200168","Lexical Decision Task","82","71239","85","yes","1024"
"3.043885998","0","9","gome","non-word","96.51162790697674","96.51162790697674","842.4651162790698","842.4651162790698","black","no","legacy","legacy","legacy","0","uniform","1","undefined","undefined","undefined","1","f","0","0","0","0","85","0","0","0","85","0","81","85","81","0","81","3","85","0","85","Tue Feb 16 13:27:39 2021","The main experiment item","yes","Lexical_Decision_Task.osexp","C:/Users/myarh/OneDrive/Documents","no","Andale Mono","no","18","no","white","no","yes","576","legacy","81","81","3","C:/Users/myarh/OneDrive/Documents/subject-5201996.csv","legacy","Lentiform Loewenfeld","3.3.7","yes","yes","600bd7cfb6416f0113b04181","602110864497cf011d9c0822","0","f","NA","j","j","j","j","f","1213","NA","1374","11665","3391","5911","1213","2","legacy","1024","2","48000","-16","task","5201996","even","NA","46970","50346","48972","220382","23221","38280","34889","220883","154987","220380","220883","220300","50346","222098","45103","219799","23175","200168","Lexical Decision Task","83","72452","86","yes","1024"
"3.443783828","7.65","3","verb","word","96.55172413793103","96.55172413793103","838.8045977011494","838.8045977011494","black","no","legacy","legacy","legacy","0","uniform","1","undefined","undefined","undefined","1","j","0","0","0","0","86","0","0","0","86","0","82","86","82","0","82","3","86","0","86","Tue Feb 16 13:27:39 2021","The main experiment item","yes","Lexical_Decision_Task.osexp","C:/Users/myarh/OneDrive/Documents","no","Andale Mono","no","18","no","white","no","yes","576","legacy","82","82","3","C:/Users/myarh/OneDrive/Documents/subject-5201996.csv","legacy","Lentiform Loewenfeld","3.3.7","yes","yes","600bd7cfb6416f0113b04181","602110864497cf011d9c0822","0","j","NA","j","j","j","j","j","524","NA","1374","11665","3391","5911","524","2","legacy","1024","2","48000","-16","task","5201996","even","NA","46970","50346","48972","222708","23221","38280","34889","223209","154987","222706","223209","222629","50346","223735","45103","222129","23175","200168","Lexical Decision Task","84","72976","87","yes","1024"
"2.784379519","0","2","snaf","non-word","96.5909090909091","96.5909090909091","836.7613636363636","836.7613636363636","black","no","legacy","legacy","legacy","0","uniform","1","undefined","undefined","undefined","1","f","0","0","0","0","87","0","0","0","87","0","83","87","83","0","83","3","87","0","87","Tue Feb 16 13:27:39 2021","The main experiment item","yes","Lexical_Decision_Task.osexp","C:/Users/myarh/OneDrive/Documents","no","Andale Mono","no","18","no","white","no","yes","576","legacy","83","83","3","C:/Users/myarh/OneDrive/Documents/subject-5201996.csv","legacy","Lentiform Loewenfeld","3.3.7","yes","yes","600bd7cfb6416f0113b04181","602110864497cf011d9c0822","0","f","NA","j","j","j","j","f","659","NA","1374","11665","3391","5911","659","2","legacy","1024","2","48000","-16","task","5201996","even","NA","46970","50346","48972","224350","23221","38280","34889","224852","154987","224348","224852","224270","50346","225513","45103","223770","23175","200168","Lexical Decision Task","85","73635","88","yes","1024"
"2.953276337","6.32","4","thaw","word","96.62921348314607","96.62921348314607","834.3932584269663","834.3932584269663","black","no","legacy","legacy","legacy","0","uniform","1","undefined","undefined","undefined","1","j","0","0","0","0","88","0","0","0","88","0","84","88","84","0","84","3","88","0","88","Tue Feb 16 13:27:39 2021","The main experiment item","yes","Lexical_Decision_Task.osexp","C:/Users/myarh/OneDrive/Documents","no","Andale Mono","no","18","no","white","no","yes","576","legacy","84","84","3","C:/Users/myarh/OneDrive/Documents/subject-5201996.csv","legacy","Lentiform Loewenfeld","3.3.7","yes","yes","600bd7cfb6416f0113b04181","602110864497cf011d9c0822","0","j","NA","j","j","j","j","j","626","NA","1374","11665","3391","5911","626","2","legacy","1024","2","48000","-16","task","5201996","even","NA","46970","50346","48972","226123","23221","38280","34889","226624","154987","226121","226625","226044","50346","227252","45103","225544","23175","200168","Lexical Decision Task","86","74261","89","yes","1024"
"3.384413096","10.15","3","glad","word","96.66666666666667","96.66666666666667","832.0555555555555","832.0555555555555","black","no","legacy","legacy","legacy","0","uniform","1","undefined","undefined","undefined","1","j","0","0","0","0","89","0","0","0","89","0","85","89","85","0","85","3","89","0","89","Tue Feb 16 13:27:39 2021","The main experiment item","yes","Lexical_Decision_Task.osexp","C:/Users/myarh/OneDrive/Documents","no","Andale Mono","no","18","no","white","no","yes","576","legacy","85","85","3","C:/Users/myarh/OneDrive/Documents/subject-5201996.csv","legacy","Lentiform Loewenfeld","3.3.7","yes","yes","600bd7cfb6416f0113b04181","602110864497cf011d9c0822","0","j","NA","j","j","j","j","j","624","NA","1374","11665","3391","5911","624","2","legacy","1024","2","48000","-16","task","5201996","even","NA","46970","50346","48972","228002","23221","38280","34889","228504","154987","228000","228504","227924","50346","229129","45103","227424","23175","200168","Lexical Decision Task","87","74885","90","yes","1024"
"2.920123326","7.43","4","duel","word","96.7032967032967","96.7032967032967","829.6153846153846","829.6153846153846","black","no","legacy","legacy","legacy","0","uniform","1","undefined","undefined","undefined","1","j","0","0","0","0","90","0","0","0","90","0","86","90","86","0","86","3","90","0","90","Tue Feb 16 13:27:39 2021","The main experiment item","yes","Lexical_Decision_Task.osexp","C:/Users/myarh/OneDrive/Documents","no","Andale Mono","no","18","no","white","no","yes","576","legacy","86","86","3","C:/Users/myarh/OneDrive/Documents/subject-5201996.csv","legacy","Lentiform Loewenfeld","3.3.7","yes","yes","600bd7cfb6416f0113b04181","602110864497cf011d9c0822","0","j","NA","j","j","j","j","j","610","NA","1374","11665","3391","5911","610","2","legacy","1024","2","48000","-16","task","5201996","even","NA","46970","50346","48972","229832","23221","38280","34889","230334","154987","229830","230334","229755","50346","230945","45103","229255","23175","200168","Lexical Decision Task","88","75495","91","yes","1024"
"3.29439347","8.6","9","wand","word","96.73913043478261","96.73913043478261","826.7608695652174","826.7608695652174","black","no","legacy","legacy","legacy","0","uniform","1","undefined","undefined","undefined","1","j","0","0","0","0","91","0","0","0","91","0","87","91","87","0","87","3","91","0","91","Tue Feb 16 13:27:39 2021","The main experiment item","yes","Lexical_Decision_Task.osexp","C:/Users/myarh/OneDrive/Documents","no","Andale Mono","no","18","no","white","no","yes","576","legacy","87","87","3","C:/Users/myarh/OneDrive/Documents/subject-5201996.csv","legacy","Lentiform Loewenfeld","3.3.7","yes","yes","600bd7cfb6416f0113b04181","602110864497cf011d9c0822","0","j","NA","j","j","j","j","j","567","NA","1374","11665","3391","5911","567","2","legacy","1024","2","48000","-16","task","5201996","even","NA","46970","50346","48972","231640","23221","38280","34889","232141","154987","231638","232142","231564","50346","232710","45103","231064","23175","200168","Lexical Decision Task","89","76062","92","yes","1024"
"3.149629599","0","2","cleb","non-word","96.7741935483871","96.7741935483871","825.5913978494624","825.5913978494624","black","no","legacy","legacy","legacy","0","uniform","1","undefined","undefined","undefined","1","f","0","0","0","0","92","0","0","0","92","0","88","92","88","0","88","3","92","0","92","Tue Feb 16 13:27:39 2021","The main experiment item","yes","Lexical_Decision_Task.osexp","C:/Users/myarh/OneDrive/Documents","no","Andale Mono","no","18","no","white","no","yes","576","legacy","88","88","3","C:/Users/myarh/OneDrive/Documents/subject-5201996.csv","legacy","Lentiform Loewenfeld","3.3.7","yes","yes","600bd7cfb6416f0113b04181","602110864497cf011d9c0822","0","f","NA","j","j","j","j","f","718","NA","1374","11665","3391","5911","718","2","legacy","1024","2","48000","-16","task","5201996","even","NA","46970","50346","48972","233316","23221","38280","34889","233817","154987","233314","233818","233236","50346","234537","45103","232736","23175","200168","Lexical Decision Task","90","76780","93","yes","1024"
"3.037294994","8.64","7","roof","word","96.80851063829788","96.80851063829788","822.3936170212766","822.3936170212766","black","no","legacy","legacy","legacy","0","uniform","1","undefined","undefined","undefined","1","j","0","0","0","0","93","0","0","0","93","0","89","93","89","0","89","3","93","0","93","Tue Feb 16 13:27:39 2021","The main experiment item","yes","Lexical_Decision_Task.osexp","C:/Users/myarh/OneDrive/Documents","no","Andale Mono","no","18","no","white","no","yes","576","legacy","89","89","3","C:/Users/myarh/OneDrive/Documents/subject-5201996.csv","legacy","Lentiform Loewenfeld","3.3.7","yes","yes","600bd7cfb6416f0113b04181","602110864497cf011d9c0822","0","j","NA","j","j","j","j","j","525","NA","1374","11665","3391","5911","525","2","legacy","1024","2","48000","-16","task","5201996","even","NA","46970","50346","48972","235226","23221","38280","34889","235727","154987","235224","235727","235149","50346","236253","45103","234649","23175","200168","Lexical Decision Task","91","77305","94","yes","1024"
"3.153104174","10.89","6","door","word","96.84210526315789","96.84210526315789","819.9894736842106","819.9894736842106","black","no","legacy","legacy","legacy","0","uniform","1","undefined","undefined","undefined","1","j","0","0","0","0","94","0","0","0","94","0","90","94","90","0","90","3","94","0","94","Tue Feb 16 13:27:39 2021","The main experiment item","yes","Lexical_Decision_Task.osexp","C:/Users/myarh/OneDrive/Documents","no","Andale Mono","no","18","no","white","no","yes","576","legacy","90","90","3","C:/Users/myarh/OneDrive/Documents/subject-5201996.csv","legacy","Lentiform Loewenfeld","3.3.7","yes","yes","600bd7cfb6416f0113b04181","602110864497cf011d9c0822","0","j","NA","j","j","j","j","j","594","NA","1374","11665","3391","5911","594","2","legacy","1024","2","48000","-16","task","5201996","even","NA","46970","50346","48972","236947","23221","38280","34889","237449","154987","236944","237449","236869","50346","238045","45103","236368","23175","200168","Lexical Decision Task","92","77899","95","yes","1024"
"3.064581521","5.51","6","cask","word","96.875","96.875","818.9791666666666","818.9791666666666","black","no","legacy","legacy","legacy","0","uniform","1","undefined","undefined","undefined","1","j","0","0","0","0","95","0","0","0","95","0","91","95","91","0","91","3","95","0","95","Tue Feb 16 13:27:39 2021","The main experiment item","yes","Lexical_Decision_Task.osexp","C:/Users/myarh/OneDrive/Documents","no","Andale Mono","no","18","no","white","no","yes","576","legacy","91","91","3","C:/Users/myarh/OneDrive/Documents/subject-5201996.csv","legacy","Lentiform Loewenfeld","3.3.7","yes","yes","600bd7cfb6416f0113b04181","602110864497cf011d9c0822","0","j","NA","j","j","j","j","j","723","NA","1374","11665","3391","5911","723","2","legacy","1024","2","48000","-16","task","5201996","even","NA","46970","50346","48972","238678","23221","38280","34889","239180","154987","238676","239180","238601","50346","239904","45103","238101","23175","200168","Lexical Decision Task","93","78622","96","yes","1024"
"3.076883066","0","8","mout","non-word","96.90721649484536","96.90721649484536","816.7628865979382","816.7628865979382","black","no","legacy","legacy","legacy","0","uniform","1","undefined","undefined","undefined","1","f","0","0","0","0","96","0","0","0","96","0","92","96","92","0","92","3","96","0","96","Tue Feb 16 13:27:39 2021","The main experiment item","yes","Lexical_Decision_Task.osexp","C:/Users/myarh/OneDrive/Documents","no","Andale Mono","no","18","no","white","no","yes","576","legacy","92","92","3","C:/Users/myarh/OneDrive/Documents/subject-5201996.csv","legacy","Lentiform Loewenfeld","3.3.7","yes","yes","600bd7cfb6416f0113b04181","602110864497cf011d9c0822","0","f","NA","j","j","j","j","f","604","NA","1374","11665","3391","5911","604","2","legacy","1024","2","48000","-16","task","5201996","even","NA","46970","50346","48972","240506","23221","38280","34889","241007","154987","240505","241008","240427","50346","241613","45103","239927","23175","200168","Lexical Decision Task","94","79226","97","yes","1024"
"2.813801082","5.47","7","nook","word","95.91836734693878","95.91836734693878","815.765306122449","815.765306122449","black","no","legacy","legacy","legacy","0","uniform","0","undefined","undefined","undefined","0","j","0","0","0","0","97","0","0","0","97","0","93","97","93","0","93","3","97","0","97","Tue Feb 16 13:27:39 2021","The main experiment item","yes","Lexical_Decision_Task.osexp","C:/Users/myarh/OneDrive/Documents","no","Andale Mono","no","18","no","white","no","yes","576","legacy","93","93","3","C:/Users/myarh/OneDrive/Documents/subject-5201996.csv","legacy","Lentiform Loewenfeld","3.3.7","yes","yes","600bd7cfb6416f0113b04181","602110864497cf011d9c0822","0","f","NA","j","j","j","j","f","719","NA","1374","11665","3391","5911","719","2","legacy","1024","2","48000","-16","task","5201996","even","NA","46970","50346","48972","242314","23221","38280","34889","242816","154987","242312","242816","242235","50346","243537","45103","241735","23175","200168","Lexical Decision Task","94","79945","98","yes","1024"
"3.16326079","0","5","parg","non-word","95.95959595959596","95.95959595959596","815.5050505050505","815.5050505050505","black","no","legacy","legacy","legacy","0","uniform","1","undefined","undefined","undefined","1","f","0","0","0","0","98","0","0","0","98","0","94","98","94","0","94","3","98","0","98","Tue Feb 16 13:27:39 2021","The main experiment item","yes","Lexical_Decision_Task.osexp","C:/Users/myarh/OneDrive/Documents","no","Andale Mono","no","18","no","white","no","yes","576","legacy","94","94","3","C:/Users/myarh/OneDrive/Documents/subject-5201996.csv","legacy","Lentiform Loewenfeld","3.3.7","yes","yes","600bd7cfb6416f0113b04181","602110864497cf011d9c0822","0","f","NA","j","j","j","j","f","790","NA","1374","11665","3391","5911","790","2","legacy","1024","2","48000","-16","task","5201996","even","NA","46970","50346","48972","245238","23221","38280","34889","245739","154987","245236","245740","245155","50346","246532","45103","241735","23175","243655","Lexical Decision Task","95","80735","99","yes","1024"
"3.225825991","0","7","talm","non-word","96","96","814.94","814.94","black","no","legacy","legacy","legacy","0","uniform","1","undefined","undefined","undefined","1","f","0","0","0","0","99","0","0","0","99","0","95","99","95","0","95","3","99","0","99","Tue Feb 16 13:27:39 2021","The main experiment item","yes","Lexical_Decision_Task.osexp","C:/Users/myarh/OneDrive/Documents","no","Andale Mono","no","18","no","white","no","yes","576","legacy","95","95","3","C:/Users/myarh/OneDrive/Documents/subject-5201996.csv","legacy","Lentiform Loewenfeld","3.3.7","yes","yes","600bd7cfb6416f0113b04181","602110864497cf011d9c0822","0","f","NA","j","j","j","j","f","759","NA","1374","11665","3391","5911","759","2","legacy","1024","2","48000","-16","task","5201996","even","NA","46970","50346","48972","247225","23221","38280","34889","247727","154987","247223","247727","247146","50346","248487","45103","246646","23175","243655","Lexical Decision Task","96","81494","100","yes","1024"
"2.819763221","0","2","durp","non-word","96.03960396039604","96.03960396039604","813.6039603960396","813.6039603960396","black","no","legacy","legacy","legacy","0","uniform","1","undefined","undefined","undefined","1","f","0","0","0","0","100","0","0","0","100","0","96","100","96","0","96","3","100","0","100","Tue Feb 16 13:27:39 2021","The main experiment item","yes","Lexical_Decision_Task.osexp","C:/Users/myarh/OneDrive/Documents","no","Andale Mono","no","18","no","white","no","yes","576","legacy","96","96","3","C:/Users/myarh/OneDrive/Documents/subject-5201996.csv","legacy","Lentiform Loewenfeld","3.3.7","yes","yes","600bd7cfb6416f0113b04181","602110864497cf011d9c0822","0","f","NA","j","j","j","j","f","680","NA","1374","11665","3391","5911","680","2","legacy","1024","2","48000","-16","task","5201996","even","NA","46970","50346","48972","249188","23221","38280","34889","249690","154987","249186","249690","249109","50346","250372","45103","248608","23175","243655","Lexical Decision Task","97","82174","101","yes","1024"
