"Log_BG","Log_Freq_HAL","Ortho_N","Stimulus","Type","acc","accuracy","average_response_time","avg_rt","background","bidi","canvas_backend","clock_backend","color_backend","compensation","coordinates","correct","correct_Experimental_intro","correct_Introduction","correct_Practice_intro","correct_experimenter_kb","correct_response","count_End_Of_Experiment","count_End_Of_Practice","count_Experimental_Loop","count_Experimental_intro","count_Fixation","count_Introduction","count_Practice_Loop","count_Practice_intro","count_Stimulus","count_block_break_feedback","count_experimental_sequence","count_experimenter_kb","count_increment_trial_count","count_init_trial_count","count_logger","count_practice_sequence","count_right","count_task","count_wrong","datetime","description","disable_garbage_collection","experiment_file","experiment_path","font_bold","font_family","font_italic","font_size","font_underline","foreground","form_clicks","fullscreen","height","keyboard_backend","live_row","live_row_Experimental_Loop","live_row_Practice_Loop","logfile","mouse_backend","opensesame_codename","opensesame_version","osf_always_upload_data","osf_always_upload_experiment","osf_datanode_id","osf_id","repeat_cycle","response","response_End_Of_Experiment","response_Experimental_intro","response_Introduction","response_Practice_intro","response_block_break_feedback","response_experimenter_kb","response_time","response_time_End_Of_Experiment","response_time_Experimental_intro","response_time_Introduction","response_time_Practice_intro","response_time_block_break_feedback","response_time_experimenter_kb","round_decimals","sampler_backend","sound_buf_size","sound_channels","sound_freq","sound_sample_size","start","subject_nr","subject_parity","time_End_Of_Experiment","time_End_Of_Practice","time_Experimental_Loop","time_Experimental_intro","time_Fixation","time_Introduction","time_Practice_Loop","time_Practice_intro","time_Stimulus","time_block_break_feedback","time_experimental_sequence","time_experimenter_kb","time_increment_trial_count","time_init_trial_count","time_logger","time_practice_sequence","time_right","time_task","time_wrong","title","total_correct","total_response_time","total_responses","uniform_coordinates","width"
"2.86332286","6.71","2","feud","word","100","100","728.6","728.6","black","no","legacy","legacy","legacy","0","uniform","1","undefined","undefined","undefined","1","j","0","0","0","0","4","0","0","0","4","NA","0","4","0","0","0","3","4","0","4","Fri Feb 19 12:27:14 2021","The main experiment item","yes","Lexical_Decision_Task.osexp","/Users/emma/Desktop","no","Andale Mono","no","18","no","white","no","yes","576","legacy","0","0","3","/Users/emma/Desktop/subject-5210288.csv","legacy","Lentiform Loewenfeld","3.3.7","yes","yes","600bd7cfb6416f0113b04181","602110864497cf011d9c0822","0","j","NA","space","space","space","NA","j","717","NA","1901","15586","5698","NA","717","2","legacy","1024","2","48000","-16","task","5210288","even","NA","35114","39019","37118","39049","6604","27910","22207","39552","NA","39047","39553","NA","39019","40271","33450","34586","6560","NA","Lexical Decision Task","5","3643","5","yes","1024"
"3.067193647","6.73","6","raft","word","100","100","716","716","black","no","legacy","legacy","legacy","0","uniform","1","undefined","undefined","undefined","1","j","0","0","0","0","5","0","0","0","5","NA","1","5","1","0","1","3","5","0","5","Fri Feb 19 12:27:14 2021","The main experiment item","yes","Lexical_Decision_Task.osexp","/Users/emma/Desktop","no","Andale Mono","no","18","no","white","no","yes","576","legacy","1","1","3","/Users/emma/Desktop/subject-5210288.csv","legacy","Lentiform Loewenfeld","3.3.7","yes","yes","600bd7cfb6416f0113b04181","602110864497cf011d9c0822","0","j","NA","space","space","space","NA","j","653","NA","1901","15586","5698","NA","653","2","legacy","1024","2","48000","-16","task","5210288","even","NA","35114","39019","37118","40841","6604","27910","22207","41344","NA","40838","41344","40780","39019","41998","33450","40279","6560","NA","Lexical Decision Task","6","4296","6","yes","1024"
"2.899092422","7.27","6","snag","word","100","100","728.4285714285714","728.4285714285714","black","no","legacy","legacy","legacy","0","uniform","1","undefined","undefined","undefined","1","j","0","0","0","0","6","0","0","0","6","NA","2","6","2","0","2","3","6","0","6","Fri Feb 19 12:27:14 2021","The main experiment item","yes","Lexical_Decision_Task.osexp","/Users/emma/Desktop","no","Andale Mono","no","18","no","white","no","yes","576","legacy","2","2","3","/Users/emma/Desktop/subject-5210288.csv","legacy","Lentiform Loewenfeld","3.3.7","yes","yes","600bd7cfb6416f0113b04181","602110864497cf011d9c0822","0","j","NA","space","space","space","NA","j","803","NA","1901","15586","5698","NA","803","2","legacy","1024","2","48000","-16","task","5210288","even","NA","35114","39019","37118","42559","6604","27910","22207","43062","NA","42556","43062","42503","39019","43866","33450","42003","6560","NA","Lexical Decision Task","7","5099","7","yes","1024"
"2.693726949","5.08","3","swig","word","100","100","702.625","702.625","black","no","legacy","legacy","legacy","0","uniform","1","undefined","undefined","undefined","1","j","0","0","0","0","7","0","0","0","7","NA","3","7","3","0","3","3","7","0","7","Fri Feb 19 12:27:14 2021","The main experiment item","yes","Lexical_Decision_Task.osexp","/Users/emma/Desktop","no","Andale Mono","no","18","no","white","no","yes","576","legacy","3","3","3","/Users/emma/Desktop/subject-5210288.csv","legacy","Lentiform Loewenfeld","3.3.7","yes","yes","600bd7cfb6416f0113b04181","602110864497cf011d9c0822","0","j","NA","space","space","space","NA","j","522","NA","1901","15586","5698","NA","522","2","legacy","1024","2","48000","-16","task","5210288","even","NA","35114","39019","37118","44428","6604","27910","22207","44930","NA","44425","44931","44371","39019","45454","33450","43871","6560","NA","Lexical Decision Task","8","5621","8","yes","1024"
"3.374198258","0","8","vist","non-word","100","100","696.8888888888889","696.8888888888889","black","no","legacy","legacy","legacy","0","uniform","1","undefined","undefined","undefined","1","f","0","0","0","0","8","0","0","0","8","NA","4","8","4","0","4","3","8","0","8","Fri Feb 19 12:27:14 2021","The main experiment item","yes","Lexical_Decision_Task.osexp","/Users/emma/Desktop","no","Andale Mono","no","18","no","white","no","yes","576","legacy","4","4","3","/Users/emma/Desktop/subject-5210288.csv","legacy","Lentiform Loewenfeld","3.3.7","yes","yes","600bd7cfb6416f0113b04181","602110864497cf011d9c0822","0","f","NA","space","space","space","NA","f","651","NA","1901","15586","5698","NA","651","2","legacy","1024","2","48000","-16","task","5210288","even","NA","35114","39019","37118","46017","6604","27910","22207","46520","NA","46014","46520","45960","39019","47172","33450","45460","6560","NA","Lexical Decision Task","9","6272","9","yes","1024"
"3.1430148","7.92","8","bald","word","100","100","682.7","682.7","black","no","legacy","legacy","legacy","0","uniform","1","undefined","undefined","undefined","1","j","0","0","0","0","9","0","0","0","9","NA","5","9","5","0","5","3","9","0","9","Fri Feb 19 12:27:14 2021","The main experiment item","yes","Lexical_Decision_Task.osexp","/Users/emma/Desktop","no","Andale Mono","no","18","no","white","no","yes","576","legacy","5","5","3","/Users/emma/Desktop/subject-5210288.csv","legacy","Lentiform Loewenfeld","3.3.7","yes","yes","600bd7cfb6416f0113b04181","602110864497cf011d9c0822","0","j","NA","space","space","space","NA","j","555","NA","1901","15586","5698","NA","555","2","legacy","1024","2","48000","-16","task","5210288","even","NA","35114","39019","37118","47733","6604","27910","22207","48237","NA","47731","48237","47677","39019","48793","33450","47177","6560","NA","Lexical Decision Task","10","6827","10","yes","1024"
"2.755364069","7.72","2","hoax","word","100","100","672.5454545454545","672.5454545454545","black","no","legacy","legacy","legacy","0","uniform","1","undefined","undefined","undefined","1","j","0","0","0","0","10","0","0","0","10","NA","6","10","6","0","6","3","10","0","10","Fri Feb 19 12:27:14 2021","The main experiment item","yes","Lexical_Decision_Task.osexp","/Users/emma/Desktop","no","Andale Mono","no","18","no","white","no","yes","576","legacy","6","6","3","/Users/emma/Desktop/subject-5210288.csv","legacy","Lentiform Loewenfeld","3.3.7","yes","yes","600bd7cfb6416f0113b04181","602110864497cf011d9c0822","0","j","NA","space","space","space","NA","j","571","NA","1901","15586","5698","NA","571","2","legacy","1024","2","48000","-16","task","5210288","even","NA","35114","39019","37118","49355","6604","27910","22207","49859","NA","49352","49859","49298","39019","50431","33450","48798","6560","NA","Lexical Decision Task","11","7398","11","yes","1024"
"2.842815106","7.86","8","lump","word","100","100","659.1666666666666","659.1666666666666","black","no","legacy","legacy","legacy","0","uniform","1","undefined","undefined","undefined","1","j","0","0","0","0","11","0","0","0","11","NA","7","11","7","0","7","3","11","0","11","Fri Feb 19 12:27:14 2021","The main experiment item","yes","Lexical_Decision_Task.osexp","/Users/emma/Desktop","no","Andale Mono","no","18","no","white","no","yes","576","legacy","7","7","3","/Users/emma/Desktop/subject-5210288.csv","legacy","Lentiform Loewenfeld","3.3.7","yes","yes","600bd7cfb6416f0113b04181","602110864497cf011d9c0822","0","j","NA","space","space","space","NA","j","512","NA","1901","15586","5698","NA","512","2","legacy","1024","2","48000","-16","task","5210288","even","NA","35114","39019","37118","50993","6604","27910","22207","51496","NA","50990","51496","50936","39019","52009","33450","50436","6560","NA","Lexical Decision Task","12","7910","12","yes","1024"
"2.709837904","6.85","8","skim","word","100","100","643.5384615384615","643.5384615384615","black","no","legacy","legacy","legacy","0","uniform","1","undefined","undefined","undefined","1","j","0","0","0","0","12","0","0","0","12","NA","8","12","8","0","8","3","12","0","12","Fri Feb 19 12:27:14 2021","The main experiment item","yes","Lexical_Decision_Task.osexp","/Users/emma/Desktop","no","Andale Mono","no","18","no","white","no","yes","576","legacy","8","8","3","/Users/emma/Desktop/subject-5210288.csv","legacy","Lentiform Loewenfeld","3.3.7","yes","yes","600bd7cfb6416f0113b04181","602110864497cf011d9c0822","0","j","NA","space","space","space","NA","j","456","NA","1901","15586","5698","NA","456","2","legacy","1024","2","48000","-16","task","5210288","even","NA","35114","39019","37118","52572","6604","27910","22207","53075","NA","52568","53075","52514","39019","53532","33450","52014","6560","NA","Lexical Decision Task","13","8366","13","yes","1024"
"2.80048796","0","8","pife","non-word","100","100","641.4285714285714","641.4285714285714","black","no","legacy","legacy","legacy","0","uniform","1","undefined","undefined","undefined","1","f","0","0","0","0","13","0","0","0","13","NA","9","13","9","0","9","3","13","0","13","Fri Feb 19 12:27:14 2021","The main experiment item","yes","Lexical_Decision_Task.osexp","/Users/emma/Desktop","no","Andale Mono","no","18","no","white","no","yes","576","legacy","9","9","3","/Users/emma/Desktop/subject-5210288.csv","legacy","Lentiform Loewenfeld","3.3.7","yes","yes","600bd7cfb6416f0113b04181","602110864497cf011d9c0822","0","f","NA","space","space","space","NA","f","614","NA","1901","15586","5698","NA","614","2","legacy","1024","2","48000","-16","task","5210288","even","NA","35114","39019","37118","54094","6604","27910","22207","54597","NA","54091","54597","54038","39019","55212","33450","53537","6560","NA","Lexical Decision Task","14","8980","14","yes","1024"
"3.153001286","8.7","5","palm","word","100","100","633.6666666666666","633.6666666666666","black","no","legacy","legacy","legacy","0","uniform","1","undefined","undefined","undefined","1","j","0","0","0","0","14","0","0","0","14","NA","10","14","10","0","10","3","14","0","14","Fri Feb 19 12:27:14 2021","The main experiment item","yes","Lexical_Decision_Task.osexp","/Users/emma/Desktop","no","Andale Mono","no","18","no","white","no","yes","576","legacy","10","10","3","/Users/emma/Desktop/subject-5210288.csv","legacy","Lentiform Loewenfeld","3.3.7","yes","yes","600bd7cfb6416f0113b04181","602110864497cf011d9c0822","0","j","NA","space","space","space","NA","j","525","NA","1901","15586","5698","NA","525","2","legacy","1024","2","48000","-16","task","5210288","even","NA","35114","39019","37118","55773","6604","27910","22207","56276","NA","55770","56276","55717","39019","56801","33450","55217","6560","NA","Lexical Decision Task","15","9505","15","yes","1024"
"3.303771854","0","9","dath","non-word","100","100","634","634","black","no","legacy","legacy","legacy","0","uniform","1","undefined","undefined","undefined","1","f","0","0","0","0","15","0","0","0","15","NA","11","15","11","0","11","3","15","0","15","Fri Feb 19 12:27:14 2021","The main experiment item","yes","Lexical_Decision_Task.osexp","/Users/emma/Desktop","no","Andale Mono","no","18","no","white","no","yes","576","legacy","11","11","3","/Users/emma/Desktop/subject-5210288.csv","legacy","Lentiform Loewenfeld","3.3.7","yes","yes","600bd7cfb6416f0113b04181","602110864497cf011d9c0822","0","f","NA","space","space","space","NA","f","639","NA","1901","15586","5698","NA","639","2","legacy","1024","2","48000","-16","task","5210288","even","NA","35114","39019","37118","57364","6604","27910","22207","57867","NA","57361","57868","57307","39019","58508","33450","56807","6560","NA","Lexical Decision Task","16","10144","16","yes","1024"
"3.263399331","0","8","cour","non-word","100","100","645.7647058823529","645.7647058823529","black","no","legacy","legacy","legacy","0","uniform","1","undefined","undefined","undefined","1","f","0","0","0","0","16","0","0","0","16","NA","12","16","12","0","12","3","16","0","16","Fri Feb 19 12:27:14 2021","The main experiment item","yes","Lexical_Decision_Task.osexp","/Users/emma/Desktop","no","Andale Mono","no","18","no","white","no","yes","576","legacy","12","12","3","/Users/emma/Desktop/subject-5210288.csv","legacy","Lentiform Loewenfeld","3.3.7","yes","yes","600bd7cfb6416f0113b04181","602110864497cf011d9c0822","0","f","NA","space","space","space","NA","f","834","NA","1901","15586","5698","NA","834","2","legacy","1024","2","48000","-16","task","5210288","even","NA","35114","39019","37118","59069","6604","27910","22207","59571","NA","59066","59571","59013","39019","60405","33450","58513","6560","NA","Lexical Decision Task","17","10978","17","yes","1024"
"2.971428938","9.86","7","spot","word","100","100","636.7777777777778","636.7777777777778","black","no","legacy","legacy","legacy","0","uniform","1","undefined","undefined","undefined","1","j","0","0","0","0","17","0","0","0","17","NA","13","17","13","0","13","3","17","0","17","Fri Feb 19 12:27:14 2021","The main experiment item","yes","Lexical_Decision_Task.osexp","/Users/emma/Desktop","no","Andale Mono","no","18","no","white","no","yes","576","legacy","13","13","3","/Users/emma/Desktop/subject-5210288.csv","legacy","Lentiform Loewenfeld","3.3.7","yes","yes","600bd7cfb6416f0113b04181","602110864497cf011d9c0822","0","j","NA","space","space","space","NA","j","484","NA","1901","15586","5698","NA","484","2","legacy","1024","2","48000","-16","task","5210288","even","NA","35114","39019","37118","60968","6604","27910","22207","61470","NA","60965","61470","60911","39019","61954","33450","60411","6560","NA","Lexical Decision Task","18","11462","18","yes","1024"
"3.257359335","8","6","brew","word","100","100","636.7894736842105","636.7894736842105","black","no","legacy","legacy","legacy","0","uniform","1","undefined","undefined","undefined","1","j","0","0","0","0","18","0","0","0","18","NA","14","18","14","0","14","3","18","0","18","Fri Feb 19 12:27:14 2021","The main experiment item","yes","Lexical_Decision_Task.osexp","/Users/emma/Desktop","no","Andale Mono","no","18","no","white","no","yes","576","legacy","14","14","3","/Users/emma/Desktop/subject-5210288.csv","legacy","Lentiform Loewenfeld","3.3.7","yes","yes","600bd7cfb6416f0113b04181","602110864497cf011d9c0822","0","j","NA","space","space","space","NA","j","637","NA","1901","15586","5698","NA","637","2","legacy","1024","2","48000","-16","task","5210288","even","NA","35114","39019","37118","62518","6604","27910","22207","63021","NA","62514","63021","62459","39019","63659","33450","61959","6560","NA","Lexical Decision Task","19","12099","19","yes","1024"
"3.091901331","0","9","nipe","non-word","100","100","628","628","black","no","legacy","legacy","legacy","0","uniform","1","undefined","undefined","undefined","1","f","0","0","0","0","19","0","0","0","19","NA","15","19","15","0","15","3","19","0","19","Fri Feb 19 12:27:14 2021","The main experiment item","yes","Lexical_Decision_Task.osexp","/Users/emma/Desktop","no","Andale Mono","no","18","no","white","no","yes","576","legacy","15","15","3","/Users/emma/Desktop/subject-5210288.csv","legacy","Lentiform Loewenfeld","3.3.7","yes","yes","600bd7cfb6416f0113b04181","602110864497cf011d9c0822","0","f","NA","space","space","space","NA","f","461","NA","1901","15586","5698","NA","461","2","legacy","1024","2","48000","-16","task","5210288","even","NA","35114","39019","37118","64222","6604","27910","22207","64725","NA","64219","64725","64165","39019","65186","33450","63665","6560","NA","Lexical Decision Task","20","12560","20","yes","1024"
"3.168400243","9.12","6","horn","word","100","100","618","618","black","no","legacy","legacy","legacy","0","uniform","1","undefined","undefined","undefined","1","j","0","0","0","0","20","0","0","0","20","NA","16","20","16","0","16","3","20","0","20","Fri Feb 19 12:27:14 2021","The main experiment item","yes","Lexical_Decision_Task.osexp","/Users/emma/Desktop","no","Andale Mono","no","18","no","white","no","yes","576","legacy","16","16","3","/Users/emma/Desktop/subject-5210288.csv","legacy","Lentiform Loewenfeld","3.3.7","yes","yes","600bd7cfb6416f0113b04181","602110864497cf011d9c0822","0","j","NA","space","space","space","NA","j","418","NA","1901","15586","5698","NA","418","2","legacy","1024","2","48000","-16","task","5210288","even","NA","35114","39019","37118","65749","6604","27910","22207","66252","NA","65746","66252","65692","39019","66670","33450","65191","6560","NA","Lexical Decision Task","21","12978","21","yes","1024"
"3.374137706","10.21","4","tree","word","100","100","611.9090909090909","611.9090909090909","black","no","legacy","legacy","legacy","0","uniform","1","undefined","undefined","undefined","1","j","0","0","0","0","21","0","0","0","21","NA","17","21","17","0","17","3","21","0","21","Fri Feb 19 12:27:14 2021","The main experiment item","yes","Lexical_Decision_Task.osexp","/Users/emma/Desktop","no","Andale Mono","no","18","no","white","no","yes","576","legacy","17","17","3","/Users/emma/Desktop/subject-5210288.csv","legacy","Lentiform Loewenfeld","3.3.7","yes","yes","600bd7cfb6416f0113b04181","602110864497cf011d9c0822","0","j","NA","space","space","space","NA","j","484","NA","1901","15586","5698","NA","484","2","legacy","1024","2","48000","-16","task","5210288","even","NA","35114","39019","37118","67232","6604","27910","22207","67735","NA","67229","67735","67176","39019","68219","33450","66676","6560","NA","Lexical Decision Task","22","13462","22","yes","1024"
"2.746890964","9.67","3","plug","word","100","100","610.9130434782609","610.9130434782609","black","no","legacy","legacy","legacy","0","uniform","1","undefined","undefined","undefined","1","j","0","0","0","0","22","0","0","0","22","NA","18","22","18","0","18","3","22","0","22","Fri Feb 19 12:27:14 2021","The main experiment item","yes","Lexical_Decision_Task.osexp","/Users/emma/Desktop","no","Andale Mono","no","18","no","white","no","yes","576","legacy","18","18","3","/Users/emma/Desktop/subject-5210288.csv","legacy","Lentiform Loewenfeld","3.3.7","yes","yes","600bd7cfb6416f0113b04181","602110864497cf011d9c0822","0","j","NA","space","space","space","NA","j","589","NA","1901","15586","5698","NA","589","2","legacy","1024","2","48000","-16","task","5210288","even","NA","35114","39019","37118","68781","6604","27910","22207","69284","NA","68778","69284","68724","39019","69874","33450","68224","6560","NA","Lexical Decision Task","23","14051","23","yes","1024"
"2.9737419","7.69","7","claw","word","100","100","603.375","603.375","black","no","legacy","legacy","legacy","0","uniform","1","undefined","undefined","undefined","1","j","0","0","0","0","23","0","0","0","23","NA","19","23","19","0","19","3","23","0","23","Fri Feb 19 12:27:14 2021","The main experiment item","yes","Lexical_Decision_Task.osexp","/Users/emma/Desktop","no","Andale Mono","no","18","no","white","no","yes","576","legacy","19","19","3","/Users/emma/Desktop/subject-5210288.csv","legacy","Lentiform Loewenfeld","3.3.7","yes","yes","600bd7cfb6416f0113b04181","602110864497cf011d9c0822","0","j","NA","space","space","space","NA","j","430","NA","1901","15586","5698","NA","430","2","legacy","1024","2","48000","-16","task","5210288","even","NA","35114","39019","37118","70437","6604","27910","22207","70941","NA","70433","70941","70379","39019","71372","33450","69879","6560","NA","Lexical Decision Task","24","14481","24","yes","1024"
"3.274157849","0","8","leet","non-word","100","100","604.84","604.84","black","no","legacy","legacy","legacy","0","uniform","1","undefined","undefined","undefined","1","f","0","0","0","0","24","0","0","0","24","NA","20","24","20","0","20","3","24","0","24","Fri Feb 19 12:27:14 2021","The main experiment item","yes","Lexical_Decision_Task.osexp","/Users/emma/Desktop","no","Andale Mono","no","18","no","white","no","yes","576","legacy","20","20","3","/Users/emma/Desktop/subject-5210288.csv","legacy","Lentiform Loewenfeld","3.3.7","yes","yes","600bd7cfb6416f0113b04181","602110864497cf011d9c0822","0","f","NA","space","space","space","NA","f","640","NA","1901","15586","5698","NA","640","2","legacy","1024","2","48000","-16","task","5210288","even","NA","35114","39019","37118","71934","6604","27910","22207","72437","NA","71931","72437","71877","39019","73077","33450","71377","6560","NA","Lexical Decision Task","25","15121","25","yes","1024"
"3.043885998","0","9","gome","non-word","100","100","618.3846153846154","618.3846153846154","black","no","legacy","legacy","legacy","0","uniform","1","undefined","undefined","undefined","1","f","0","0","0","0","25","0","0","0","25","NA","21","25","21","0","21","3","25","0","25","Fri Feb 19 12:27:14 2021","The main experiment item","yes","Lexical_Decision_Task.osexp","/Users/emma/Desktop","no","Andale Mono","no","18","no","white","no","yes","576","legacy","21","21","3","/Users/emma/Desktop/subject-5210288.csv","legacy","Lentiform Loewenfeld","3.3.7","yes","yes","600bd7cfb6416f0113b04181","602110864497cf011d9c0822","0","f","NA","space","space","space","NA","f","957","NA","1901","15586","5698","NA","957","2","legacy","1024","2","48000","-16","task","5210288","even","NA","35114","39019","37118","73639","6604","27910","22207","74142","NA","73636","74142","73583","39019","75100","33450","73082","6560","NA","Lexical Decision Task","26","16078","26","yes","1024"
"2.576725172","0","8","gowl","non-word","96.29629629629629","96.29629629629629","625.7777777777778","625.7777777777778","black","no","legacy","legacy","legacy","0","uniform","0","undefined","undefined","undefined","0","f","0","0","0","0","26","0","0","0","26","NA","22","26","22","0","22","3","26","0","26","Fri Feb 19 12:27:14 2021","The main experiment item","yes","Lexical_Decision_Task.osexp","/Users/emma/Desktop","no","Andale Mono","no","18","no","white","no","yes","576","legacy","22","22","3","/Users/emma/Desktop/subject-5210288.csv","legacy","Lentiform Loewenfeld","3.3.7","yes","yes","600bd7cfb6416f0113b04181","602110864497cf011d9c0822","0","j","NA","space","space","space","NA","j","818","NA","1901","15586","5698","NA","818","2","legacy","1024","2","48000","-16","task","5210288","even","NA","35114","39019","37118","75661","6604","27910","22207","76164","NA","75658","76164","75605","39019","76983","33450","75104","6560","NA","Lexical Decision Task","26","16896","27","yes","1024"
"2.95456409","0","4","taud","non-word","96.42857142857143","96.42857142857143","630.3571428571429","630.3571428571429","black","no","legacy","legacy","legacy","0","uniform","1","undefined","undefined","undefined","1","f","0","0","0","0","27","0","0","0","27","NA","23","27","23","0","23","3","27","0","27","Fri Feb 19 12:27:14 2021","The main experiment item","yes","Lexical_Decision_Task.osexp","/Users/emma/Desktop","no","Andale Mono","no","18","no","white","no","yes","576","legacy","23","23","3","/Users/emma/Desktop/subject-5210288.csv","legacy","Lentiform Loewenfeld","3.3.7","yes","yes","600bd7cfb6416f0113b04181","602110864497cf011d9c0822","0","f","NA","space","space","space","NA","f","754","NA","1901","15586","5698","NA","754","2","legacy","1024","2","48000","-16","task","5210288","even","NA","35114","39019","37118","78548","6604","27910","22207","79050","NA","78545","79051","78488","39019","79806","33450","75104","6560","76988","Lexical Decision Task","27","17650","28","yes","1024"
"3.132473155","0","4","glim","non-word","96.55172413793103","96.55172413793103","640.1724137931035","640.1724137931035","black","no","legacy","legacy","legacy","0","uniform","1","undefined","undefined","undefined","1","f","0","0","0","0","28","0","0","0","28","NA","24","28","24","0","24","3","28","0","28","Fri Feb 19 12:27:14 2021","The main experiment item","yes","Lexical_Decision_Task.osexp","/Users/emma/Desktop","no","Andale Mono","no","18","no","white","no","yes","576","legacy","24","24","3","/Users/emma/Desktop/subject-5210288.csv","legacy","Lentiform Loewenfeld","3.3.7","yes","yes","600bd7cfb6416f0113b04181","602110864497cf011d9c0822","0","f","NA","space","space","space","NA","f","915","NA","1901","15586","5698","NA","915","2","legacy","1024","2","48000","-16","task","5210288","even","NA","35114","39019","37118","80367","6604","27910","22207","80870","NA","80364","80870","80311","39019","81786","33450","79811","6560","76988","Lexical Decision Task","28","18565","29","yes","1024"
"3.276537627","9.15","5","trap","word","96.66666666666667","96.66666666666667","638.0333333333333","638.0333333333333","black","no","legacy","legacy","legacy","0","uniform","1","undefined","undefined","undefined","1","j","0","0","0","0","29","0","0","0","29","NA","25","29","25","0","25","3","29","0","29","Fri Feb 19 12:27:14 2021","The main experiment item","yes","Lexical_Decision_Task.osexp","/Users/emma/Desktop","no","Andale Mono","no","18","no","white","no","yes","576","legacy","25","25","3","/Users/emma/Desktop/subject-5210288.csv","legacy","Lentiform Loewenfeld","3.3.7","yes","yes","600bd7cfb6416f0113b04181","602110864497cf011d9c0822","0","j","NA","space","space","space","NA","j","576","NA","1901","15586","5698","NA","576","2","legacy","1024","2","48000","-16","task","5210288","even","NA","35114","39019","37118","82348","6604","27910","22207","82851","NA","82345","82851","82292","39019","83428","33450","81791","6560","76988","Lexical Decision Task","29","19141","30","yes","1024"
"3.384413096","10.15","3","glad","word","96.7741935483871","96.7741935483871","634.258064516129","634.258064516129","black","no","legacy","legacy","legacy","0","uniform","1","undefined","undefined","undefined","1","j","0","0","0","0","30","0","0","0","30","NA","26","30","26","0","26","3","30","0","30","Fri Feb 19 12:27:14 2021","The main experiment item","yes","Lexical_Decision_Task.osexp","/Users/emma/Desktop","no","Andale Mono","no","18","no","white","no","yes","576","legacy","26","26","3","/Users/emma/Desktop/subject-5210288.csv","legacy","Lentiform Loewenfeld","3.3.7","yes","yes","600bd7cfb6416f0113b04181","602110864497cf011d9c0822","0","j","NA","space","space","space","NA","j","521","NA","1901","15586","5698","NA","521","2","legacy","1024","2","48000","-16","task","5210288","even","NA","35114","39019","37118","83990","6604","27910","22207","84493","NA","83987","84493","83933","39019","85015","33450","83433","6560","76988","Lexical Decision Task","30","19662","31","yes","1024"
"3.208978517","10.33","4","fish","word","96.875","96.875","626.9375","626.9375","black","no","legacy","legacy","legacy","0","uniform","1","undefined","undefined","undefined","1","j","0","0","0","0","31","0","0","0","31","NA","27","31","27","0","27","3","31","0","31","Fri Feb 19 12:27:14 2021","The main experiment item","yes","Lexical_Decision_Task.osexp","/Users/emma/Desktop","no","Andale Mono","no","18","no","white","no","yes","576","legacy","27","27","3","/Users/emma/Desktop/subject-5210288.csv","legacy","Lentiform Loewenfeld","3.3.7","yes","yes","600bd7cfb6416f0113b04181","602110864497cf011d9c0822","0","j","NA","space","space","space","NA","j","400","NA","1901","15586","5698","NA","400","2","legacy","1024","2","48000","-16","task","5210288","even","NA","35114","39019","37118","85577","6604","27910","22207","86080","NA","85573","86080","85519","39019","86481","33450","85019","6560","76988","Lexical Decision Task","31","20062","32","yes","1024"
"2.980306438","0","7","slun","non-word","96.96969696969697","96.96969696969697","626.2727272727273","626.2727272727273","black","no","legacy","legacy","legacy","0","uniform","1","undefined","undefined","undefined","1","f","0","0","0","0","32","0","0","0","32","NA","28","32","28","0","28","3","32","0","32","Fri Feb 19 12:27:14 2021","The main experiment item","yes","Lexical_Decision_Task.osexp","/Users/emma/Desktop","no","Andale Mono","no","18","no","white","no","yes","576","legacy","28","28","3","/Users/emma/Desktop/subject-5210288.csv","legacy","Lentiform Loewenfeld","3.3.7","yes","yes","600bd7cfb6416f0113b04181","602110864497cf011d9c0822","0","f","NA","space","space","space","NA","f","605","NA","1901","15586","5698","NA","605","2","legacy","1024","2","48000","-16","task","5210288","even","NA","35114","39019","37118","87044","6604","27910","22207","87547","NA","87041","87547","86986","39019","88153","33450","86486","6560","76988","Lexical Decision Task","32","20667","33","yes","1024"
"3.218535505","7.85","7","goat","word","97.05882352941177","97.05882352941177","629.0882352941177","629.0882352941177","black","no","legacy","legacy","legacy","0","uniform","1","undefined","undefined","undefined","1","j","0","0","0","0","33","0","0","0","33","NA","29","33","29","0","29","3","33","0","33","Fri Feb 19 12:27:14 2021","The main experiment item","yes","Lexical_Decision_Task.osexp","/Users/emma/Desktop","no","Andale Mono","no","18","no","white","no","yes","576","legacy","29","29","3","/Users/emma/Desktop/subject-5210288.csv","legacy","Lentiform Loewenfeld","3.3.7","yes","yes","600bd7cfb6416f0113b04181","602110864497cf011d9c0822","0","j","NA","space","space","space","NA","j","722","NA","1901","15586","5698","NA","722","2","legacy","1024","2","48000","-16","task","5210288","even","NA","35114","39019","37118","88714","6604","27910","22207","89217","NA","88712","89217","88658","39019","89940","33450","88158","6560","76988","Lexical Decision Task","33","21389","34","yes","1024"
"2.897810299","0","5","glur","non-word","97.14285714285714","97.14285714285714","627.4285714285714","627.4285714285714","black","no","legacy","legacy","legacy","0","uniform","1","undefined","undefined","undefined","1","f","0","0","0","0","34","0","0","0","34","NA","30","34","30","0","30","3","34","0","34","Fri Feb 19 12:27:14 2021","The main experiment item","yes","Lexical_Decision_Task.osexp","/Users/emma/Desktop","no","Andale Mono","no","18","no","white","no","yes","576","legacy","30","30","3","/Users/emma/Desktop/subject-5210288.csv","legacy","Lentiform Loewenfeld","3.3.7","yes","yes","600bd7cfb6416f0113b04181","602110864497cf011d9c0822","0","f","NA","space","space","space","NA","f","571","NA","1901","15586","5698","NA","571","2","legacy","1024","2","48000","-16","task","5210288","even","NA","35114","39019","37118","90502","6604","27910","22207","91005","NA","90500","91005","90446","39019","91577","33450","89946","6560","76988","Lexical Decision Task","34","21960","35","yes","1024"
"3.031408464","0","7","drow","non-word","97.22222222222223","97.22222222222223","628.8055555555555","628.8055555555555","black","no","legacy","legacy","legacy","0","uniform","1","undefined","undefined","undefined","1","f","0","0","0","0","35","0","0","0","35","NA","31","35","31","0","31","3","35","0","35","Fri Feb 19 12:27:14 2021","The main experiment item","yes","Lexical_Decision_Task.osexp","/Users/emma/Desktop","no","Andale Mono","no","18","no","white","no","yes","576","legacy","31","31","3","/Users/emma/Desktop/subject-5210288.csv","legacy","Lentiform Loewenfeld","3.3.7","yes","yes","600bd7cfb6416f0113b04181","602110864497cf011d9c0822","0","f","NA","space","space","space","NA","f","677","NA","1901","15586","5698","NA","677","2","legacy","1024","2","48000","-16","task","5210288","even","NA","35114","39019","37118","92139","6604","27910","22207","92642","NA","92136","92642","92083","39019","93320","33450","91583","6560","76988","Lexical Decision Task","35","22637","36","yes","1024"
"3.064581521","5.51","6","cask","word","97.29729729729729","97.29729729729729","624.7027027027027","624.7027027027027","black","no","legacy","legacy","legacy","0","uniform","1","undefined","undefined","undefined","1","j","0","0","0","0","36","0","0","0","36","NA","32","36","32","0","32","3","36","0","36","Fri Feb 19 12:27:14 2021","The main experiment item","yes","Lexical_Decision_Task.osexp","/Users/emma/Desktop","no","Andale Mono","no","18","no","white","no","yes","576","legacy","32","32","3","/Users/emma/Desktop/subject-5210288.csv","legacy","Lentiform Loewenfeld","3.3.7","yes","yes","600bd7cfb6416f0113b04181","602110864497cf011d9c0822","0","j","NA","space","space","space","NA","j","477","NA","1901","15586","5698","NA","477","2","legacy","1024","2","48000","-16","task","5210288","even","NA","35114","39019","37118","93881","6604","27910","22207","94384","NA","93878","94384","93825","39019","94862","33450","93325","6560","76988","Lexical Decision Task","36","23114","37","yes","1024"
"3.440331212","7.35","6","stew","word","97.36842105263158","97.36842105263158","622.6315789473684","622.6315789473684","black","no","legacy","legacy","legacy","0","uniform","1","undefined","undefined","undefined","1","j","0","0","0","0","37","0","0","0","37","NA","33","37","33","0","33","3","37","0","37","Fri Feb 19 12:27:14 2021","The main experiment item","yes","Lexical_Decision_Task.osexp","/Users/emma/Desktop","no","Andale Mono","no","18","no","white","no","yes","576","legacy","33","33","3","/Users/emma/Desktop/subject-5210288.csv","legacy","Lentiform Loewenfeld","3.3.7","yes","yes","600bd7cfb6416f0113b04181","602110864497cf011d9c0822","0","j","NA","space","space","space","NA","j","546","NA","1901","15586","5698","NA","546","2","legacy","1024","2","48000","-16","task","5210288","even","NA","35114","39019","37118","95424","6604","27910","22207","95927","NA","95421","95927","95367","39019","96474","33450","94867","6560","76988","Lexical Decision Task","37","23660","38","yes","1024"
"3.474361976","5.24","6","veer","word","94.87179487179488","94.87179487179488","625.0512820512821","625.0512820512821","black","no","legacy","legacy","legacy","0","uniform","0","undefined","undefined","undefined","0","j","0","0","0","0","38","0","0","0","38","NA","34","38","34","0","34","3","38","0","38","Fri Feb 19 12:27:14 2021","The main experiment item","yes","Lexical_Decision_Task.osexp","/Users/emma/Desktop","no","Andale Mono","no","18","no","white","no","yes","576","legacy","34","34","3","/Users/emma/Desktop/subject-5210288.csv","legacy","Lentiform Loewenfeld","3.3.7","yes","yes","600bd7cfb6416f0113b04181","602110864497cf011d9c0822","0","f","NA","space","space","space","NA","f","717","NA","1901","15586","5698","NA","717","2","legacy","1024","2","48000","-16","task","5210288","even","NA","35114","39019","37118","97035","6604","27910","22207","97538","NA","97032","97538","96979","39019","98256","33450","96479","6560","76988","Lexical Decision Task","37","24377","39","yes","1024"
"2.920123326","7.43","4","duel","word","95","95","625.8","625.8","black","no","legacy","legacy","legacy","0","uniform","1","undefined","undefined","undefined","1","j","0","0","0","0","39","0","0","0","39","NA","35","39","35","0","35","3","39","0","39","Fri Feb 19 12:27:14 2021","The main experiment item","yes","Lexical_Decision_Task.osexp","/Users/emma/Desktop","no","Andale Mono","no","18","no","white","no","yes","576","legacy","35","35","3","/Users/emma/Desktop/subject-5210288.csv","legacy","Lentiform Loewenfeld","3.3.7","yes","yes","600bd7cfb6416f0113b04181","602110864497cf011d9c0822","0","j","NA","space","space","space","NA","j","655","NA","1901","15586","5698","NA","655","2","legacy","1024","2","48000","-16","task","5210288","even","NA","35114","39019","37118","99815","6604","27910","22207","100318","NA","99812","100318","99761","39019","100974","33450","96479","6560","98261","Lexical Decision Task","38","25032","40","yes","1024"
"2.799799878","0","4","ciff","non-word","95.1219512195122","95.1219512195122","632.6585365853658","632.6585365853658","black","no","legacy","legacy","legacy","0","uniform","1","undefined","undefined","undefined","1","f","0","0","0","0","40","0","0","0","40","NA","36","40","36","0","36","3","40","0","40","Fri Feb 19 12:27:14 2021","The main experiment item","yes","Lexical_Decision_Task.osexp","/Users/emma/Desktop","no","Andale Mono","no","18","no","white","no","yes","576","legacy","36","36","3","/Users/emma/Desktop/subject-5210288.csv","legacy","Lentiform Loewenfeld","3.3.7","yes","yes","600bd7cfb6416f0113b04181","602110864497cf011d9c0822","0","f","NA","space","space","space","NA","f","907","NA","1901","15586","5698","NA","907","2","legacy","1024","2","48000","-16","task","5210288","even","NA","35114","39019","37118","101538","6604","27910","22207","102041","NA","101535","102041","101479","39019","102949","33450","100979","6560","98261","Lexical Decision Task","39","25939","41","yes","1024"
"3.134602053","0","8","jart","non-word","95.23809523809524","95.23809523809524","633.4047619047619","633.4047619047619","black","no","legacy","legacy","legacy","0","uniform","1","undefined","undefined","undefined","1","f","0","0","0","0","41","0","0","0","41","NA","37","41","37","0","37","3","41","0","41","Fri Feb 19 12:27:14 2021","The main experiment item","yes","Lexical_Decision_Task.osexp","/Users/emma/Desktop","no","Andale Mono","no","18","no","white","no","yes","576","legacy","37","37","3","/Users/emma/Desktop/subject-5210288.csv","legacy","Lentiform Loewenfeld","3.3.7","yes","yes","600bd7cfb6416f0113b04181","602110864497cf011d9c0822","0","f","NA","space","space","space","NA","f","664","NA","1901","15586","5698","NA","664","2","legacy","1024","2","48000","-16","task","5210288","even","NA","35114","39019","37118","103506","6604","27910","22207","104009","NA","103504","104009","103454","39019","104674","33450","102954","6560","98261","Lexical Decision Task","40","26603","42","yes","1024"
"3.302475237","0","7","leel","non-word","95.34883720930233","95.34883720930233","638.046511627907","638.046511627907","black","no","legacy","legacy","legacy","0","uniform","1","undefined","undefined","undefined","1","f","0","0","0","0","42","0","0","0","42","NA","38","42","38","0","38","3","42","0","42","Fri Feb 19 12:27:14 2021","The main experiment item","yes","Lexical_Decision_Task.osexp","/Users/emma/Desktop","no","Andale Mono","no","18","no","white","no","yes","576","legacy","38","38","3","/Users/emma/Desktop/subject-5210288.csv","legacy","Lentiform Loewenfeld","3.3.7","yes","yes","600bd7cfb6416f0113b04181","602110864497cf011d9c0822","0","f","NA","space","space","space","NA","f","833","NA","1901","15586","5698","NA","833","2","legacy","1024","2","48000","-16","task","5210288","even","NA","35114","39019","37118","105236","6604","27910","22207","105739","NA","105233","105739","105179","39019","106572","33450","104679","6560","98261","Lexical Decision Task","41","27436","43","yes","1024"
"3.225825991","0","7","talm","non-word","95.45454545454545","95.45454545454545","641.4090909090909","641.4090909090909","black","no","legacy","legacy","legacy","0","uniform","1","undefined","undefined","undefined","1","f","0","0","0","0","43","0","0","0","43","NA","39","43","39","0","39","3","43","0","43","Fri Feb 19 12:27:14 2021","The main experiment item","yes","Lexical_Decision_Task.osexp","/Users/emma/Desktop","no","Andale Mono","no","18","no","white","no","yes","576","legacy","39","39","3","/Users/emma/Desktop/subject-5210288.csv","legacy","Lentiform Loewenfeld","3.3.7","yes","yes","600bd7cfb6416f0113b04181","602110864497cf011d9c0822","0","f","NA","space","space","space","NA","f","786","NA","1901","15586","5698","NA","786","2","legacy","1024","2","48000","-16","task","5210288","even","NA","35114","39019","37118","107134","6604","27910","22207","107637","NA","107132","107637","107078","39019","108424","33450","106577","6560","98261","Lexical Decision Task","42","28222","44","yes","1024"
"2.767650507","0","6","yolt","non-word","95.55555555555556","95.55555555555556","638.3555555555556","638.3555555555556","black","no","legacy","legacy","legacy","0","uniform","1","undefined","undefined","undefined","1","f","0","0","0","0","44","0","0","0","44","NA","40","44","40","0","40","3","44","0","44","Fri Feb 19 12:27:14 2021","The main experiment item","yes","Lexical_Decision_Task.osexp","/Users/emma/Desktop","no","Andale Mono","no","18","no","white","no","yes","576","legacy","40","40","3","/Users/emma/Desktop/subject-5210288.csv","legacy","Lentiform Loewenfeld","3.3.7","yes","yes","600bd7cfb6416f0113b04181","602110864497cf011d9c0822","0","f","NA","space","space","space","NA","f","504","NA","1901","15586","5698","NA","504","2","legacy","1024","2","48000","-16","task","5210288","even","NA","35114","39019","37118","108986","6604","27910","22207","109489","NA","108983","109489","108930","39019","109994","33450","108430","6560","98261","Lexical Decision Task","43","28726","45","yes","1024"
"2.983324025","9.56","2","debt","word","95.65217391304348","95.65217391304348","634.3478260869565","634.3478260869565","black","no","legacy","legacy","legacy","0","uniform","1","undefined","undefined","undefined","1","j","0","0","0","0","45","0","0","0","45","NA","41","45","41","0","41","3","45","0","45","Fri Feb 19 12:27:14 2021","The main experiment item","yes","Lexical_Decision_Task.osexp","/Users/emma/Desktop","no","Andale Mono","no","18","no","white","no","yes","576","legacy","41","41","3","/Users/emma/Desktop/subject-5210288.csv","legacy","Lentiform Loewenfeld","3.3.7","yes","yes","600bd7cfb6416f0113b04181","602110864497cf011d9c0822","0","j","NA","space","space","space","NA","j","454","NA","1901","15586","5698","NA","454","2","legacy","1024","2","48000","-16","task","5210288","even","NA","35114","39019","37118","110556","6604","27910","22207","111059","NA","110553","111059","110499","39019","111513","33450","109999","6560","98261","Lexical Decision Task","44","29180","46","yes","1024"
"3.209246849","0","7","slem","non-word","95.74468085106383","95.74468085106383","634.063829787234","634.063829787234","black","no","legacy","legacy","legacy","0","uniform","1","undefined","undefined","undefined","1","f","0","0","0","0","46","0","0","0","46","NA","42","46","42","0","42","3","46","0","46","Fri Feb 19 12:27:14 2021","The main experiment item","yes","Lexical_Decision_Task.osexp","/Users/emma/Desktop","no","Andale Mono","no","18","no","white","no","yes","576","legacy","42","42","3","/Users/emma/Desktop/subject-5210288.csv","legacy","Lentiform Loewenfeld","3.3.7","yes","yes","600bd7cfb6416f0113b04181","602110864497cf011d9c0822","0","f","NA","space","space","space","NA","f","621","NA","1901","15586","5698","NA","621","2","legacy","1024","2","48000","-16","task","5210288","even","NA","35114","39019","37118","112075","6604","27910","22207","112578","NA","112072","112578","112018","39019","113200","33450","111517","6560","98261","Lexical Decision Task","45","29801","47","yes","1024"
"2.782472624","10.55","2","huge","word","95.83333333333333","95.83333333333333","630.6875","630.6875","black","no","legacy","legacy","legacy","0","uniform","1","undefined","undefined","undefined","1","j","0","0","0","0","47","0","0","0","47","NA","43","47","43","0","43","3","47","0","47","Fri Feb 19 12:27:14 2021","The main experiment item","yes","Lexical_Decision_Task.osexp","/Users/emma/Desktop","no","Andale Mono","no","18","no","white","no","yes","576","legacy","43","43","3","/Users/emma/Desktop/subject-5210288.csv","legacy","Lentiform Loewenfeld","3.3.7","yes","yes","600bd7cfb6416f0113b04181","602110864497cf011d9c0822","0","j","NA","space","space","space","NA","j","472","NA","1901","15586","5698","NA","472","2","legacy","1024","2","48000","-16","task","5210288","even","NA","35114","39019","37118","113764","6604","27910","22207","114267","NA","113760","114268","113706","39019","114741","33450","113206","6560","98261","Lexical Decision Task","46","30273","48","yes","1024"
"3.481012421","8.34","5","teen","word","95.91836734693878","95.91836734693878","629.5102040816327","629.5102040816327","black","no","legacy","legacy","legacy","0","uniform","1","undefined","undefined","undefined","1","j","0","0","0","0","48","0","0","0","48","NA","44","48","44","0","44","3","48","0","48","Fri Feb 19 12:27:14 2021","The main experiment item","yes","Lexical_Decision_Task.osexp","/Users/emma/Desktop","no","Andale Mono","no","18","no","white","no","yes","576","legacy","44","44","3","/Users/emma/Desktop/subject-5210288.csv","legacy","Lentiform Loewenfeld","3.3.7","yes","yes","600bd7cfb6416f0113b04181","602110864497cf011d9c0822","0","j","NA","space","space","space","NA","j","573","NA","1901","15586","5698","NA","573","2","legacy","1024","2","48000","-16","task","5210288","even","NA","35114","39019","37118","115309","6604","27910","22207","115811","NA","115306","115811","115246","39019","116385","33450","114746","6560","98261","Lexical Decision Task","47","30846","49","yes","1024"
"3.194328374","9.42","6","harm","word","96","96","625.72","625.72","black","no","legacy","legacy","legacy","0","uniform","1","undefined","undefined","undefined","1","j","0","0","0","0","49","0","0","0","49","NA","45","49","45","0","45","3","49","0","49","Fri Feb 19 12:27:14 2021","The main experiment item","yes","Lexical_Decision_Task.osexp","/Users/emma/Desktop","no","Andale Mono","no","18","no","white","no","yes","576","legacy","45","45","3","/Users/emma/Desktop/subject-5210288.csv","legacy","Lentiform Loewenfeld","3.3.7","yes","yes","600bd7cfb6416f0113b04181","602110864497cf011d9c0822","0","j","NA","space","space","space","NA","j","440","NA","1901","15586","5698","NA","440","2","legacy","1024","2","48000","-16","task","5210288","even","NA","35114","39019","37118","116945","6604","27910","22207","117448","NA","116942","117448","116891","39019","117889","33450","116391","6560","98261","Lexical Decision Task","48","31286","50","yes","1024"
"3.495914186","0","4","peng","non-word","96.07843137254902","96.07843137254902","622.5882352941177","622.5882352941177","black","no","legacy","legacy","legacy","0","uniform","1","undefined","undefined","undefined","1","f","0","0","0","0","50","0","0","0","50","NA","46","50","46","0","46","3","50","0","50","Fri Feb 19 12:27:14 2021","The main experiment item","yes","Lexical_Decision_Task.osexp","/Users/emma/Desktop","no","Andale Mono","no","18","no","white","no","yes","576","legacy","46","46","3","/Users/emma/Desktop/subject-5210288.csv","legacy","Lentiform Loewenfeld","3.3.7","yes","yes","600bd7cfb6416f0113b04181","602110864497cf011d9c0822","0","f","NA","space","space","space","NA","f","466","NA","1901","15586","5698","NA","466","2","legacy","1024","2","48000","-16","task","5210288","even","NA","35114","39019","37118","118450","6604","27910","22207","118953","NA","118447","118953","118394","39019","119420","33450","117894","6560","98261","Lexical Decision Task","49","31752","51","yes","1024"
"3.311895072","0","9","gung","non-word","96.15384615384616","96.15384615384616","622.8269230769231","622.8269230769231","black","no","legacy","legacy","legacy","0","uniform","1","undefined","undefined","undefined","1","f","0","0","0","0","51","0","0","0","51","NA","47","51","47","0","47","3","51","0","51","Fri Feb 19 12:27:14 2021","The main experiment item","yes","Lexical_Decision_Task.osexp","/Users/emma/Desktop","no","Andale Mono","no","18","no","white","no","yes","576","legacy","47","47","3","/Users/emma/Desktop/subject-5210288.csv","legacy","Lentiform Loewenfeld","3.3.7","yes","yes","600bd7cfb6416f0113b04181","602110864497cf011d9c0822","0","f","NA","space","space","space","NA","f","635","NA","1901","15586","5698","NA","635","2","legacy","1024","2","48000","-16","task","5210288","even","NA","35114","39019","37118","119982","6604","27910","22207","120486","NA","119980","120486","119925","39019","121122","33450","119425","6560","98261","Lexical Decision Task","50","32387","52","yes","1024"
"2.69019608","9.01","2","myth","word","96.22641509433963","96.22641509433963","623.3962264150944","623.3962264150944","black","no","legacy","legacy","legacy","0","uniform","1","undefined","undefined","undefined","1","j","0","0","0","0","52","0","0","0","52","NA","48","52","48","0","48","3","52","0","52","Fri Feb 19 12:27:14 2021","The main experiment item","yes","Lexical_Decision_Task.osexp","/Users/emma/Desktop","no","Andale Mono","no","18","no","white","no","yes","576","legacy","48","48","3","/Users/emma/Desktop/subject-5210288.csv","legacy","Lentiform Loewenfeld","3.3.7","yes","yes","600bd7cfb6416f0113b04181","602110864497cf011d9c0822","0","j","NA","space","space","space","NA","j","653","NA","1901","15586","5698","NA","653","2","legacy","1024","2","48000","-16","task","5210288","even","NA","35114","39019","37118","121682","6604","27910","22207","122186","NA","121679","122186","121627","39019","122840","33450","121127","6560","98261","Lexical Decision Task","51","33040","53","yes","1024"
"2.7084209","0","8","vump","non-word","96.29629629629629","96.29629629629629","625.9444444444445","625.9444444444445","black","no","legacy","legacy","legacy","0","uniform","1","undefined","undefined","undefined","1","f","0","0","0","0","53","0","0","0","53","NA","49","53","49","0","49","3","53","0","53","Fri Feb 19 12:27:14 2021","The main experiment item","yes","Lexical_Decision_Task.osexp","/Users/emma/Desktop","no","Andale Mono","no","18","no","white","no","yes","576","legacy","49","49","3","/Users/emma/Desktop/subject-5210288.csv","legacy","Lentiform Loewenfeld","3.3.7","yes","yes","600bd7cfb6416f0113b04181","602110864497cf011d9c0822","0","f","NA","space","space","space","NA","f","761","NA","1901","15586","5698","NA","761","2","legacy","1024","2","48000","-16","task","5210288","even","NA","35114","39019","37118","123402","6604","27910","22207","123905","NA","123399","123905","123345","39019","124667","33450","122845","6560","98261","Lexical Decision Task","52","33801","54","yes","1024"
"3.120025233","0","2","nyst","non-word","96.36363636363636","96.36363636363636","630.5818181818182","630.5818181818182","black","no","legacy","legacy","legacy","0","uniform","1","undefined","undefined","undefined","1","f","0","0","0","0","54","0","0","0","54","0","50","54","50","0","50","3","54","0","54","Fri Feb 19 12:27:14 2021","The main experiment item","yes","Lexical_Decision_Task.osexp","/Users/emma/Desktop","no","Andale Mono","no","18","no","white","no","yes","576","legacy","50","50","3","/Users/emma/Desktop/subject-5210288.csv","legacy","Lentiform Loewenfeld","3.3.7","yes","yes","600bd7cfb6416f0113b04181","602110864497cf011d9c0822","0","f","NA","space","space","space","space","f","881","NA","1901","15586","5698","56259","881","2","legacy","1024","2","48000","-16","task","5210288","even","NA","35114","39019","37118","181512","6604","27910","22207","182015","125202","181510","182015","125173","39019","182897","33450","124673","6560","98261","Lexical Decision Task","53","34682","55","yes","1024"
"2.898725182","0","7","turl","non-word","96.42857142857143","96.42857142857143","633.7142857142857","633.7142857142857","black","no","legacy","legacy","legacy","0","uniform","1","undefined","undefined","undefined","1","f","0","0","0","0","55","0","0","0","55","0","51","55","51","0","51","3","55","0","55","Fri Feb 19 12:27:14 2021","The main experiment item","yes","Lexical_Decision_Task.osexp","/Users/emma/Desktop","no","Andale Mono","no","18","no","white","no","yes","576","legacy","51","51","3","/Users/emma/Desktop/subject-5210288.csv","legacy","Lentiform Loewenfeld","3.3.7","yes","yes","600bd7cfb6416f0113b04181","602110864497cf011d9c0822","0","f","NA","space","space","space","space","f","806","NA","1901","15586","5698","56259","806","2","legacy","1024","2","48000","-16","task","5210288","even","NA","35114","39019","37118","183454","6604","27910","22207","183957","125202","183451","183957","183403","39019","184764","33450","182903","6560","98261","Lexical Decision Task","54","35488","56","yes","1024"
"3.299579929","0","2","flis","non-word","96.49122807017544","96.49122807017544","631.859649122807","631.859649122807","black","no","legacy","legacy","legacy","0","uniform","1","undefined","undefined","undefined","1","f","0","0","0","0","56","0","0","0","56","0","52","56","52","0","52","3","56","0","56","Fri Feb 19 12:27:14 2021","The main experiment item","yes","Lexical_Decision_Task.osexp","/Users/emma/Desktop","no","Andale Mono","no","18","no","white","no","yes","576","legacy","52","52","3","/Users/emma/Desktop/subject-5210288.csv","legacy","Lentiform Loewenfeld","3.3.7","yes","yes","600bd7cfb6416f0113b04181","602110864497cf011d9c0822","0","f","NA","space","space","space","space","f","528","NA","1901","15586","5698","56259","528","2","legacy","1024","2","48000","-16","task","5210288","even","NA","35114","39019","37118","185328","6604","27910","22207","185831","125202","185325","185831","185271","39019","186360","33450","184771","6560","98261","Lexical Decision Task","55","36016","57","yes","1024"
"3.159867847","5.98","5","brim","word","94.82758620689656","94.82758620689656","630.2758620689655","630.2758620689655","black","no","legacy","legacy","legacy","0","uniform","0","undefined","undefined","undefined","0","j","0","0","0","0","57","0","0","0","57","0","53","57","53","0","53","3","57","0","57","Fri Feb 19 12:27:14 2021","The main experiment item","yes","Lexical_Decision_Task.osexp","/Users/emma/Desktop","no","Andale Mono","no","18","no","white","no","yes","576","legacy","53","53","3","/Users/emma/Desktop/subject-5210288.csv","legacy","Lentiform Loewenfeld","3.3.7","yes","yes","600bd7cfb6416f0113b04181","602110864497cf011d9c0822","0","f","NA","space","space","space","space","f","540","NA","1901","15586","5698","56259","540","2","legacy","1024","2","48000","-16","task","5210288","even","NA","35114","39019","37118","186923","6604","27910","22207","187426","125202","186921","187426","186866","39019","187967","33450","186366","6560","98261","Lexical Decision Task","55","36556","58","yes","1024"
"3.16326079","0","5","parg","non-word","94.91525423728814","94.91525423728814","630.1864406779661","630.1864406779661","black","no","legacy","legacy","legacy","0","uniform","1","undefined","undefined","undefined","1","f","0","0","0","0","58","0","0","0","58","0","54","58","54","0","54","3","58","0","58","Fri Feb 19 12:27:14 2021","The main experiment item","yes","Lexical_Decision_Task.osexp","/Users/emma/Desktop","no","Andale Mono","no","18","no","white","no","yes","576","legacy","54","54","3","/Users/emma/Desktop/subject-5210288.csv","legacy","Lentiform Loewenfeld","3.3.7","yes","yes","600bd7cfb6416f0113b04181","602110864497cf011d9c0822","0","f","NA","space","space","space","space","f","625","NA","1901","15586","5698","56259","625","2","legacy","1024","2","48000","-16","task","5210288","even","NA","35114","39019","37118","189533","6604","27910","22207","190036","125202","189530","190036","189473","39019","190662","33450","186366","6560","187972","Lexical Decision Task","56","37181","59","yes","1024"
"2.813801082","5.47","7","nook","word","95","95","626.5333333333333","626.5333333333333","black","no","legacy","legacy","legacy","0","uniform","1","undefined","undefined","undefined","1","j","0","0","0","0","59","0","0","0","59","0","55","59","55","0","55","3","59","0","59","Fri Feb 19 12:27:14 2021","The main experiment item","yes","Lexical_Decision_Task.osexp","/Users/emma/Desktop","no","Andale Mono","no","18","no","white","no","yes","576","legacy","55","55","3","/Users/emma/Desktop/subject-5210288.csv","legacy","Lentiform Loewenfeld","3.3.7","yes","yes","600bd7cfb6416f0113b04181","602110864497cf011d9c0822","0","j","NA","space","space","space","space","j","411","NA","1901","15586","5698","56259","411","2","legacy","1024","2","48000","-16","task","5210288","even","NA","35114","39019","37118","191225","6604","27910","22207","191728","125202","191222","191729","191168","39019","192141","33450","190667","6560","187972","Lexical Decision Task","57","37592","60","yes","1024"
"3.531734309","0","6","lerd","non-word","95.08196721311475","95.08196721311475","627.0491803278688","627.0491803278688","black","no","legacy","legacy","legacy","0","uniform","1","undefined","undefined","undefined","1","f","0","0","0","0","60","0","0","0","60","0","56","60","56","0","56","3","60","0","60","Fri Feb 19 12:27:14 2021","The main experiment item","yes","Lexical_Decision_Task.osexp","/Users/emma/Desktop","no","Andale Mono","no","18","no","white","no","yes","576","legacy","56","56","3","/Users/emma/Desktop/subject-5210288.csv","legacy","Lentiform Loewenfeld","3.3.7","yes","yes","600bd7cfb6416f0113b04181","602110864497cf011d9c0822","0","f","NA","space","space","space","space","f","658","NA","1901","15586","5698","56259","658","2","legacy","1024","2","48000","-16","task","5210288","even","NA","35114","39019","37118","192703","6604","27910","22207","193206","125202","192701","193207","192646","39019","193866","33450","192146","6560","187972","Lexical Decision Task","58","38250","61","yes","1024"
"2.695481676","0","7","goke","non-word","95.16129032258064","95.16129032258064","626.0322580645161","626.0322580645161","black","no","legacy","legacy","legacy","0","uniform","1","undefined","undefined","undefined","1","f","0","0","0","0","61","0","0","0","61","0","57","61","57","0","57","3","61","0","61","Fri Feb 19 12:27:14 2021","The main experiment item","yes","Lexical_Decision_Task.osexp","/Users/emma/Desktop","no","Andale Mono","no","18","no","white","no","yes","576","legacy","57","57","3","/Users/emma/Desktop/subject-5210288.csv","legacy","Lentiform Loewenfeld","3.3.7","yes","yes","600bd7cfb6416f0113b04181","602110864497cf011d9c0822","0","f","NA","space","space","space","space","f","564","NA","1901","15586","5698","56259","564","2","legacy","1024","2","48000","-16","task","5210288","even","NA","35114","39019","37118","194429","6604","27910","22207","194931","125202","194426","194932","194371","39019","195497","33450","193871","6560","187972","Lexical Decision Task","59","38814","62","yes","1024"
"3.076883066","0","8","mout","non-word","95.23809523809524","95.23809523809524","628.5238095238095","628.5238095238095","black","no","legacy","legacy","legacy","0","uniform","1","undefined","undefined","undefined","1","f","0","0","0","0","62","0","0","0","62","0","58","62","58","0","58","3","62","0","62","Fri Feb 19 12:27:14 2021","The main experiment item","yes","Lexical_Decision_Task.osexp","/Users/emma/Desktop","no","Andale Mono","no","18","no","white","no","yes","576","legacy","58","58","3","/Users/emma/Desktop/subject-5210288.csv","legacy","Lentiform Loewenfeld","3.3.7","yes","yes","600bd7cfb6416f0113b04181","602110864497cf011d9c0822","0","f","NA","space","space","space","space","f","783","NA","1901","15586","5698","56259","783","2","legacy","1024","2","48000","-16","task","5210288","even","NA","35114","39019","37118","196058","6604","27910","22207","196561","125202","196055","196561","196002","39019","197345","33450","195502","6560","187972","Lexical Decision Task","60","39597","63","yes","1024"
"3.208172527","10.27","7","deck","word","95.3125","95.3125","626","626","black","no","legacy","legacy","legacy","0","uniform","1","undefined","undefined","undefined","1","j","0","0","0","0","63","0","0","0","63","0","59","63","59","0","59","3","63","0","63","Fri Feb 19 12:27:14 2021","The main experiment item","yes","Lexical_Decision_Task.osexp","/Users/emma/Desktop","no","Andale Mono","no","18","no","white","no","yes","576","legacy","59","59","3","/Users/emma/Desktop/subject-5210288.csv","legacy","Lentiform Loewenfeld","3.3.7","yes","yes","600bd7cfb6416f0113b04181","602110864497cf011d9c0822","0","j","NA","space","space","space","space","j","467","NA","1901","15586","5698","56259","467","2","legacy","1024","2","48000","-16","task","5210288","even","NA","35114","39019","37118","197907","6604","27910","22207","198410","125202","197904","198410","197850","39019","198878","33450","197350","6560","187972","Lexical Decision Task","61","40064","64","yes","1024"
"3.100255637","0","6","brax","non-word","95.38461538461539","95.38461538461539","626.8461538461538","626.8461538461538","black","no","legacy","legacy","legacy","0","uniform","1","undefined","undefined","undefined","1","f","0","0","0","0","64","0","0","0","64","0","60","64","60","0","60","3","64","0","64","Fri Feb 19 12:27:14 2021","The main experiment item","yes","Lexical_Decision_Task.osexp","/Users/emma/Desktop","no","Andale Mono","no","18","no","white","no","yes","576","legacy","60","60","3","/Users/emma/Desktop/subject-5210288.csv","legacy","Lentiform Loewenfeld","3.3.7","yes","yes","600bd7cfb6416f0113b04181","602110864497cf011d9c0822","0","f","NA","space","space","space","space","f","681","NA","1901","15586","5698","56259","681","2","legacy","1024","2","48000","-16","task","5210288","even","NA","35114","39019","37118","199439","6604","27910","22207","199942","125202","199436","199942","199383","39019","200624","33450","198883","6560","187972","Lexical Decision Task","62","40745","65","yes","1024"
"3.174641193","0","3","ramb","non-word","93.93939393939394","93.93939393939394","626.3181818181819","626.3181818181819","black","no","legacy","legacy","legacy","0","uniform","0","undefined","undefined","undefined","0","f","0","0","0","0","65","0","0","0","65","0","61","65","61","0","61","3","65","0","65","Fri Feb 19 12:27:14 2021","The main experiment item","yes","Lexical_Decision_Task.osexp","/Users/emma/Desktop","no","Andale Mono","no","18","no","white","no","yes","576","legacy","61","61","3","/Users/emma/Desktop/subject-5210288.csv","legacy","Lentiform Loewenfeld","3.3.7","yes","yes","600bd7cfb6416f0113b04181","602110864497cf011d9c0822","0","j","NA","space","space","space","space","j","592","NA","1901","15586","5698","56259","592","2","legacy","1024","2","48000","-16","task","5210288","even","NA","35114","39019","37118","201185","6604","27910","22207","201688","125202","201183","201688","201129","39019","202281","33450","200629","6560","187972","Lexical Decision Task","62","41337","66","yes","1024"
"2.892836167","10.01","5","soft","word","94.02985074626865","94.02985074626865","625.955223880597","625.955223880597","black","no","legacy","legacy","legacy","0","uniform","1","undefined","undefined","undefined","1","j","0","0","0","0","66","0","0","0","66","0","62","66","62","0","62","3","66","0","66","Fri Feb 19 12:27:14 2021","The main experiment item","yes","Lexical_Decision_Task.osexp","/Users/emma/Desktop","no","Andale Mono","no","18","no","white","no","yes","576","legacy","62","62","3","/Users/emma/Desktop/subject-5210288.csv","legacy","Lentiform Loewenfeld","3.3.7","yes","yes","600bd7cfb6416f0113b04181","602110864497cf011d9c0822","0","j","NA","space","space","space","space","j","602","NA","1901","15586","5698","56259","602","2","legacy","1024","2","48000","-16","task","5210288","even","NA","35114","39019","37118","203848","6604","27910","22207","204351","125202","203845","204351","203787","39019","204954","33450","200629","6560","202286","Lexical Decision Task","63","41939","67","yes","1024"
"3.460446784","0","5","dess","non-word","92.6470588235294","92.6470588235294","622.3088235294117","622.3088235294117","black","no","legacy","legacy","legacy","0","uniform","0","undefined","undefined","undefined","0","f","0","0","0","0","67","0","0","0","67","0","63","67","63","0","63","3","67","0","67","Fri Feb 19 12:27:14 2021","The main experiment item","yes","Lexical_Decision_Task.osexp","/Users/emma/Desktop","no","Andale Mono","no","18","no","white","no","yes","576","legacy","63","63","3","/Users/emma/Desktop/subject-5210288.csv","legacy","Lentiform Loewenfeld","3.3.7","yes","yes","600bd7cfb6416f0113b04181","602110864497cf011d9c0822","0","j","NA","space","space","space","space","j","378","NA","1901","15586","5698","56259","378","2","legacy","1024","2","48000","-16","task","5210288","even","NA","35114","39019","37118","205515","6604","27910","22207","206018","125202","205513","206018","205459","39019","206398","33450","204959","6560","202286","Lexical Decision Task","63","42317","68","yes","1024"
"2.937852093","0","7","bamp","non-word","92.7536231884058","92.7536231884058","624.3478260869565","624.3478260869565","black","no","legacy","legacy","legacy","0","uniform","1","undefined","undefined","undefined","1","f","0","0","0","0","68","0","0","0","68","0","64","68","64","0","64","3","68","0","68","Fri Feb 19 12:27:14 2021","The main experiment item","yes","Lexical_Decision_Task.osexp","/Users/emma/Desktop","no","Andale Mono","no","18","no","white","no","yes","576","legacy","64","64","3","/Users/emma/Desktop/subject-5210288.csv","legacy","Lentiform Loewenfeld","3.3.7","yes","yes","600bd7cfb6416f0113b04181","602110864497cf011d9c0822","0","f","NA","space","space","space","space","f","763","NA","1901","15586","5698","56259","763","2","legacy","1024","2","48000","-16","task","5210288","even","NA","35114","39019","37118","207963","6604","27910","22207","208466","125202","207960","208466","207903","39019","209230","33450","204959","6560","206403","Lexical Decision Task","64","43080","69","yes","1024"
"2.990042563","6.64","9","plow","word","91.42857142857143","91.42857142857143","624.1142857142858","624.1142857142858","black","no","legacy","legacy","legacy","0","uniform","0","undefined","undefined","undefined","0","j","0","0","0","0","69","0","0","0","69","0","65","69","65","0","65","3","69","0","69","Fri Feb 19 12:27:14 2021","The main experiment item","yes","Lexical_Decision_Task.osexp","/Users/emma/Desktop","no","Andale Mono","no","18","no","white","no","yes","576","legacy","65","65","3","/Users/emma/Desktop/subject-5210288.csv","legacy","Lentiform Loewenfeld","3.3.7","yes","yes","600bd7cfb6416f0113b04181","602110864497cf011d9c0822","0","f","NA","space","space","space","space","f","608","NA","1901","15586","5698","56259","608","2","legacy","1024","2","48000","-16","task","5210288","even","NA","35114","39019","37118","209792","6604","27910","22207","210295","125202","209789","210295","209736","39019","210904","33450","209236","6560","206403","Lexical Decision Task","64","43688","70","yes","1024"
"3.20871002","7.15","8","cram","word","91.54929577464789","91.54929577464789","623.5915492957746","623.5915492957746","black","no","legacy","legacy","legacy","0","uniform","1","undefined","undefined","undefined","1","j","0","0","0","0","70","0","0","0","70","0","66","70","66","0","66","3","70","0","70","Fri Feb 19 12:27:14 2021","The main experiment item","yes","Lexical_Decision_Task.osexp","/Users/emma/Desktop","no","Andale Mono","no","18","no","white","no","yes","576","legacy","66","66","3","/Users/emma/Desktop/subject-5210288.csv","legacy","Lentiform Loewenfeld","3.3.7","yes","yes","600bd7cfb6416f0113b04181","602110864497cf011d9c0822","0","j","NA","space","space","space","space","j","587","NA","1901","15586","5698","56259","587","2","legacy","1024","2","48000","-16","task","5210288","even","NA","35114","39019","37118","212470","6604","27910","22207","212973","125202","212467","212973","212409","39019","213561","33450","209236","6560","210909","Lexical Decision Task","65","44275","71","yes","1024"
"3.316948329","0","1","besc","non-word","91.66666666666667","91.66666666666667","622.0972222222222","622.0972222222222","black","no","legacy","legacy","legacy","0","uniform","1","undefined","undefined","undefined","1","f","0","0","0","0","71","0","0","0","71","0","67","71","67","0","67","3","71","0","71","Fri Feb 19 12:27:14 2021","The main experiment item","yes","Lexical_Decision_Task.osexp","/Users/emma/Desktop","no","Andale Mono","no","18","no","white","no","yes","576","legacy","67","67","3","/Users/emma/Desktop/subject-5210288.csv","legacy","Lentiform Loewenfeld","3.3.7","yes","yes","600bd7cfb6416f0113b04181","602110864497cf011d9c0822","0","f","NA","space","space","space","space","f","516","NA","1901","15586","5698","56259","516","2","legacy","1024","2","48000","-16","task","5210288","even","NA","35114","39019","37118","214122","6604","27910","22207","214625","125202","214120","214626","214066","39019","215143","33450","213565","6560","210909","Lexical Decision Task","66","44791","72","yes","1024"
"3.145920145","8.51","8","flew","word","91.78082191780823","91.78082191780823","620.8630136986301","620.8630136986301","black","no","legacy","legacy","legacy","0","uniform","1","undefined","undefined","undefined","1","j","0","0","0","0","72","0","0","0","72","0","68","72","68","0","68","3","72","0","72","Fri Feb 19 12:27:14 2021","The main experiment item","yes","Lexical_Decision_Task.osexp","/Users/emma/Desktop","no","Andale Mono","no","18","no","white","no","yes","576","legacy","68","68","3","/Users/emma/Desktop/subject-5210288.csv","legacy","Lentiform Loewenfeld","3.3.7","yes","yes","600bd7cfb6416f0113b04181","602110864497cf011d9c0822","0","j","NA","space","space","space","space","j","532","NA","1901","15586","5698","56259","532","2","legacy","1024","2","48000","-16","task","5210288","even","NA","35114","39019","37118","215705","6604","27910","22207","216208","125202","215702","216208","215648","39019","216741","33450","215148","6560","210909","Lexical Decision Task","67","45323","73","yes","1024"
"3.529815197","0","3","lerm","non-word","91.89189189189189","91.89189189189189","622.2162162162163","622.2162162162163","black","no","legacy","legacy","legacy","0","uniform","1","undefined","undefined","undefined","1","f","0","0","0","0","73","0","0","0","73","0","69","73","69","0","69","3","73","0","73","Fri Feb 19 12:27:14 2021","The main experiment item","yes","Lexical_Decision_Task.osexp","/Users/emma/Desktop","no","Andale Mono","no","18","no","white","no","yes","576","legacy","69","69","3","/Users/emma/Desktop/subject-5210288.csv","legacy","Lentiform Loewenfeld","3.3.7","yes","yes","600bd7cfb6416f0113b04181","602110864497cf011d9c0822","0","f","NA","space","space","space","space","f","721","NA","1901","15586","5698","56259","721","2","legacy","1024","2","48000","-16","task","5210288","even","NA","35114","39019","37118","217302","6604","27910","22207","217805","125202","217299","217805","217246","39019","218527","33450","216746","6560","210909","Lexical Decision Task","68","46044","74","yes","1024"
"2.713490543","0","3","feps","non-word","92","92","625.0666666666667","625.0666666666667","black","no","legacy","legacy","legacy","0","uniform","1","undefined","undefined","undefined","1","f","0","0","0","0","74","0","0","0","74","0","70","74","70","0","70","3","74","0","74","Fri Feb 19 12:27:14 2021","The main experiment item","yes","Lexical_Decision_Task.osexp","/Users/emma/Desktop","no","Andale Mono","no","18","no","white","no","yes","576","legacy","70","70","3","/Users/emma/Desktop/subject-5210288.csv","legacy","Lentiform Loewenfeld","3.3.7","yes","yes","600bd7cfb6416f0113b04181","602110864497cf011d9c0822","0","f","NA","space","space","space","space","f","836","NA","1901","15586","5698","56259","836","2","legacy","1024","2","48000","-16","task","5210288","even","NA","35114","39019","37118","219089","6604","27910","22207","219592","125202","219086","219592","219033","39019","220429","33450","218533","6560","210909","Lexical Decision Task","69","46880","75","yes","1024"
"2.708989954","9.28","9","bowl","word","92.10526315789474","92.10526315789474","624.1315789473684","624.1315789473684","black","no","legacy","legacy","legacy","0","uniform","1","undefined","undefined","undefined","1","j","0","0","0","0","75","0","0","0","75","0","71","75","71","0","71","3","75","0","75","Fri Feb 19 12:27:14 2021","The main experiment item","yes","Lexical_Decision_Task.osexp","/Users/emma/Desktop","no","Andale Mono","no","18","no","white","no","yes","576","legacy","71","71","3","/Users/emma/Desktop/subject-5210288.csv","legacy","Lentiform Loewenfeld","3.3.7","yes","yes","600bd7cfb6416f0113b04181","602110864497cf011d9c0822","0","j","NA","space","space","space","space","j","554","NA","1901","15586","5698","56259","554","2","legacy","1024","2","48000","-16","task","5210288","even","NA","35114","39019","37118","220991","6604","27910","22207","221494","125202","220988","221494","220935","39019","222049","33450","220434","6560","210909","Lexical Decision Task","70","47434","76","yes","1024"
"2.893578687","8.69","3","surf","word","92.20779220779221","92.20779220779221","622.7012987012987","622.7012987012987","black","no","legacy","legacy","legacy","0","uniform","1","undefined","undefined","undefined","1","j","0","0","0","0","76","0","0","0","76","0","72","76","72","0","72","3","76","0","76","Fri Feb 19 12:27:14 2021","The main experiment item","yes","Lexical_Decision_Task.osexp","/Users/emma/Desktop","no","Andale Mono","no","18","no","white","no","yes","576","legacy","72","72","3","/Users/emma/Desktop/subject-5210288.csv","legacy","Lentiform Loewenfeld","3.3.7","yes","yes","600bd7cfb6416f0113b04181","602110864497cf011d9c0822","0","j","NA","space","space","space","space","j","514","NA","1901","15586","5698","56259","514","2","legacy","1024","2","48000","-16","task","5210288","even","NA","35114","39019","37118","222610","6604","27910","22207","223113","125202","222607","223113","222555","39019","223628","33450","222054","6560","210909","Lexical Decision Task","71","47948","77","yes","1024"
"2.807758206","6.25","4","hurl","word","92.3076923076923","92.3076923076923","623.8974358974359","623.8974358974359","black","no","legacy","legacy","legacy","0","uniform","1","undefined","undefined","undefined","1","j","0","0","0","0","77","0","0","0","77","0","73","77","73","0","73","3","77","0","77","Fri Feb 19 12:27:14 2021","The main experiment item","yes","Lexical_Decision_Task.osexp","/Users/emma/Desktop","no","Andale Mono","no","18","no","white","no","yes","576","legacy","73","73","3","/Users/emma/Desktop/subject-5210288.csv","legacy","Lentiform Loewenfeld","3.3.7","yes","yes","600bd7cfb6416f0113b04181","602110864497cf011d9c0822","0","j","NA","space","space","space","space","j","716","NA","1901","15586","5698","56259","716","2","legacy","1024","2","48000","-16","task","5210288","even","NA","35114","39019","37118","224190","6604","27910","22207","224693","125202","224188","224694","224133","39019","225411","33450","223633","6560","210909","Lexical Decision Task","72","48664","78","yes","1024"
"2.981215883","10.66","5","hair","word","92.40506329113924","92.40506329113924","622.8354430379746","622.8354430379746","black","no","legacy","legacy","legacy","0","uniform","1","undefined","undefined","undefined","1","j","0","0","0","0","78","0","0","0","78","0","74","78","74","0","74","3","78","0","78","Fri Feb 19 12:27:14 2021","The main experiment item","yes","Lexical_Decision_Task.osexp","/Users/emma/Desktop","no","Andale Mono","no","18","no","white","no","yes","576","legacy","74","74","3","/Users/emma/Desktop/subject-5210288.csv","legacy","Lentiform Loewenfeld","3.3.7","yes","yes","600bd7cfb6416f0113b04181","602110864497cf011d9c0822","0","j","NA","space","space","space","space","j","540","NA","1901","15586","5698","56259","540","2","legacy","1024","2","48000","-16","task","5210288","even","NA","35114","39019","37118","225972","6604","27910","22207","226475","125202","225969","226475","225916","39019","227016","33450","225416","6560","210909","Lexical Decision Task","73","49204","79","yes","1024"
"3.261341392","5.08","8","reek","word","92.5","92.5","621.5625","621.5625","black","no","legacy","legacy","legacy","0","uniform","1","undefined","undefined","undefined","1","j","0","0","0","0","79","0","0","0","79","0","75","79","75","0","75","3","79","0","79","Fri Feb 19 12:27:14 2021","The main experiment item","yes","Lexical_Decision_Task.osexp","/Users/emma/Desktop","no","Andale Mono","no","18","no","white","no","yes","576","legacy","75","75","3","/Users/emma/Desktop/subject-5210288.csv","legacy","Lentiform Loewenfeld","3.3.7","yes","yes","600bd7cfb6416f0113b04181","602110864497cf011d9c0822","0","j","NA","space","space","space","space","j","521","NA","1901","15586","5698","56259","521","2","legacy","1024","2","48000","-16","task","5210288","even","NA","35114","39019","37118","227579","6604","27910","22207","228081","125202","227576","228082","227522","39019","228604","33450","227022","6560","210909","Lexical Decision Task","74","49725","80","yes","1024"
"3.363486562","6.93","9","lush","word","92.5925925925926","92.5925925925926","620.8024691358024","620.8024691358024","black","no","legacy","legacy","legacy","0","uniform","1","undefined","undefined","undefined","1","j","0","0","0","0","80","0","0","0","80","0","76","80","76","0","76","3","80","0","80","Fri Feb 19 12:27:14 2021","The main experiment item","yes","Lexical_Decision_Task.osexp","/Users/emma/Desktop","no","Andale Mono","no","18","no","white","no","yes","576","legacy","76","76","3","/Users/emma/Desktop/subject-5210288.csv","legacy","Lentiform Loewenfeld","3.3.7","yes","yes","600bd7cfb6416f0113b04181","602110864497cf011d9c0822","0","j","NA","space","space","space","space","j","560","NA","1901","15586","5698","56259","560","2","legacy","1024","2","48000","-16","task","5210288","even","NA","35114","39019","37118","229167","6604","27910","22207","229670","125202","229164","229670","229110","39019","230231","33450","228610","6560","210909","Lexical Decision Task","75","50285","81","yes","1024"
"2.714888338","0","3","brug","non-word","92.6829268292683","92.6829268292683","621.0975609756098","621.0975609756098","black","no","legacy","legacy","legacy","0","uniform","1","undefined","undefined","undefined","1","f","0","0","0","0","81","0","0","0","81","0","77","81","77","0","77","3","81","0","81","Fri Feb 19 12:27:14 2021","The main experiment item","yes","Lexical_Decision_Task.osexp","/Users/emma/Desktop","no","Andale Mono","no","18","no","white","no","yes","576","legacy","77","77","3","/Users/emma/Desktop/subject-5210288.csv","legacy","Lentiform Loewenfeld","3.3.7","yes","yes","600bd7cfb6416f0113b04181","602110864497cf011d9c0822","0","f","NA","space","space","space","space","f","645","NA","1901","15586","5698","56259","645","2","legacy","1024","2","48000","-16","task","5210288","even","NA","35114","39019","37118","230793","6604","27910","22207","231296","125202","230790","231296","230736","39019","231942","33450","230236","6560","210909","Lexical Decision Task","76","50930","82","yes","1024"
"3.168890155","0","6","thet","non-word","92.7710843373494","92.7710843373494","622.3614457831326","622.3614457831326","black","no","legacy","legacy","legacy","0","uniform","1","undefined","undefined","undefined","1","f","0","0","0","0","82","0","0","0","82","0","78","82","78","0","78","3","82","0","82","Fri Feb 19 12:27:14 2021","The main experiment item","yes","Lexical_Decision_Task.osexp","/Users/emma/Desktop","no","Andale Mono","no","18","no","white","no","yes","576","legacy","78","78","3","/Users/emma/Desktop/subject-5210288.csv","legacy","Lentiform Loewenfeld","3.3.7","yes","yes","600bd7cfb6416f0113b04181","602110864497cf011d9c0822","0","f","NA","space","space","space","space","f","726","NA","1901","15586","5698","56259","726","2","legacy","1024","2","48000","-16","task","5210288","even","NA","35114","39019","37118","232504","6604","27910","22207","233007","125202","232501","233007","232447","39019","233734","33450","231947","6560","210909","Lexical Decision Task","77","51656","83","yes","1024"
"2.675164031","8.57","6","glue","word","92.85714285714286","92.85714285714286","623.1547619047619","623.1547619047619","black","no","legacy","legacy","legacy","0","uniform","1","undefined","undefined","undefined","1","j","0","0","0","0","83","0","0","0","83","0","79","83","79","0","79","3","83","0","83","Fri Feb 19 12:27:14 2021","The main experiment item","yes","Lexical_Decision_Task.osexp","/Users/emma/Desktop","no","Andale Mono","no","18","no","white","no","yes","576","legacy","79","79","3","/Users/emma/Desktop/subject-5210288.csv","legacy","Lentiform Loewenfeld","3.3.7","yes","yes","600bd7cfb6416f0113b04181","602110864497cf011d9c0822","0","j","NA","space","space","space","space","j","689","NA","1901","15586","5698","56259","689","2","legacy","1024","2","48000","-16","task","5210288","even","NA","35114","39019","37118","234295","6604","27910","22207","234799","125202","234293","234799","234239","39019","235489","33450","233739","6560","210909","Lexical Decision Task","78","52345","84","yes","1024"
"2.952953801","0","8","clax","non-word","92.94117647058823","92.94117647058823","625.0588235294117","625.0588235294117","black","no","legacy","legacy","legacy","0","uniform","1","undefined","undefined","undefined","1","f","0","0","0","0","84","0","0","0","84","0","80","84","80","0","80","3","84","0","84","Fri Feb 19 12:27:14 2021","The main experiment item","yes","Lexical_Decision_Task.osexp","/Users/emma/Desktop","no","Andale Mono","no","18","no","white","no","yes","576","legacy","80","80","3","/Users/emma/Desktop/subject-5210288.csv","legacy","Lentiform Loewenfeld","3.3.7","yes","yes","600bd7cfb6416f0113b04181","602110864497cf011d9c0822","0","f","NA","space","space","space","space","f","785","NA","1901","15586","5698","56259","785","2","legacy","1024","2","48000","-16","task","5210288","even","NA","35114","39019","37118","236051","6604","27910","22207","236554","125202","236048","236554","235994","39019","237340","33450","235494","6560","210909","Lexical Decision Task","79","53130","85","yes","1024"
"3.382617311","0","4","pret","non-word","93.02325581395348","93.02325581395348","629.5697674418604","629.5697674418604","black","no","legacy","legacy","legacy","0","uniform","1","undefined","undefined","undefined","1","f","0","0","0","0","85","0","0","0","85","0","81","85","81","0","81","3","85","0","85","Fri Feb 19 12:27:14 2021","The main experiment item","yes","Lexical_Decision_Task.osexp","/Users/emma/Desktop","no","Andale Mono","no","18","no","white","no","yes","576","legacy","81","81","3","/Users/emma/Desktop/subject-5210288.csv","legacy","Lentiform Loewenfeld","3.3.7","yes","yes","600bd7cfb6416f0113b04181","602110864497cf011d9c0822","0","f","NA","space","space","space","space","f","1013","NA","1901","15586","5698","56259","1013","2","legacy","1024","2","48000","-16","task","5210288","even","NA","35114","39019","37118","237902","6604","27910","22207","238405","125202","237899","238405","237845","39019","239419","33450","237345","6560","210909","Lexical Decision Task","80","54143","86","yes","1024"
"3.094121596","0","8","fode","non-word","93.10344827586206","93.10344827586206","629.264367816092","629.264367816092","black","no","legacy","legacy","legacy","0","uniform","1","undefined","undefined","undefined","1","f","0","0","0","0","86","0","0","0","86","0","82","86","82","0","82","3","86","0","86","Fri Feb 19 12:27:14 2021","The main experiment item","yes","Lexical_Decision_Task.osexp","/Users/emma/Desktop","no","Andale Mono","no","18","no","white","no","yes","576","legacy","82","82","3","/Users/emma/Desktop/subject-5210288.csv","legacy","Lentiform Loewenfeld","3.3.7","yes","yes","600bd7cfb6416f0113b04181","602110864497cf011d9c0822","0","f","NA","space","space","space","space","f","603","NA","1901","15586","5698","56259","603","2","legacy","1024","2","48000","-16","task","5210288","even","NA","35114","39019","37118","239981","6604","27910","22207","240484","125202","239979","240484","239925","39019","241088","33450","239424","6560","210909","Lexical Decision Task","81","54746","87","yes","1024"
"2.858136002","0","4","phip","non-word","93.18181818181819","93.18181818181819","628.4659090909091","628.4659090909091","black","no","legacy","legacy","legacy","0","uniform","1","undefined","undefined","undefined","1","f","0","0","0","0","87","0","0","0","87","0","83","87","83","0","83","3","87","0","87","Fri Feb 19 12:27:14 2021","The main experiment item","yes","Lexical_Decision_Task.osexp","/Users/emma/Desktop","no","Andale Mono","no","18","no","white","no","yes","576","legacy","83","83","3","/Users/emma/Desktop/subject-5210288.csv","legacy","Lentiform Loewenfeld","3.3.7","yes","yes","600bd7cfb6416f0113b04181","602110864497cf011d9c0822","0","f","NA","space","space","space","space","f","559","NA","1901","15586","5698","56259","559","2","legacy","1024","2","48000","-16","task","5210288","even","NA","35114","39019","37118","241649","6604","27910","22207","242151","125202","241646","242152","241593","39019","242712","33450","241093","6560","210909","Lexical Decision Task","82","55305","88","yes","1024"
"2.705007959","6.01","4","wept","word","93.25842696629213","93.25842696629213","627.5955056179776","627.5955056179776","black","no","legacy","legacy","legacy","0","uniform","1","undefined","undefined","undefined","1","j","0","0","0","0","88","0","0","0","88","0","84","88","84","0","84","3","88","0","88","Fri Feb 19 12:27:14 2021","The main experiment item","yes","Lexical_Decision_Task.osexp","/Users/emma/Desktop","no","Andale Mono","no","18","no","white","no","yes","576","legacy","84","84","3","/Users/emma/Desktop/subject-5210288.csv","legacy","Lentiform Loewenfeld","3.3.7","yes","yes","600bd7cfb6416f0113b04181","602110864497cf011d9c0822","0","j","NA","space","space","space","space","j","551","NA","1901","15586","5698","56259","551","2","legacy","1024","2","48000","-16","task","5210288","even","NA","35114","39019","37118","243273","6604","27910","22207","243776","125202","243270","243776","243217","39019","244328","33450","242717","6560","210909","Lexical Decision Task","83","55856","89","yes","1024"
"2.812467698","0","7","hafe","non-word","92.22222222222223","92.22222222222223","625.1222222222223","625.1222222222223","black","no","legacy","legacy","legacy","0","uniform","0","undefined","undefined","undefined","0","f","0","0","0","0","89","0","0","0","89","0","85","89","85","0","85","3","89","0","89","Fri Feb 19 12:27:14 2021","The main experiment item","yes","Lexical_Decision_Task.osexp","/Users/emma/Desktop","no","Andale Mono","no","18","no","white","no","yes","576","legacy","85","85","3","/Users/emma/Desktop/subject-5210288.csv","legacy","Lentiform Loewenfeld","3.3.7","yes","yes","600bd7cfb6416f0113b04181","602110864497cf011d9c0822","0","j","NA","space","space","space","space","j","405","NA","1901","15586","5698","56259","405","2","legacy","1024","2","48000","-16","task","5210288","even","NA","35114","39019","37118","244890","6604","27910","22207","245393","125202","244887","245393","244834","39019","245799","33450","244334","6560","210909","Lexical Decision Task","83","56261","90","yes","1024"
"2.68604012","0","3","mulb","non-word","92.3076923076923","92.3076923076923","626.5164835164835","626.5164835164835","black","no","legacy","legacy","legacy","0","uniform","1","undefined","undefined","undefined","1","f","0","0","0","0","90","0","0","0","90","0","86","90","86","0","86","3","90","0","90","Fri Feb 19 12:27:14 2021","The main experiment item","yes","Lexical_Decision_Task.osexp","/Users/emma/Desktop","no","Andale Mono","no","18","no","white","no","yes","576","legacy","86","86","3","/Users/emma/Desktop/subject-5210288.csv","legacy","Lentiform Loewenfeld","3.3.7","yes","yes","600bd7cfb6416f0113b04181","602110864497cf011d9c0822","0","f","NA","space","space","space","space","f","752","NA","1901","15586","5698","56259","752","2","legacy","1024","2","48000","-16","task","5210288","even","NA","35114","39019","37118","247364","6604","27910","22207","247867","125202","247362","247867","247305","39019","248620","33450","244334","6560","245804","Lexical Decision Task","84","57013","91","yes","1024"
"3.165936429","0","7","leps","non-word","92.3913043478261","92.3913043478261","625.9673913043479","625.9673913043479","black","no","legacy","legacy","legacy","0","uniform","1","undefined","undefined","undefined","1","f","0","0","0","0","91","0","0","0","91","0","87","91","87","0","87","3","91","0","91","Fri Feb 19 12:27:14 2021","The main experiment item","yes","Lexical_Decision_Task.osexp","/Users/emma/Desktop","no","Andale Mono","no","18","no","white","no","yes","576","legacy","87","87","3","/Users/emma/Desktop/subject-5210288.csv","legacy","Lentiform Loewenfeld","3.3.7","yes","yes","600bd7cfb6416f0113b04181","602110864497cf011d9c0822","0","f","NA","space","space","space","space","f","576","NA","1901","15586","5698","56259","576","2","legacy","1024","2","48000","-16","task","5210288","even","NA","35114","39019","37118","249181","6604","27910","22207","249684","125202","249178","249684","249125","39019","250262","33450","248625","6560","245804","Lexical Decision Task","85","57589","92","yes","1024"
"2.953276337","6.32","4","thaw","word","92.47311827956989","92.47311827956989","624.9569892473119","624.9569892473119","black","no","legacy","legacy","legacy","0","uniform","1","undefined","undefined","undefined","1","j","0","0","0","0","92","0","0","0","92","0","88","92","88","0","88","3","92","0","92","Fri Feb 19 12:27:14 2021","The main experiment item","yes","Lexical_Decision_Task.osexp","/Users/emma/Desktop","no","Andale Mono","no","18","no","white","no","yes","576","legacy","88","88","3","/Users/emma/Desktop/subject-5210288.csv","legacy","Lentiform Loewenfeld","3.3.7","yes","yes","600bd7cfb6416f0113b04181","602110864497cf011d9c0822","0","j","NA","space","space","space","space","j","532","NA","1901","15586","5698","56259","532","2","legacy","1024","2","48000","-16","task","5210288","even","NA","35114","39019","37118","250824","6604","27910","22207","251327","125202","250822","251327","250767","39019","251860","33450","250267","6560","245804","Lexical Decision Task","86","58121","93","yes","1024"
"3.347850856","10.51","2","rich","word","92.55319148936171","92.55319148936171","624.2446808510638","624.2446808510638","black","no","legacy","legacy","legacy","0","uniform","1","undefined","undefined","undefined","1","j","0","0","0","0","93","0","0","0","93","0","89","93","89","0","89","3","93","0","93","Fri Feb 19 12:27:14 2021","The main experiment item","yes","Lexical_Decision_Task.osexp","/Users/emma/Desktop","no","Andale Mono","no","18","no","white","no","yes","576","legacy","89","89","3","/Users/emma/Desktop/subject-5210288.csv","legacy","Lentiform Loewenfeld","3.3.7","yes","yes","600bd7cfb6416f0113b04181","602110864497cf011d9c0822","0","j","NA","space","space","space","space","j","558","NA","1901","15586","5698","56259","558","2","legacy","1024","2","48000","-16","task","5210288","even","NA","35114","39019","37118","252422","6604","27910","22207","252926","125202","252420","252926","252365","39019","253486","33450","251865","6560","245804","Lexical Decision Task","87","58679","94","yes","1024"
"3.077974404","10.41","8","tool","word","92.63157894736842","92.63157894736842","623.3894736842105","623.3894736842105","black","no","legacy","legacy","legacy","0","uniform","1","undefined","undefined","undefined","1","j","0","0","0","0","94","0","0","0","94","0","90","94","90","0","90","3","94","0","94","Fri Feb 19 12:27:14 2021","The main experiment item","yes","Lexical_Decision_Task.osexp","/Users/emma/Desktop","no","Andale Mono","no","18","no","white","no","yes","576","legacy","90","90","3","/Users/emma/Desktop/subject-5210288.csv","legacy","Lentiform Loewenfeld","3.3.7","yes","yes","600bd7cfb6416f0113b04181","602110864497cf011d9c0822","0","j","NA","space","space","space","space","j","543","NA","1901","15586","5698","56259","543","2","legacy","1024","2","48000","-16","task","5210288","even","NA","35114","39019","37118","254048","6604","27910","22207","254551","125202","254045","254551","253991","39019","255095","33450","253491","6560","245804","Lexical Decision Task","88","59222","95","yes","1024"
"3.378276681","6.39","8","bran","word","91.66666666666667","91.66666666666667","623.2291666666666","623.2291666666666","black","no","legacy","legacy","legacy","0","uniform","0","undefined","undefined","undefined","0","j","0","0","0","0","95","0","0","0","95","0","91","95","91","0","91","3","95","0","95","Fri Feb 19 12:27:14 2021","The main experiment item","yes","Lexical_Decision_Task.osexp","/Users/emma/Desktop","no","Andale Mono","no","18","no","white","no","yes","576","legacy","91","91","3","/Users/emma/Desktop/subject-5210288.csv","legacy","Lentiform Loewenfeld","3.3.7","yes","yes","600bd7cfb6416f0113b04181","602110864497cf011d9c0822","0","f","NA","space","space","space","space","f","608","NA","1901","15586","5698","56259","608","2","legacy","1024","2","48000","-16","task","5210288","even","NA","35114","39019","37118","255657","6604","27910","22207","256160","125202","255654","256160","255600","39019","256769","33450","255100","6560","245804","Lexical Decision Task","88","59830","96","yes","1024"
"2.68604012","0","4","pumb","non-word","91.75257731958763","91.75257731958763","625.7525773195877","625.7525773195877","black","no","legacy","legacy","legacy","0","uniform","1","undefined","undefined","undefined","1","f","0","0","0","0","96","0","0","0","96","0","92","96","92","0","92","3","96","0","96","Fri Feb 19 12:27:14 2021","The main experiment item","yes","Lexical_Decision_Task.osexp","/Users/emma/Desktop","no","Andale Mono","no","18","no","white","no","yes","576","legacy","92","92","3","/Users/emma/Desktop/subject-5210288.csv","legacy","Lentiform Loewenfeld","3.3.7","yes","yes","600bd7cfb6416f0113b04181","602110864497cf011d9c0822","0","f","NA","space","space","space","space","f","868","NA","1901","15586","5698","56259","868","2","legacy","1024","2","48000","-16","task","5210288","even","NA","35114","39019","37118","258334","6604","27910","22207","258837","125202","258332","258837","258275","39019","259706","33450","255100","6560","256775","Lexical Decision Task","89","60698","97","yes","1024"
"3.082307743","9.68","8","camp","word","91.83673469387755","91.83673469387755","625.9387755102041","625.9387755102041","black","no","legacy","legacy","legacy","0","uniform","1","undefined","undefined","undefined","1","j","0","0","0","0","97","0","0","0","97","0","93","97","93","0","93","3","97","0","97","Fri Feb 19 12:27:14 2021","The main experiment item","yes","Lexical_Decision_Task.osexp","/Users/emma/Desktop","no","Andale Mono","no","18","no","white","no","yes","576","legacy","93","93","3","/Users/emma/Desktop/subject-5210288.csv","legacy","Lentiform Loewenfeld","3.3.7","yes","yes","600bd7cfb6416f0113b04181","602110864497cf011d9c0822","0","j","NA","space","space","space","space","j","644","NA","1901","15586","5698","56259","644","2","legacy","1024","2","48000","-16","task","5210288","even","NA","35114","39019","37118","260269","6604","27910","22207","260772","125202","260266","260772","260211","39019","261418","33450","259711","6560","256775","Lexical Decision Task","90","61342","98","yes","1024"
"2.873320602","0","4","lurg","non-word","91.91919191919192","91.91919191919192","625.6868686868687","625.6868686868687","black","no","legacy","legacy","legacy","0","uniform","1","undefined","undefined","undefined","1","f","0","0","0","0","98","0","0","0","98","0","94","98","94","0","94","3","98","0","98","Fri Feb 19 12:27:14 2021","The main experiment item","yes","Lexical_Decision_Task.osexp","/Users/emma/Desktop","no","Andale Mono","no","18","no","white","no","yes","576","legacy","94","94","3","/Users/emma/Desktop/subject-5210288.csv","legacy","Lentiform Loewenfeld","3.3.7","yes","yes","600bd7cfb6416f0113b04181","602110864497cf011d9c0822","0","f","NA","space","space","space","space","f","601","NA","1901","15586","5698","56259","601","2","legacy","1024","2","48000","-16","task","5210288","even","NA","35114","39019","37118","261979","6604","27910","22207","262482","125202","261976","262482","261923","39019","263084","33450","261423","6560","256775","Lexical Decision Task","91","61943","99","yes","1024"
"3.29439347","8.6","9","wand","word","92","92","627.04","627.04","black","no","legacy","legacy","legacy","0","uniform","1","undefined","undefined","undefined","1","j","0","0","0","0","99","0","0","0","99","0","95","99","95","0","95","3","99","0","99","Fri Feb 19 12:27:14 2021","The main experiment item","yes","Lexical_Decision_Task.osexp","/Users/emma/Desktop","no","Andale Mono","no","18","no","white","no","yes","576","legacy","95","95","3","/Users/emma/Desktop/subject-5210288.csv","legacy","Lentiform Loewenfeld","3.3.7","yes","yes","600bd7cfb6416f0113b04181","602110864497cf011d9c0822","0","j","NA","space","space","space","space","j","761","NA","1901","15586","5698","56259","761","2","legacy","1024","2","48000","-16","task","5210288","even","NA","35114","39019","37118","263645","6604","27910","22207","264148","125202","263642","264148","263589","39019","264910","33450","263089","6560","256775","Lexical Decision Task","92","62704","100","yes","1024"
"3.068433376","8.09","2","bulb","word","92.07920792079207","92.07920792079207","626.0297029702971","626.0297029702971","black","no","legacy","legacy","legacy","0","uniform","1","undefined","undefined","undefined","1","j","0","0","0","0","100","0","0","0","100","0","96","100","96","0","96","3","100","0","100","Fri Feb 19 12:27:14 2021","The main experiment item","yes","Lexical_Decision_Task.osexp","/Users/emma/Desktop","no","Andale Mono","no","18","no","white","no","yes","576","legacy","96","96","3","/Users/emma/Desktop/subject-5210288.csv","legacy","Lentiform Loewenfeld","3.3.7","yes","yes","600bd7cfb6416f0113b04181","602110864497cf011d9c0822","0","j","NA","space","space","space","space","j","525","NA","1901","15586","5698","56259","525","2","legacy","1024","2","48000","-16","task","5210288","even","NA","35114","39019","37118","265473","6604","27910","22207","265976","125202","265470","265976","265416","39019","266502","33450","264916","6560","256775","Lexical Decision Task","93","63229","101","yes","1024"
"3.705778213","0","6","stin","non-word","92.15686274509804","92.15686274509804","625.8823529411765","625.8823529411765","black","no","legacy","legacy","legacy","0","uniform","1","undefined","undefined","undefined","1","f","0","0","0","0","101","0","0","0","101","0","97","101","97","0","97","3","101","0","101","Fri Feb 19 12:27:14 2021","The main experiment item","yes","Lexical_Decision_Task.osexp","/Users/emma/Desktop","no","Andale Mono","no","18","no","white","no","yes","576","legacy","97","97","3","/Users/emma/Desktop/subject-5210288.csv","legacy","Lentiform Loewenfeld","3.3.7","yes","yes","600bd7cfb6416f0113b04181","602110864497cf011d9c0822","0","f","NA","space","space","space","space","f","611","NA","1901","15586","5698","56259","611","2","legacy","1024","2","48000","-16","task","5210288","even","NA","35114","39019","37118","267063","6604","27910","22207","267567","125202","267061","267567","267007","39019","268179","33450","266507","6560","256775","Lexical Decision Task","94","63840","102","yes","1024"
