"Log_BG","Log_Freq_HAL","Ortho_N","Stimulus","Type","acc","accuracy","average_response_time","avg_rt","background","bidi","canvas_backend","clock_backend","color_backend","compensation","coordinates","correct","correct_Experimental_intro","correct_Introduction","correct_Practice_intro","correct_experimenter_kb","correct_response","count_End_Of_Experiment","count_End_Of_Practice","count_Experimental_Loop","count_Experimental_intro","count_Fixation","count_Introduction","count_Practice_Loop","count_Practice_intro","count_Stimulus","count_block_break_feedback","count_experimental_sequence","count_experimenter_kb","count_increment_trial_count","count_init_trial_count","count_logger","count_practice_sequence","count_right","count_task","count_wrong","datetime","description","disable_garbage_collection","experiment_file","experiment_path","font_bold","font_family","font_italic","font_size","font_underline","foreground","form_clicks","fullscreen","height","keyboard_backend","live_row","live_row_Experimental_Loop","live_row_Practice_Loop","logfile","mouse_backend","opensesame_codename","opensesame_version","osf_always_upload_data","osf_always_upload_experiment","osf_datanode_id","osf_id","repeat_cycle","response","response_End_Of_Experiment","response_Experimental_intro","response_Introduction","response_Practice_intro","response_block_break_feedback","response_experimenter_kb","response_time","response_time_End_Of_Experiment","response_time_Experimental_intro","response_time_Introduction","response_time_Practice_intro","response_time_block_break_feedback","response_time_experimenter_kb","round_decimals","sampler_backend","sound_buf_size","sound_channels","sound_freq","sound_sample_size","start","subject_nr","subject_parity","time_End_Of_Experiment","time_End_Of_Practice","time_Experimental_Loop","time_Experimental_intro","time_Fixation","time_Introduction","time_Practice_Loop","time_Practice_intro","time_Stimulus","time_block_break_feedback","time_experimental_sequence","time_experimenter_kb","time_increment_trial_count","time_init_trial_count","time_logger","time_practice_sequence","time_right","time_task","time_wrong","title","total_correct","total_response_time","total_responses","uniform_coordinates","width"
"2.838639236","0","4","furg","non-word","40","40","2154.8","2154.8","black","no","legacy","legacy","legacy","0","uniform","1","undefined","undefined","undefined","1","f","0","0","0","0","4","0","0","0","4","NA","0","4","0","0","0","3","4","0","4","Fri Feb 19 12:49:46 2021","The main experiment item","yes","Lexical_Decision_Task.osexp","/Users/petruapostol/Desktop","no","Andale Mono","no","18","no","white","no","yes","576","legacy","0","0","3","/Users/petruapostol/Desktop/subject-5206902.csv","legacy","Lentiform Loewenfeld","3.3.7","yes","yes","600bd7cfb6416f0113b04181","602110864497cf011d9c0822","0","f","NA","space","space","space","NA","f","2616","NA","5051","14289","13508","NA","2616","2","legacy","1024","2","48000","-16","task","5206902","even","NA","50561","57614","52562","57639","7340","35160","21647","58141","NA","57636","58142","NA","57614","60758","47351","43180","7226","49036","Lexical Decision Task","2","10774","5","yes","1024"
"3.1430148","7.92","8","bald","word","50","50","2246.6666666666665","2246.6666666666665","black","no","legacy","legacy","legacy","0","uniform","1","undefined","undefined","undefined","1","j","0","0","0","0","5","0","0","0","5","NA","1","5","1","0","1","3","5","0","5","Fri Feb 19 12:49:46 2021","The main experiment item","yes","Lexical_Decision_Task.osexp","/Users/petruapostol/Desktop","no","Andale Mono","no","18","no","white","no","yes","576","legacy","1","1","3","/Users/petruapostol/Desktop/subject-5206902.csv","legacy","Lentiform Loewenfeld","3.3.7","yes","yes","600bd7cfb6416f0113b04181","602110864497cf011d9c0822","0","j","NA","space","space","space","NA","j","2706","NA","5051","14289","13508","NA","2706","2","legacy","1024","2","48000","-16","task","5206902","even","NA","50561","57614","52562","61315","7340","35160","21647","61818","NA","61313","61818","61266","57614","64525","47351","60766","7226","49036","Lexical Decision Task","3","13480","6","yes","1024"
"3.120025233","0","2","nyst","non-word","57.142857142857146","57.142857142857146","2046.4285714285713","2046.4285714285713","black","no","legacy","legacy","legacy","0","uniform","1","undefined","undefined","undefined","1","f","0","0","0","0","6","0","0","0","6","NA","2","6","2","0","2","3","6","0","6","Fri Feb 19 12:49:46 2021","The main experiment item","yes","Lexical_Decision_Task.osexp","/Users/petruapostol/Desktop","no","Andale Mono","no","18","no","white","no","yes","576","legacy","2","2","3","/Users/petruapostol/Desktop/subject-5206902.csv","legacy","Lentiform Loewenfeld","3.3.7","yes","yes","600bd7cfb6416f0113b04181","602110864497cf011d9c0822","0","f","NA","space","space","space","NA","f","845","NA","5051","14289","13508","NA","845","2","legacy","1024","2","48000","-16","task","5206902","even","NA","50561","57614","52562","65073","7340","35160","21647","65574","NA","65070","65575","65028","57614","66420","47351","64528","7226","49036","Lexical Decision Task","4","14325","7","yes","1024"
"3.140404328","10.66","9","deep","word","50","50","2018.75","2018.75","black","no","legacy","legacy","legacy","0","uniform","0","undefined","undefined","undefined","0","j","0","0","0","0","7","0","0","0","7","NA","3","7","3","0","3","3","7","0","7","Fri Feb 19 12:49:46 2021","The main experiment item","yes","Lexical_Decision_Task.osexp","/Users/petruapostol/Desktop","no","Andale Mono","no","18","no","white","no","yes","576","legacy","3","3","3","/Users/petruapostol/Desktop/subject-5206902.csv","legacy","Lentiform Loewenfeld","3.3.7","yes","yes","600bd7cfb6416f0113b04181","602110864497cf011d9c0822","0","f","NA","space","space","space","NA","f","1825","NA","5051","14289","13508","NA","1825","2","legacy","1024","2","48000","-16","task","5206902","even","NA","50561","57614","52562","66969","7340","35160","21647","67471","NA","66967","67471","66923","57614","69297","47351","66423","7226","49036","Lexical Decision Task","4","16150","8","yes","1024"
"3.259832699","0","9","flar","non-word","55.55555555555556","55.55555555555556","1939.7777777777778","1939.7777777777778","black","no","legacy","legacy","legacy","0","uniform","1","undefined","undefined","undefined","1","f","0","0","0","0","8","0","0","0","8","NA","4","8","4","0","4","3","8","0","8","Fri Feb 19 12:49:46 2021","The main experiment item","yes","Lexical_Decision_Task.osexp","/Users/petruapostol/Desktop","no","Andale Mono","no","18","no","white","no","yes","576","legacy","4","4","3","/Users/petruapostol/Desktop/subject-5206902.csv","legacy","Lentiform Loewenfeld","3.3.7","yes","yes","600bd7cfb6416f0113b04181","602110864497cf011d9c0822","0","f","NA","space","space","space","NA","f","1308","NA","5051","14289","13508","NA","1308","2","legacy","1024","2","48000","-16","task","5206902","even","NA","50561","57614","52562","70845","7340","35160","21647","71347","NA","70843","71347","70800","57614","72656","47351","66423","7226","69299","Lexical Decision Task","5","17458","9","yes","1024"
"3.168400243","9.12","6","horn","word","50","50","1853.2","1853.2","black","no","legacy","legacy","legacy","0","uniform","0","undefined","undefined","undefined","0","j","0","0","0","0","9","0","0","0","9","NA","5","9","5","0","5","3","9","0","9","Fri Feb 19 12:49:46 2021","The main experiment item","yes","Lexical_Decision_Task.osexp","/Users/petruapostol/Desktop","no","Andale Mono","no","18","no","white","no","yes","576","legacy","5","5","3","/Users/petruapostol/Desktop/subject-5206902.csv","legacy","Lentiform Loewenfeld","3.3.7","yes","yes","600bd7cfb6416f0113b04181","602110864497cf011d9c0822","0","f","NA","space","space","space","NA","f","1074","NA","5051","14289","13508","NA","1074","2","legacy","1024","2","48000","-16","task","5206902","even","NA","50561","57614","52562","73203","7340","35160","21647","73705","NA","73201","73705","73160","57614","74780","47351","72660","7226","69299","Lexical Decision Task","5","18532","10","yes","1024"
"2.7084209","0","8","vump","non-word","54.54545454545455","54.54545454545455","1799.8181818181818","1799.8181818181818","black","no","legacy","legacy","legacy","0","uniform","1","undefined","undefined","undefined","1","f","0","0","0","0","10","0","0","0","10","NA","6","10","6","0","6","3","10","0","10","Fri Feb 19 12:49:46 2021","The main experiment item","yes","Lexical_Decision_Task.osexp","/Users/petruapostol/Desktop","no","Andale Mono","no","18","no","white","no","yes","576","legacy","6","6","3","/Users/petruapostol/Desktop/subject-5206902.csv","legacy","Lentiform Loewenfeld","3.3.7","yes","yes","600bd7cfb6416f0113b04181","602110864497cf011d9c0822","0","f","NA","space","space","space","NA","f","1266","NA","5051","14289","13508","NA","1266","2","legacy","1024","2","48000","-16","task","5206902","even","NA","50561","57614","52562","76335","7340","35160","21647","76838","NA","76332","76838","76284","57614","78105","47351","72660","7226","74784","Lexical Decision Task","6","19798","11","yes","1024"
"2.892836167","10.01","5","soft","word","58.333333333333336","58.333333333333336","1769.6666666666667","1769.6666666666667","black","no","legacy","legacy","legacy","0","uniform","1","undefined","undefined","undefined","1","j","0","0","0","0","11","0","0","0","11","NA","7","11","7","0","7","3","11","0","11","Fri Feb 19 12:49:46 2021","The main experiment item","yes","Lexical_Decision_Task.osexp","/Users/petruapostol/Desktop","no","Andale Mono","no","18","no","white","no","yes","576","legacy","7","7","3","/Users/petruapostol/Desktop/subject-5206902.csv","legacy","Lentiform Loewenfeld","3.3.7","yes","yes","600bd7cfb6416f0113b04181","602110864497cf011d9c0822","0","j","NA","space","space","space","NA","j","1438","NA","5051","14289","13508","NA","1438","2","legacy","1024","2","48000","-16","task","5206902","even","NA","50561","57614","52562","78657","7340","35160","21647","79158","NA","78655","79158","78609","57614","80596","47351","78109","7226","74784","Lexical Decision Task","7","21236","12","yes","1024"
"2.897810299","0","5","glur","non-word","53.84615384615385","53.84615384615385","1703.923076923077","1703.923076923077","black","no","legacy","legacy","legacy","0","uniform","0","undefined","undefined","undefined","0","f","0","0","0","0","12","0","0","0","12","NA","8","12","8","0","8","3","12","0","12","Fri Feb 19 12:49:46 2021","The main experiment item","yes","Lexical_Decision_Task.osexp","/Users/petruapostol/Desktop","no","Andale Mono","no","18","no","white","no","yes","576","legacy","8","8","3","/Users/petruapostol/Desktop/subject-5206902.csv","legacy","Lentiform Loewenfeld","3.3.7","yes","yes","600bd7cfb6416f0113b04181","602110864497cf011d9c0822","0","j","NA","space","space","space","NA","j","915","NA","5051","14289","13508","NA","915","2","legacy","1024","2","48000","-16","task","5206902","even","NA","50561","57614","52562","81147","7340","35160","21647","81649","NA","81145","81649","81100","57614","82564","47351","80600","7226","74784","Lexical Decision Task","7","22151","13","yes","1024"
"2.8162413","0","5","nusk","non-word","57.142857142857146","57.142857142857146","1650.7857142857142","1650.7857142857142","black","no","legacy","legacy","legacy","0","uniform","1","undefined","undefined","undefined","1","f","0","0","0","0","13","0","0","0","13","NA","9","13","9","0","9","3","13","0","13","Fri Feb 19 12:49:46 2021","The main experiment item","yes","Lexical_Decision_Task.osexp","/Users/petruapostol/Desktop","no","Andale Mono","no","18","no","white","no","yes","576","legacy","9","9","3","/Users/petruapostol/Desktop/subject-5206902.csv","legacy","Lentiform Loewenfeld","3.3.7","yes","yes","600bd7cfb6416f0113b04181","602110864497cf011d9c0822","0","f","NA","space","space","space","NA","f","960","NA","5051","14289","13508","NA","960","2","legacy","1024","2","48000","-16","task","5206902","even","NA","50561","57614","52562","84120","7340","35160","21647","84622","NA","84116","84622","84069","57614","85582","47351","80600","7226","82569","Lexical Decision Task","8","23111","14","yes","1024"
"3.397302518","7.01","2","knit","word","53.333333333333336","53.333333333333336","1618.4666666666667","1618.4666666666667","black","no","legacy","legacy","legacy","0","uniform","0","undefined","undefined","undefined","0","j","0","0","0","0","14","0","0","0","14","NA","10","14","10","0","10","3","14","0","14","Fri Feb 19 12:49:46 2021","The main experiment item","yes","Lexical_Decision_Task.osexp","/Users/petruapostol/Desktop","no","Andale Mono","no","18","no","white","no","yes","576","legacy","10","10","3","/Users/petruapostol/Desktop/subject-5206902.csv","legacy","Lentiform Loewenfeld","3.3.7","yes","yes","600bd7cfb6416f0113b04181","602110864497cf011d9c0822","0","f","NA","space","space","space","NA","f","1166","NA","5051","14289","13508","NA","1166","2","legacy","1024","2","48000","-16","task","5206902","even","NA","50561","57614","52562","86131","7340","35160","21647","86633","NA","86129","86633","86086","57614","87800","47351","85586","7226","82569","Lexical Decision Task","8","24277","15","yes","1024"
"2.868644438","10.52","4","town","word","56.25","56.25","1609.875","1609.875","black","no","legacy","legacy","legacy","0","uniform","1","undefined","undefined","undefined","1","j","0","0","0","0","15","0","0","0","15","NA","11","15","11","0","11","3","15","0","15","Fri Feb 19 12:49:46 2021","The main experiment item","yes","Lexical_Decision_Task.osexp","/Users/petruapostol/Desktop","no","Andale Mono","no","18","no","white","no","yes","576","legacy","11","11","3","/Users/petruapostol/Desktop/subject-5206902.csv","legacy","Lentiform Loewenfeld","3.3.7","yes","yes","600bd7cfb6416f0113b04181","602110864497cf011d9c0822","0","j","NA","space","space","space","NA","j","1481","NA","5051","14289","13508","NA","1481","2","legacy","1024","2","48000","-16","task","5206902","even","NA","50561","57614","52562","89354","7340","35160","21647","89856","NA","89352","89856","89304","57614","91338","47351","85586","7226","87804","Lexical Decision Task","9","25758","16","yes","1024"
"2.845304797","0","6","buct","non-word","58.8235294117647","58.8235294117647","1631.235294117647","1631.235294117647","black","no","legacy","legacy","legacy","0","uniform","1","undefined","undefined","undefined","1","f","0","0","0","0","16","0","0","0","16","NA","12","16","12","0","12","3","16","0","16","Fri Feb 19 12:49:46 2021","The main experiment item","yes","Lexical_Decision_Task.osexp","/Users/petruapostol/Desktop","no","Andale Mono","no","18","no","white","no","yes","576","legacy","12","12","3","/Users/petruapostol/Desktop/subject-5206902.csv","legacy","Lentiform Loewenfeld","3.3.7","yes","yes","600bd7cfb6416f0113b04181","602110864497cf011d9c0822","0","f","NA","space","space","space","NA","f","1973","NA","5051","14289","13508","NA","1973","2","legacy","1024","2","48000","-16","task","5206902","even","NA","50561","57614","52562","91884","7340","35160","21647","92386","NA","91882","92386","91841","57614","94360","47351","91341","7226","87804","Lexical Decision Task","10","27731","17","yes","1024"
"3.363486562","6.93","9","lush","word","61.111111111111114","61.111111111111114","1600.8333333333333","1600.8333333333333","black","no","legacy","legacy","legacy","0","uniform","1","undefined","undefined","undefined","1","j","0","0","0","0","17","0","0","0","17","NA","13","17","13","0","13","3","17","0","17","Fri Feb 19 12:49:46 2021","The main experiment item","yes","Lexical_Decision_Task.osexp","/Users/petruapostol/Desktop","no","Andale Mono","no","18","no","white","no","yes","576","legacy","13","13","3","/Users/petruapostol/Desktop/subject-5206902.csv","legacy","Lentiform Loewenfeld","3.3.7","yes","yes","600bd7cfb6416f0113b04181","602110864497cf011d9c0822","0","j","NA","space","space","space","NA","j","1084","NA","5051","14289","13508","NA","1084","2","legacy","1024","2","48000","-16","task","5206902","even","NA","50561","57614","52562","94911","7340","35160","21647","95413","NA","94909","95413","94865","57614","96498","47351","94365","7226","87804","Lexical Decision Task","11","28815","18","yes","1024"
"2.95456409","0","4","taud","non-word","63.1578947368421","63.1578947368421","1606.421052631579","1606.421052631579","black","no","legacy","legacy","legacy","0","uniform","1","undefined","undefined","undefined","1","f","0","0","0","0","18","0","0","0","18","NA","14","18","14","0","14","3","18","0","18","Fri Feb 19 12:49:46 2021","The main experiment item","yes","Lexical_Decision_Task.osexp","/Users/petruapostol/Desktop","no","Andale Mono","no","18","no","white","no","yes","576","legacy","14","14","3","/Users/petruapostol/Desktop/subject-5206902.csv","legacy","Lentiform Loewenfeld","3.3.7","yes","yes","600bd7cfb6416f0113b04181","602110864497cf011d9c0822","0","f","NA","space","space","space","NA","f","1707","NA","5051","14289","13508","NA","1707","2","legacy","1024","2","48000","-16","task","5206902","even","NA","50561","57614","52562","97049","7340","35160","21647","97551","NA","97047","97551","97003","57614","99259","47351","96503","7226","87804","Lexical Decision Task","12","30522","19","yes","1024"
"3.091901331","0","9","nipe","non-word","65","65","1650.9","1650.9","black","no","legacy","legacy","legacy","0","uniform","1","undefined","undefined","undefined","1","f","0","0","0","0","19","0","0","0","19","NA","15","19","15","0","15","3","19","0","19","Fri Feb 19 12:49:46 2021","The main experiment item","yes","Lexical_Decision_Task.osexp","/Users/petruapostol/Desktop","no","Andale Mono","no","18","no","white","no","yes","576","legacy","15","15","3","/Users/petruapostol/Desktop/subject-5206902.csv","legacy","Lentiform Loewenfeld","3.3.7","yes","yes","600bd7cfb6416f0113b04181","602110864497cf011d9c0822","0","f","NA","space","space","space","NA","f","2496","NA","5051","14289","13508","NA","2496","2","legacy","1024","2","48000","-16","task","5206902","even","NA","50561","57614","52562","99807","7340","35160","21647","100310","NA","99805","100310","99764","57614","102807","47351","99264","7226","87804","Lexical Decision Task","13","33018","20","yes","1024"
"2.82129731","6.72","5","plum","word","66.66666666666667","66.66666666666667","1626.4285714285713","1626.4285714285713","black","no","legacy","legacy","legacy","0","uniform","1","undefined","undefined","undefined","1","j","0","0","0","0","20","0","0","0","20","NA","16","20","16","0","16","3","20","0","20","Fri Feb 19 12:49:46 2021","The main experiment item","yes","Lexical_Decision_Task.osexp","/Users/petruapostol/Desktop","no","Andale Mono","no","18","no","white","no","yes","576","legacy","16","16","3","/Users/petruapostol/Desktop/subject-5206902.csv","legacy","Lentiform Loewenfeld","3.3.7","yes","yes","600bd7cfb6416f0113b04181","602110864497cf011d9c0822","0","j","NA","space","space","space","NA","j","1137","NA","5051","14289","13508","NA","1137","2","legacy","1024","2","48000","-16","task","5206902","even","NA","50561","57614","52562","103357","7340","35160","21647","103859","NA","103354","103859","103310","57614","104997","47351","102810","7226","87804","Lexical Decision Task","14","34155","21","yes","1024"
"3.037294994","8.64","7","roof","word","63.63636363636363","63.63636363636363","1602.5454545454545","1602.5454545454545","black","no","legacy","legacy","legacy","0","uniform","0","undefined","undefined","undefined","0","j","0","0","0","0","21","0","0","0","21","NA","17","21","17","0","17","3","21","0","21","Fri Feb 19 12:49:46 2021","The main experiment item","yes","Lexical_Decision_Task.osexp","/Users/petruapostol/Desktop","no","Andale Mono","no","18","no","white","no","yes","576","legacy","17","17","3","/Users/petruapostol/Desktop/subject-5206902.csv","legacy","Lentiform Loewenfeld","3.3.7","yes","yes","600bd7cfb6416f0113b04181","602110864497cf011d9c0822","0","f","NA","space","space","space","NA","f","1101","NA","5051","14289","13508","NA","1101","2","legacy","1024","2","48000","-16","task","5206902","even","NA","50561","57614","52562","105549","7340","35160","21647","106051","NA","105547","106051","105502","57614","107153","47351","105002","7226","87804","Lexical Decision Task","14","35256","22","yes","1024"
"2.843025032","0","9","pusk","non-word","60.869565217391305","60.869565217391305","1602.695652173913","1602.695652173913","black","no","legacy","legacy","legacy","0","uniform","0","undefined","undefined","undefined","0","f","0","0","0","0","22","0","0","0","22","NA","18","22","18","0","18","3","22","0","22","Fri Feb 19 12:49:46 2021","The main experiment item","yes","Lexical_Decision_Task.osexp","/Users/petruapostol/Desktop","no","Andale Mono","no","18","no","white","no","yes","576","legacy","18","18","3","/Users/petruapostol/Desktop/subject-5206902.csv","legacy","Lentiform Loewenfeld","3.3.7","yes","yes","600bd7cfb6416f0113b04181","602110864497cf011d9c0822","0","j","NA","space","space","space","NA","j","1606","NA","5051","14289","13508","NA","1606","2","legacy","1024","2","48000","-16","task","5206902","even","NA","50561","57614","52562","108709","7340","35160","21647","109211","NA","108706","109211","108656","57614","110818","47351","105002","7226","107156","Lexical Decision Task","14","36862","23","yes","1024"
"2.784379519","0","2","snaf","non-word","58.333333333333336","58.333333333333336","1587.5833333333333","1587.5833333333333","black","no","legacy","legacy","legacy","0","uniform","0","undefined","undefined","undefined","0","f","0","0","0","0","23","0","0","0","23","NA","19","23","19","0","19","3","23","0","23","Fri Feb 19 12:49:46 2021","The main experiment item","yes","Lexical_Decision_Task.osexp","/Users/petruapostol/Desktop","no","Andale Mono","no","18","no","white","no","yes","576","legacy","19","19","3","/Users/petruapostol/Desktop/subject-5206902.csv","legacy","Lentiform Loewenfeld","3.3.7","yes","yes","600bd7cfb6416f0113b04181","602110864497cf011d9c0822","0","j","NA","space","space","space","NA","j","1240","NA","5051","14289","13508","NA","1240","2","legacy","1024","2","48000","-16","task","5206902","even","NA","50561","57614","52562","112368","7340","35160","21647","112870","NA","112366","112870","112323","57614","114111","47351","105002","7226","110823","Lexical Decision Task","14","38102","24","yes","1024"
"3.218535505","7.85","7","goat","word","60","60","1598.12","1598.12","black","no","legacy","legacy","legacy","0","uniform","1","undefined","undefined","undefined","1","j","0","0","0","0","24","0","0","0","24","NA","20","24","20","0","20","3","24","0","24","Fri Feb 19 12:49:46 2021","The main experiment item","yes","Lexical_Decision_Task.osexp","/Users/petruapostol/Desktop","no","Andale Mono","no","18","no","white","no","yes","576","legacy","20","20","3","/Users/petruapostol/Desktop/subject-5206902.csv","legacy","Lentiform Loewenfeld","3.3.7","yes","yes","600bd7cfb6416f0113b04181","602110864497cf011d9c0822","0","j","NA","space","space","space","NA","j","1851","NA","5051","14289","13508","NA","1851","2","legacy","1024","2","48000","-16","task","5206902","even","NA","50561","57614","52562","115661","7340","35160","21647","116162","NA","115659","116163","115614","57614","118015","47351","105002","7226","114114","Lexical Decision Task","15","39953","25","yes","1024"
"3.531734309","0","6","lerd","non-word","57.69230769230769","57.69230769230769","1589.9615384615386","1589.9615384615386","black","no","legacy","legacy","legacy","0","uniform","0","undefined","undefined","undefined","0","f","0","0","0","0","25","0","0","0","25","NA","21","25","21","0","21","3","25","0","25","Fri Feb 19 12:49:46 2021","The main experiment item","yes","Lexical_Decision_Task.osexp","/Users/petruapostol/Desktop","no","Andale Mono","no","18","no","white","no","yes","576","legacy","21","21","3","/Users/petruapostol/Desktop/subject-5206902.csv","legacy","Lentiform Loewenfeld","3.3.7","yes","yes","600bd7cfb6416f0113b04181","602110864497cf011d9c0822","0","j","NA","space","space","space","NA","j","1386","NA","5051","14289","13508","NA","1386","2","legacy","1024","2","48000","-16","task","5206902","even","NA","50561","57614","52562","118567","7340","35160","21647","119070","NA","118564","119070","118520","57614","120456","47351","118019","7226","114114","Lexical Decision Task","15","41339","26","yes","1024"
"3.216517684","10.87","3","film","word","55.55555555555556","55.55555555555556","1566.2222222222222","1566.2222222222222","black","no","legacy","legacy","legacy","0","uniform","0","undefined","undefined","undefined","0","j","0","0","0","0","26","0","0","0","26","NA","22","26","22","0","22","3","26","0","26","Fri Feb 19 12:49:46 2021","The main experiment item","yes","Lexical_Decision_Task.osexp","/Users/petruapostol/Desktop","no","Andale Mono","no","18","no","white","no","yes","576","legacy","22","22","3","/Users/petruapostol/Desktop/subject-5206902.csv","legacy","Lentiform Loewenfeld","3.3.7","yes","yes","600bd7cfb6416f0113b04181","602110864497cf011d9c0822","0","f","NA","space","space","space","NA","f","949","NA","5051","14289","13508","NA","949","2","legacy","1024","2","48000","-16","task","5206902","even","NA","50561","57614","52562","122009","7340","35160","21647","122512","NA","122007","122512","121959","57614","123461","47351","118019","7226","120459","Lexical Decision Task","15","42288","27","yes","1024"
"2.714888338","0","3","brug","non-word","53.57142857142857","53.57142857142857","1580.0357142857142","1580.0357142857142","black","no","legacy","legacy","legacy","0","uniform","0","undefined","undefined","undefined","0","f","0","0","0","0","27","0","0","0","27","NA","23","27","23","0","23","3","27","0","27","Fri Feb 19 12:49:46 2021","The main experiment item","yes","Lexical_Decision_Task.osexp","/Users/petruapostol/Desktop","no","Andale Mono","no","18","no","white","no","yes","576","legacy","23","23","3","/Users/petruapostol/Desktop/subject-5206902.csv","legacy","Lentiform Loewenfeld","3.3.7","yes","yes","600bd7cfb6416f0113b04181","602110864497cf011d9c0822","0","j","NA","space","space","space","NA","j","1953","NA","5051","14289","13508","NA","1953","2","legacy","1024","2","48000","-16","task","5206902","even","NA","50561","57614","52562","125010","7340","35160","21647","125514","NA","125008","125514","124966","57614","127468","47351","118019","7226","123466","Lexical Decision Task","15","44241","28","yes","1024"
"2.695481676","0","7","goke","non-word","51.724137931034484","51.724137931034484","1605.2413793103449","1605.2413793103449","black","no","legacy","legacy","legacy","0","uniform","0","undefined","undefined","undefined","0","f","0","0","0","0","28","0","0","0","28","NA","24","28","24","0","24","3","28","0","28","Fri Feb 19 12:49:46 2021","The main experiment item","yes","Lexical_Decision_Task.osexp","/Users/petruapostol/Desktop","no","Andale Mono","no","18","no","white","no","yes","576","legacy","24","24","3","/Users/petruapostol/Desktop/subject-5206902.csv","legacy","Lentiform Loewenfeld","3.3.7","yes","yes","600bd7cfb6416f0113b04181","602110864497cf011d9c0822","0","j","NA","space","space","space","NA","j","2311","NA","5051","14289","13508","NA","2311","2","legacy","1024","2","48000","-16","task","5206902","even","NA","50561","57614","52562","129023","7340","35160","21647","129525","NA","129021","129525","128973","57614","131837","47351","118019","7226","127473","Lexical Decision Task","15","46552","29","yes","1024"
"3.197740804","6.74","3","ache","word","50","50","1580.9666666666667","1580.9666666666667","black","no","legacy","legacy","legacy","0","uniform","0","undefined","undefined","undefined","0","j","0","0","0","0","29","0","0","0","29","NA","25","29","25","0","25","3","29","0","29","Fri Feb 19 12:49:46 2021","The main experiment item","yes","Lexical_Decision_Task.osexp","/Users/petruapostol/Desktop","no","Andale Mono","no","18","no","white","no","yes","576","legacy","25","25","3","/Users/petruapostol/Desktop/subject-5206902.csv","legacy","Lentiform Loewenfeld","3.3.7","yes","yes","600bd7cfb6416f0113b04181","602110864497cf011d9c0822","0","f","NA","space","space","space","NA","f","877","NA","5051","14289","13508","NA","877","2","legacy","1024","2","48000","-16","task","5206902","even","NA","50561","57614","52562","133386","7340","35160","21647","133889","NA","133384","133889","133341","57614","134767","47351","118019","7226","131841","Lexical Decision Task","15","47429","30","yes","1024"
"2.668385917","5.48","4","twig","word","48.38709677419355","48.38709677419355","1626.741935483871","1626.741935483871","black","no","legacy","legacy","legacy","0","uniform","0","undefined","undefined","undefined","0","j","0","0","0","0","30","0","0","0","30","NA","26","30","26","0","26","3","30","0","30","Fri Feb 19 12:49:46 2021","The main experiment item","yes","Lexical_Decision_Task.osexp","/Users/petruapostol/Desktop","no","Andale Mono","no","18","no","white","no","yes","576","legacy","26","26","3","/Users/petruapostol/Desktop/subject-5206902.csv","legacy","Lentiform Loewenfeld","3.3.7","yes","yes","600bd7cfb6416f0113b04181","602110864497cf011d9c0822","0","None","NA","space","space","space","NA","None","3000","NA","5051","14289","13508","NA","3000","2","legacy","1024","2","48000","-16","task","5206902","even","NA","50561","57614","52562","136317","7340","35160","21647","136819","NA","136315","136819","136271","57614","139819","47351","118019","7226","134771","Lexical Decision Task","15","50429","31","yes","1024"
"2.842815106","7.86","8","lump","word","50","50","1611.03125","1611.03125","black","no","legacy","legacy","legacy","0","uniform","1","undefined","undefined","undefined","1","j","0","0","0","0","31","0","0","0","31","NA","27","31","27","0","27","3","31","0","31","Fri Feb 19 12:49:46 2021","The main experiment item","yes","Lexical_Decision_Task.osexp","/Users/petruapostol/Desktop","no","Andale Mono","no","18","no","white","no","yes","576","legacy","27","27","3","/Users/petruapostol/Desktop/subject-5206902.csv","legacy","Lentiform Loewenfeld","3.3.7","yes","yes","600bd7cfb6416f0113b04181","602110864497cf011d9c0822","0","j","NA","space","space","space","NA","j","1124","NA","5051","14289","13508","NA","1124","2","legacy","1024","2","48000","-16","task","5206902","even","NA","50561","57614","52562","141374","7340","35160","21647","141876","NA","141371","141876","141323","57614","143001","47351","118019","7226","139823","Lexical Decision Task","16","51553","32","yes","1024"
"2.920123326","7.43","4","duel","word","51.515151515151516","51.515151515151516","1589.909090909091","1589.909090909091","black","no","legacy","legacy","legacy","0","uniform","1","undefined","undefined","undefined","1","j","0","0","0","0","32","0","0","0","32","NA","28","32","28","0","28","3","32","0","32","Fri Feb 19 12:49:46 2021","The main experiment item","yes","Lexical_Decision_Task.osexp","/Users/petruapostol/Desktop","no","Andale Mono","no","18","no","white","no","yes","576","legacy","28","28","3","/Users/petruapostol/Desktop/subject-5206902.csv","legacy","Lentiform Loewenfeld","3.3.7","yes","yes","600bd7cfb6416f0113b04181","602110864497cf011d9c0822","0","j","NA","space","space","space","NA","j","914","NA","5051","14289","13508","NA","914","2","legacy","1024","2","48000","-16","task","5206902","even","NA","50561","57614","52562","143552","7340","35160","21647","144054","NA","143550","144054","143506","57614","144969","47351","143006","7226","139823","Lexical Decision Task","17","52467","33","yes","1024"
"2.67699827","0","6","hulf","non-word","50","50","1571.2941176470588","1571.2941176470588","black","no","legacy","legacy","legacy","0","uniform","0","undefined","undefined","undefined","0","f","0","0","0","0","33","0","0","0","33","NA","29","33","29","0","29","3","33","0","33","Fri Feb 19 12:49:46 2021","The main experiment item","yes","Lexical_Decision_Task.osexp","/Users/petruapostol/Desktop","no","Andale Mono","no","18","no","white","no","yes","576","legacy","29","29","3","/Users/petruapostol/Desktop/subject-5206902.csv","legacy","Lentiform Loewenfeld","3.3.7","yes","yes","600bd7cfb6416f0113b04181","602110864497cf011d9c0822","0","j","NA","space","space","space","NA","j","957","NA","5051","14289","13508","NA","957","2","legacy","1024","2","48000","-16","task","5206902","even","NA","50561","57614","52562","145518","7340","35160","21647","146020","NA","145515","146020","145472","57614","146978","47351","144972","7226","139823","Lexical Decision Task","17","53424","34","yes","1024"
"2.746890964","9.67","3","plug","word","51.42857142857143","51.42857142857143","1548.2857142857142","1548.2857142857142","black","no","legacy","legacy","legacy","0","uniform","1","undefined","undefined","undefined","1","j","0","0","0","0","34","0","0","0","34","NA","30","34","30","0","30","3","34","0","34","Fri Feb 19 12:49:46 2021","The main experiment item","yes","Lexical_Decision_Task.osexp","/Users/petruapostol/Desktop","no","Andale Mono","no","18","no","white","no","yes","576","legacy","30","30","3","/Users/petruapostol/Desktop/subject-5206902.csv","legacy","Lentiform Loewenfeld","3.3.7","yes","yes","600bd7cfb6416f0113b04181","602110864497cf011d9c0822","0","j","NA","space","space","space","NA","j","766","NA","5051","14289","13508","NA","766","2","legacy","1024","2","48000","-16","task","5206902","even","NA","50561","57614","52562","148533","7340","35160","21647","149035","NA","148529","149035","148482","57614","149802","47351","144972","7226","146982","Lexical Decision Task","18","54190","35","yes","1024"
"2.695770526","7.34","6","pawn","word","52.77777777777778","52.77777777777778","1525.5833333333333","1525.5833333333333","black","no","legacy","legacy","legacy","0","uniform","1","undefined","undefined","undefined","1","j","0","0","0","0","35","0","0","0","35","NA","31","35","31","0","31","3","35","0","35","Fri Feb 19 12:49:46 2021","The main experiment item","yes","Lexical_Decision_Task.osexp","/Users/petruapostol/Desktop","no","Andale Mono","no","18","no","white","no","yes","576","legacy","31","31","3","/Users/petruapostol/Desktop/subject-5206902.csv","legacy","Lentiform Loewenfeld","3.3.7","yes","yes","600bd7cfb6416f0113b04181","602110864497cf011d9c0822","0","j","NA","space","space","space","NA","j","731","NA","5051","14289","13508","NA","731","2","legacy","1024","2","48000","-16","task","5206902","even","NA","50561","57614","52562","150352","7340","35160","21647","150854","NA","150350","150854","150306","57614","151586","47351","149806","7226","146982","Lexical Decision Task","19","54921","36","yes","1024"
"2.803231716","5.26","3","kiln","word","51.351351351351354","51.351351351351354","1500.3783783783783","1500.3783783783783","black","no","legacy","legacy","legacy","0","uniform","0","undefined","undefined","undefined","0","j","0","0","0","0","36","0","0","0","36","NA","32","36","32","0","32","3","36","0","36","Fri Feb 19 12:49:46 2021","The main experiment item","yes","Lexical_Decision_Task.osexp","/Users/petruapostol/Desktop","no","Andale Mono","no","18","no","white","no","yes","576","legacy","32","32","3","/Users/petruapostol/Desktop/subject-5206902.csv","legacy","Lentiform Loewenfeld","3.3.7","yes","yes","600bd7cfb6416f0113b04181","602110864497cf011d9c0822","0","f","NA","space","space","space","NA","f","593","NA","5051","14289","13508","NA","593","2","legacy","1024","2","48000","-16","task","5206902","even","NA","50561","57614","52562","152134","7340","35160","21647","152636","NA","152132","152636","152090","57614","153230","47351","151590","7226","146982","Lexical Decision Task","19","55514","37","yes","1024"
"2.981215883","10.66","5","hair","word","52.63157894736842","52.63157894736842","1482.6842105263158","1482.6842105263158","black","no","legacy","legacy","legacy","0","uniform","1","undefined","undefined","undefined","1","j","0","0","0","0","37","0","0","0","37","NA","33","37","33","0","33","3","37","0","37","Fri Feb 19 12:49:46 2021","The main experiment item","yes","Lexical_Decision_Task.osexp","/Users/petruapostol/Desktop","no","Andale Mono","no","18","no","white","no","yes","576","legacy","33","33","3","/Users/petruapostol/Desktop/subject-5206902.csv","legacy","Lentiform Loewenfeld","3.3.7","yes","yes","600bd7cfb6416f0113b04181","602110864497cf011d9c0822","0","j","NA","space","space","space","NA","j","828","NA","5051","14289","13508","NA","828","2","legacy","1024","2","48000","-16","task","5206902","even","NA","50561","57614","52562","154784","7340","35160","21647","155287","NA","154782","155287","154734","57614","156116","47351","151590","7226","153234","Lexical Decision Task","20","56342","38","yes","1024"
"2.858136002","0","4","phip","non-word","51.282051282051285","51.282051282051285","1486.7179487179487","1486.7179487179487","black","no","legacy","legacy","legacy","0","uniform","0","undefined","undefined","undefined","0","f","0","0","0","0","38","0","0","0","38","NA","34","38","34","0","34","3","38","0","38","Fri Feb 19 12:49:46 2021","The main experiment item","yes","Lexical_Decision_Task.osexp","/Users/petruapostol/Desktop","no","Andale Mono","no","18","no","white","no","yes","576","legacy","34","34","3","/Users/petruapostol/Desktop/subject-5206902.csv","legacy","Lentiform Loewenfeld","3.3.7","yes","yes","600bd7cfb6416f0113b04181","602110864497cf011d9c0822","0","j","NA","space","space","space","NA","j","1640","NA","5051","14289","13508","NA","1640","2","legacy","1024","2","48000","-16","task","5206902","even","NA","50561","57614","52562","156666","7340","35160","21647","157168","NA","156664","157168","156620","57614","158809","47351","156120","7226","153234","Lexical Decision Task","20","57982","39","yes","1024"
"2.69019608","9.01","2","myth","word","52.5","52.5","1471.725","1471.725","black","no","legacy","legacy","legacy","0","uniform","1","undefined","undefined","undefined","1","j","0","0","0","0","39","0","0","0","39","NA","35","39","35","0","35","3","39","0","39","Fri Feb 19 12:49:46 2021","The main experiment item","yes","Lexical_Decision_Task.osexp","/Users/petruapostol/Desktop","no","Andale Mono","no","18","no","white","no","yes","576","legacy","35","35","3","/Users/petruapostol/Desktop/subject-5206902.csv","legacy","Lentiform Loewenfeld","3.3.7","yes","yes","600bd7cfb6416f0113b04181","602110864497cf011d9c0822","0","j","NA","space","space","space","NA","j","887","NA","5051","14289","13508","NA","887","2","legacy","1024","2","48000","-16","task","5206902","even","NA","50561","57614","52562","160358","7340","35160","21647","160860","NA","160356","160860","160314","57614","161748","47351","156120","7226","158814","Lexical Decision Task","21","58869","40","yes","1024"
"2.898725182","0","7","turl","non-word","53.65853658536585","53.65853658536585","1457.6341463414635","1457.6341463414635","black","no","legacy","legacy","legacy","0","uniform","1","undefined","undefined","undefined","1","f","0","0","0","0","40","0","0","0","40","NA","36","40","36","0","36","3","40","0","40","Fri Feb 19 12:49:46 2021","The main experiment item","yes","Lexical_Decision_Task.osexp","/Users/petruapostol/Desktop","no","Andale Mono","no","18","no","white","no","yes","576","legacy","36","36","3","/Users/petruapostol/Desktop/subject-5206902.csv","legacy","Lentiform Loewenfeld","3.3.7","yes","yes","600bd7cfb6416f0113b04181","602110864497cf011d9c0822","0","f","NA","space","space","space","NA","f","894","NA","5051","14289","13508","NA","894","2","legacy","1024","2","48000","-16","task","5206902","even","NA","50561","57614","52562","162295","7340","35160","21647","162797","NA","162293","162798","162252","57614","163693","47351","161752","7226","158814","Lexical Decision Task","22","59763","41","yes","1024"
"3.443783828","7.65","3","verb","word","52.38095238095238","52.38095238095238","1465.5","1465.5","black","no","legacy","legacy","legacy","0","uniform","0","undefined","undefined","undefined","0","j","0","0","0","0","41","0","0","0","41","NA","37","41","37","0","37","3","41","0","41","Fri Feb 19 12:49:46 2021","The main experiment item","yes","Lexical_Decision_Task.osexp","/Users/petruapostol/Desktop","no","Andale Mono","no","18","no","white","no","yes","576","legacy","37","37","3","/Users/petruapostol/Desktop/subject-5206902.csv","legacy","Lentiform Loewenfeld","3.3.7","yes","yes","600bd7cfb6416f0113b04181","602110864497cf011d9c0822","0","f","NA","space","space","space","NA","f","1788","NA","5051","14289","13508","NA","1788","2","legacy","1024","2","48000","-16","task","5206902","even","NA","50561","57614","52562","164243","7340","35160","21647","164745","NA","164240","164745","164196","57614","166533","47351","163696","7226","158814","Lexical Decision Task","22","61551","42","yes","1024"
"2.996511672","0","7","hoil","non-word","51.16279069767442","51.16279069767442","1447.2558139534883","1447.2558139534883","black","no","legacy","legacy","legacy","0","uniform","0","undefined","undefined","undefined","0","f","0","0","0","0","42","0","0","0","42","NA","38","42","38","0","38","3","42","0","42","Fri Feb 19 12:49:46 2021","The main experiment item","yes","Lexical_Decision_Task.osexp","/Users/petruapostol/Desktop","no","Andale Mono","no","18","no","white","no","yes","576","legacy","38","38","3","/Users/petruapostol/Desktop/subject-5206902.csv","legacy","Lentiform Loewenfeld","3.3.7","yes","yes","600bd7cfb6416f0113b04181","602110864497cf011d9c0822","0","j","NA","space","space","space","NA","j","681","NA","5051","14289","13508","NA","681","2","legacy","1024","2","48000","-16","task","5206902","even","NA","50561","57614","52562","168088","7340","35160","21647","168590","NA","168086","168590","168038","57614","169271","47351","163696","7226","166538","Lexical Decision Task","22","62232","43","yes","1024"
"3.374198258","0","8","vist","non-word","50","50","1435.5454545454545","1435.5454545454545","black","no","legacy","legacy","legacy","0","uniform","0","undefined","undefined","undefined","0","f","0","0","0","0","43","0","0","0","43","NA","39","43","39","0","39","3","43","0","43","Fri Feb 19 12:49:46 2021","The main experiment item","yes","Lexical_Decision_Task.osexp","/Users/petruapostol/Desktop","no","Andale Mono","no","18","no","white","no","yes","576","legacy","39","39","3","/Users/petruapostol/Desktop/subject-5206902.csv","legacy","Lentiform Loewenfeld","3.3.7","yes","yes","600bd7cfb6416f0113b04181","602110864497cf011d9c0822","0","j","NA","space","space","space","NA","j","932","NA","5051","14289","13508","NA","932","2","legacy","1024","2","48000","-16","task","5206902","even","NA","50561","57614","52562","170826","7340","35160","21647","171328","NA","170823","171328","170776","57614","172261","47351","163696","7226","169276","Lexical Decision Task","22","63164","44","yes","1024"
"3.431095062","5.74","9","perk","word","51.111111111111114","51.111111111111114","1431.9555555555555","1431.9555555555555","black","no","legacy","legacy","legacy","0","uniform","1","undefined","undefined","undefined","1","j","0","0","0","0","44","0","0","0","44","NA","40","44","40","0","40","3","44","0","44","Fri Feb 19 12:49:46 2021","The main experiment item","yes","Lexical_Decision_Task.osexp","/Users/petruapostol/Desktop","no","Andale Mono","no","18","no","white","no","yes","576","legacy","40","40","3","/Users/petruapostol/Desktop/subject-5206902.csv","legacy","Lentiform Loewenfeld","3.3.7","yes","yes","600bd7cfb6416f0113b04181","602110864497cf011d9c0822","0","j","NA","space","space","space","NA","j","1274","NA","5051","14289","13508","NA","1274","2","legacy","1024","2","48000","-16","task","5206902","even","NA","50561","57614","52562","173816","7340","35160","21647","174318","NA","173814","174318","173766","57614","175593","47351","163696","7226","172266","Lexical Decision Task","23","64438","45","yes","1024"
"3.174641193","0","3","ramb","non-word","50","50","1425.1304347826087","1425.1304347826087","black","no","legacy","legacy","legacy","0","uniform","0","undefined","undefined","undefined","0","f","0","0","0","0","45","0","0","0","45","NA","41","45","41","0","41","3","45","0","45","Fri Feb 19 12:49:46 2021","The main experiment item","yes","Lexical_Decision_Task.osexp","/Users/petruapostol/Desktop","no","Andale Mono","no","18","no","white","no","yes","576","legacy","41","41","3","/Users/petruapostol/Desktop/subject-5206902.csv","legacy","Lentiform Loewenfeld","3.3.7","yes","yes","600bd7cfb6416f0113b04181","602110864497cf011d9c0822","0","j","NA","space","space","space","NA","j","1118","NA","5051","14289","13508","NA","1118","2","legacy","1024","2","48000","-16","task","5206902","even","NA","50561","57614","52562","176143","7340","35160","21647","176645","NA","176141","176645","176098","57614","177764","47351","175597","7226","172266","Lexical Decision Task","23","65556","46","yes","1024"
"2.807758206","6.25","4","hurl","word","48.93617021276596","48.93617021276596","1431.5744680851064","1431.5744680851064","black","no","legacy","legacy","legacy","0","uniform","0","undefined","undefined","undefined","0","j","0","0","0","0","46","0","0","0","46","NA","42","46","42","0","42","3","46","0","46","Fri Feb 19 12:49:46 2021","The main experiment item","yes","Lexical_Decision_Task.osexp","/Users/petruapostol/Desktop","no","Andale Mono","no","18","no","white","no","yes","576","legacy","42","42","3","/Users/petruapostol/Desktop/subject-5206902.csv","legacy","Lentiform Loewenfeld","3.3.7","yes","yes","600bd7cfb6416f0113b04181","602110864497cf011d9c0822","0","f","NA","space","space","space","NA","f","1728","NA","5051","14289","13508","NA","1728","2","legacy","1024","2","48000","-16","task","5206902","even","NA","50561","57614","52562","179324","7340","35160","21647","179827","NA","179322","179827","179276","57614","181556","47351","175597","7226","177775","Lexical Decision Task","23","67284","47","yes","1024"
"2.986323777","10.85","8","ship","word","50","50","1450.8125","1450.8125","black","no","legacy","legacy","legacy","0","uniform","1","undefined","undefined","undefined","1","j","0","0","0","0","47","0","0","0","47","NA","43","47","43","0","43","3","47","0","47","Fri Feb 19 12:49:46 2021","The main experiment item","yes","Lexical_Decision_Task.osexp","/Users/petruapostol/Desktop","no","Andale Mono","no","18","no","white","no","yes","576","legacy","43","43","3","/Users/petruapostol/Desktop/subject-5206902.csv","legacy","Lentiform Loewenfeld","3.3.7","yes","yes","600bd7cfb6416f0113b04181","602110864497cf011d9c0822","0","j","NA","space","space","space","NA","j","2355","NA","5051","14289","13508","NA","2355","2","legacy","1024","2","48000","-16","task","5206902","even","NA","50561","57614","52562","183109","7340","35160","21647","183611","NA","183106","183612","183060","57614","185968","47351","175597","7226","181560","Lexical Decision Task","24","69639","48","yes","1024"
"2.980306438","0","7","slun","non-word","48.97959183673469","48.97959183673469","1456.2244897959183","1456.2244897959183","black","no","legacy","legacy","legacy","0","uniform","0","undefined","undefined","undefined","0","f","0","0","0","0","48","0","0","0","48","NA","44","48","44","0","44","3","48","0","48","Fri Feb 19 12:49:46 2021","The main experiment item","yes","Lexical_Decision_Task.osexp","/Users/petruapostol/Desktop","no","Andale Mono","no","18","no","white","no","yes","576","legacy","44","44","3","/Users/petruapostol/Desktop/subject-5206902.csv","legacy","Lentiform Loewenfeld","3.3.7","yes","yes","600bd7cfb6416f0113b04181","602110864497cf011d9c0822","0","j","NA","space","space","space","NA","j","1716","NA","5051","14289","13508","NA","1716","2","legacy","1024","2","48000","-16","task","5206902","even","NA","50561","57614","52562","186519","7340","35160","21647","187021","NA","186517","187021","186473","57614","188738","47351","185973","7226","181560","Lexical Decision Task","24","71355","49","yes","1024"
"2.616654026","9.37","5","gift","word","48","48","1446.18","1446.18","black","no","legacy","legacy","legacy","0","uniform","0","undefined","undefined","undefined","0","j","0","0","0","0","49","0","0","0","49","NA","45","49","45","0","45","3","49","0","49","Fri Feb 19 12:49:46 2021","The main experiment item","yes","Lexical_Decision_Task.osexp","/Users/petruapostol/Desktop","no","Andale Mono","no","18","no","white","no","yes","576","legacy","45","45","3","/Users/petruapostol/Desktop/subject-5206902.csv","legacy","Lentiform Loewenfeld","3.3.7","yes","yes","600bd7cfb6416f0113b04181","602110864497cf011d9c0822","0","f","NA","space","space","space","NA","f","954","NA","5051","14289","13508","NA","954","2","legacy","1024","2","48000","-16","task","5206902","even","NA","50561","57614","52562","190293","7340","35160","21647","190795","NA","190290","190795","190242","57614","191750","47351","185973","7226","188742","Lexical Decision Task","24","72309","50","yes","1024"
"3.208978517","10.33","4","fish","word","47.05882352941177","47.05882352941177","1434.4313725490197","1434.4313725490197","black","no","legacy","legacy","legacy","0","uniform","0","undefined","undefined","undefined","0","j","0","0","0","0","50","0","0","0","50","NA","46","50","46","0","46","3","50","0","50","Fri Feb 19 12:49:46 2021","The main experiment item","yes","Lexical_Decision_Task.osexp","/Users/petruapostol/Desktop","no","Andale Mono","no","18","no","white","no","yes","576","legacy","46","46","3","/Users/petruapostol/Desktop/subject-5206902.csv","legacy","Lentiform Loewenfeld","3.3.7","yes","yes","600bd7cfb6416f0113b04181","602110864497cf011d9c0822","0","f","NA","space","space","space","NA","f","847","NA","5051","14289","13508","NA","847","2","legacy","1024","2","48000","-16","task","5206902","even","NA","50561","57614","52562","193304","7340","35160","21647","193806","NA","193302","193806","193254","57614","194653","47351","185973","7226","191754","Lexical Decision Task","24","73156","51","yes","1024"
"2.705007959","6.01","4","wept","word","46.15384615384615","46.15384615384615","1422.423076923077","1422.423076923077","black","no","legacy","legacy","legacy","0","uniform","0","undefined","undefined","undefined","0","j","0","0","0","0","51","0","0","0","51","NA","47","51","47","0","47","3","51","0","51","Fri Feb 19 12:49:46 2021","The main experiment item","yes","Lexical_Decision_Task.osexp","/Users/petruapostol/Desktop","no","Andale Mono","no","18","no","white","no","yes","576","legacy","47","47","3","/Users/petruapostol/Desktop/subject-5206902.csv","legacy","Lentiform Loewenfeld","3.3.7","yes","yes","600bd7cfb6416f0113b04181","602110864497cf011d9c0822","0","f","NA","space","space","space","NA","f","810","NA","5051","14289","13508","NA","810","2","legacy","1024","2","48000","-16","task","5206902","even","NA","50561","57614","52562","196209","7340","35160","21647","196711","NA","196205","196711","196158","57614","197522","47351","185973","7226","194658","Lexical Decision Task","24","73966","52","yes","1024"
"2.873320602","0","4","lurg","non-word","45.283018867924525","45.283018867924525","1403.698113207547","1403.698113207547","black","no","legacy","legacy","legacy","0","uniform","0","undefined","undefined","undefined","0","f","0","0","0","0","52","0","0","0","52","NA","48","52","48","0","48","3","52","0","52","Fri Feb 19 12:49:46 2021","The main experiment item","yes","Lexical_Decision_Task.osexp","/Users/petruapostol/Desktop","no","Andale Mono","no","18","no","white","no","yes","576","legacy","48","48","3","/Users/petruapostol/Desktop/subject-5206902.csv","legacy","Lentiform Loewenfeld","3.3.7","yes","yes","600bd7cfb6416f0113b04181","602110864497cf011d9c0822","0","j","NA","space","space","space","NA","j","430","NA","5051","14289","13508","NA","430","2","legacy","1024","2","48000","-16","task","5206902","even","NA","50561","57614","52562","199078","7340","35160","21647","199580","NA","199075","199580","199027","57614","200011","47351","185973","7226","197526","Lexical Decision Task","24","74396","53","yes","1024"
"3.303771854","0","9","dath","non-word","44.44444444444444","44.44444444444444","1391.0925925925926","1391.0925925925926","black","no","legacy","legacy","legacy","0","uniform","0","undefined","undefined","undefined","0","f","0","0","0","0","53","0","0","0","53","NA","49","53","49","0","49","3","53","0","53","Fri Feb 19 12:49:46 2021","The main experiment item","yes","Lexical_Decision_Task.osexp","/Users/petruapostol/Desktop","no","Andale Mono","no","18","no","white","no","yes","576","legacy","49","49","3","/Users/petruapostol/Desktop/subject-5206902.csv","legacy","Lentiform Loewenfeld","3.3.7","yes","yes","600bd7cfb6416f0113b04181","602110864497cf011d9c0822","0","j","NA","space","space","space","NA","j","723","NA","5051","14289","13508","NA","723","2","legacy","1024","2","48000","-16","task","5206902","even","NA","50561","57614","52562","201565","7340","35160","21647","202067","NA","201563","202067","201515","57614","202791","47351","185973","7226","200015","Lexical Decision Task","24","75119","54","yes","1024"
"3.132473155","0","4","glim","non-word","43.63636363636363","43.63636363636363","1381.4363636363637","1381.4363636363637","black","no","legacy","legacy","legacy","0","uniform","0","undefined","undefined","undefined","0","f","0","0","0","0","54","0","0","0","54","0","50","54","50","0","50","3","54","0","54","Fri Feb 19 12:49:46 2021","The main experiment item","yes","Lexical_Decision_Task.osexp","/Users/petruapostol/Desktop","no","Andale Mono","no","18","no","white","no","yes","576","legacy","50","50","3","/Users/petruapostol/Desktop/subject-5206902.csv","legacy","Lentiform Loewenfeld","3.3.7","yes","yes","600bd7cfb6416f0113b04181","602110864497cf011d9c0822","0","j","NA","space","space","space","space","j","860","NA","5051","14289","13508","4167","860","2","legacy","1024","2","48000","-16","task","5206902","even","NA","50561","57614","52562","208535","7340","35160","21647","209037","204324","208533","209038","204296","57614","209899","47351","185973","7226","202795","Lexical Decision Task","24","75979","55","yes","1024"
"3.307211407","6.07","7","honk","word","42.857142857142854","42.857142857142854","1371.357142857143","1371.357142857143","black","no","legacy","legacy","legacy","0","uniform","0","undefined","undefined","undefined","0","j","0","0","0","0","55","0","0","0","55","0","51","55","51","0","51","3","55","0","55","Fri Feb 19 12:49:46 2021","The main experiment item","yes","Lexical_Decision_Task.osexp","/Users/petruapostol/Desktop","no","Andale Mono","no","18","no","white","no","yes","576","legacy","51","51","3","/Users/petruapostol/Desktop/subject-5206902.csv","legacy","Lentiform Loewenfeld","3.3.7","yes","yes","600bd7cfb6416f0113b04181","602110864497cf011d9c0822","0","f","NA","space","space","space","space","f","817","NA","5051","14289","13508","4167","817","2","legacy","1024","2","48000","-16","task","5206902","even","NA","50561","57614","52562","211454","7340","35160","21647","211956","204324","211451","211956","211404","57614","212774","47351","185973","7226","209904","Lexical Decision Task","24","76796","56","yes","1024"
"2.755364069","7.72","2","hoax","word","43.85964912280702","43.85964912280702","1383.5263157894738","1383.5263157894738","black","no","legacy","legacy","legacy","0","uniform","1","undefined","undefined","undefined","1","j","0","0","0","0","56","0","0","0","56","0","52","56","52","0","52","3","56","0","56","Fri Feb 19 12:49:46 2021","The main experiment item","yes","Lexical_Decision_Task.osexp","/Users/petruapostol/Desktop","no","Andale Mono","no","18","no","white","no","yes","576","legacy","52","52","3","/Users/petruapostol/Desktop/subject-5206902.csv","legacy","Lentiform Loewenfeld","3.3.7","yes","yes","600bd7cfb6416f0113b04181","602110864497cf011d9c0822","0","j","NA","space","space","space","space","j","2065","NA","5051","14289","13508","4167","2065","2","legacy","1024","2","48000","-16","task","5206902","even","NA","50561","57614","52562","214329","7340","35160","21647","214831","204324","214327","214831","214278","57614","216897","47351","185973","7226","212778","Lexical Decision Task","25","78861","57","yes","1024"
"3.094121596","0","8","fode","non-word","44.827586206896555","44.827586206896555","1373.3275862068965","1373.3275862068965","black","no","legacy","legacy","legacy","0","uniform","1","undefined","undefined","undefined","1","f","0","0","0","0","57","0","0","0","57","0","53","57","53","0","53","3","57","0","57","Fri Feb 19 12:49:46 2021","The main experiment item","yes","Lexical_Decision_Task.osexp","/Users/petruapostol/Desktop","no","Andale Mono","no","18","no","white","no","yes","576","legacy","53","53","3","/Users/petruapostol/Desktop/subject-5206902.csv","legacy","Lentiform Loewenfeld","3.3.7","yes","yes","600bd7cfb6416f0113b04181","602110864497cf011d9c0822","0","f","NA","space","space","space","space","f","792","NA","5051","14289","13508","4167","792","2","legacy","1024","2","48000","-16","task","5206902","even","NA","50561","57614","52562","217448","7340","35160","21647","217950","204324","217446","217950","217402","57614","218743","47351","216902","7226","212778","Lexical Decision Task","26","79653","58","yes","1024"
"3.316948329","0","1","besc","non-word","45.76271186440678","45.76271186440678","1360.949152542373","1360.949152542373","black","no","legacy","legacy","legacy","0","uniform","1","undefined","undefined","undefined","1","f","0","0","0","0","58","0","0","0","58","0","54","58","54","0","54","3","58","0","58","Fri Feb 19 12:49:46 2021","The main experiment item","yes","Lexical_Decision_Task.osexp","/Users/petruapostol/Desktop","no","Andale Mono","no","18","no","white","no","yes","576","legacy","54","54","3","/Users/petruapostol/Desktop/subject-5206902.csv","legacy","Lentiform Loewenfeld","3.3.7","yes","yes","600bd7cfb6416f0113b04181","602110864497cf011d9c0822","0","f","NA","space","space","space","space","f","643","NA","5051","14289","13508","4167","643","2","legacy","1024","2","48000","-16","task","5206902","even","NA","50561","57614","52562","219290","7340","35160","21647","219792","204324","219288","219792","219247","57614","220436","47351","218747","7226","212778","Lexical Decision Task","27","80296","59","yes","1024"
"3.049218023","7.4","9","robe","word","45","45","1349.5666666666666","1349.5666666666666","black","no","legacy","legacy","legacy","0","uniform","0","undefined","undefined","undefined","0","j","0","0","0","0","59","0","0","0","59","0","55","59","55","0","55","3","59","0","59","Fri Feb 19 12:49:46 2021","The main experiment item","yes","Lexical_Decision_Task.osexp","/Users/petruapostol/Desktop","no","Andale Mono","no","18","no","white","no","yes","576","legacy","55","55","3","/Users/petruapostol/Desktop/subject-5206902.csv","legacy","Lentiform Loewenfeld","3.3.7","yes","yes","600bd7cfb6416f0113b04181","602110864497cf011d9c0822","0","f","NA","space","space","space","space","f","678","NA","5051","14289","13508","4167","678","2","legacy","1024","2","48000","-16","task","5206902","even","NA","50561","57614","52562","220987","7340","35160","21647","221489","204324","220985","221489","220940","57614","222167","47351","220440","7226","212778","Lexical Decision Task","27","80974","60","yes","1024"
"2.80048796","0","8","pife","non-word","45.90163934426229","45.90163934426229","1339.1967213114754","1339.1967213114754","black","no","legacy","legacy","legacy","0","uniform","1","undefined","undefined","undefined","1","f","0","0","0","0","60","0","0","0","60","0","56","60","56","0","56","3","60","0","60","Fri Feb 19 12:49:46 2021","The main experiment item","yes","Lexical_Decision_Task.osexp","/Users/petruapostol/Desktop","no","Andale Mono","no","18","no","white","no","yes","576","legacy","56","56","3","/Users/petruapostol/Desktop/subject-5206902.csv","legacy","Lentiform Loewenfeld","3.3.7","yes","yes","600bd7cfb6416f0113b04181","602110864497cf011d9c0822","0","f","NA","space","space","space","space","f","717","NA","5051","14289","13508","4167","717","2","legacy","1024","2","48000","-16","task","5206902","even","NA","50561","57614","52562","223718","7340","35160","21647","224220","204324","223716","224220","223672","57614","224939","47351","220440","7226","222172","Lexical Decision Task","28","81691","61","yes","1024"
"3.043885998","0","9","gome","non-word","45.16129032258065","45.16129032258065","1326","1326","black","no","legacy","legacy","legacy","0","uniform","0","undefined","undefined","undefined","0","f","0","0","0","0","61","0","0","0","61","0","57","61","57","0","57","3","61","0","61","Fri Feb 19 12:49:46 2021","The main experiment item","yes","Lexical_Decision_Task.osexp","/Users/petruapostol/Desktop","no","Andale Mono","no","18","no","white","no","yes","576","legacy","57","57","3","/Users/petruapostol/Desktop/subject-5206902.csv","legacy","Lentiform Loewenfeld","3.3.7","yes","yes","600bd7cfb6416f0113b04181","602110864497cf011d9c0822","0","j","NA","space","space","space","space","j","521","NA","5051","14289","13508","4167","521","2","legacy","1024","2","48000","-16","task","5206902","even","NA","50561","57614","52562","225485","7340","35160","21647","225987","204324","225483","225987","225443","57614","226508","47351","224943","7226","222172","Lexical Decision Task","28","82212","62","yes","1024"
"2.952953801","0","8","clax","non-word","44.44444444444444","44.44444444444444","1318.7142857142858","1318.7142857142858","black","no","legacy","legacy","legacy","0","uniform","0","undefined","undefined","undefined","0","f","0","0","0","0","62","0","0","0","62","0","58","62","58","0","58","3","62","0","62","Fri Feb 19 12:49:46 2021","The main experiment item","yes","Lexical_Decision_Task.osexp","/Users/petruapostol/Desktop","no","Andale Mono","no","18","no","white","no","yes","576","legacy","58","58","3","/Users/petruapostol/Desktop/subject-5206902.csv","legacy","Lentiform Loewenfeld","3.3.7","yes","yes","600bd7cfb6416f0113b04181","602110864497cf011d9c0822","0","j","NA","space","space","space","space","j","867","NA","5051","14289","13508","4167","867","2","legacy","1024","2","48000","-16","task","5206902","even","NA","50561","57614","52562","228059","7340","35160","21647","228561","204324","228056","228561","228013","57614","229429","47351","224943","7226","226513","Lexical Decision Task","28","83079","63","yes","1024"
"3.15462682","0","6","noal","non-word","43.75","43.75","1326.09375","1326.09375","black","no","legacy","legacy","legacy","0","uniform","0","undefined","undefined","undefined","0","f","0","0","0","0","63","0","0","0","63","0","59","63","59","0","59","3","63","0","63","Fri Feb 19 12:49:46 2021","The main experiment item","yes","Lexical_Decision_Task.osexp","/Users/petruapostol/Desktop","no","Andale Mono","no","18","no","white","no","yes","576","legacy","59","59","3","/Users/petruapostol/Desktop/subject-5206902.csv","legacy","Lentiform Loewenfeld","3.3.7","yes","yes","600bd7cfb6416f0113b04181","602110864497cf011d9c0822","0","j","NA","space","space","space","space","j","1791","NA","5051","14289","13508","4167","1791","2","legacy","1024","2","48000","-16","task","5206902","even","NA","50561","57614","52562","230979","7340","35160","21647","231481","204324","230976","231481","230934","57614","233272","47351","224943","7226","229434","Lexical Decision Task","28","84870","64","yes","1024"
"3.119255889","6.63","2","itch","word","43.07692307692308","43.07692307692308","1312.0153846153846","1312.0153846153846","black","no","legacy","legacy","legacy","0","uniform","0","undefined","undefined","undefined","0","j","0","0","0","0","64","0","0","0","64","0","60","64","60","0","60","3","64","0","64","Fri Feb 19 12:49:46 2021","The main experiment item","yes","Lexical_Decision_Task.osexp","/Users/petruapostol/Desktop","no","Andale Mono","no","18","no","white","no","yes","576","legacy","60","60","3","/Users/petruapostol/Desktop/subject-5206902.csv","legacy","Lentiform Loewenfeld","3.3.7","yes","yes","600bd7cfb6416f0113b04181","602110864497cf011d9c0822","0","f","NA","space","space","space","space","f","411","NA","5051","14289","13508","4167","411","2","legacy","1024","2","48000","-16","task","5206902","even","NA","50561","57614","52562","234827","7340","35160","21647","235329","204324","234825","235329","234778","57614","235741","47351","224943","7226","233277","Lexical Decision Task","28","85281","65","yes","1024"
"2.86332286","6.71","2","feud","word","43.93939393939394","43.93939393939394","1322.1060606060605","1322.1060606060605","black","no","legacy","legacy","legacy","0","uniform","1","undefined","undefined","undefined","1","j","0","0","0","0","65","0","0","0","65","0","61","65","61","0","61","3","65","0","65","Fri Feb 19 12:49:46 2021","The main experiment item","yes","Lexical_Decision_Task.osexp","/Users/petruapostol/Desktop","no","Andale Mono","no","18","no","white","no","yes","576","legacy","61","61","3","/Users/petruapostol/Desktop/subject-5206902.csv","legacy","Lentiform Loewenfeld","3.3.7","yes","yes","600bd7cfb6416f0113b04181","602110864497cf011d9c0822","0","j","NA","space","space","space","space","j","1978","NA","5051","14289","13508","4167","1978","2","legacy","1024","2","48000","-16","task","5206902","even","NA","50561","57614","52562","237295","7340","35160","21647","237798","204324","237293","237798","237246","57614","239778","47351","224943","7226","235746","Lexical Decision Task","29","87259","66","yes","1024"
"2.809559715","8.44","4","volt","word","43.28358208955224","43.28358208955224","1315.1940298507463","1315.1940298507463","black","no","legacy","legacy","legacy","0","uniform","0","undefined","undefined","undefined","0","j","0","0","0","0","66","0","0","0","66","0","62","66","62","0","62","3","66","0","66","Fri Feb 19 12:49:46 2021","The main experiment item","yes","Lexical_Decision_Task.osexp","/Users/petruapostol/Desktop","no","Andale Mono","no","18","no","white","no","yes","576","legacy","62","62","3","/Users/petruapostol/Desktop/subject-5206902.csv","legacy","Lentiform Loewenfeld","3.3.7","yes","yes","600bd7cfb6416f0113b04181","602110864497cf011d9c0822","0","f","NA","space","space","space","space","f","859","NA","5051","14289","13508","4167","859","2","legacy","1024","2","48000","-16","task","5206902","even","NA","50561","57614","52562","240330","7340","35160","21647","240832","204324","240328","240832","240284","57614","241692","47351","239784","7226","235746","Lexical Decision Task","29","88118","67","yes","1024"
"2.782472624","10.55","2","huge","word","44.11764705882353","44.11764705882353","1305.6911764705883","1305.6911764705883","black","no","legacy","legacy","legacy","0","uniform","1","undefined","undefined","undefined","1","j","0","0","0","0","67","0","0","0","67","0","63","67","63","0","63","3","67","0","67","Fri Feb 19 12:49:46 2021","The main experiment item","yes","Lexical_Decision_Task.osexp","/Users/petruapostol/Desktop","no","Andale Mono","no","18","no","white","no","yes","576","legacy","63","63","3","/Users/petruapostol/Desktop/subject-5206902.csv","legacy","Lentiform Loewenfeld","3.3.7","yes","yes","600bd7cfb6416f0113b04181","602110864497cf011d9c0822","0","j","NA","space","space","space","space","j","669","NA","5051","14289","13508","4167","669","2","legacy","1024","2","48000","-16","task","5206902","even","NA","50561","57614","52562","243241","7340","35160","21647","243744","204324","243239","243744","243196","57614","244414","47351","239784","7226","241695","Lexical Decision Task","30","88787","68","yes","1024"
"3.076883066","0","8","mout","non-word","43.47826086956522","43.47826086956522","1302.6376811594203","1302.6376811594203","black","no","legacy","legacy","legacy","0","uniform","0","undefined","undefined","undefined","0","f","0","0","0","0","68","0","0","0","68","0","64","68","64","0","64","3","68","0","68","Fri Feb 19 12:49:46 2021","The main experiment item","yes","Lexical_Decision_Task.osexp","/Users/petruapostol/Desktop","no","Andale Mono","no","18","no","white","no","yes","576","legacy","64","64","3","/Users/petruapostol/Desktop/subject-5206902.csv","legacy","Lentiform Loewenfeld","3.3.7","yes","yes","600bd7cfb6416f0113b04181","602110864497cf011d9c0822","0","j","NA","space","space","space","space","j","1095","NA","5051","14289","13508","4167","1095","2","legacy","1024","2","48000","-16","task","5206902","even","NA","50561","57614","52562","244963","7340","35160","21647","245465","204324","244961","245465","244918","57614","246561","47351","244418","7226","241695","Lexical Decision Task","30","89882","69","yes","1024"
"2.75025376","10.2","6","jump","word","44.285714285714285","44.285714285714285","1301.1142857142856","1301.1142857142856","black","no","legacy","legacy","legacy","0","uniform","1","undefined","undefined","undefined","1","j","0","0","0","0","69","0","0","0","69","0","65","69","65","0","65","3","69","0","69","Fri Feb 19 12:49:46 2021","The main experiment item","yes","Lexical_Decision_Task.osexp","/Users/petruapostol/Desktop","no","Andale Mono","no","18","no","white","no","yes","576","legacy","65","65","3","/Users/petruapostol/Desktop/subject-5206902.csv","legacy","Lentiform Loewenfeld","3.3.7","yes","yes","600bd7cfb6416f0113b04181","602110864497cf011d9c0822","0","j","NA","space","space","space","space","j","1196","NA","5051","14289","13508","4167","1196","2","legacy","1024","2","48000","-16","task","5206902","even","NA","50561","57614","52562","248115","7340","35160","21647","248617","204324","248112","248617","248065","57614","249814","47351","244418","7226","246565","Lexical Decision Task","31","91078","70","yes","1024"
"2.813801082","5.47","7","nook","word","43.66197183098591","43.66197183098591","1295.661971830986","1295.661971830986","black","no","legacy","legacy","legacy","0","uniform","0","undefined","undefined","undefined","0","j","0","0","0","0","70","0","0","0","70","0","66","70","66","0","66","3","70","0","70","Fri Feb 19 12:49:46 2021","The main experiment item","yes","Lexical_Decision_Task.osexp","/Users/petruapostol/Desktop","no","Andale Mono","no","18","no","white","no","yes","576","legacy","66","66","3","/Users/petruapostol/Desktop/subject-5206902.csv","legacy","Lentiform Loewenfeld","3.3.7","yes","yes","600bd7cfb6416f0113b04181","602110864497cf011d9c0822","0","f","NA","space","space","space","space","f","914","NA","5051","14289","13508","4167","914","2","legacy","1024","2","48000","-16","task","5206902","even","NA","50561","57614","52562","250364","7340","35160","21647","250866","204324","250362","250866","250318","57614","251781","47351","249818","7226","246565","Lexical Decision Task","31","91992","71","yes","1024"
"3.488597715","0","9","nain","non-word","44.44444444444444","44.44444444444444","1290.736111111111","1290.736111111111","black","no","legacy","legacy","legacy","0","uniform","1","undefined","undefined","undefined","1","f","0","0","0","0","71","0","0","0","71","0","67","71","67","0","67","3","71","0","71","Fri Feb 19 12:49:46 2021","The main experiment item","yes","Lexical_Decision_Task.osexp","/Users/petruapostol/Desktop","no","Andale Mono","no","18","no","white","no","yes","576","legacy","67","67","3","/Users/petruapostol/Desktop/subject-5206902.csv","legacy","Lentiform Loewenfeld","3.3.7","yes","yes","600bd7cfb6416f0113b04181","602110864497cf011d9c0822","0","f","NA","space","space","space","space","f","941","NA","5051","14289","13508","4167","941","2","legacy","1024","2","48000","-16","task","5206902","even","NA","50561","57614","52562","253331","7340","35160","21647","253833","204324","253329","253833","253285","57614","254775","47351","249818","7226","251785","Lexical Decision Task","32","92933","72","yes","1024"
"3.276537627","9.15","5","trap","word","45.205479452054796","45.205479452054796","1282.2739726027398","1282.2739726027398","black","no","legacy","legacy","legacy","0","uniform","1","undefined","undefined","undefined","1","j","0","0","0","0","72","0","0","0","72","0","68","72","68","0","68","3","72","0","72","Fri Feb 19 12:49:46 2021","The main experiment item","yes","Lexical_Decision_Task.osexp","/Users/petruapostol/Desktop","no","Andale Mono","no","18","no","white","no","yes","576","legacy","68","68","3","/Users/petruapostol/Desktop/subject-5206902.csv","legacy","Lentiform Loewenfeld","3.3.7","yes","yes","600bd7cfb6416f0113b04181","602110864497cf011d9c0822","0","j","NA","space","space","space","space","j","673","NA","5051","14289","13508","4167","673","2","legacy","1024","2","48000","-16","task","5206902","even","NA","50561","57614","52562","255325","7340","35160","21647","255827","204324","255323","255827","255279","57614","256501","47351","254779","7226","251785","Lexical Decision Task","33","93606","73","yes","1024"
"2.812467698","0","7","hafe","non-word","45.945945945945944","45.945945945945944","1274.0675675675675","1274.0675675675675","black","no","legacy","legacy","legacy","0","uniform","1","undefined","undefined","undefined","1","f","0","0","0","0","73","0","0","0","73","0","69","73","69","0","69","3","73","0","73","Fri Feb 19 12:49:46 2021","The main experiment item","yes","Lexical_Decision_Task.osexp","/Users/petruapostol/Desktop","no","Andale Mono","no","18","no","white","no","yes","576","legacy","69","69","3","/Users/petruapostol/Desktop/subject-5206902.csv","legacy","Lentiform Loewenfeld","3.3.7","yes","yes","600bd7cfb6416f0113b04181","602110864497cf011d9c0822","0","f","NA","space","space","space","space","f","675","NA","5051","14289","13508","4167","675","2","legacy","1024","2","48000","-16","task","5206902","even","NA","50561","57614","52562","257050","7340","35160","21647","257552","204324","257048","257552","257004","57614","258228","47351","256504","7226","251785","Lexical Decision Task","34","94281","74","yes","1024"
"3.282244367","0","6","fute","non-word","46.666666666666664","46.666666666666664","1267.5066666666667","1267.5066666666667","black","no","legacy","legacy","legacy","0","uniform","1","undefined","undefined","undefined","1","f","0","0","0","0","74","0","0","0","74","0","70","74","70","0","70","3","74","0","74","Fri Feb 19 12:49:46 2021","The main experiment item","yes","Lexical_Decision_Task.osexp","/Users/petruapostol/Desktop","no","Andale Mono","no","18","no","white","no","yes","576","legacy","70","70","3","/Users/petruapostol/Desktop/subject-5206902.csv","legacy","Lentiform Loewenfeld","3.3.7","yes","yes","600bd7cfb6416f0113b04181","602110864497cf011d9c0822","0","f","NA","space","space","space","space","f","782","NA","5051","14289","13508","4167","782","2","legacy","1024","2","48000","-16","task","5206902","even","NA","50561","57614","52562","258779","7340","35160","21647","259281","204324","258777","259281","258733","57614","260064","47351","258232","7226","251785","Lexical Decision Task","35","95063","75","yes","1024"
"3.031812271","6.52","3","gulp","word","47.36842105263158","47.36842105263158","1262.75","1262.75","black","no","legacy","legacy","legacy","0","uniform","1","undefined","undefined","undefined","1","j","0","0","0","0","75","0","0","0","75","0","71","75","71","0","71","3","75","0","75","Fri Feb 19 12:49:46 2021","The main experiment item","yes","Lexical_Decision_Task.osexp","/Users/petruapostol/Desktop","no","Andale Mono","no","18","no","white","no","yes","576","legacy","71","71","3","/Users/petruapostol/Desktop/subject-5206902.csv","legacy","Lentiform Loewenfeld","3.3.7","yes","yes","600bd7cfb6416f0113b04181","602110864497cf011d9c0822","0","j","NA","space","space","space","space","j","906","NA","5051","14289","13508","4167","906","2","legacy","1024","2","48000","-16","task","5206902","even","NA","50561","57614","52562","260615","7340","35160","21647","261118","204324","260613","261118","260568","57614","262025","47351","260068","7226","251785","Lexical Decision Task","36","95969","76","yes","1024"
"3.090140555","5.81","8","pout","word","48.05194805194805","48.05194805194805","1258.1948051948052","1258.1948051948052","black","no","legacy","legacy","legacy","0","uniform","1","undefined","undefined","undefined","1","j","0","0","0","0","76","0","0","0","76","0","72","76","72","0","72","3","76","0","76","Fri Feb 19 12:49:46 2021","The main experiment item","yes","Lexical_Decision_Task.osexp","/Users/petruapostol/Desktop","no","Andale Mono","no","18","no","white","no","yes","576","legacy","72","72","3","/Users/petruapostol/Desktop/subject-5206902.csv","legacy","Lentiform Loewenfeld","3.3.7","yes","yes","600bd7cfb6416f0113b04181","602110864497cf011d9c0822","0","j","NA","space","space","space","space","j","912","NA","5051","14289","13508","4167","912","2","legacy","1024","2","48000","-16","task","5206902","even","NA","50561","57614","52562","262575","7340","35160","21647","263077","204324","262573","263077","262529","57614","263990","47351","262029","7226","251785","Lexical Decision Task","37","96881","77","yes","1024"
"3.149629599","0","2","cleb","non-word","48.717948717948715","48.717948717948715","1252.1666666666667","1252.1666666666667","black","no","legacy","legacy","legacy","0","uniform","1","undefined","undefined","undefined","1","f","0","0","0","0","77","0","0","0","77","0","73","77","73","0","73","3","77","0","77","Fri Feb 19 12:49:46 2021","The main experiment item","yes","Lexical_Decision_Task.osexp","/Users/petruapostol/Desktop","no","Andale Mono","no","18","no","white","no","yes","576","legacy","73","73","3","/Users/petruapostol/Desktop/subject-5206902.csv","legacy","Lentiform Loewenfeld","3.3.7","yes","yes","600bd7cfb6416f0113b04181","602110864497cf011d9c0822","0","f","NA","space","space","space","space","f","788","NA","5051","14289","13508","4167","788","2","legacy","1024","2","48000","-16","task","5206902","even","NA","50561","57614","52562","264542","7340","35160","21647","265044","204324","264540","265044","264496","57614","265833","47351","263996","7226","251785","Lexical Decision Task","38","97669","78","yes","1024"
"3.261341392","5.08","8","reek","word","48.10126582278481","48.10126582278481","1245.3291139240507","1245.3291139240507","black","no","legacy","legacy","legacy","0","uniform","0","undefined","undefined","undefined","0","j","0","0","0","0","78","0","0","0","78","0","74","78","74","0","74","3","78","0","78","Fri Feb 19 12:49:46 2021","The main experiment item","yes","Lexical_Decision_Task.osexp","/Users/petruapostol/Desktop","no","Andale Mono","no","18","no","white","no","yes","576","legacy","74","74","3","/Users/petruapostol/Desktop/subject-5206902.csv","legacy","Lentiform Loewenfeld","3.3.7","yes","yes","600bd7cfb6416f0113b04181","602110864497cf011d9c0822","0","f","NA","space","space","space","space","f","712","NA","5051","14289","13508","4167","712","2","legacy","1024","2","48000","-16","task","5206902","even","NA","50561","57614","52562","266383","7340","35160","21647","266885","204324","266381","266885","266337","57614","267598","47351","265837","7226","251785","Lexical Decision Task","38","98381","79","yes","1024"
"3.481012421","8.34","5","teen","word","48.75","48.75","1238.2375","1238.2375","black","no","legacy","legacy","legacy","0","uniform","1","undefined","undefined","undefined","1","j","0","0","0","0","79","0","0","0","79","0","75","79","75","0","75","3","79","0","79","Fri Feb 19 12:49:46 2021","The main experiment item","yes","Lexical_Decision_Task.osexp","/Users/petruapostol/Desktop","no","Andale Mono","no","18","no","white","no","yes","576","legacy","75","75","3","/Users/petruapostol/Desktop/subject-5206902.csv","legacy","Lentiform Loewenfeld","3.3.7","yes","yes","600bd7cfb6416f0113b04181","602110864497cf011d9c0822","0","j","NA","space","space","space","space","j","678","NA","5051","14289","13508","4167","678","2","legacy","1024","2","48000","-16","task","5206902","even","NA","50561","57614","52562","269151","7340","35160","21647","269652","204324","269148","269653","269101","57614","270332","47351","265837","7226","267601","Lexical Decision Task","39","99059","80","yes","1024"
"2.983324025","9.56","2","debt","word","49.382716049382715","49.382716049382715","1230.888888888889","1230.888888888889","black","no","legacy","legacy","legacy","0","uniform","1","undefined","undefined","undefined","1","j","0","0","0","0","80","0","0","0","80","0","76","80","76","0","76","3","80","0","80","Fri Feb 19 12:49:46 2021","The main experiment item","yes","Lexical_Decision_Task.osexp","/Users/petruapostol/Desktop","no","Andale Mono","no","18","no","white","no","yes","576","legacy","76","76","3","/Users/petruapostol/Desktop/subject-5206902.csv","legacy","Lentiform Loewenfeld","3.3.7","yes","yes","600bd7cfb6416f0113b04181","602110864497cf011d9c0822","0","j","NA","space","space","space","space","j","643","NA","5051","14289","13508","4167","643","2","legacy","1024","2","48000","-16","task","5206902","even","NA","50561","57614","52562","270882","7340","35160","21647","271384","204324","270880","271384","270836","57614","272028","47351","270336","7226","267601","Lexical Decision Task","40","99702","81","yes","1024"
"3.22685757","9.99","7","roll","word","50","50","1224.6707317073171","1224.6707317073171","black","no","legacy","legacy","legacy","0","uniform","1","undefined","undefined","undefined","1","j","0","0","0","0","81","0","0","0","81","0","77","81","77","0","77","3","81","0","81","Fri Feb 19 12:49:46 2021","The main experiment item","yes","Lexical_Decision_Task.osexp","/Users/petruapostol/Desktop","no","Andale Mono","no","18","no","white","no","yes","576","legacy","77","77","3","/Users/petruapostol/Desktop/subject-5206902.csv","legacy","Lentiform Loewenfeld","3.3.7","yes","yes","600bd7cfb6416f0113b04181","602110864497cf011d9c0822","0","j","NA","space","space","space","space","j","721","NA","5051","14289","13508","4167","721","2","legacy","1024","2","48000","-16","task","5206902","even","NA","50561","57614","52562","272579","7340","35160","21647","273081","204324","272577","273081","272533","57614","273802","47351","272032","7226","267601","Lexical Decision Task","41","100423","82","yes","1024"
"2.576725172","0","8","gowl","non-word","49.397590361445786","49.397590361445786","1222.1566265060242","1222.1566265060242","black","no","legacy","legacy","legacy","0","uniform","0","undefined","undefined","undefined","0","f","0","0","0","0","82","0","0","0","82","0","78","82","78","0","78","3","82","0","82","Fri Feb 19 12:49:46 2021","The main experiment item","yes","Lexical_Decision_Task.osexp","/Users/petruapostol/Desktop","no","Andale Mono","no","18","no","white","no","yes","576","legacy","78","78","3","/Users/petruapostol/Desktop/subject-5206902.csv","legacy","Lentiform Loewenfeld","3.3.7","yes","yes","600bd7cfb6416f0113b04181","602110864497cf011d9c0822","0","j","NA","space","space","space","space","j","1016","NA","5051","14289","13508","4167","1016","2","legacy","1024","2","48000","-16","task","5206902","even","NA","50561","57614","52562","274354","7340","35160","21647","274856","204324","274352","274856","274307","57614","275873","47351","273807","7226","267601","Lexical Decision Task","41","101439","83","yes","1024"
"3.368162872","0","4","ferk","non-word","50","50","1214.607142857143","1214.607142857143","black","no","legacy","legacy","legacy","0","uniform","1","undefined","undefined","undefined","1","f","0","0","0","0","83","0","0","0","83","0","79","83","79","0","79","3","83","0","83","Fri Feb 19 12:49:46 2021","The main experiment item","yes","Lexical_Decision_Task.osexp","/Users/petruapostol/Desktop","no","Andale Mono","no","18","no","white","no","yes","576","legacy","79","79","3","/Users/petruapostol/Desktop/subject-5206902.csv","legacy","Lentiform Loewenfeld","3.3.7","yes","yes","600bd7cfb6416f0113b04181","602110864497cf011d9c0822","0","f","NA","space","space","space","space","f","588","NA","5051","14289","13508","4167","588","2","legacy","1024","2","48000","-16","task","5206902","even","NA","50561","57614","52562","277428","7340","35160","21647","277930","204324","277425","277930","277378","57614","278519","47351","273807","7226","275878","Lexical Decision Task","42","102027","84","yes","1024"
"3.384413096","10.15","3","glad","word","50.588235294117645","50.588235294117645","1212.129411764706","1212.129411764706","black","no","legacy","legacy","legacy","0","uniform","1","undefined","undefined","undefined","1","j","0","0","0","0","84","0","0","0","84","0","80","84","80","0","80","3","84","0","84","Fri Feb 19 12:49:46 2021","The main experiment item","yes","Lexical_Decision_Task.osexp","/Users/petruapostol/Desktop","no","Andale Mono","no","18","no","white","no","yes","576","legacy","80","80","3","/Users/petruapostol/Desktop/subject-5206902.csv","legacy","Lentiform Loewenfeld","3.3.7","yes","yes","600bd7cfb6416f0113b04181","602110864497cf011d9c0822","0","j","NA","space","space","space","space","j","1004","NA","5051","14289","13508","4167","1004","2","legacy","1024","2","48000","-16","task","5206902","even","NA","50561","57614","52562","279070","7340","35160","21647","279572","204324","279067","279572","279023","57614","280577","47351","278523","7226","275878","Lexical Decision Task","43","103031","85","yes","1024"
"3.068433376","8.09","2","bulb","word","51.16279069767442","51.16279069767442","1205.0232558139535","1205.0232558139535","black","no","legacy","legacy","legacy","0","uniform","1","undefined","undefined","undefined","1","j","0","0","0","0","85","0","0","0","85","0","81","85","81","0","81","3","85","0","85","Fri Feb 19 12:49:46 2021","The main experiment item","yes","Lexical_Decision_Task.osexp","/Users/petruapostol/Desktop","no","Andale Mono","no","18","no","white","no","yes","576","legacy","81","81","3","/Users/petruapostol/Desktop/subject-5206902.csv","legacy","Lentiform Loewenfeld","3.3.7","yes","yes","600bd7cfb6416f0113b04181","602110864497cf011d9c0822","0","j","NA","space","space","space","space","j","601","NA","5051","14289","13508","4167","601","2","legacy","1024","2","48000","-16","task","5206902","even","NA","50561","57614","52562","281128","7340","35160","21647","281631","204324","281126","281631","281081","57614","282233","47351","280581","7226","275878","Lexical Decision Task","44","103632","86","yes","1024"
"2.68604012","0","4","pumb","non-word","50.57471264367816","50.57471264367816","1197.7241379310344","1197.7241379310344","black","no","legacy","legacy","legacy","0","uniform","0","undefined","undefined","undefined","0","f","0","0","0","0","86","0","0","0","86","0","82","86","82","0","82","3","86","0","86","Fri Feb 19 12:49:46 2021","The main experiment item","yes","Lexical_Decision_Task.osexp","/Users/petruapostol/Desktop","no","Andale Mono","no","18","no","white","no","yes","576","legacy","82","82","3","/Users/petruapostol/Desktop/subject-5206902.csv","legacy","Lentiform Loewenfeld","3.3.7","yes","yes","600bd7cfb6416f0113b04181","602110864497cf011d9c0822","0","j","NA","space","space","space","space","j","570","NA","5051","14289","13508","4167","570","2","legacy","1024","2","48000","-16","task","5206902","even","NA","50561","57614","52562","282784","7340","35160","21647","283286","204324","282782","283287","282738","57614","283859","47351","282237","7226","275878","Lexical Decision Task","44","104202","87","yes","1024"
"2.899092422","7.27","6","snag","word","51.13636363636363","51.13636363636363","1190.6818181818182","1190.6818181818182","black","no","legacy","legacy","legacy","0","uniform","1","undefined","undefined","undefined","1","j","0","0","0","0","87","0","0","0","87","0","83","87","83","0","83","3","87","0","87","Fri Feb 19 12:49:46 2021","The main experiment item","yes","Lexical_Decision_Task.osexp","/Users/petruapostol/Desktop","no","Andale Mono","no","18","no","white","no","yes","576","legacy","83","83","3","/Users/petruapostol/Desktop/subject-5206902.csv","legacy","Lentiform Loewenfeld","3.3.7","yes","yes","600bd7cfb6416f0113b04181","602110864497cf011d9c0822","0","j","NA","space","space","space","space","j","578","NA","5051","14289","13508","4167","578","2","legacy","1024","2","48000","-16","task","5206902","even","NA","50561","57614","52562","285413","7340","35160","21647","285915","204324","285410","285915","285363","57614","286494","47351","282237","7226","283863","Lexical Decision Task","45","104780","88","yes","1024"
"2.875447132","0","9","jelt","non-word","50.561797752808985","50.561797752808985","1186.9213483146068","1186.9213483146068","black","no","legacy","legacy","legacy","0","uniform","0","undefined","undefined","undefined","0","f","0","0","0","0","88","0","0","0","88","0","84","88","84","0","84","3","88","0","88","Fri Feb 19 12:49:46 2021","The main experiment item","yes","Lexical_Decision_Task.osexp","/Users/petruapostol/Desktop","no","Andale Mono","no","18","no","white","no","yes","576","legacy","84","84","3","/Users/petruapostol/Desktop/subject-5206902.csv","legacy","Lentiform Loewenfeld","3.3.7","yes","yes","600bd7cfb6416f0113b04181","602110864497cf011d9c0822","0","j","NA","space","space","space","space","j","856","NA","5051","14289","13508","4167","856","2","legacy","1024","2","48000","-16","task","5206902","even","NA","50561","57614","52562","287046","7340","35160","21647","287548","204324","287044","287548","286999","57614","288405","47351","286498","7226","283863","Lexical Decision Task","45","105636","89","yes","1024"
"2.979548375","8.71","4","soup","word","51.111111111111114","51.111111111111114","1182.4444444444443","1182.4444444444443","black","no","legacy","legacy","legacy","0","uniform","1","undefined","undefined","undefined","1","j","0","0","0","0","89","0","0","0","89","0","85","89","85","0","85","3","89","0","89","Fri Feb 19 12:49:46 2021","The main experiment item","yes","Lexical_Decision_Task.osexp","/Users/petruapostol/Desktop","no","Andale Mono","no","18","no","white","no","yes","576","legacy","85","85","3","/Users/petruapostol/Desktop/subject-5206902.csv","legacy","Lentiform Loewenfeld","3.3.7","yes","yes","600bd7cfb6416f0113b04181","602110864497cf011d9c0822","0","j","NA","space","space","space","space","j","784","NA","5051","14289","13508","4167","784","2","legacy","1024","2","48000","-16","task","5206902","even","NA","50561","57614","52562","289955","7340","35160","21647","290457","204324","289953","290457","289909","57614","291242","47351","286498","7226","288409","Lexical Decision Task","46","106420","90","yes","1024"
"2.839898939","8.99","6","soap","word","51.64835164835165","51.64835164835165","1175.2417582417581","1175.2417582417581","black","no","legacy","legacy","legacy","0","uniform","1","undefined","undefined","undefined","1","j","0","0","0","0","90","0","0","0","90","0","86","90","86","0","86","3","90","0","90","Fri Feb 19 12:49:46 2021","The main experiment item","yes","Lexical_Decision_Task.osexp","/Users/petruapostol/Desktop","no","Andale Mono","no","18","no","white","no","yes","576","legacy","86","86","3","/Users/petruapostol/Desktop/subject-5206902.csv","legacy","Lentiform Loewenfeld","3.3.7","yes","yes","600bd7cfb6416f0113b04181","602110864497cf011d9c0822","0","j","NA","space","space","space","space","j","527","NA","5051","14289","13508","4167","527","2","legacy","1024","2","48000","-16","task","5206902","even","NA","50561","57614","52562","291792","7340","35160","21647","292294","204324","291790","292294","291746","57614","292822","47351","291246","7226","288409","Lexical Decision Task","47","106947","91","yes","1024"
"3.492014979","0","9","yine","non-word","52.17391304347826","52.17391304347826","1168.4891304347825","1168.4891304347825","black","no","legacy","legacy","legacy","0","uniform","1","undefined","undefined","undefined","1","f","0","0","0","0","91","0","0","0","91","0","87","91","87","0","87","3","91","0","91","Fri Feb 19 12:49:46 2021","The main experiment item","yes","Lexical_Decision_Task.osexp","/Users/petruapostol/Desktop","no","Andale Mono","no","18","no","white","no","yes","576","legacy","87","87","3","/Users/petruapostol/Desktop/subject-5206902.csv","legacy","Lentiform Loewenfeld","3.3.7","yes","yes","600bd7cfb6416f0113b04181","602110864497cf011d9c0822","0","f","NA","space","space","space","space","f","554","NA","5051","14289","13508","4167","554","2","legacy","1024","2","48000","-16","task","5206902","even","NA","50561","57614","52562","293374","7340","35160","21647","293876","204324","293372","293876","293327","57614","294431","47351","292827","7226","288409","Lexical Decision Task","48","107501","92","yes","1024"
"3.382617311","0","4","pret","non-word","52.68817204301075","52.68817204301075","1161.2043010752689","1161.2043010752689","black","no","legacy","legacy","legacy","0","uniform","1","undefined","undefined","undefined","1","f","0","0","0","0","92","0","0","0","92","0","88","92","88","0","88","3","92","0","92","Fri Feb 19 12:49:46 2021","The main experiment item","yes","Lexical_Decision_Task.osexp","/Users/petruapostol/Desktop","no","Andale Mono","no","18","no","white","no","yes","576","legacy","88","88","3","/Users/petruapostol/Desktop/subject-5206902.csv","legacy","Lentiform Loewenfeld","3.3.7","yes","yes","600bd7cfb6416f0113b04181","602110864497cf011d9c0822","0","f","NA","space","space","space","space","f","491","NA","5051","14289","13508","4167","491","2","legacy","1024","2","48000","-16","task","5206902","even","NA","50561","57614","52562","294981","7340","35160","21647","295483","204324","294979","295483","294935","57614","295975","47351","294435","7226","288409","Lexical Decision Task","49","107992","93","yes","1024"
"3.230789326","5.38","5","prim","word","52.12765957446808","52.12765957446808","1157.404255319149","1157.404255319149","black","no","legacy","legacy","legacy","0","uniform","0","undefined","undefined","undefined","0","j","0","0","0","0","93","0","0","0","93","0","89","93","89","0","89","3","93","0","93","Fri Feb 19 12:49:46 2021","The main experiment item","yes","Lexical_Decision_Task.osexp","/Users/petruapostol/Desktop","no","Andale Mono","no","18","no","white","no","yes","576","legacy","89","89","3","/Users/petruapostol/Desktop/subject-5206902.csv","legacy","Lentiform Loewenfeld","3.3.7","yes","yes","600bd7cfb6416f0113b04181","602110864497cf011d9c0822","0","f","NA","space","space","space","space","f","804","NA","5051","14289","13508","4167","804","2","legacy","1024","2","48000","-16","task","5206902","even","NA","50561","57614","52562","296524","7340","35160","21647","297026","204324","296521","297026","296479","57614","297831","47351","295979","7226","288409","Lexical Decision Task","49","108796","94","yes","1024"
"2.594027722","9.08","8","skip","word","52.63157894736842","52.63157894736842","1151.1473684210525","1151.1473684210525","black","no","legacy","legacy","legacy","0","uniform","1","undefined","undefined","undefined","1","j","0","0","0","0","94","0","0","0","94","0","90","94","90","0","90","3","94","0","94","Fri Feb 19 12:49:46 2021","The main experiment item","yes","Lexical_Decision_Task.osexp","/Users/petruapostol/Desktop","no","Andale Mono","no","18","no","white","no","yes","576","legacy","90","90","3","/Users/petruapostol/Desktop/subject-5206902.csv","legacy","Lentiform Loewenfeld","3.3.7","yes","yes","600bd7cfb6416f0113b04181","602110864497cf011d9c0822","0","j","NA","space","space","space","space","j","563","NA","5051","14289","13508","4167","563","2","legacy","1024","2","48000","-16","task","5206902","even","NA","50561","57614","52562","299384","7340","35160","21647","299886","204324","299382","299886","299335","57614","300450","47351","295979","7226","297835","Lexical Decision Task","50","109359","95","yes","1024"
"2.713490543","0","3","feps","non-word","53.125","53.125","1145.375","1145.375","black","no","legacy","legacy","legacy","0","uniform","1","undefined","undefined","undefined","1","f","0","0","0","0","95","0","0","0","95","0","91","95","91","0","91","3","95","0","95","Fri Feb 19 12:49:46 2021","The main experiment item","yes","Lexical_Decision_Task.osexp","/Users/petruapostol/Desktop","no","Andale Mono","no","18","no","white","no","yes","576","legacy","91","91","3","/Users/petruapostol/Desktop/subject-5206902.csv","legacy","Lentiform Loewenfeld","3.3.7","yes","yes","600bd7cfb6416f0113b04181","602110864497cf011d9c0822","0","f","NA","space","space","space","space","f","597","NA","5051","14289","13508","4167","597","2","legacy","1024","2","48000","-16","task","5206902","even","NA","50561","57614","52562","301001","7340","35160","21647","301503","204324","300999","301503","300954","57614","302101","47351","300454","7226","297835","Lexical Decision Task","51","109956","96","yes","1024"
"3.372543801","9.24","8","coat","word","53.608247422680414","53.608247422680414","1141.2680412371135","1141.2680412371135","black","no","legacy","legacy","legacy","0","uniform","1","undefined","undefined","undefined","1","j","0","0","0","0","96","0","0","0","96","0","92","96","92","0","92","3","96","0","96","Fri Feb 19 12:49:46 2021","The main experiment item","yes","Lexical_Decision_Task.osexp","/Users/petruapostol/Desktop","no","Andale Mono","no","18","no","white","no","yes","576","legacy","92","92","3","/Users/petruapostol/Desktop/subject-5206902.csv","legacy","Lentiform Loewenfeld","3.3.7","yes","yes","600bd7cfb6416f0113b04181","602110864497cf011d9c0822","0","j","NA","space","space","space","space","j","747","NA","5051","14289","13508","4167","747","2","legacy","1024","2","48000","-16","task","5206902","even","NA","50561","57614","52562","302651","7340","35160","21647","303153","204324","302649","303153","302605","57614","303901","47351","302105","7226","297835","Lexical Decision Task","52","110703","97","yes","1024"
"3.028977705","0","7","frow","non-word","53.06122448979592","53.06122448979592","1135.6938775510205","1135.6938775510205","black","no","legacy","legacy","legacy","0","uniform","0","undefined","undefined","undefined","0","f","0","0","0","0","97","0","0","0","97","0","93","97","93","0","93","3","97","0","97","Fri Feb 19 12:49:46 2021","The main experiment item","yes","Lexical_Decision_Task.osexp","/Users/petruapostol/Desktop","no","Andale Mono","no","18","no","white","no","yes","576","legacy","93","93","3","/Users/petruapostol/Desktop/subject-5206902.csv","legacy","Lentiform Loewenfeld","3.3.7","yes","yes","600bd7cfb6416f0113b04181","602110864497cf011d9c0822","0","j","NA","space","space","space","space","j","595","NA","5051","14289","13508","4167","595","2","legacy","1024","2","48000","-16","task","5206902","even","NA","50561","57614","52562","304452","7340","35160","21647","304954","204324","304450","304954","304405","57614","305550","47351","303905","7226","297835","Lexical Decision Task","52","111298","98","yes","1024"
"3.168890155","0","6","thet","non-word","53.535353535353536","53.535353535353536","1130.6464646464647","1130.6464646464647","black","no","legacy","legacy","legacy","0","uniform","1","undefined","undefined","undefined","1","f","0","0","0","0","98","0","0","0","98","0","94","98","94","0","94","3","98","0","98","Fri Feb 19 12:49:46 2021","The main experiment item","yes","Lexical_Decision_Task.osexp","/Users/petruapostol/Desktop","no","Andale Mono","no","18","no","white","no","yes","576","legacy","94","94","3","/Users/petruapostol/Desktop/subject-5206902.csv","legacy","Lentiform Loewenfeld","3.3.7","yes","yes","600bd7cfb6416f0113b04181","602110864497cf011d9c0822","0","f","NA","space","space","space","space","f","636","NA","5051","14289","13508","4167","636","2","legacy","1024","2","48000","-16","task","5206902","even","NA","50561","57614","52562","307104","7340","35160","21647","307606","204324","307101","307606","307055","57614","308243","47351","303905","7226","305554","Lexical Decision Task","53","111934","99","yes","1024"
