"Log_BG","Log_Freq_HAL","Ortho_N","Stimulus","Type","acc","accuracy","average_response_time","avg_rt","background","bidi","canvas_backend","clock_backend","color_backend","compensation","coordinates","correct","correct_Experimental_intro","correct_Introduction","correct_Practice_intro","correct_experimenter_kb","correct_response","count_End_Of_Experiment","count_End_Of_Practice","count_Experimental_Loop","count_Experimental_intro","count_Fixation","count_Introduction","count_Practice_Loop","count_Practice_intro","count_Stimulus","count_block_break_feedback","count_experimental_sequence","count_experimenter_kb","count_increment_trial_count","count_init_trial_count","count_logger","count_practice_sequence","count_right","count_task","count_wrong","datetime","description","disable_garbage_collection","experiment_file","experiment_path","font_bold","font_family","font_italic","font_size","font_underline","foreground","form_clicks","fullscreen","height","keyboard_backend","live_row","live_row_Experimental_Loop","live_row_Practice_Loop","logfile","mouse_backend","opensesame_codename","opensesame_version","osf_always_upload_data","osf_always_upload_experiment","osf_datanode_id","osf_id","repeat_cycle","response","response_End_Of_Experiment","response_Experimental_intro","response_Introduction","response_Practice_intro","response_block_break_feedback","response_experimenter_kb","response_time","response_time_End_Of_Experiment","response_time_Experimental_intro","response_time_Introduction","response_time_Practice_intro","response_time_block_break_feedback","response_time_experimenter_kb","round_decimals","sampler_backend","sound_buf_size","sound_channels","sound_freq","sound_sample_size","start","subject_nr","subject_parity","time_End_Of_Experiment","time_End_Of_Practice","time_Experimental_Loop","time_Experimental_intro","time_Fixation","time_Introduction","time_Practice_Loop","time_Practice_intro","time_Stimulus","time_block_break_feedback","time_experimental_sequence","time_experimenter_kb","time_increment_trial_count","time_init_trial_count","time_logger","time_practice_sequence","time_right","time_task","time_wrong","title","total_correct","total_response_time","total_responses","uniform_coordinates","width"
"2.803231716","5.26","3","kiln","word","100","100","969","969","black","no","legacy","legacy","legacy","0","uniform","1","undefined","undefined","undefined","1","j","0","0","0","0","4","0","0","0","4","NA","0","4","0","0","0","3","4","0","4","Fri Feb 19 13:05:16 2021","The main experiment item","yes","Lexical_Decision_Task.osexp","C:/CaL","no","Andale Mono","no","18","no","white","no","yes","576","legacy","0","0","3","C:/CaL/subject-5206282.csv","legacy","Lentiform Loewenfeld","3.3.7","yes","yes","600bd7cfb6416f0113b04181","602110864497cf011d9c0822","0","j","NA","space","j","space","NA","j","1033","NA","2753","53217","943","NA","1033","2","legacy","1024","2","48000","-16","task","5206282","even","NA","66946","71703","68948","71773","4234","58401","57455","72275","NA","71772","72276","NA","71703","73310","65241","66395","4227","NA","Lexical Decision Task","5","4845","5","yes","1024"
"2.845304797","0","6","buct","non-word","100","100","928.1666666666666","928.1666666666666","black","no","legacy","legacy","legacy","0","uniform","1","undefined","undefined","undefined","1","f","0","0","0","0","5","0","0","0","5","NA","1","5","1","0","1","3","5","0","5","Fri Feb 19 13:05:16 2021","The main experiment item","yes","Lexical_Decision_Task.osexp","C:/CaL","no","Andale Mono","no","18","no","white","no","yes","576","legacy","1","1","3","C:/CaL/subject-5206282.csv","legacy","Lentiform Loewenfeld","3.3.7","yes","yes","600bd7cfb6416f0113b04181","602110864497cf011d9c0822","0","f","NA","space","j","space","NA","f","724","NA","2753","53217","943","NA","724","2","legacy","1024","2","48000","-16","task","5206282","even","NA","66946","71703","68948","73986","4234","58401","57455","74488","NA","73984","74488","73824","71703","75213","65241","73324","4227","NA","Lexical Decision Task","6","5569","6","yes","1024"
"2.616654026","9.37","5","gift","word","100","100","874.4285714285714","874.4285714285714","black","no","legacy","legacy","legacy","0","uniform","1","undefined","undefined","undefined","1","j","0","0","0","0","6","0","0","0","6","NA","2","6","2","0","2","3","6","0","6","Fri Feb 19 13:05:16 2021","The main experiment item","yes","Lexical_Decision_Task.osexp","C:/CaL","no","Andale Mono","no","18","no","white","no","yes","576","legacy","2","2","3","C:/CaL/subject-5206282.csv","legacy","Lentiform Loewenfeld","3.3.7","yes","yes","600bd7cfb6416f0113b04181","602110864497cf011d9c0822","0","j","NA","space","j","space","NA","j","552","NA","2753","53217","943","NA","552","2","legacy","1024","2","48000","-16","task","5206282","even","NA","66946","71703","68948","75842","4234","58401","57455","76344","NA","75838","76344","75722","71703","76897","65241","75222","4227","NA","Lexical Decision Task","7","6121","7","yes","1024"
"3.197740804","6.74","3","ache","word","100","100","895.25","895.25","black","no","legacy","legacy","legacy","0","uniform","1","undefined","undefined","undefined","1","j","0","0","0","0","7","0","0","0","7","NA","3","7","3","0","3","3","7","0","7","Fri Feb 19 13:05:16 2021","The main experiment item","yes","Lexical_Decision_Task.osexp","C:/CaL","no","Andale Mono","no","18","no","white","no","yes","576","legacy","3","3","3","C:/CaL/subject-5206282.csv","legacy","Lentiform Loewenfeld","3.3.7","yes","yes","600bd7cfb6416f0113b04181","602110864497cf011d9c0822","0","j","NA","space","j","space","NA","j","1041","NA","2753","53217","943","NA","1041","2","legacy","1024","2","48000","-16","task","5206282","even","NA","66946","71703","68948","77527","4234","58401","57455","78029","NA","77524","78029","77405","71703","79071","65241","76905","4227","NA","Lexical Decision Task","8","7162","8","yes","1024"
"2.8162413","0","5","nusk","non-word","100","100","865.6666666666666","865.6666666666666","black","no","legacy","legacy","legacy","0","uniform","1","undefined","undefined","undefined","1","f","0","0","0","0","8","0","0","0","8","NA","4","8","4","0","4","3","8","0","8","Fri Feb 19 13:05:16 2021","The main experiment item","yes","Lexical_Decision_Task.osexp","C:/CaL","no","Andale Mono","no","18","no","white","no","yes","576","legacy","4","4","3","C:/CaL/subject-5206282.csv","legacy","Lentiform Loewenfeld","3.3.7","yes","yes","600bd7cfb6416f0113b04181","602110864497cf011d9c0822","0","f","NA","space","j","space","NA","f","629","NA","2753","53217","943","NA","629","2","legacy","1024","2","48000","-16","task","5206282","even","NA","66946","71703","68948","79709","4234","58401","57455","80211","NA","79705","80211","79580","71703","80842","65241","79080","4227","NA","Lexical Decision Task","9","7791","9","yes","1024"
"2.858136002","0","4","phip","non-word","100","100","847.5","847.5","black","no","legacy","legacy","legacy","0","uniform","1","undefined","undefined","undefined","1","f","0","0","0","0","9","0","0","0","9","NA","5","9","5","0","5","3","9","0","9","Fri Feb 19 13:05:16 2021","The main experiment item","yes","Lexical_Decision_Task.osexp","C:/CaL","no","Andale Mono","no","18","no","white","no","yes","576","legacy","5","5","3","C:/CaL/subject-5206282.csv","legacy","Lentiform Loewenfeld","3.3.7","yes","yes","600bd7cfb6416f0113b04181","602110864497cf011d9c0822","0","f","NA","space","j","space","NA","f","684","NA","2753","53217","943","NA","684","2","legacy","1024","2","48000","-16","task","5206282","even","NA","66946","71703","68948","81485","4234","58401","57455","81987","NA","81482","81987","81351","71703","82672","65241","80851","4227","NA","Lexical Decision Task","10","8475","10","yes","1024"
"3.028977705","0","7","frow","non-word","90.9090909090909","90.9090909090909","850.3636363636364","850.3636363636364","black","no","legacy","legacy","legacy","0","uniform","0","undefined","undefined","undefined","0","f","0","0","0","0","10","0","0","0","10","NA","6","10","6","0","6","3","10","0","10","Fri Feb 19 13:05:16 2021","The main experiment item","yes","Lexical_Decision_Task.osexp","C:/CaL","no","Andale Mono","no","18","no","white","no","yes","576","legacy","6","6","3","C:/CaL/subject-5206282.csv","legacy","Lentiform Loewenfeld","3.3.7","yes","yes","600bd7cfb6416f0113b04181","602110864497cf011d9c0822","0","j","NA","space","j","space","NA","j","879","NA","2753","53217","943","NA","879","2","legacy","1024","2","48000","-16","task","5206282","even","NA","66946","71703","68948","83323","4234","58401","57455","83825","NA","83321","83825","83181","71703","84705","65241","82680","4227","NA","Lexical Decision Task","10","9354","11","yes","1024"
"2.812467698","0","7","hafe","non-word","91.66666666666667","91.66666666666667","837.6666666666666","837.6666666666666","black","no","legacy","legacy","legacy","0","uniform","1","undefined","undefined","undefined","1","f","0","0","0","0","11","0","0","0","11","NA","7","11","7","0","7","3","11","0","11","Fri Feb 19 13:05:16 2021","The main experiment item","yes","Lexical_Decision_Task.osexp","C:/CaL","no","Andale Mono","no","18","no","white","no","yes","576","legacy","7","7","3","C:/CaL/subject-5206282.csv","legacy","Lentiform Loewenfeld","3.3.7","yes","yes","600bd7cfb6416f0113b04181","602110864497cf011d9c0822","0","f","NA","space","j","space","NA","f","698","NA","2753","53217","943","NA","698","2","legacy","1024","2","48000","-16","task","5206282","even","NA","66946","71703","68948","86338","4234","58401","57455","86840","NA","86335","86841","86214","71703","87540","65241","82680","4227","84714","Lexical Decision Task","11","10052","12","yes","1024"
"3.037294994","8.64","7","roof","word","92.3076923076923","92.3076923076923","816.8461538461538","816.8461538461538","black","no","legacy","legacy","legacy","0","uniform","1","undefined","undefined","undefined","1","j","0","0","0","0","12","0","0","0","12","NA","8","12","8","0","8","3","12","0","12","Fri Feb 19 13:05:16 2021","The main experiment item","yes","Lexical_Decision_Task.osexp","C:/CaL","no","Andale Mono","no","18","no","white","no","yes","576","legacy","8","8","3","C:/CaL/subject-5206282.csv","legacy","Lentiform Loewenfeld","3.3.7","yes","yes","600bd7cfb6416f0113b04181","602110864497cf011d9c0822","0","j","NA","space","j","space","NA","j","567","NA","2753","53217","943","NA","567","2","legacy","1024","2","48000","-16","task","5206282","even","NA","66946","71703","68948","88165","4234","58401","57455","88667","NA","88162","88667","88044","71703","89235","65241","87544","4227","84714","Lexical Decision Task","12","10619","13","yes","1024"
"3.195807436","0","6","stup","non-word","92.85714285714286","92.85714285714286","814.5714285714286","814.5714285714286","black","no","legacy","legacy","legacy","0","uniform","1","undefined","undefined","undefined","1","f","0","0","0","0","13","0","0","0","13","NA","9","13","9","0","9","3","13","0","13","Fri Feb 19 13:05:16 2021","The main experiment item","yes","Lexical_Decision_Task.osexp","C:/CaL","no","Andale Mono","no","18","no","white","no","yes","576","legacy","9","9","3","C:/CaL/subject-5206282.csv","legacy","Lentiform Loewenfeld","3.3.7","yes","yes","600bd7cfb6416f0113b04181","602110864497cf011d9c0822","0","f","NA","space","j","space","NA","f","785","NA","2753","53217","943","NA","785","2","legacy","1024","2","48000","-16","task","5206282","even","NA","66946","71703","68948","89865","4234","58401","57455","90367","NA","89863","90367","89744","71703","91154","65241","89244","4227","84714","Lexical Decision Task","13","11404","14","yes","1024"
"3.303771854","0","9","dath","non-word","93.33333333333333","93.33333333333333","800.7333333333333","800.7333333333333","black","no","legacy","legacy","legacy","0","uniform","1","undefined","undefined","undefined","1","f","0","0","0","0","14","0","0","0","14","NA","10","14","10","0","10","3","14","0","14","Fri Feb 19 13:05:16 2021","The main experiment item","yes","Lexical_Decision_Task.osexp","C:/CaL","no","Andale Mono","no","18","no","white","no","yes","576","legacy","10","10","3","C:/CaL/subject-5206282.csv","legacy","Lentiform Loewenfeld","3.3.7","yes","yes","600bd7cfb6416f0113b04181","602110864497cf011d9c0822","0","f","NA","space","j","space","NA","f","607","NA","2753","53217","943","NA","607","2","legacy","1024","2","48000","-16","task","5206282","even","NA","66946","71703","68948","91804","4234","58401","57455","92308","NA","91801","92308","91663","71703","92916","65241","91162","4227","84714","Lexical Decision Task","14","12011","15","yes","1024"
"2.6599162","0","6","flug","non-word","93.75","93.75","790.3125","790.3125","black","no","legacy","legacy","legacy","0","uniform","1","undefined","undefined","undefined","1","f","0","0","0","0","15","0","0","0","15","NA","11","15","11","0","11","3","15","0","15","Fri Feb 19 13:05:16 2021","The main experiment item","yes","Lexical_Decision_Task.osexp","C:/CaL","no","Andale Mono","no","18","no","white","no","yes","576","legacy","11","11","3","C:/CaL/subject-5206282.csv","legacy","Lentiform Loewenfeld","3.3.7","yes","yes","600bd7cfb6416f0113b04181","602110864497cf011d9c0822","0","f","NA","space","j","space","NA","f","634","NA","2753","53217","943","NA","634","2","legacy","1024","2","48000","-16","task","5206282","even","NA","66946","71703","68948","93566","4234","58401","57455","94068","NA","93563","94068","93424","71703","94703","65241","92924","4227","84714","Lexical Decision Task","15","12645","16","yes","1024"
"2.839268497","0","8","maft","non-word","94.11764705882354","94.11764705882354","774.9411764705883","774.9411764705883","black","no","legacy","legacy","legacy","0","uniform","1","undefined","undefined","undefined","1","f","0","0","0","0","16","0","0","0","16","NA","12","16","12","0","12","3","16","0","16","Fri Feb 19 13:05:16 2021","The main experiment item","yes","Lexical_Decision_Task.osexp","C:/CaL","no","Andale Mono","no","18","no","white","no","yes","576","legacy","12","12","3","C:/CaL/subject-5206282.csv","legacy","Lentiform Loewenfeld","3.3.7","yes","yes","600bd7cfb6416f0113b04181","602110864497cf011d9c0822","0","f","NA","space","j","space","NA","f","529","NA","2753","53217","943","NA","529","2","legacy","1024","2","48000","-16","task","5206282","even","NA","66946","71703","68948","95347","4234","58401","57455","95849","NA","95344","95849","95211","71703","96380","65241","94710","4227","84714","Lexical Decision Task","16","13174","17","yes","1024"
"3.257359335","8","6","brew","word","94.44444444444444","94.44444444444444","760.4444444444445","760.4444444444445","black","no","legacy","legacy","legacy","0","uniform","1","undefined","undefined","undefined","1","j","0","0","0","0","17","0","0","0","17","NA","13","17","13","0","13","3","17","0","17","Fri Feb 19 13:05:16 2021","The main experiment item","yes","Lexical_Decision_Task.osexp","C:/CaL","no","Andale Mono","no","18","no","white","no","yes","576","legacy","13","13","3","C:/CaL/subject-5206282.csv","legacy","Lentiform Loewenfeld","3.3.7","yes","yes","600bd7cfb6416f0113b04181","602110864497cf011d9c0822","0","j","NA","space","j","space","NA","j","514","NA","2753","53217","943","NA","514","2","legacy","1024","2","48000","-16","task","5206282","even","NA","66946","71703","68948","97014","4234","58401","57455","97516","NA","97011","97516","96890","71703","98031","65241","96390","4227","84714","Lexical Decision Task","17","13688","18","yes","1024"
"3.248054965","7.86","5","glow","word","94.73684210526316","94.73684210526316","750.8947368421053","750.8947368421053","black","no","legacy","legacy","legacy","0","uniform","1","undefined","undefined","undefined","1","j","0","0","0","0","18","0","0","0","18","NA","14","18","14","0","14","3","18","0","18","Fri Feb 19 13:05:16 2021","The main experiment item","yes","Lexical_Decision_Task.osexp","C:/CaL","no","Andale Mono","no","18","no","white","no","yes","576","legacy","14","14","3","C:/CaL/subject-5206282.csv","legacy","Lentiform Loewenfeld","3.3.7","yes","yes","600bd7cfb6416f0113b04181","602110864497cf011d9c0822","0","j","NA","space","j","space","NA","j","579","NA","2753","53217","943","NA","579","2","legacy","1024","2","48000","-16","task","5206282","even","NA","66946","71703","68948","98672","4234","58401","57455","99174","NA","98669","99174","98541","71703","99755","65241","98041","4227","84714","Lexical Decision Task","18","14267","19","yes","1024"
"2.979548375","8.71","4","soup","word","95","95","741","741","black","no","legacy","legacy","legacy","0","uniform","1","undefined","undefined","undefined","1","j","0","0","0","0","19","0","0","0","19","NA","15","19","15","0","15","3","19","0","19","Fri Feb 19 13:05:16 2021","The main experiment item","yes","Lexical_Decision_Task.osexp","C:/CaL","no","Andale Mono","no","18","no","white","no","yes","576","legacy","15","15","3","C:/CaL/subject-5206282.csv","legacy","Lentiform Loewenfeld","3.3.7","yes","yes","600bd7cfb6416f0113b04181","602110864497cf011d9c0822","0","j","NA","space","j","space","NA","j","553","NA","2753","53217","943","NA","553","2","legacy","1024","2","48000","-16","task","5206282","even","NA","66946","71703","68948","100402","4234","58401","57455","100904","NA","100399","100904","100265","71703","101459","65241","99765","4227","84714","Lexical Decision Task","19","14820","20","yes","1024"
"3.311895072","0","9","gung","non-word","95.23809523809524","95.23809523809524","734.2380952380952","734.2380952380952","black","no","legacy","legacy","legacy","0","uniform","1","undefined","undefined","undefined","1","f","0","0","0","0","20","0","0","0","20","NA","16","20","16","0","16","3","20","0","20","Fri Feb 19 13:05:16 2021","The main experiment item","yes","Lexical_Decision_Task.osexp","C:/CaL","no","Andale Mono","no","18","no","white","no","yes","576","legacy","16","16","3","C:/CaL/subject-5206282.csv","legacy","Lentiform Loewenfeld","3.3.7","yes","yes","600bd7cfb6416f0113b04181","602110864497cf011d9c0822","0","f","NA","space","j","space","NA","f","599","NA","2753","53217","943","NA","599","2","legacy","1024","2","48000","-16","task","5206282","even","NA","66946","71703","68948","102103","4234","58401","57455","102605","NA","102101","102605","101970","71703","103205","65241","101469","4227","84714","Lexical Decision Task","20","15419","21","yes","1024"
"3.140404328","10.66","9","deep","word","95.45454545454545","95.45454545454545","726.8181818181819","726.8181818181819","black","no","legacy","legacy","legacy","0","uniform","1","undefined","undefined","undefined","1","j","0","0","0","0","21","0","0","0","21","NA","17","21","17","0","17","3","21","0","21","Fri Feb 19 13:05:16 2021","The main experiment item","yes","Lexical_Decision_Task.osexp","C:/CaL","no","Andale Mono","no","18","no","white","no","yes","576","legacy","17","17","3","C:/CaL/subject-5206282.csv","legacy","Lentiform Loewenfeld","3.3.7","yes","yes","600bd7cfb6416f0113b04181","602110864497cf011d9c0822","0","j","NA","space","j","space","NA","j","571","NA","2753","53217","943","NA","571","2","legacy","1024","2","48000","-16","task","5206282","even","NA","66946","71703","68948","103840","4234","58401","57455","104342","NA","103837","104342","103715","71703","104915","65241","103215","4227","84714","Lexical Decision Task","21","15990","22","yes","1024"
"2.6599162","0","2","saff","non-word","95.65217391304348","95.65217391304348","721.2173913043479","721.2173913043479","black","no","legacy","legacy","legacy","0","uniform","1","undefined","undefined","undefined","1","f","0","0","0","0","22","0","0","0","22","NA","18","22","18","0","18","3","22","0","22","Fri Feb 19 13:05:16 2021","The main experiment item","yes","Lexical_Decision_Task.osexp","C:/CaL","no","Andale Mono","no","18","no","white","no","yes","576","legacy","18","18","3","C:/CaL/subject-5206282.csv","legacy","Lentiform Loewenfeld","3.3.7","yes","yes","600bd7cfb6416f0113b04181","602110864497cf011d9c0822","0","f","NA","space","j","space","NA","f","598","NA","2753","53217","943","NA","598","2","legacy","1024","2","48000","-16","task","5206282","even","NA","66946","71703","68948","105559","4234","58401","57455","106062","NA","105557","106062","105425","71703","106661","65241","104925","4227","84714","Lexical Decision Task","22","16588","23","yes","1024"
"3.2757719","0","5","slea","non-word","95.83333333333333","95.83333333333333","715.625","715.625","black","no","legacy","legacy","legacy","0","uniform","1","undefined","undefined","undefined","1","f","0","0","0","0","23","0","0","0","23","NA","19","23","19","0","19","3","23","0","23","Fri Feb 19 13:05:16 2021","The main experiment item","yes","Lexical_Decision_Task.osexp","C:/CaL","no","Andale Mono","no","18","no","white","no","yes","576","legacy","19","19","3","C:/CaL/subject-5206282.csv","legacy","Lentiform Loewenfeld","3.3.7","yes","yes","600bd7cfb6416f0113b04181","602110864497cf011d9c0822","0","f","NA","space","j","space","NA","f","587","NA","2753","53217","943","NA","587","2","legacy","1024","2","48000","-16","task","5206282","even","NA","66946","71703","68948","107290","4234","58401","57455","107792","NA","107287","107792","107171","71703","108380","65241","106671","4227","84714","Lexical Decision Task","23","17175","24","yes","1024"
"2.82129731","6.72","5","plum","word","96","96","708.04","708.04","black","no","legacy","legacy","legacy","0","uniform","1","undefined","undefined","undefined","1","j","0","0","0","0","24","0","0","0","24","NA","20","24","20","0","20","3","24","0","24","Fri Feb 19 13:05:16 2021","The main experiment item","yes","Lexical_Decision_Task.osexp","C:/CaL","no","Andale Mono","no","18","no","white","no","yes","576","legacy","20","20","3","C:/CaL/subject-5206282.csv","legacy","Lentiform Loewenfeld","3.3.7","yes","yes","600bd7cfb6416f0113b04181","602110864497cf011d9c0822","0","j","NA","space","j","space","NA","j","526","NA","2753","53217","943","NA","526","2","legacy","1024","2","48000","-16","task","5206282","even","NA","66946","71703","68948","109012","4234","58401","57455","109514","NA","109010","109514","108890","71703","110041","65241","108390","4227","84714","Lexical Decision Task","24","17701","25","yes","1024"
"2.75025376","10.2","6","jump","word","96.15384615384616","96.15384615384616","698.6923076923077","698.6923076923077","black","no","legacy","legacy","legacy","0","uniform","1","undefined","undefined","undefined","1","j","0","0","0","0","25","0","0","0","25","NA","21","25","21","0","21","3","25","0","25","Fri Feb 19 13:05:16 2021","The main experiment item","yes","Lexical_Decision_Task.osexp","C:/CaL","no","Andale Mono","no","18","no","white","no","yes","576","legacy","21","21","3","C:/CaL/subject-5206282.csv","legacy","Lentiform Loewenfeld","3.3.7","yes","yes","600bd7cfb6416f0113b04181","602110864497cf011d9c0822","0","j","NA","space","j","space","NA","j","465","NA","2753","53217","943","NA","465","2","legacy","1024","2","48000","-16","task","5206282","even","NA","66946","71703","68948","110687","4234","58401","57455","111189","NA","110684","111189","110551","71703","111656","65241","110051","4227","84714","Lexical Decision Task","25","18166","26","yes","1024"
"3.064581521","5.51","6","cask","word","92.5925925925926","92.5925925925926","702.1851851851852","702.1851851851852","black","no","legacy","legacy","legacy","0","uniform","0","undefined","undefined","undefined","0","j","0","0","0","0","26","0","0","0","26","NA","22","26","22","0","22","3","26","0","26","Fri Feb 19 13:05:16 2021","The main experiment item","yes","Lexical_Decision_Task.osexp","C:/CaL","no","Andale Mono","no","18","no","white","no","yes","576","legacy","22","22","3","C:/CaL/subject-5206282.csv","legacy","Lentiform Loewenfeld","3.3.7","yes","yes","600bd7cfb6416f0113b04181","602110864497cf011d9c0822","0","f","NA","space","j","space","NA","f","793","NA","2753","53217","943","NA","793","2","legacy","1024","2","48000","-16","task","5206282","even","NA","66946","71703","68948","112284","4234","58401","57455","112786","NA","112282","112786","112165","71703","113581","65241","111665","4227","84714","Lexical Decision Task","25","18959","27","yes","1024"
"3.068433376","8.09","2","bulb","word","92.85714285714286","92.85714285714286","694.8571428571429","694.8571428571429","black","no","legacy","legacy","legacy","0","uniform","1","undefined","undefined","undefined","1","j","0","0","0","0","27","0","0","0","27","NA","23","27","23","0","23","3","27","0","27","Fri Feb 19 13:05:16 2021","The main experiment item","yes","Lexical_Decision_Task.osexp","C:/CaL","no","Andale Mono","no","18","no","white","no","yes","576","legacy","23","23","3","C:/CaL/subject-5206282.csv","legacy","Lentiform Loewenfeld","3.3.7","yes","yes","600bd7cfb6416f0113b04181","602110864497cf011d9c0822","0","j","NA","space","j","space","NA","j","497","NA","2753","53217","943","NA","497","2","legacy","1024","2","48000","-16","task","5206282","even","NA","66946","71703","68948","115221","4234","58401","57455","115723","NA","115219","115723","115089","71703","116222","65241","111665","4227","113589","Lexical Decision Task","26","19456","28","yes","1024"
"2.695481676","0","7","goke","non-word","93.10344827586206","93.10344827586206","694.8620689655172","694.8620689655172","black","no","legacy","legacy","legacy","0","uniform","1","undefined","undefined","undefined","1","f","0","0","0","0","28","0","0","0","28","NA","24","28","24","0","24","3","28","0","28","Fri Feb 19 13:05:16 2021","The main experiment item","yes","Lexical_Decision_Task.osexp","C:/CaL","no","Andale Mono","no","18","no","white","no","yes","576","legacy","24","24","3","C:/CaL/subject-5206282.csv","legacy","Lentiform Loewenfeld","3.3.7","yes","yes","600bd7cfb6416f0113b04181","602110864497cf011d9c0822","0","f","NA","space","j","space","NA","f","695","NA","2753","53217","943","NA","695","2","legacy","1024","2","48000","-16","task","5206282","even","NA","66946","71703","68948","116848","4234","58401","57455","117350","NA","116845","117350","116730","71703","118047","65241","116230","4227","113589","Lexical Decision Task","27","20151","29","yes","1024"
"2.880623071","0","9","curp","non-word","93.33333333333333","93.33333333333333","689.4333333333333","689.4333333333333","black","no","legacy","legacy","legacy","0","uniform","1","undefined","undefined","undefined","1","f","0","0","0","0","29","0","0","0","29","NA","25","29","25","0","25","3","29","0","29","Fri Feb 19 13:05:16 2021","The main experiment item","yes","Lexical_Decision_Task.osexp","C:/CaL","no","Andale Mono","no","18","no","white","no","yes","576","legacy","25","25","3","C:/CaL/subject-5206282.csv","legacy","Lentiform Loewenfeld","3.3.7","yes","yes","600bd7cfb6416f0113b04181","602110864497cf011d9c0822","0","f","NA","space","j","space","NA","f","532","NA","2753","53217","943","NA","532","2","legacy","1024","2","48000","-16","task","5206282","even","NA","66946","71703","68948","118681","4234","58401","57455","119183","NA","118678","119183","118556","71703","119716","65241","118056","4227","113589","Lexical Decision Task","28","20683","30","yes","1024"
"3.066077331","0","7","vorn","non-word","93.54838709677419","93.54838709677419","684.1290322580645","684.1290322580645","black","no","legacy","legacy","legacy","0","uniform","1","undefined","undefined","undefined","1","f","0","0","0","0","30","0","0","0","30","NA","26","30","26","0","26","3","30","0","30","Fri Feb 19 13:05:16 2021","The main experiment item","yes","Lexical_Decision_Task.osexp","C:/CaL","no","Andale Mono","no","18","no","white","no","yes","576","legacy","26","26","3","C:/CaL/subject-5206282.csv","legacy","Lentiform Loewenfeld","3.3.7","yes","yes","600bd7cfb6416f0113b04181","602110864497cf011d9c0822","0","f","NA","space","j","space","NA","f","525","NA","2753","53217","943","NA","525","2","legacy","1024","2","48000","-16","task","5206282","even","NA","66946","71703","68948","120371","4234","58401","57455","120873","NA","120368","120873","120226","71703","121399","65241","119726","4227","113589","Lexical Decision Task","29","21208","31","yes","1024"
"2.986323777","10.85","8","ship","word","93.75","93.75","686.125","686.125","black","no","legacy","legacy","legacy","0","uniform","1","undefined","undefined","undefined","1","j","0","0","0","0","31","0","0","0","31","NA","27","31","27","0","27","3","31","0","31","Fri Feb 19 13:05:16 2021","The main experiment item","yes","Lexical_Decision_Task.osexp","C:/CaL","no","Andale Mono","no","18","no","white","no","yes","576","legacy","27","27","3","C:/CaL/subject-5206282.csv","legacy","Lentiform Loewenfeld","3.3.7","yes","yes","600bd7cfb6416f0113b04181","602110864497cf011d9c0822","0","j","NA","space","j","space","NA","j","748","NA","2753","53217","943","NA","748","2","legacy","1024","2","48000","-16","task","5206282","even","NA","66946","71703","68948","122044","4234","58401","57455","122547","NA","122041","122547","121907","71703","123296","65241","121407","4227","113589","Lexical Decision Task","30","21956","32","yes","1024"
"2.719886232","7.98","2","quiz","word","90.9090909090909","90.9090909090909","684.8181818181819","684.8181818181819","black","no","legacy","legacy","legacy","0","uniform","0","undefined","undefined","undefined","0","j","0","0","0","0","32","0","0","0","32","NA","28","32","28","0","28","3","32","0","32","Fri Feb 19 13:05:16 2021","The main experiment item","yes","Lexical_Decision_Task.osexp","C:/CaL","no","Andale Mono","no","18","no","white","no","yes","576","legacy","28","28","3","C:/CaL/subject-5206282.csv","legacy","Lentiform Loewenfeld","3.3.7","yes","yes","600bd7cfb6416f0113b04181","602110864497cf011d9c0822","0","f","NA","space","j","space","NA","f","643","NA","2753","53217","943","NA","643","2","legacy","1024","2","48000","-16","task","5206282","even","NA","66946","71703","68948","123945","4234","58401","57455","124448","NA","123943","124448","123803","71703","125092","65241","123303","4227","113589","Lexical Decision Task","30","22599","33","yes","1024"
"3.378276681","6.39","8","bran","word","88.23529411764706","88.23529411764706","684.0588235294117","684.0588235294117","black","no","legacy","legacy","legacy","0","uniform","0","undefined","undefined","undefined","0","j","0","0","0","0","33","0","0","0","33","NA","29","33","29","0","29","3","33","0","33","Fri Feb 19 13:05:16 2021","The main experiment item","yes","Lexical_Decision_Task.osexp","C:/CaL","no","Andale Mono","no","18","no","white","no","yes","576","legacy","29","29","3","C:/CaL/subject-5206282.csv","legacy","Lentiform Loewenfeld","3.3.7","yes","yes","600bd7cfb6416f0113b04181","602110864497cf011d9c0822","0","f","NA","space","j","space","NA","f","659","NA","2753","53217","943","NA","659","2","legacy","1024","2","48000","-16","task","5206282","even","NA","66946","71703","68948","126731","4234","58401","57455","127233","NA","126727","127233","126598","71703","127893","65241","123303","4227","125098","Lexical Decision Task","30","23258","34","yes","1024"
"2.966923697","5.4","2","fume","word","88.57142857142857","88.57142857142857","692.2","692.2","black","no","legacy","legacy","legacy","0","uniform","1","undefined","undefined","undefined","1","j","0","0","0","0","34","0","0","0","34","NA","30","34","30","0","30","3","34","0","34","Fri Feb 19 13:05:16 2021","The main experiment item","yes","Lexical_Decision_Task.osexp","C:/CaL","no","Andale Mono","no","18","no","white","no","yes","576","legacy","30","30","3","C:/CaL/subject-5206282.csv","legacy","Lentiform Loewenfeld","3.3.7","yes","yes","600bd7cfb6416f0113b04181","602110864497cf011d9c0822","0","j","NA","space","j","space","NA","j","969","NA","2753","53217","943","NA","969","2","legacy","1024","2","48000","-16","task","5206282","even","NA","66946","71703","68948","129540","4234","58401","57455","130042","NA","129537","130042","129404","71703","131012","65241","123303","4227","127903","Lexical Decision Task","31","24227","35","yes","1024"
"2.893578687","8.69","3","surf","word","88.88888888888889","88.88888888888889","693.7777777777778","693.7777777777778","black","no","legacy","legacy","legacy","0","uniform","1","undefined","undefined","undefined","1","j","0","0","0","0","35","0","0","0","35","NA","31","35","31","0","31","3","35","0","35","Fri Feb 19 13:05:16 2021","The main experiment item","yes","Lexical_Decision_Task.osexp","C:/CaL","no","Andale Mono","no","18","no","white","no","yes","576","legacy","31","31","3","C:/CaL/subject-5206282.csv","legacy","Lentiform Loewenfeld","3.3.7","yes","yes","600bd7cfb6416f0113b04181","602110864497cf011d9c0822","0","j","NA","space","j","space","NA","j","749","NA","2753","53217","943","NA","749","2","legacy","1024","2","48000","-16","task","5206282","even","NA","66946","71703","68948","131642","4234","58401","57455","132144","NA","131640","132144","131522","71703","132895","65241","131021","4227","127903","Lexical Decision Task","32","24976","36","yes","1024"
"2.813801082","5.47","7","nook","word","89.1891891891892","89.1891891891892","692.6216216216217","692.6216216216217","black","no","legacy","legacy","legacy","0","uniform","1","undefined","undefined","undefined","1","j","0","0","0","0","36","0","0","0","36","NA","32","36","32","0","32","3","36","0","36","Fri Feb 19 13:05:16 2021","The main experiment item","yes","Lexical_Decision_Task.osexp","C:/CaL","no","Andale Mono","no","18","no","white","no","yes","576","legacy","32","32","3","C:/CaL/subject-5206282.csv","legacy","Lentiform Loewenfeld","3.3.7","yes","yes","600bd7cfb6416f0113b04181","602110864497cf011d9c0822","0","j","NA","space","j","space","NA","j","651","NA","2753","53217","943","NA","651","2","legacy","1024","2","48000","-16","task","5206282","even","NA","66946","71703","68948","133544","4234","58401","57455","134046","NA","133541","134046","133404","71703","134699","65241","132904","4227","127903","Lexical Decision Task","33","25627","37","yes","1024"
"2.794720352","0","9","koot","non-word","89.47368421052632","89.47368421052632","693.3684210526316","693.3684210526316","black","no","legacy","legacy","legacy","0","uniform","1","undefined","undefined","undefined","1","f","0","0","0","0","37","0","0","0","37","NA","33","37","33","0","33","3","37","0","37","Fri Feb 19 13:05:16 2021","The main experiment item","yes","Lexical_Decision_Task.osexp","C:/CaL","no","Andale Mono","no","18","no","white","no","yes","576","legacy","33","33","3","C:/CaL/subject-5206282.csv","legacy","Lentiform Loewenfeld","3.3.7","yes","yes","600bd7cfb6416f0113b04181","602110864497cf011d9c0822","0","f","NA","space","j","space","NA","f","721","NA","2753","53217","943","NA","721","2","legacy","1024","2","48000","-16","task","5206282","even","NA","66946","71703","68948","135340","4234","58401","57455","135842","NA","135337","135842","135209","71703","136565","65241","134709","4227","127903","Lexical Decision Task","34","26348","38","yes","1024"
"2.771097306","0","9","jold","non-word","89.74358974358974","89.74358974358974","692.7435897435897","692.7435897435897","black","no","legacy","legacy","legacy","0","uniform","1","undefined","undefined","undefined","1","f","0","0","0","0","38","0","0","0","38","NA","34","38","34","0","34","3","38","0","38","Fri Feb 19 13:05:16 2021","The main experiment item","yes","Lexical_Decision_Task.osexp","C:/CaL","no","Andale Mono","no","18","no","white","no","yes","576","legacy","34","34","3","C:/CaL/subject-5206282.csv","legacy","Lentiform Loewenfeld","3.3.7","yes","yes","600bd7cfb6416f0113b04181","602110864497cf011d9c0822","0","f","NA","space","j","space","NA","f","669","NA","2753","53217","943","NA","669","2","legacy","1024","2","48000","-16","task","5206282","even","NA","66946","71703","68948","137218","4234","58401","57455","137720","NA","137216","137720","137076","71703","138391","65241","136576","4227","127903","Lexical Decision Task","35","27017","39","yes","1024"
"3.29439347","8.6","9","wand","word","90","90","694.625","694.625","black","no","legacy","legacy","legacy","0","uniform","1","undefined","undefined","undefined","1","j","0","0","0","0","39","0","0","0","39","NA","35","39","35","0","35","3","39","0","39","Fri Feb 19 13:05:16 2021","The main experiment item","yes","Lexical_Decision_Task.osexp","C:/CaL","no","Andale Mono","no","18","no","white","no","yes","576","legacy","35","35","3","C:/CaL/subject-5206282.csv","legacy","Lentiform Loewenfeld","3.3.7","yes","yes","600bd7cfb6416f0113b04181","602110864497cf011d9c0822","0","j","NA","space","j","space","NA","j","768","NA","2753","53217","943","NA","768","2","legacy","1024","2","48000","-16","task","5206282","even","NA","66946","71703","68948","139034","4234","58401","57455","139536","NA","139031","139536","138899","71703","140306","65241","138399","4227","127903","Lexical Decision Task","36","27785","40","yes","1024"
"2.842815106","7.86","8","lump","word","90.2439024390244","90.2439024390244","692.0487804878048","692.0487804878048","black","no","legacy","legacy","legacy","0","uniform","1","undefined","undefined","undefined","1","j","0","0","0","0","40","0","0","0","40","NA","36","40","36","0","36","3","40","0","40","Fri Feb 19 13:05:16 2021","The main experiment item","yes","Lexical_Decision_Task.osexp","C:/CaL","no","Andale Mono","no","18","no","white","no","yes","576","legacy","36","36","3","C:/CaL/subject-5206282.csv","legacy","Lentiform Loewenfeld","3.3.7","yes","yes","600bd7cfb6416f0113b04181","602110864497cf011d9c0822","0","j","NA","space","j","space","NA","j","589","NA","2753","53217","943","NA","589","2","legacy","1024","2","48000","-16","task","5206282","even","NA","66946","71703","68948","140944","4234","58401","57455","141446","NA","140941","141446","140817","71703","142036","65241","140317","4227","127903","Lexical Decision Task","37","28374","41","yes","1024"
"2.714888338","0","3","brug","non-word","90.47619047619048","90.47619047619048","690.5714285714286","690.5714285714286","black","no","legacy","legacy","legacy","0","uniform","1","undefined","undefined","undefined","1","f","0","0","0","0","41","0","0","0","41","NA","37","41","37","0","37","3","41","0","41","Fri Feb 19 13:05:16 2021","The main experiment item","yes","Lexical_Decision_Task.osexp","C:/CaL","no","Andale Mono","no","18","no","white","no","yes","576","legacy","37","37","3","C:/CaL/subject-5206282.csv","legacy","Lentiform Loewenfeld","3.3.7","yes","yes","600bd7cfb6416f0113b04181","602110864497cf011d9c0822","0","f","NA","space","j","space","NA","f","630","NA","2753","53217","943","NA","630","2","legacy","1024","2","48000","-16","task","5206282","even","NA","66946","71703","68948","142676","4234","58401","57455","143178","NA","142674","143178","142540","71703","143810","65241","142040","4227","127903","Lexical Decision Task","38","29004","42","yes","1024"
"2.80048796","0","8","pife","non-word","90.69767441860465","90.69767441860465","689.8604651162791","689.8604651162791","black","no","legacy","legacy","legacy","0","uniform","1","undefined","undefined","undefined","1","f","0","0","0","0","42","0","0","0","42","NA","38","42","38","0","38","3","42","0","42","Fri Feb 19 13:05:16 2021","The main experiment item","yes","Lexical_Decision_Task.osexp","C:/CaL","no","Andale Mono","no","18","no","white","no","yes","576","legacy","38","38","3","C:/CaL/subject-5206282.csv","legacy","Lentiform Loewenfeld","3.3.7","yes","yes","600bd7cfb6416f0113b04181","602110864497cf011d9c0822","0","f","NA","space","j","space","NA","f","660","NA","2753","53217","943","NA","660","2","legacy","1024","2","48000","-16","task","5206282","even","NA","66946","71703","68948","144435","4234","58401","57455","144937","NA","144433","144937","144319","71703","145599","65241","143819","4227","127903","Lexical Decision Task","39","29664","43","yes","1024"
"2.675164031","8.57","6","glue","word","90.9090909090909","90.9090909090909","688.2954545454545","688.2954545454545","black","no","legacy","legacy","legacy","0","uniform","1","undefined","undefined","undefined","1","j","0","0","0","0","43","0","0","0","43","NA","39","43","39","0","39","3","43","0","43","Fri Feb 19 13:05:16 2021","The main experiment item","yes","Lexical_Decision_Task.osexp","C:/CaL","no","Andale Mono","no","18","no","white","no","yes","576","legacy","39","39","3","C:/CaL/subject-5206282.csv","legacy","Lentiform Loewenfeld","3.3.7","yes","yes","600bd7cfb6416f0113b04181","602110864497cf011d9c0822","0","j","NA","space","j","space","NA","j","621","NA","2753","53217","943","NA","621","2","legacy","1024","2","48000","-16","task","5206282","even","NA","66946","71703","68948","146231","4234","58401","57455","146733","NA","146228","146733","146110","71703","147356","65241","145610","4227","127903","Lexical Decision Task","40","30285","44","yes","1024"
"2.68604012","0","3","mulb","non-word","91.11111111111111","91.11111111111111","685.4666666666667","685.4666666666667","black","no","legacy","legacy","legacy","0","uniform","1","undefined","undefined","undefined","1","f","0","0","0","0","44","0","0","0","44","NA","40","44","40","0","40","3","44","0","44","Fri Feb 19 13:05:16 2021","The main experiment item","yes","Lexical_Decision_Task.osexp","C:/CaL","no","Andale Mono","no","18","no","white","no","yes","576","legacy","40","40","3","C:/CaL/subject-5206282.csv","legacy","Lentiform Loewenfeld","3.3.7","yes","yes","600bd7cfb6416f0113b04181","602110864497cf011d9c0822","0","f","NA","space","j","space","NA","f","561","NA","2753","53217","943","NA","561","2","legacy","1024","2","48000","-16","task","5206282","even","NA","66946","71703","68948","147983","4234","58401","57455","148485","NA","147980","148485","147865","71703","149048","65241","147365","4227","127903","Lexical Decision Task","41","30846","45","yes","1024"
"2.971428938","9.86","7","spot","word","91.30434782608695","91.30434782608695","681.7391304347826","681.7391304347826","black","no","legacy","legacy","legacy","0","uniform","1","undefined","undefined","undefined","1","j","0","0","0","0","45","0","0","0","45","NA","41","45","41","0","41","3","45","0","45","Fri Feb 19 13:05:16 2021","The main experiment item","yes","Lexical_Decision_Task.osexp","C:/CaL","no","Andale Mono","no","18","no","white","no","yes","576","legacy","41","41","3","C:/CaL/subject-5206282.csv","legacy","Lentiform Loewenfeld","3.3.7","yes","yes","600bd7cfb6416f0113b04181","602110864497cf011d9c0822","0","j","NA","space","j","space","NA","j","514","NA","2753","53217","943","NA","514","2","legacy","1024","2","48000","-16","task","5206282","even","NA","66946","71703","68948","149707","4234","58401","57455","150209","NA","149705","150209","149558","71703","150725","65241","149058","4227","127903","Lexical Decision Task","42","31360","46","yes","1024"
"3.529815197","0","3","lerm","non-word","91.48936170212765","91.48936170212765","680.1914893617021","680.1914893617021","black","no","legacy","legacy","legacy","0","uniform","1","undefined","undefined","undefined","1","f","0","0","0","0","46","0","0","0","46","NA","42","46","42","0","42","3","46","0","46","Fri Feb 19 13:05:16 2021","The main experiment item","yes","Lexical_Decision_Task.osexp","C:/CaL","no","Andale Mono","no","18","no","white","no","yes","576","legacy","42","42","3","C:/CaL/subject-5206282.csv","legacy","Lentiform Loewenfeld","3.3.7","yes","yes","600bd7cfb6416f0113b04181","602110864497cf011d9c0822","0","f","NA","space","j","space","NA","f","609","NA","2753","53217","943","NA","609","2","legacy","1024","2","48000","-16","task","5206282","even","NA","66946","71703","68948","151367","4234","58401","57455","151869","NA","151364","151869","151235","71703","152480","65241","150735","4227","127903","Lexical Decision Task","43","31969","47","yes","1024"
"2.705007959","6.01","4","wept","word","91.66666666666667","91.66666666666667","689.4583333333334","689.4583333333334","black","no","legacy","legacy","legacy","0","uniform","1","undefined","undefined","undefined","1","j","0","0","0","0","47","0","0","0","47","NA","43","47","43","0","43","3","47","0","47","Fri Feb 19 13:05:16 2021","The main experiment item","yes","Lexical_Decision_Task.osexp","C:/CaL","no","Andale Mono","no","18","no","white","no","yes","576","legacy","43","43","3","C:/CaL/subject-5206282.csv","legacy","Lentiform Loewenfeld","3.3.7","yes","yes","600bd7cfb6416f0113b04181","602110864497cf011d9c0822","0","j","NA","space","j","space","NA","j","1125","NA","2753","53217","943","NA","1125","2","legacy","1024","2","48000","-16","task","5206282","even","NA","66946","71703","68948","153136","4234","58401","57455","153638","NA","153133","153638","152989","71703","154765","65241","152489","4227","127903","Lexical Decision Task","44","33094","48","yes","1024"
"3.090140555","5.81","8","pout","word","91.83673469387755","91.83673469387755","687.795918367347","687.795918367347","black","no","legacy","legacy","legacy","0","uniform","1","undefined","undefined","undefined","1","j","0","0","0","0","48","0","0","0","48","NA","44","48","44","0","44","3","48","0","48","Fri Feb 19 13:05:16 2021","The main experiment item","yes","Lexical_Decision_Task.osexp","C:/CaL","no","Andale Mono","no","18","no","white","no","yes","576","legacy","44","44","3","C:/CaL/subject-5206282.csv","legacy","Lentiform Loewenfeld","3.3.7","yes","yes","600bd7cfb6416f0113b04181","602110864497cf011d9c0822","0","j","NA","space","j","space","NA","j","608","NA","2753","53217","943","NA","608","2","legacy","1024","2","48000","-16","task","5206282","even","NA","66946","71703","68948","155403","4234","58401","57455","155905","NA","155400","155905","155272","71703","156514","65241","154772","4227","127903","Lexical Decision Task","45","33702","49","yes","1024"
"3.153001286","8.7","5","palm","word","92","92","685.1","685.1","black","no","legacy","legacy","legacy","0","uniform","1","undefined","undefined","undefined","1","j","0","0","0","0","49","0","0","0","49","NA","45","49","45","0","45","3","49","0","49","Fri Feb 19 13:05:16 2021","The main experiment item","yes","Lexical_Decision_Task.osexp","C:/CaL","no","Andale Mono","no","18","no","white","no","yes","576","legacy","45","45","3","C:/CaL/subject-5206282.csv","legacy","Lentiform Loewenfeld","3.3.7","yes","yes","600bd7cfb6416f0113b04181","602110864497cf011d9c0822","0","j","NA","space","j","space","NA","j","553","NA","2753","53217","943","NA","553","2","legacy","1024","2","48000","-16","task","5206282","even","NA","66946","71703","68948","157167","4234","58401","57455","157670","NA","157164","157670","157023","71703","158225","65241","156523","4227","127903","Lexical Decision Task","46","34255","50","yes","1024"
"2.693726949","5.08","3","swig","word","92.15686274509804","92.15686274509804","684.6862745098039","684.6862745098039","black","no","legacy","legacy","legacy","0","uniform","1","undefined","undefined","undefined","1","j","0","0","0","0","50","0","0","0","50","NA","46","50","46","0","46","3","50","0","50","Fri Feb 19 13:05:16 2021","The main experiment item","yes","Lexical_Decision_Task.osexp","C:/CaL","no","Andale Mono","no","18","no","white","no","yes","576","legacy","46","46","3","C:/CaL/subject-5206282.csv","legacy","Lentiform Loewenfeld","3.3.7","yes","yes","600bd7cfb6416f0113b04181","602110864497cf011d9c0822","0","j","NA","space","j","space","NA","j","664","NA","2753","53217","943","NA","664","2","legacy","1024","2","48000","-16","task","5206282","even","NA","66946","71703","68948","158869","4234","58401","57455","159371","NA","158866","159371","158735","71703","160037","65241","158235","4227","127903","Lexical Decision Task","47","34919","51","yes","1024"
"3.165936429","0","7","leps","non-word","92.3076923076923","92.3076923076923","683.3076923076923","683.3076923076923","black","no","legacy","legacy","legacy","0","uniform","1","undefined","undefined","undefined","1","f","0","0","0","0","51","0","0","0","51","NA","47","51","47","0","47","3","51","0","51","Fri Feb 19 13:05:16 2021","The main experiment item","yes","Lexical_Decision_Task.osexp","C:/CaL","no","Andale Mono","no","18","no","white","no","yes","576","legacy","47","47","3","C:/CaL/subject-5206282.csv","legacy","Lentiform Loewenfeld","3.3.7","yes","yes","600bd7cfb6416f0113b04181","602110864497cf011d9c0822","0","f","NA","space","j","space","NA","f","613","NA","2753","53217","943","NA","613","2","legacy","1024","2","48000","-16","task","5206282","even","NA","66946","71703","68948","160689","4234","58401","57455","161191","NA","160686","161191","160547","71703","161806","65241","160047","4227","127903","Lexical Decision Task","48","35532","52","yes","1024"
"2.980306438","0","7","slun","non-word","92.45283018867924","92.45283018867924","681.5849056603773","681.5849056603773","black","no","legacy","legacy","legacy","0","uniform","1","undefined","undefined","undefined","1","f","0","0","0","0","52","0","0","0","52","NA","48","52","48","0","48","3","52","0","52","Fri Feb 19 13:05:16 2021","The main experiment item","yes","Lexical_Decision_Task.osexp","C:/CaL","no","Andale Mono","no","18","no","white","no","yes","576","legacy","48","48","3","C:/CaL/subject-5206282.csv","legacy","Lentiform Loewenfeld","3.3.7","yes","yes","600bd7cfb6416f0113b04181","602110864497cf011d9c0822","0","f","NA","space","j","space","NA","f","592","NA","2753","53217","943","NA","592","2","legacy","1024","2","48000","-16","task","5206282","even","NA","66946","71703","68948","162442","4234","58401","57455","162944","NA","162439","162944","162316","71703","163538","65241","161816","4227","127903","Lexical Decision Task","49","36124","53","yes","1024"
"2.972357144","0","5","dasp","non-word","92.5925925925926","92.5925925925926","681.1851851851852","681.1851851851852","black","no","legacy","legacy","legacy","0","uniform","1","undefined","undefined","undefined","1","f","0","0","0","0","53","0","0","0","53","NA","49","53","49","0","49","3","53","0","53","Fri Feb 19 13:05:16 2021","The main experiment item","yes","Lexical_Decision_Task.osexp","C:/CaL","no","Andale Mono","no","18","no","white","no","yes","576","legacy","49","49","3","C:/CaL/subject-5206282.csv","legacy","Lentiform Loewenfeld","3.3.7","yes","yes","600bd7cfb6416f0113b04181","602110864497cf011d9c0822","0","f","NA","space","j","space","NA","f","660","NA","2753","53217","943","NA","660","2","legacy","1024","2","48000","-16","task","5206282","even","NA","66946","71703","68948","164184","4234","58401","57455","164686","NA","164181","164686","164046","71703","165348","65241","163546","4227","127903","Lexical Decision Task","50","36784","54","yes","1024"
"2.713490543","0","3","feps","non-word","92.72727272727273","92.72727272727273","685.5272727272727","685.5272727272727","black","no","legacy","legacy","legacy","0","uniform","1","undefined","undefined","undefined","1","f","0","0","0","0","54","0","0","0","54","0","50","54","50","0","50","3","54","0","54","Fri Feb 19 13:05:16 2021","The main experiment item","yes","Lexical_Decision_Task.osexp","C:/CaL","no","Andale Mono","no","18","no","white","no","yes","576","legacy","50","50","3","C:/CaL/subject-5206282.csv","legacy","Lentiform Loewenfeld","3.3.7","yes","yes","600bd7cfb6416f0113b04181","602110864497cf011d9c0822","0","f","NA","space","j","space","space","f","920","NA","2753","53217","943","3173","920","2","legacy","1024","2","48000","-16","task","5206282","even","NA","66946","71703","68948","169233","4234","58401","57455","169736","165940","169232","169737","165857","71703","170659","65241","165356","4227","127903","Lexical Decision Task","51","37704","55","yes","1024"
"3.145920145","8.51","8","flew","word","92.85714285714286","92.85714285714286","682.7321428571429","682.7321428571429","black","no","legacy","legacy","legacy","0","uniform","1","undefined","undefined","undefined","1","j","0","0","0","0","55","0","0","0","55","0","51","55","51","0","51","3","55","0","55","Fri Feb 19 13:05:16 2021","The main experiment item","yes","Lexical_Decision_Task.osexp","C:/CaL","no","Andale Mono","no","18","no","white","no","yes","576","legacy","51","51","3","C:/CaL/subject-5206282.csv","legacy","Lentiform Loewenfeld","3.3.7","yes","yes","600bd7cfb6416f0113b04181","602110864497cf011d9c0822","0","j","NA","space","j","space","space","j","529","NA","2753","53217","943","3173","529","2","legacy","1024","2","48000","-16","task","5206282","even","NA","66946","71703","68948","171304","4234","58401","57455","171806","165940","171301","171806","171169","71703","172338","65241","170669","4227","127903","Lexical Decision Task","52","38233","56","yes","1024"
"3.20996159","0","4","clee","non-word","92.98245614035088","92.98245614035088","681.1052631578947","681.1052631578947","black","no","legacy","legacy","legacy","0","uniform","1","undefined","undefined","undefined","1","f","0","0","0","0","56","0","0","0","56","0","52","56","52","0","52","3","56","0","56","Fri Feb 19 13:05:16 2021","The main experiment item","yes","Lexical_Decision_Task.osexp","C:/CaL","no","Andale Mono","no","18","no","white","no","yes","576","legacy","52","52","3","C:/CaL/subject-5206282.csv","legacy","Lentiform Loewenfeld","3.3.7","yes","yes","600bd7cfb6416f0113b04181","602110864497cf011d9c0822","0","f","NA","space","j","space","space","f","590","NA","2753","53217","943","3173","590","2","legacy","1024","2","48000","-16","task","5206282","even","NA","66946","71703","68948","172982","4234","58401","57455","173484","165940","172979","173484","172848","71703","174076","65241","172348","4227","127903","Lexical Decision Task","53","38823","57","yes","1024"
"2.875447132","0","9","jelt","non-word","93.10344827586206","93.10344827586206","676.7068965517242","676.7068965517242","black","no","legacy","legacy","legacy","0","uniform","1","undefined","undefined","undefined","1","f","0","0","0","0","57","0","0","0","57","0","53","57","53","0","53","3","57","0","57","Fri Feb 19 13:05:16 2021","The main experiment item","yes","Lexical_Decision_Task.osexp","C:/CaL","no","Andale Mono","no","18","no","white","no","yes","576","legacy","53","53","3","C:/CaL/subject-5206282.csv","legacy","Lentiform Loewenfeld","3.3.7","yes","yes","600bd7cfb6416f0113b04181","602110864497cf011d9c0822","0","f","NA","space","j","space","space","f","426","NA","2753","53217","943","3173","426","2","legacy","1024","2","48000","-16","task","5206282","even","NA","66946","71703","68948","174709","4234","58401","57455","175211","165940","174706","175211","174586","71703","175639","65241","174086","4227","127903","Lexical Decision Task","54","39249","58","yes","1024"
"3.067193647","6.73","6","raft","word","93.22033898305085","93.22033898305085","675.4406779661017","675.4406779661017","black","no","legacy","legacy","legacy","0","uniform","1","undefined","undefined","undefined","1","j","0","0","0","0","58","0","0","0","58","0","54","58","54","0","54","3","58","0","58","Fri Feb 19 13:05:16 2021","The main experiment item","yes","Lexical_Decision_Task.osexp","C:/CaL","no","Andale Mono","no","18","no","white","no","yes","576","legacy","54","54","3","C:/CaL/subject-5206282.csv","legacy","Lentiform Loewenfeld","3.3.7","yes","yes","600bd7cfb6416f0113b04181","602110864497cf011d9c0822","0","j","NA","space","j","space","space","j","602","NA","2753","53217","943","3173","602","2","legacy","1024","2","48000","-16","task","5206282","even","NA","66946","71703","68948","176280","4234","58401","57455","176782","165940","176277","176782","176146","71703","177388","65241","175646","4227","127903","Lexical Decision Task","55","39851","59","yes","1024"
"2.898725182","0","7","turl","non-word","93.33333333333333","93.33333333333333","672.8","672.8","black","no","legacy","legacy","legacy","0","uniform","1","undefined","undefined","undefined","1","f","0","0","0","0","59","0","0","0","59","0","55","59","55","0","55","3","59","0","59","Fri Feb 19 13:05:16 2021","The main experiment item","yes","Lexical_Decision_Task.osexp","C:/CaL","no","Andale Mono","no","18","no","white","no","yes","576","legacy","55","55","3","C:/CaL/subject-5206282.csv","legacy","Lentiform Loewenfeld","3.3.7","yes","yes","600bd7cfb6416f0113b04181","602110864497cf011d9c0822","0","f","NA","space","j","space","space","f","517","NA","2753","53217","943","3173","517","2","legacy","1024","2","48000","-16","task","5206282","even","NA","66946","71703","68948","178029","4234","58401","57455","178531","165940","178027","178531","177898","71703","179051","65241","177398","4227","127903","Lexical Decision Task","56","40368","60","yes","1024"
"2.952953801","0","8","clax","non-word","93.44262295081967","93.44262295081967","668.9016393442623","668.9016393442623","black","no","legacy","legacy","legacy","0","uniform","1","undefined","undefined","undefined","1","f","0","0","0","0","60","0","0","0","60","0","56","60","56","0","56","3","60","0","60","Fri Feb 19 13:05:16 2021","The main experiment item","yes","Lexical_Decision_Task.osexp","C:/CaL","no","Andale Mono","no","18","no","white","no","yes","576","legacy","56","56","3","C:/CaL/subject-5206282.csv","legacy","Lentiform Loewenfeld","3.3.7","yes","yes","600bd7cfb6416f0113b04181","602110864497cf011d9c0822","0","f","NA","space","j","space","space","f","435","NA","2753","53217","943","3173","435","2","legacy","1024","2","48000","-16","task","5206282","even","NA","66946","71703","68948","179703","4234","58401","57455","180206","165940","179701","180206","179559","71703","180642","65241","179059","4227","127903","Lexical Decision Task","57","40803","61","yes","1024"
"2.703007489","8.37","3","pulp","word","93.54838709677419","93.54838709677419","665.7258064516129","665.7258064516129","black","no","legacy","legacy","legacy","0","uniform","1","undefined","undefined","undefined","1","j","0","0","0","0","61","0","0","0","61","0","57","61","57","0","57","3","61","0","61","Fri Feb 19 13:05:16 2021","The main experiment item","yes","Lexical_Decision_Task.osexp","C:/CaL","no","Andale Mono","no","18","no","white","no","yes","576","legacy","57","57","3","C:/CaL/subject-5206282.csv","legacy","Lentiform Loewenfeld","3.3.7","yes","yes","600bd7cfb6416f0113b04181","602110864497cf011d9c0822","0","j","NA","space","j","space","space","j","472","NA","2753","53217","943","3173","472","2","legacy","1024","2","48000","-16","task","5206282","even","NA","66946","71703","68948","181273","4234","58401","57455","181775","165940","181271","181775","181149","71703","182249","65241","180648","4227","127903","Lexical Decision Task","58","41275","62","yes","1024"
"2.873320602","0","4","lurg","non-word","93.65079365079364","93.65079365079364","664.2698412698413","664.2698412698413","black","no","legacy","legacy","legacy","0","uniform","1","undefined","undefined","undefined","1","f","0","0","0","0","62","0","0","0","62","0","58","62","58","0","58","3","62","0","62","Fri Feb 19 13:05:16 2021","The main experiment item","yes","Lexical_Decision_Task.osexp","C:/CaL","no","Andale Mono","no","18","no","white","no","yes","576","legacy","58","58","3","C:/CaL/subject-5206282.csv","legacy","Lentiform Loewenfeld","3.3.7","yes","yes","600bd7cfb6416f0113b04181","602110864497cf011d9c0822","0","f","NA","space","j","space","space","f","574","NA","2753","53217","943","3173","574","2","legacy","1024","2","48000","-16","task","5206282","even","NA","66946","71703","68948","182891","4234","58401","57455","183393","165940","182889","183393","182758","71703","183970","65241","182258","4227","127903","Lexical Decision Task","59","41849","63","yes","1024"
"3.474361976","5.24","6","veer","word","92.1875","92.1875","662.640625","662.640625","black","no","legacy","legacy","legacy","0","uniform","0","undefined","undefined","undefined","0","j","0","0","0","0","63","0","0","0","63","0","59","63","59","0","59","3","63","0","63","Fri Feb 19 13:05:16 2021","The main experiment item","yes","Lexical_Decision_Task.osexp","C:/CaL","no","Andale Mono","no","18","no","white","no","yes","576","legacy","59","59","3","C:/CaL/subject-5206282.csv","legacy","Lentiform Loewenfeld","3.3.7","yes","yes","600bd7cfb6416f0113b04181","602110864497cf011d9c0822","0","f","NA","space","j","space","space","f","560","NA","2753","53217","943","3173","560","2","legacy","1024","2","48000","-16","task","5206282","even","NA","66946","71703","68948","184620","4234","58401","57455","185122","165940","184617","185122","184480","71703","185684","65241","183980","4227","127903","Lexical Decision Task","59","42409","64","yes","1024"
"2.709837904","6.85","8","skim","word","92.3076923076923","92.3076923076923","661.9538461538461","661.9538461538461","black","no","legacy","legacy","legacy","0","uniform","1","undefined","undefined","undefined","1","j","0","0","0","0","64","0","0","0","64","0","60","64","60","0","60","3","64","0","64","Fri Feb 19 13:05:16 2021","The main experiment item","yes","Lexical_Decision_Task.osexp","C:/CaL","no","Andale Mono","no","18","no","white","no","yes","576","legacy","60","60","3","C:/CaL/subject-5206282.csv","legacy","Lentiform Loewenfeld","3.3.7","yes","yes","600bd7cfb6416f0113b04181","602110864497cf011d9c0822","0","j","NA","space","j","space","space","j","618","NA","2753","53217","943","3173","618","2","legacy","1024","2","48000","-16","task","5206282","even","NA","66946","71703","68948","187309","4234","58401","57455","187812","165940","187306","187812","187188","71703","188433","65241","183980","4227","185688","Lexical Decision Task","60","43027","65","yes","1024"
"2.814027728","8.2","4","foam","word","92.42424242424242","92.42424242424242","659.6060606060606","659.6060606060606","black","no","legacy","legacy","legacy","0","uniform","1","undefined","undefined","undefined","1","j","0","0","0","0","65","0","0","0","65","0","61","65","61","0","61","3","65","0","65","Fri Feb 19 13:05:16 2021","The main experiment item","yes","Lexical_Decision_Task.osexp","C:/CaL","no","Andale Mono","no","18","no","white","no","yes","576","legacy","61","61","3","C:/CaL/subject-5206282.csv","legacy","Lentiform Loewenfeld","3.3.7","yes","yes","600bd7cfb6416f0113b04181","602110864497cf011d9c0822","0","j","NA","space","j","space","space","j","507","NA","2753","53217","943","3173","507","2","legacy","1024","2","48000","-16","task","5206282","even","NA","66946","71703","68948","189062","4234","58401","57455","189564","165940","189058","189564","188943","71703","190074","65241","188443","4227","185688","Lexical Decision Task","61","43534","66","yes","1024"
"3.105055783","0","2","norp","non-word","92.53731343283582","92.53731343283582","657.8358208955224","657.8358208955224","black","no","legacy","legacy","legacy","0","uniform","1","undefined","undefined","undefined","1","f","0","0","0","0","66","0","0","0","66","0","62","66","62","0","62","3","66","0","66","Fri Feb 19 13:05:16 2021","The main experiment item","yes","Lexical_Decision_Task.osexp","C:/CaL","no","Andale Mono","no","18","no","white","no","yes","576","legacy","62","62","3","C:/CaL/subject-5206282.csv","legacy","Lentiform Loewenfeld","3.3.7","yes","yes","600bd7cfb6416f0113b04181","602110864497cf011d9c0822","0","f","NA","space","j","space","space","f","541","NA","2753","53217","943","3173","541","2","legacy","1024","2","48000","-16","task","5206282","even","NA","66946","71703","68948","190704","4234","58401","57455","191206","165940","190701","191206","190584","71703","191749","65241","190084","4227","185688","Lexical Decision Task","62","44075","67","yes","1024"
"3.082307743","9.68","8","camp","word","92.6470588235294","92.6470588235294","658.2205882352941","658.2205882352941","black","no","legacy","legacy","legacy","0","uniform","1","undefined","undefined","undefined","1","j","0","0","0","0","67","0","0","0","67","0","63","67","63","0","63","3","67","0","67","Fri Feb 19 13:05:16 2021","The main experiment item","yes","Lexical_Decision_Task.osexp","C:/CaL","no","Andale Mono","no","18","no","white","no","yes","576","legacy","63","63","3","C:/CaL/subject-5206282.csv","legacy","Lentiform Loewenfeld","3.3.7","yes","yes","600bd7cfb6416f0113b04181","602110864497cf011d9c0822","0","j","NA","space","j","space","space","j","684","NA","2753","53217","943","3173","684","2","legacy","1024","2","48000","-16","task","5206282","even","NA","66946","71703","68948","192387","4234","58401","57455","192889","165940","192383","192889","192258","71703","193576","65241","191758","4227","185688","Lexical Decision Task","63","44759","68","yes","1024"
"2.782472624","10.55","2","huge","word","92.7536231884058","92.7536231884058","656.1739130434783","656.1739130434783","black","no","legacy","legacy","legacy","0","uniform","1","undefined","undefined","undefined","1","j","0","0","0","0","68","0","0","0","68","0","64","68","64","0","64","3","68","0","68","Fri Feb 19 13:05:16 2021","The main experiment item","yes","Lexical_Decision_Task.osexp","C:/CaL","no","Andale Mono","no","18","no","white","no","yes","576","legacy","64","64","3","C:/CaL/subject-5206282.csv","legacy","Lentiform Loewenfeld","3.3.7","yes","yes","600bd7cfb6416f0113b04181","602110864497cf011d9c0822","0","j","NA","space","j","space","space","j","517","NA","2753","53217","943","3173","517","2","legacy","1024","2","48000","-16","task","5206282","even","NA","66946","71703","68948","194208","4234","58401","57455","194710","165940","194205","194710","194085","71703","195229","65241","193585","4227","185688","Lexical Decision Task","64","45276","69","yes","1024"
"2.784379519","0","2","snaf","non-word","92.85714285714286","92.85714285714286","653.9857142857143","653.9857142857143","black","no","legacy","legacy","legacy","0","uniform","1","undefined","undefined","undefined","1","f","0","0","0","0","69","0","0","0","69","0","65","69","65","0","65","3","69","0","69","Fri Feb 19 13:05:16 2021","The main experiment item","yes","Lexical_Decision_Task.osexp","C:/CaL","no","Andale Mono","no","18","no","white","no","yes","576","legacy","65","65","3","C:/CaL/subject-5206282.csv","legacy","Lentiform Loewenfeld","3.3.7","yes","yes","600bd7cfb6416f0113b04181","602110864497cf011d9c0822","0","f","NA","space","j","space","space","f","503","NA","2753","53217","943","3173","503","2","legacy","1024","2","48000","-16","task","5206282","even","NA","66946","71703","68948","195872","4234","58401","57455","196374","165940","195869","196374","195737","71703","196879","65241","195236","4227","185688","Lexical Decision Task","65","45779","70","yes","1024"
"3.274543461","7.46","7","scar","word","91.54929577464789","91.54929577464789","652","652","black","no","legacy","legacy","legacy","0","uniform","0","undefined","undefined","undefined","0","j","0","0","0","0","70","0","0","0","70","0","66","70","66","0","66","3","70","0","70","Fri Feb 19 13:05:16 2021","The main experiment item","yes","Lexical_Decision_Task.osexp","C:/CaL","no","Andale Mono","no","18","no","white","no","yes","576","legacy","66","66","3","C:/CaL/subject-5206282.csv","legacy","Lentiform Loewenfeld","3.3.7","yes","yes","600bd7cfb6416f0113b04181","602110864497cf011d9c0822","0","f","NA","space","j","space","space","f","513","NA","2753","53217","943","3173","513","2","legacy","1024","2","48000","-16","task","5206282","even","NA","66946","71703","68948","197507","4234","58401","57455","198009","165940","197503","198009","197388","71703","198524","65241","196888","4227","185688","Lexical Decision Task","65","46292","71","yes","1024"
"2.892836167","10.01","5","soft","word","91.66666666666667","91.66666666666667","649.9722222222222","649.9722222222222","black","no","legacy","legacy","legacy","0","uniform","1","undefined","undefined","undefined","1","j","0","0","0","0","71","0","0","0","71","0","67","71","67","0","67","3","71","0","71","Fri Feb 19 13:05:16 2021","The main experiment item","yes","Lexical_Decision_Task.osexp","C:/CaL","no","Andale Mono","no","18","no","white","no","yes","576","legacy","67","67","3","C:/CaL/subject-5206282.csv","legacy","Lentiform Loewenfeld","3.3.7","yes","yes","600bd7cfb6416f0113b04181","602110864497cf011d9c0822","0","j","NA","space","j","space","space","j","506","NA","2753","53217","943","3173","506","2","legacy","1024","2","48000","-16","task","5206282","even","NA","66946","71703","68948","200159","4234","58401","57455","200661","165940","200155","200661","200034","71703","201169","65241","196888","4227","198534","Lexical Decision Task","66","46798","72","yes","1024"
"3.307211407","6.07","7","honk","word","91.78082191780823","91.78082191780823","648.013698630137","648.013698630137","black","no","legacy","legacy","legacy","0","uniform","1","undefined","undefined","undefined","1","j","0","0","0","0","72","0","0","0","72","0","68","72","68","0","68","3","72","0","72","Fri Feb 19 13:05:16 2021","The main experiment item","yes","Lexical_Decision_Task.osexp","C:/CaL","no","Andale Mono","no","18","no","white","no","yes","576","legacy","68","68","3","C:/CaL/subject-5206282.csv","legacy","Lentiform Loewenfeld","3.3.7","yes","yes","600bd7cfb6416f0113b04181","602110864497cf011d9c0822","0","j","NA","space","j","space","space","j","507","NA","2753","53217","943","3173","507","2","legacy","1024","2","48000","-16","task","5206282","even","NA","66946","71703","68948","201815","4234","58401","57455","202317","165940","201813","202317","201679","71703","202826","65241","201179","4227","198534","Lexical Decision Task","67","47305","73","yes","1024"
"2.86332286","6.71","2","feud","word","90.54054054054055","90.54054054054055","645.418918918919","645.418918918919","black","no","legacy","legacy","legacy","0","uniform","0","undefined","undefined","undefined","0","j","0","0","0","0","73","0","0","0","73","0","69","73","69","0","69","3","73","0","73","Fri Feb 19 13:05:16 2021","The main experiment item","yes","Lexical_Decision_Task.osexp","C:/CaL","no","Andale Mono","no","18","no","white","no","yes","576","legacy","69","69","3","C:/CaL/subject-5206282.csv","legacy","Lentiform Loewenfeld","3.3.7","yes","yes","600bd7cfb6416f0113b04181","602110864497cf011d9c0822","0","f","NA","space","j","space","space","f","456","NA","2753","53217","943","3173","456","2","legacy","1024","2","48000","-16","task","5206282","even","NA","66946","71703","68948","203456","4234","58401","57455","203959","165940","203454","203959","203336","71703","204418","65241","202836","4227","198534","Lexical Decision Task","67","47761","74","yes","1024"
"2.706148589","0","4","hube","non-word","90.66666666666667","90.66666666666667","645.6266666666667","645.6266666666667","black","no","legacy","legacy","legacy","0","uniform","1","undefined","undefined","undefined","1","f","0","0","0","0","74","0","0","0","74","0","70","74","70","0","70","3","74","0","74","Fri Feb 19 13:05:16 2021","The main experiment item","yes","Lexical_Decision_Task.osexp","C:/CaL","no","Andale Mono","no","18","no","white","no","yes","576","legacy","70","70","3","C:/CaL/subject-5206282.csv","legacy","Lentiform Loewenfeld","3.3.7","yes","yes","600bd7cfb6416f0113b04181","602110864497cf011d9c0822","0","f","NA","space","j","space","space","f","661","NA","2753","53217","943","3173","661","2","legacy","1024","2","48000","-16","task","5206282","even","NA","66946","71703","68948","206057","4234","58401","57455","206559","165940","206054","206559","205928","71703","207222","65241","202836","4227","204428","Lexical Decision Task","68","48422","75","yes","1024"
"3.16326079","0","5","parg","non-word","90.78947368421052","90.78947368421052","646.2631578947369","646.2631578947369","black","no","legacy","legacy","legacy","0","uniform","1","undefined","undefined","undefined","1","f","0","0","0","0","75","0","0","0","75","0","71","75","71","0","71","3","75","0","75","Fri Feb 19 13:05:16 2021","The main experiment item","yes","Lexical_Decision_Task.osexp","C:/CaL","no","Andale Mono","no","18","no","white","no","yes","576","legacy","71","71","3","C:/CaL/subject-5206282.csv","legacy","Lentiform Loewenfeld","3.3.7","yes","yes","600bd7cfb6416f0113b04181","602110864497cf011d9c0822","0","f","NA","space","j","space","space","f","694","NA","2753","53217","943","3173","694","2","legacy","1024","2","48000","-16","task","5206282","even","NA","66946","71703","68948","207864","4234","58401","57455","208366","165940","207861","208366","207731","71703","209062","65241","207231","4227","204428","Lexical Decision Task","69","49116","76","yes","1024"
"3.216517684","10.87","3","film","word","90.9090909090909","90.9090909090909","643.5974025974026","643.5974025974026","black","no","legacy","legacy","legacy","0","uniform","1","undefined","undefined","undefined","1","j","0","0","0","0","76","0","0","0","76","0","72","76","72","0","72","3","76","0","76","Fri Feb 19 13:05:16 2021","The main experiment item","yes","Lexical_Decision_Task.osexp","C:/CaL","no","Andale Mono","no","18","no","white","no","yes","576","legacy","72","72","3","C:/CaL/subject-5206282.csv","legacy","Lentiform Loewenfeld","3.3.7","yes","yes","600bd7cfb6416f0113b04181","602110864497cf011d9c0822","0","j","NA","space","j","space","space","j","441","NA","2753","53217","943","3173","441","2","legacy","1024","2","48000","-16","task","5206282","even","NA","66946","71703","68948","209709","4234","58401","57455","210211","165940","209707","210211","209571","71703","210655","65241","209071","4227","204428","Lexical Decision Task","70","49557","77","yes","1024"
"2.838639236","0","4","furg","non-word","91.02564102564102","91.02564102564102","643.0128205128206","643.0128205128206","black","no","legacy","legacy","legacy","0","uniform","1","undefined","undefined","undefined","1","f","0","0","0","0","77","0","0","0","77","0","73","77","73","0","73","3","77","0","77","Fri Feb 19 13:05:16 2021","The main experiment item","yes","Lexical_Decision_Task.osexp","C:/CaL","no","Andale Mono","no","18","no","white","no","yes","576","legacy","73","73","3","C:/CaL/subject-5206282.csv","legacy","Lentiform Loewenfeld","3.3.7","yes","yes","600bd7cfb6416f0113b04181","602110864497cf011d9c0822","0","f","NA","space","j","space","space","f","598","NA","2753","53217","943","3173","598","2","legacy","1024","2","48000","-16","task","5206282","even","NA","66946","71703","68948","211307","4234","58401","57455","211809","165940","211304","211809","211165","71703","212410","65241","210665","4227","204428","Lexical Decision Task","71","50155","78","yes","1024"
"2.980911938","7.15","7","hoop","word","91.13924050632912","91.13924050632912","641.0632911392405","641.0632911392405","black","no","legacy","legacy","legacy","0","uniform","1","undefined","undefined","undefined","1","j","0","0","0","0","78","0","0","0","78","0","74","78","74","0","74","3","78","0","78","Fri Feb 19 13:05:16 2021","The main experiment item","yes","Lexical_Decision_Task.osexp","C:/CaL","no","Andale Mono","no","18","no","white","no","yes","576","legacy","74","74","3","C:/CaL/subject-5206282.csv","legacy","Lentiform Loewenfeld","3.3.7","yes","yes","600bd7cfb6416f0113b04181","602110864497cf011d9c0822","0","j","NA","space","j","space","space","j","489","NA","2753","53217","943","3173","489","2","legacy","1024","2","48000","-16","task","5206282","even","NA","66946","71703","68948","213060","4234","58401","57455","213562","165940","213057","213562","212921","71703","214053","65241","212420","4227","204428","Lexical Decision Task","72","50644","79","yes","1024"
"2.990042563","6.64","9","plow","word","91.25","91.25","641.2125","641.2125","black","no","legacy","legacy","legacy","0","uniform","1","undefined","undefined","undefined","1","j","0","0","0","0","79","0","0","0","79","0","75","79","75","0","75","3","79","0","79","Fri Feb 19 13:05:16 2021","The main experiment item","yes","Lexical_Decision_Task.osexp","C:/CaL","no","Andale Mono","no","18","no","white","no","yes","576","legacy","75","75","3","C:/CaL/subject-5206282.csv","legacy","Lentiform Loewenfeld","3.3.7","yes","yes","600bd7cfb6416f0113b04181","602110864497cf011d9c0822","0","j","NA","space","j","space","space","j","653","NA","2753","53217","943","3173","653","2","legacy","1024","2","48000","-16","task","5206282","even","NA","66946","71703","68948","214698","4234","58401","57455","215200","165940","214695","215200","214562","71703","215855","65241","214062","4227","204428","Lexical Decision Task","73","51297","80","yes","1024"
"2.839898939","8.99","6","soap","word","91.35802469135803","91.35802469135803","639.7283950617284","639.7283950617284","black","no","legacy","legacy","legacy","0","uniform","1","undefined","undefined","undefined","1","j","0","0","0","0","80","0","0","0","80","0","76","80","76","0","76","3","80","0","80","Fri Feb 19 13:05:16 2021","The main experiment item","yes","Lexical_Decision_Task.osexp","C:/CaL","no","Andale Mono","no","18","no","white","no","yes","576","legacy","76","76","3","C:/CaL/subject-5206282.csv","legacy","Lentiform Loewenfeld","3.3.7","yes","yes","600bd7cfb6416f0113b04181","602110864497cf011d9c0822","0","j","NA","space","j","space","space","j","521","NA","2753","53217","943","3173","521","2","legacy","1024","2","48000","-16","task","5206282","even","NA","66946","71703","68948","216500","4234","58401","57455","217002","165940","216497","217003","216365","71703","217526","65241","215865","4227","204428","Lexical Decision Task","74","51818","81","yes","1024"
"3.1430148","7.92","8","bald","word","91.46341463414635","91.46341463414635","638.109756097561","638.109756097561","black","no","legacy","legacy","legacy","0","uniform","1","undefined","undefined","undefined","1","j","0","0","0","0","81","0","0","0","81","0","77","81","77","0","77","3","81","0","81","Fri Feb 19 13:05:16 2021","The main experiment item","yes","Lexical_Decision_Task.osexp","C:/CaL","no","Andale Mono","no","18","no","white","no","yes","576","legacy","77","77","3","C:/CaL/subject-5206282.csv","legacy","Lentiform Loewenfeld","3.3.7","yes","yes","600bd7cfb6416f0113b04181","602110864497cf011d9c0822","0","j","NA","space","j","space","space","j","507","NA","2753","53217","943","3173","507","2","legacy","1024","2","48000","-16","task","5206282","even","NA","66946","71703","68948","218158","4234","58401","57455","218660","165940","218155","218661","218034","71703","219171","65241","217533","4227","204428","Lexical Decision Task","75","52325","82","yes","1024"
"2.767650507","0","6","yolt","non-word","90.36144578313252","90.36144578313252","640.1686746987951","640.1686746987951","black","no","legacy","legacy","legacy","0","uniform","0","undefined","undefined","undefined","0","f","0","0","0","0","82","0","0","0","82","0","78","82","78","0","78","3","82","0","82","Fri Feb 19 13:05:16 2021","The main experiment item","yes","Lexical_Decision_Task.osexp","C:/CaL","no","Andale Mono","no","18","no","white","no","yes","576","legacy","78","78","3","C:/CaL/subject-5206282.csv","legacy","Lentiform Loewenfeld","3.3.7","yes","yes","600bd7cfb6416f0113b04181","602110864497cf011d9c0822","0","j","NA","space","j","space","space","j","809","NA","2753","53217","943","3173","809","2","legacy","1024","2","48000","-16","task","5206282","even","NA","66946","71703","68948","219801","4234","58401","57455","220303","165940","219799","220303","219681","71703","221114","65241","219181","4227","204428","Lexical Decision Task","75","53134","83","yes","1024"
"3.194328374","9.42","6","harm","word","90.47619047619048","90.47619047619048","638.4642857142857","638.4642857142857","black","no","legacy","legacy","legacy","0","uniform","1","undefined","undefined","undefined","1","j","0","0","0","0","83","0","0","0","83","0","79","83","79","0","79","3","83","0","83","Fri Feb 19 13:05:16 2021","The main experiment item","yes","Lexical_Decision_Task.osexp","C:/CaL","no","Andale Mono","no","18","no","white","no","yes","576","legacy","79","79","3","C:/CaL/subject-5206282.csv","legacy","Lentiform Loewenfeld","3.3.7","yes","yes","600bd7cfb6416f0113b04181","602110864497cf011d9c0822","0","j","NA","space","j","space","space","j","497","NA","2753","53217","943","3173","497","2","legacy","1024","2","48000","-16","task","5206282","even","NA","66946","71703","68948","222744","4234","58401","57455","223247","165940","222742","223247","222625","71703","223746","65241","219181","4227","221124","Lexical Decision Task","76","53631","84","yes","1024"
"3.397302518","7.01","2","knit","word","90.58823529411765","90.58823529411765","636.8705882352941","636.8705882352941","black","no","legacy","legacy","legacy","0","uniform","1","undefined","undefined","undefined","1","j","0","0","0","0","84","0","0","0","84","0","80","84","80","0","80","3","84","0","84","Fri Feb 19 13:05:16 2021","The main experiment item","yes","Lexical_Decision_Task.osexp","C:/CaL","no","Andale Mono","no","18","no","white","no","yes","576","legacy","80","80","3","C:/CaL/subject-5206282.csv","legacy","Lentiform Loewenfeld","3.3.7","yes","yes","600bd7cfb6416f0113b04181","602110864497cf011d9c0822","0","j","NA","space","j","space","space","j","503","NA","2753","53217","943","3173","503","2","legacy","1024","2","48000","-16","task","5206282","even","NA","66946","71703","68948","224398","4234","58401","57455","224901","165940","224395","224901","224256","71703","225406","65241","223756","4227","221124","Lexical Decision Task","77","54134","85","yes","1024"
"3.067070856","9.39","3","loud","word","90.69767441860465","90.69767441860465","634.6860465116279","634.6860465116279","black","no","legacy","legacy","legacy","0","uniform","1","undefined","undefined","undefined","1","j","0","0","0","0","85","0","0","0","85","0","81","85","81","0","81","3","85","0","85","Fri Feb 19 13:05:16 2021","The main experiment item","yes","Lexical_Decision_Task.osexp","C:/CaL","no","Andale Mono","no","18","no","white","no","yes","576","legacy","81","81","3","C:/CaL/subject-5206282.csv","legacy","Lentiform Loewenfeld","3.3.7","yes","yes","600bd7cfb6416f0113b04181","602110864497cf011d9c0822","0","j","NA","space","j","space","space","j","449","NA","2753","53217","943","3173","449","2","legacy","1024","2","48000","-16","task","5206282","even","NA","66946","71703","68948","226047","4234","58401","57455","226549","165940","226044","226549","225915","71703","227002","65241","225415","4227","221124","Lexical Decision Task","78","54583","86","yes","1024"
"3.20871002","7.15","8","cram","word","90.80459770114942","90.80459770114942","634.2758620689655","634.2758620689655","black","no","legacy","legacy","legacy","0","uniform","1","undefined","undefined","undefined","1","j","0","0","0","0","86","0","0","0","86","0","82","86","82","0","82","3","86","0","86","Fri Feb 19 13:05:16 2021","The main experiment item","yes","Lexical_Decision_Task.osexp","C:/CaL","no","Andale Mono","no","18","no","white","no","yes","576","legacy","82","82","3","C:/CaL/subject-5206282.csv","legacy","Lentiform Loewenfeld","3.3.7","yes","yes","600bd7cfb6416f0113b04181","602110864497cf011d9c0822","0","j","NA","space","j","space","space","j","599","NA","2753","53217","943","3173","599","2","legacy","1024","2","48000","-16","task","5206282","even","NA","66946","71703","68948","227656","4234","58401","57455","228158","165940","227653","228158","227512","71703","228758","65241","227012","4227","221124","Lexical Decision Task","79","55182","87","yes","1024"
"3.431095062","5.74","9","perk","word","90.9090909090909","90.9090909090909","633.875","633.875","black","no","legacy","legacy","legacy","0","uniform","1","undefined","undefined","undefined","1","j","0","0","0","0","87","0","0","0","87","0","83","87","83","0","83","3","87","0","87","Fri Feb 19 13:05:16 2021","The main experiment item","yes","Lexical_Decision_Task.osexp","C:/CaL","no","Andale Mono","no","18","no","white","no","yes","576","legacy","83","83","3","C:/CaL/subject-5206282.csv","legacy","Lentiform Loewenfeld","3.3.7","yes","yes","600bd7cfb6416f0113b04181","602110864497cf011d9c0822","0","j","NA","space","j","space","space","j","599","NA","2753","53217","943","3173","599","2","legacy","1024","2","48000","-16","task","5206282","even","NA","66946","71703","68948","229389","4234","58401","57455","229891","165940","229387","229891","229266","71703","230492","65241","228766","4227","221124","Lexical Decision Task","80","55781","88","yes","1024"
"2.576725172","0","8","gowl","non-word","89.88764044943821","89.88764044943821","632","632","black","no","legacy","legacy","legacy","0","uniform","0","undefined","undefined","undefined","0","f","0","0","0","0","88","0","0","0","88","0","84","88","84","0","84","3","88","0","88","Fri Feb 19 13:05:16 2021","The main experiment item","yes","Lexical_Decision_Task.osexp","C:/CaL","no","Andale Mono","no","18","no","white","no","yes","576","legacy","84","84","3","C:/CaL/subject-5206282.csv","legacy","Lentiform Loewenfeld","3.3.7","yes","yes","600bd7cfb6416f0113b04181","602110864497cf011d9c0822","0","j","NA","space","j","space","space","j","467","NA","2753","53217","943","3173","467","2","legacy","1024","2","48000","-16","task","5206282","even","NA","66946","71703","68948","231127","4234","58401","57455","231630","165940","231124","231630","231002","71703","232099","65241","230502","4227","221124","Lexical Decision Task","80","56248","89","yes","1024"
"3.119255889","6.63","2","itch","word","90","90","631.1555555555556","631.1555555555556","black","no","legacy","legacy","legacy","0","uniform","1","undefined","undefined","undefined","1","j","0","0","0","0","89","0","0","0","89","0","85","89","85","0","85","3","89","0","89","Fri Feb 19 13:05:16 2021","The main experiment item","yes","Lexical_Decision_Task.osexp","C:/CaL","no","Andale Mono","no","18","no","white","no","yes","576","legacy","85","85","3","C:/CaL/subject-5206282.csv","legacy","Lentiform Loewenfeld","3.3.7","yes","yes","600bd7cfb6416f0113b04181","602110864497cf011d9c0822","0","j","NA","space","j","space","space","j","556","NA","2753","53217","943","3173","556","2","legacy","1024","2","48000","-16","task","5206282","even","NA","66946","71703","68948","233736","4234","58401","57455","234238","165940","233733","234238","233609","71703","234797","65241","230502","4227","232109","Lexical Decision Task","81","56804","90","yes","1024"
"3.076883066","0","8","mout","non-word","90.10989010989012","90.10989010989012","630.5824175824176","630.5824175824176","black","no","legacy","legacy","legacy","0","uniform","1","undefined","undefined","undefined","1","f","0","0","0","0","90","0","0","0","90","0","86","90","86","0","86","3","90","0","90","Fri Feb 19 13:05:16 2021","The main experiment item","yes","Lexical_Decision_Task.osexp","C:/CaL","no","Andale Mono","no","18","no","white","no","yes","576","legacy","86","86","3","C:/CaL/subject-5206282.csv","legacy","Lentiform Loewenfeld","3.3.7","yes","yes","600bd7cfb6416f0113b04181","602110864497cf011d9c0822","0","f","NA","space","j","space","space","f","579","NA","2753","53217","943","3173","579","2","legacy","1024","2","48000","-16","task","5206282","even","NA","66946","71703","68948","235440","4234","58401","57455","235942","165940","235438","235942","235307","71703","236524","65241","234807","4227","232109","Lexical Decision Task","82","57383","91","yes","1024"
"3.705778213","0","6","stin","non-word","90.21739130434783","90.21739130434783","630.1086956521739","630.1086956521739","black","no","legacy","legacy","legacy","0","uniform","1","undefined","undefined","undefined","1","f","0","0","0","0","91","0","0","0","91","0","87","91","87","0","87","3","91","0","91","Fri Feb 19 13:05:16 2021","The main experiment item","yes","Lexical_Decision_Task.osexp","C:/CaL","no","Andale Mono","no","18","no","white","no","yes","576","legacy","87","87","3","C:/CaL/subject-5206282.csv","legacy","Lentiform Loewenfeld","3.3.7","yes","yes","600bd7cfb6416f0113b04181","602110864497cf011d9c0822","0","f","NA","space","j","space","space","f","587","NA","2753","53217","943","3173","587","2","legacy","1024","2","48000","-16","task","5206282","even","NA","66946","71703","68948","237168","4234","58401","57455","237670","165940","237165","237670","237034","71703","238259","65241","236534","4227","232109","Lexical Decision Task","83","57970","92","yes","1024"
"2.778633532","0","3","jurp","non-word","90.3225806451613","90.3225806451613","630.9247311827957","630.9247311827957","black","no","legacy","legacy","legacy","0","uniform","1","undefined","undefined","undefined","1","f","0","0","0","0","92","0","0","0","92","0","88","92","88","0","88","3","92","0","92","Fri Feb 19 13:05:16 2021","The main experiment item","yes","Lexical_Decision_Task.osexp","C:/CaL","no","Andale Mono","no","18","no","white","no","yes","576","legacy","88","88","3","C:/CaL/subject-5206282.csv","legacy","Lentiform Loewenfeld","3.3.7","yes","yes","600bd7cfb6416f0113b04181","602110864497cf011d9c0822","0","f","NA","space","j","space","space","f","706","NA","2753","53217","943","3173","706","2","legacy","1024","2","48000","-16","task","5206282","even","NA","66946","71703","68948","238887","4234","58401","57455","239389","165940","238884","239389","238768","71703","240098","65241","238268","4227","232109","Lexical Decision Task","84","58676","93","yes","1024"
"3.488597715","0","9","nain","non-word","90.42553191489361","90.42553191489361","632.1914893617021","632.1914893617021","black","no","legacy","legacy","legacy","0","uniform","1","undefined","undefined","undefined","1","f","0","0","0","0","93","0","0","0","93","0","89","93","89","0","89","3","93","0","93","Fri Feb 19 13:05:16 2021","The main experiment item","yes","Lexical_Decision_Task.osexp","C:/CaL","no","Andale Mono","no","18","no","white","no","yes","576","legacy","89","89","3","C:/CaL/subject-5206282.csv","legacy","Lentiform Loewenfeld","3.3.7","yes","yes","600bd7cfb6416f0113b04181","602110864497cf011d9c0822","0","f","NA","space","j","space","space","f","750","NA","2753","53217","943","3173","750","2","legacy","1024","2","48000","-16","task","5206282","even","NA","66946","71703","68948","240734","4234","58401","57455","241237","165940","240732","241237","240609","71703","241990","65241","240108","4227","232109","Lexical Decision Task","85","59426","94","yes","1024"
"2.67699827","0","6","hulf","non-word","90.52631578947368","90.52631578947368","631.1894736842105","631.1894736842105","black","no","legacy","legacy","legacy","0","uniform","1","undefined","undefined","undefined","1","f","0","0","0","0","94","0","0","0","94","0","90","94","90","0","90","3","94","0","94","Fri Feb 19 13:05:16 2021","The main experiment item","yes","Lexical_Decision_Task.osexp","C:/CaL","no","Andale Mono","no","18","no","white","no","yes","576","legacy","90","90","3","C:/CaL/subject-5206282.csv","legacy","Lentiform Loewenfeld","3.3.7","yes","yes","600bd7cfb6416f0113b04181","602110864497cf011d9c0822","0","f","NA","space","j","space","space","f","537","NA","2753","53217","943","3173","537","2","legacy","1024","2","48000","-16","task","5206282","even","NA","66946","71703","68948","242618","4234","58401","57455","243120","165940","242615","243120","242500","71703","243660","65241","241999","4227","232109","Lexical Decision Task","86","59963","95","yes","1024"
"3.282244367","0","6","fute","non-word","90.625","90.625","632.6458333333334","632.6458333333334","black","no","legacy","legacy","legacy","0","uniform","1","undefined","undefined","undefined","1","f","0","0","0","0","95","0","0","0","95","0","91","95","91","0","91","3","95","0","95","Fri Feb 19 13:05:16 2021","The main experiment item","yes","Lexical_Decision_Task.osexp","C:/CaL","no","Andale Mono","no","18","no","white","no","yes","576","legacy","91","91","3","C:/CaL/subject-5206282.csv","legacy","Lentiform Loewenfeld","3.3.7","yes","yes","600bd7cfb6416f0113b04181","602110864497cf011d9c0822","0","f","NA","space","j","space","space","f","771","NA","2753","53217","943","3173","771","2","legacy","1024","2","48000","-16","task","5206282","even","NA","66946","71703","68948","244288","4234","58401","57455","244790","165940","244285","244790","244168","71703","245563","65241","243668","4227","232109","Lexical Decision Task","87","60734","96","yes","1024"
"2.981215883","10.66","5","hair","word","90.72164948453609","90.72164948453609","630.9175257731958","630.9175257731958","black","no","legacy","legacy","legacy","0","uniform","1","undefined","undefined","undefined","1","j","0","0","0","0","96","0","0","0","96","0","92","96","92","0","92","3","96","0","96","Fri Feb 19 13:05:16 2021","The main experiment item","yes","Lexical_Decision_Task.osexp","C:/CaL","no","Andale Mono","no","18","no","white","no","yes","576","legacy","92","92","3","C:/CaL/subject-5206282.csv","legacy","Lentiform Loewenfeld","3.3.7","yes","yes","600bd7cfb6416f0113b04181","602110864497cf011d9c0822","0","j","NA","space","j","space","space","j","465","NA","2753","53217","943","3173","465","2","legacy","1024","2","48000","-16","task","5206282","even","NA","66946","71703","68948","246230","4234","58401","57455","246732","165940","246227","246732","246070","71703","247199","65241","245570","4227","232109","Lexical Decision Task","88","61199","97","yes","1024"
"3.14849993","10.75","7","hour","word","90.81632653061224","90.81632653061224","630.4489795918367","630.4489795918367","black","no","legacy","legacy","legacy","0","uniform","1","undefined","undefined","undefined","1","j","0","0","0","0","97","0","0","0","97","0","93","97","93","0","93","3","97","0","97","Fri Feb 19 13:05:16 2021","The main experiment item","yes","Lexical_Decision_Task.osexp","C:/CaL","no","Andale Mono","no","18","no","white","no","yes","576","legacy","93","93","3","C:/CaL/subject-5206282.csv","legacy","Lentiform Loewenfeld","3.3.7","yes","yes","600bd7cfb6416f0113b04181","602110864497cf011d9c0822","0","j","NA","space","j","space","space","j","585","NA","2753","53217","943","3173","585","2","legacy","1024","2","48000","-16","task","5206282","even","NA","66946","71703","68948","247822","4234","58401","57455","248324","165940","247820","248324","247704","71703","248912","65241","247204","4227","232109","Lexical Decision Task","89","61784","98","yes","1024"
"2.664328519","0","4","plux","non-word","90.9090909090909","90.9090909090909","630.10101010101","630.10101010101","black","no","legacy","legacy","legacy","0","uniform","1","undefined","undefined","undefined","1","f","0","0","0","0","98","0","0","0","98","0","94","98","94","0","94","3","98","0","98","Fri Feb 19 13:05:16 2021","The main experiment item","yes","Lexical_Decision_Task.osexp","C:/CaL","no","Andale Mono","no","18","no","white","no","yes","576","legacy","94","94","3","C:/CaL/subject-5206282.csv","legacy","Lentiform Loewenfeld","3.3.7","yes","yes","600bd7cfb6416f0113b04181","602110864497cf011d9c0822","0","f","NA","space","j","space","space","f","596","NA","2753","53217","943","3173","596","2","legacy","1024","2","48000","-16","task","5206282","even","NA","66946","71703","68948","249542","4234","58401","57455","250044","165940","249539","250044","249421","71703","250642","65241","248921","4227","232109","Lexical Decision Task","90","62380","99","yes","1024"
"3.159867847","5.98","5","brim","word","91","91","630.37","630.37","black","no","legacy","legacy","legacy","0","uniform","1","undefined","undefined","undefined","1","j","0","0","0","0","99","0","0","0","99","0","95","99","95","0","95","3","99","0","99","Fri Feb 19 13:05:16 2021","The main experiment item","yes","Lexical_Decision_Task.osexp","C:/CaL","no","Andale Mono","no","18","no","white","no","yes","576","legacy","95","95","3","C:/CaL/subject-5206282.csv","legacy","Lentiform Loewenfeld","3.3.7","yes","yes","600bd7cfb6416f0113b04181","602110864497cf011d9c0822","0","j","NA","space","j","space","space","j","657","NA","2753","53217","943","3173","657","2","legacy","1024","2","48000","-16","task","5206282","even","NA","66946","71703","68948","251286","4234","58401","57455","251789","165940","251284","251789","251151","71703","252448","65241","250651","4227","232109","Lexical Decision Task","91","63037","100","yes","1024"
"2.799799878","0","4","ciff","non-word","91.08910891089108","91.08910891089108","629.4653465346535","629.4653465346535","black","no","legacy","legacy","legacy","0","uniform","1","undefined","undefined","undefined","1","f","0","0","0","0","100","0","0","0","100","0","96","100","96","0","96","3","100","0","100","Fri Feb 19 13:05:16 2021","The main experiment item","yes","Lexical_Decision_Task.osexp","C:/CaL","no","Andale Mono","no","18","no","white","no","yes","576","legacy","96","96","3","C:/CaL/subject-5206282.csv","legacy","Lentiform Loewenfeld","3.3.7","yes","yes","600bd7cfb6416f0113b04181","602110864497cf011d9c0822","0","f","NA","space","j","space","space","f","539","NA","2753","53217","943","3173","539","2","legacy","1024","2","48000","-16","task","5206282","even","NA","66946","71703","68948","253075","4234","58401","57455","253577","165940","253072","253577","252957","71703","254119","65241","252457","4227","232109","Lexical Decision Task","92","63576","101","yes","1024"
"3.22685757","9.99","7","roll","word","91.17647058823529","91.17647058823529","627.5392156862745","627.5392156862745","black","no","legacy","legacy","legacy","0","uniform","1","undefined","undefined","undefined","1","j","0","0","0","0","101","0","0","0","101","0","97","101","97","0","97","3","101","0","101","Fri Feb 19 13:05:16 2021","The main experiment item","yes","Lexical_Decision_Task.osexp","C:/CaL","no","Andale Mono","no","18","no","white","no","yes","576","legacy","97","97","3","C:/CaL/subject-5206282.csv","legacy","Lentiform Loewenfeld","3.3.7","yes","yes","600bd7cfb6416f0113b04181","602110864497cf011d9c0822","0","j","NA","space","j","space","space","j","433","NA","2753","53217","943","3173","433","2","legacy","1024","2","48000","-16","task","5206282","even","NA","66946","71703","68948","254762","4234","58401","57455","255264","165940","254760","255264","254628","71703","255700","65241","254128","4227","232109","Lexical Decision Task","93","64009","102","yes","1024"
"3.149629599","0","2","cleb","non-word","91.2621359223301","91.2621359223301","626.495145631068","626.495145631068","black","no","legacy","legacy","legacy","0","uniform","1","undefined","undefined","undefined","1","f","0","0","0","0","102","0","0","0","102","0","98","102","98","0","98","3","102","0","102","Fri Feb 19 13:05:16 2021","The main experiment item","yes","Lexical_Decision_Task.osexp","C:/CaL","no","Andale Mono","no","18","no","white","no","yes","576","legacy","98","98","3","C:/CaL/subject-5206282.csv","legacy","Lentiform Loewenfeld","3.3.7","yes","yes","600bd7cfb6416f0113b04181","602110864497cf011d9c0822","0","f","NA","space","j","space","space","f","520","NA","2753","53217","943","3173","520","2","legacy","1024","2","48000","-16","task","5206282","even","NA","66946","71703","68948","256350","4234","58401","57455","256852","165940","256346","256852","256211","71703","257374","65241","255711","4227","232109","Lexical Decision Task","94","64529","103","yes","1024"
"2.996511672","0","7","hoil","non-word","91.34615384615384","91.34615384615384","627.0096153846154","627.0096153846154","black","no","legacy","legacy","legacy","0","uniform","1","undefined","undefined","undefined","1","f","0","0","0","0","103","0","0","0","103","0","99","103","99","0","99","3","103","0","103","Fri Feb 19 13:05:16 2021","The main experiment item","yes","Lexical_Decision_Task.osexp","C:/CaL","no","Andale Mono","no","18","no","white","no","yes","576","legacy","99","99","3","C:/CaL/subject-5206282.csv","legacy","Lentiform Loewenfeld","3.3.7","yes","yes","600bd7cfb6416f0113b04181","602110864497cf011d9c0822","0","f","NA","space","j","space","space","f","680","NA","2753","53217","943","3173","680","2","legacy","1024","2","48000","-16","task","5206282","even","NA","66946","71703","68948","258014","4234","58401","57455","258516","165940","258010","258516","257884","71703","259199","65241","257384","4227","232109","Lexical Decision Task","95","65209","104","yes","1024"
