"Log_BG","Log_Freq_HAL","Ortho_N","Stimulus","Type","acc","accuracy","average_response_time","avg_rt","background","bidi","canvas_backend","clock_backend","color_backend","compensation","coordinates","correct","correct_Experimental_intro","correct_Introduction","correct_Practice_intro","correct_experimenter_kb","correct_response","count_End_Of_Experiment","count_End_Of_Practice","count_Experimental_Loop","count_Experimental_intro","count_Fixation","count_Introduction","count_Practice_Loop","count_Practice_intro","count_Stimulus","count_block_break_feedback","count_experimental_sequence","count_experimenter_kb","count_increment_trial_count","count_init_trial_count","count_logger","count_practice_sequence","count_right","count_task","count_wrong","datetime","description","disable_garbage_collection","experiment_file","experiment_path","font_bold","font_family","font_italic","font_size","font_underline","foreground","form_clicks","fullscreen","height","keyboard_backend","live_row","live_row_Experimental_Loop","live_row_Practice_Loop","logfile","mouse_backend","opensesame_codename","opensesame_version","osf_always_upload_data","osf_always_upload_experiment","osf_datanode_id","osf_id","repeat_cycle","response","response_End_Of_Experiment","response_Experimental_intro","response_Introduction","response_Practice_intro","response_block_break_feedback","response_experimenter_kb","response_time","response_time_End_Of_Experiment","response_time_Experimental_intro","response_time_Introduction","response_time_Practice_intro","response_time_block_break_feedback","response_time_experimenter_kb","round_decimals","sampler_backend","sound_buf_size","sound_channels","sound_freq","sound_sample_size","start","subject_nr","subject_parity","time_End_Of_Experiment","time_End_Of_Practice","time_Experimental_Loop","time_Experimental_intro","time_Fixation","time_Introduction","time_Practice_Loop","time_Practice_intro","time_Stimulus","time_block_break_feedback","time_experimental_sequence","time_experimenter_kb","time_increment_trial_count","time_init_trial_count","time_logger","time_practice_sequence","time_right","time_task","time_wrong","title","total_correct","total_response_time","total_responses","uniform_coordinates","width"
"2.69019608","9.01","2","myth","word","80","80","1786.8","1786.8","black","no","legacy","legacy","legacy","0","uniform","1","undefined","undefined","undefined","1","j","0","0","0","0","4","0","0","0","4","NA","0","4","0","0","0","3","4","0","4","Thu Feb 18 12:36:50 2021","The main experiment item","yes","Lexical_Decision_Task.osexp","D:/Cameron Folder/OpenSesame/Assignment","no","Andale Mono","no","18","no","white","no","yes","576","legacy","0","0","3","D:/Cameron Folder/OpenSesame/Assignment/subject-5202104.csv","legacy","Lentiform Loewenfeld","3.3.7","yes","yes","600bd7cfb6416f0113b04181","602110864497cf011d9c0822","0","j","NA","space","space","space","NA","j","934","NA","4685","25140","9770","NA","934","2","legacy","1024","2","48000","-16","task","5202104","even","NA","50044","56730","52044","56761","1903","36815","27044","57261","NA","56760","57262","NA","56730","58197","47971","49529","1900","40390","Lexical Decision Task","4","8934","5","yes","1024"
"3.14849993","10.75","7","hour","word","83.33333333333333","83.33333333333333","1588","1588","black","no","legacy","legacy","legacy","0","uniform","1","undefined","undefined","undefined","1","j","0","0","0","0","5","0","0","0","5","NA","1","5","1","0","1","3","5","0","5","Thu Feb 18 12:36:50 2021","The main experiment item","yes","Lexical_Decision_Task.osexp","D:/Cameron Folder/OpenSesame/Assignment","no","Andale Mono","no","18","no","white","no","yes","576","legacy","1","1","3","D:/Cameron Folder/OpenSesame/Assignment/subject-5202104.csv","legacy","Lentiform Loewenfeld","3.3.7","yes","yes","600bd7cfb6416f0113b04181","602110864497cf011d9c0822","0","j","NA","space","space","space","NA","j","594","NA","4685","25140","9770","NA","594","2","legacy","1024","2","48000","-16","task","5202104","even","NA","50044","56730","52044","58805","1903","36815","27044","59305","NA","58804","59306","58738","56730","59900","47971","58238","1900","40390","Lexical Decision Task","5","9528","6","yes","1024"
"2.68604012","0","3","mulb","non-word","85.71428571428571","85.71428571428571","1454.4285714285713","1454.4285714285713","black","no","legacy","legacy","legacy","0","uniform","1","undefined","undefined","undefined","1","f","0","0","0","0","6","0","0","0","6","NA","2","6","2","0","2","3","6","0","6","Thu Feb 18 12:36:50 2021","The main experiment item","yes","Lexical_Decision_Task.osexp","D:/Cameron Folder/OpenSesame/Assignment","no","Andale Mono","no","18","no","white","no","yes","576","legacy","2","2","3","D:/Cameron Folder/OpenSesame/Assignment/subject-5202104.csv","legacy","Lentiform Loewenfeld","3.3.7","yes","yes","600bd7cfb6416f0113b04181","602110864497cf011d9c0822","0","f","NA","space","space","space","NA","f","653","NA","4685","25140","9770","NA","653","2","legacy","1024","2","48000","-16","task","5202104","even","NA","50044","56730","52044","60466","1903","36815","27044","60966","NA","60465","60967","60422","56730","61620","47971","59922","1900","40390","Lexical Decision Task","6","10181","7","yes","1024"
"2.799799878","0","4","ciff","non-word","87.5","87.5","1348.25","1348.25","black","no","legacy","legacy","legacy","0","uniform","1","undefined","undefined","undefined","1","f","0","0","0","0","7","0","0","0","7","NA","3","7","3","0","3","3","7","0","7","Thu Feb 18 12:36:50 2021","The main experiment item","yes","Lexical_Decision_Task.osexp","D:/Cameron Folder/OpenSesame/Assignment","no","Andale Mono","no","18","no","white","no","yes","576","legacy","3","3","3","D:/Cameron Folder/OpenSesame/Assignment/subject-5202104.csv","legacy","Lentiform Loewenfeld","3.3.7","yes","yes","600bd7cfb6416f0113b04181","602110864497cf011d9c0822","0","f","NA","space","space","space","NA","f","605","NA","4685","25140","9770","NA","605","2","legacy","1024","2","48000","-16","task","5202104","even","NA","50044","56730","52044","62183","1903","36815","27044","62683","NA","62182","62683","62139","56730","63288","47971","61639","1900","40390","Lexical Decision Task","7","10786","8","yes","1024"
"3.208978517","10.33","4","fish","word","88.88888888888889","88.88888888888889","1255.2222222222222","1255.2222222222222","black","no","legacy","legacy","legacy","0","uniform","1","undefined","undefined","undefined","1","j","0","0","0","0","8","0","0","0","8","NA","4","8","4","0","4","3","8","0","8","Thu Feb 18 12:36:50 2021","The main experiment item","yes","Lexical_Decision_Task.osexp","D:/Cameron Folder/OpenSesame/Assignment","no","Andale Mono","no","18","no","white","no","yes","576","legacy","4","4","3","D:/Cameron Folder/OpenSesame/Assignment/subject-5202104.csv","legacy","Lentiform Loewenfeld","3.3.7","yes","yes","600bd7cfb6416f0113b04181","602110864497cf011d9c0822","0","j","NA","space","space","space","NA","j","511","NA","4685","25140","9770","NA","511","2","legacy","1024","2","48000","-16","task","5202104","even","NA","50044","56730","52044","63854","1903","36815","27044","64354","NA","63853","64355","63811","56730","64866","47971","63311","1900","40390","Lexical Decision Task","8","11297","9","yes","1024"
"2.714888338","0","3","brug","non-word","90","90","1201.5","1201.5","black","no","legacy","legacy","legacy","0","uniform","1","undefined","undefined","undefined","1","f","0","0","0","0","9","0","0","0","9","NA","5","9","5","0","5","3","9","0","9","Thu Feb 18 12:36:50 2021","The main experiment item","yes","Lexical_Decision_Task.osexp","D:/Cameron Folder/OpenSesame/Assignment","no","Andale Mono","no","18","no","white","no","yes","576","legacy","5","5","3","D:/Cameron Folder/OpenSesame/Assignment/subject-5202104.csv","legacy","Lentiform Loewenfeld","3.3.7","yes","yes","600bd7cfb6416f0113b04181","602110864497cf011d9c0822","0","f","NA","space","space","space","NA","f","718","NA","4685","25140","9770","NA","718","2","legacy","1024","2","48000","-16","task","5202104","even","NA","50044","56730","52044","65432","1903","36815","27044","65932","NA","65431","65932","65390","56730","66650","47971","64890","1900","40390","Lexical Decision Task","9","12015","10","yes","1024"
"3.159867847","5.98","5","brim","word","90.9090909090909","90.9090909090909","1161.8181818181818","1161.8181818181818","black","no","legacy","legacy","legacy","0","uniform","1","undefined","undefined","undefined","1","j","0","0","0","0","10","0","0","0","10","NA","6","10","6","0","6","3","10","0","10","Thu Feb 18 12:36:50 2021","The main experiment item","yes","Lexical_Decision_Task.osexp","D:/Cameron Folder/OpenSesame/Assignment","no","Andale Mono","no","18","no","white","no","yes","576","legacy","6","6","3","D:/Cameron Folder/OpenSesame/Assignment/subject-5202104.csv","legacy","Lentiform Loewenfeld","3.3.7","yes","yes","600bd7cfb6416f0113b04181","602110864497cf011d9c0822","0","j","NA","space","space","space","NA","j","765","NA","4685","25140","9770","NA","765","2","legacy","1024","2","48000","-16","task","5202104","even","NA","50044","56730","52044","67214","1903","36815","27044","67714","NA","67213","67714","67171","56730","68480","47971","66671","1900","40390","Lexical Decision Task","10","12780","11","yes","1024"
"2.696644658","5.78","2","yolk","word","91.66666666666667","91.66666666666667","1113","1113","black","no","legacy","legacy","legacy","0","uniform","1","undefined","undefined","undefined","1","j","0","0","0","0","11","0","0","0","11","NA","7","11","7","0","7","3","11","0","11","Thu Feb 18 12:36:50 2021","The main experiment item","yes","Lexical_Decision_Task.osexp","D:/Cameron Folder/OpenSesame/Assignment","no","Andale Mono","no","18","no","white","no","yes","576","legacy","7","7","3","D:/Cameron Folder/OpenSesame/Assignment/subject-5202104.csv","legacy","Lentiform Loewenfeld","3.3.7","yes","yes","600bd7cfb6416f0113b04181","602110864497cf011d9c0822","0","j","NA","space","space","space","NA","j","576","NA","4685","25140","9770","NA","576","2","legacy","1024","2","48000","-16","task","5202104","even","NA","50044","56730","52044","69042","1903","36815","27044","69542","NA","69041","69543","69000","56730","70120","47971","68500","1900","40390","Lexical Decision Task","11","13356","12","yes","1024"
"3.316948329","0","1","besc","non-word","92.3076923076923","92.3076923076923","1070","1070","black","no","legacy","legacy","legacy","0","uniform","1","undefined","undefined","undefined","1","f","0","0","0","0","12","0","0","0","12","NA","8","12","8","0","8","3","12","0","12","Thu Feb 18 12:36:50 2021","The main experiment item","yes","Lexical_Decision_Task.osexp","D:/Cameron Folder/OpenSesame/Assignment","no","Andale Mono","no","18","no","white","no","yes","576","legacy","8","8","3","D:/Cameron Folder/OpenSesame/Assignment/subject-5202104.csv","legacy","Lentiform Loewenfeld","3.3.7","yes","yes","600bd7cfb6416f0113b04181","602110864497cf011d9c0822","0","f","NA","space","space","space","NA","f","554","NA","4685","25140","9770","NA","554","2","legacy","1024","2","48000","-16","task","5202104","even","NA","50044","56730","52044","70680","1903","36815","27044","71180","NA","70679","71180","70638","56730","71734","47971","70138","1900","40390","Lexical Decision Task","12","13910","13","yes","1024"
"2.898725182","0","7","turl","non-word","92.85714285714286","92.85714285714286","1039.9285714285713","1039.9285714285713","black","no","legacy","legacy","legacy","0","uniform","1","undefined","undefined","undefined","1","f","0","0","0","0","13","0","0","0","13","NA","9","13","9","0","9","3","13","0","13","Thu Feb 18 12:36:50 2021","The main experiment item","yes","Lexical_Decision_Task.osexp","D:/Cameron Folder/OpenSesame/Assignment","no","Andale Mono","no","18","no","white","no","yes","576","legacy","9","9","3","D:/Cameron Folder/OpenSesame/Assignment/subject-5202104.csv","legacy","Lentiform Loewenfeld","3.3.7","yes","yes","600bd7cfb6416f0113b04181","602110864497cf011d9c0822","0","f","NA","space","space","space","NA","f","649","NA","4685","25140","9770","NA","649","2","legacy","1024","2","48000","-16","task","5202104","even","NA","50044","56730","52044","72302","1903","36815","27044","72802","NA","72301","72803","72259","56730","73452","47971","71759","1900","40390","Lexical Decision Task","13","14559","14","yes","1024"
"2.86332286","6.71","2","feud","word","93.33333333333333","93.33333333333333","1019.1333333333333","1019.1333333333333","black","no","legacy","legacy","legacy","0","uniform","1","undefined","undefined","undefined","1","j","0","0","0","0","14","0","0","0","14","NA","10","14","10","0","10","3","14","0","14","Thu Feb 18 12:36:50 2021","The main experiment item","yes","Lexical_Decision_Task.osexp","D:/Cameron Folder/OpenSesame/Assignment","no","Andale Mono","no","18","no","white","no","yes","576","legacy","10","10","3","D:/Cameron Folder/OpenSesame/Assignment/subject-5202104.csv","legacy","Lentiform Loewenfeld","3.3.7","yes","yes","600bd7cfb6416f0113b04181","602110864497cf011d9c0822","0","j","NA","space","space","space","NA","j","728","NA","4685","25140","9770","NA","728","2","legacy","1024","2","48000","-16","task","5202104","even","NA","50044","56730","52044","74018","1903","36815","27044","74518","NA","74017","74518","73974","56730","75246","47971","73474","1900","40390","Lexical Decision Task","14","15287","15","yes","1024"
"2.819763221","0","2","durp","non-word","87.5","87.5","1057.125","1057.125","black","no","legacy","legacy","legacy","0","uniform","0","undefined","undefined","undefined","0","f","0","0","0","0","15","0","0","0","15","NA","11","15","11","0","11","3","15","0","15","Thu Feb 18 12:36:50 2021","The main experiment item","yes","Lexical_Decision_Task.osexp","D:/Cameron Folder/OpenSesame/Assignment","no","Andale Mono","no","18","no","white","no","yes","576","legacy","11","11","3","D:/Cameron Folder/OpenSesame/Assignment/subject-5202104.csv","legacy","Lentiform Loewenfeld","3.3.7","yes","yes","600bd7cfb6416f0113b04181","602110864497cf011d9c0822","0","j","NA","space","space","space","NA","j","1627","NA","4685","25140","9770","NA","1627","2","legacy","1024","2","48000","-16","task","5202104","even","NA","50044","56730","52044","75812","1903","36815","27044","76312","NA","75810","76313","75769","56730","77940","47971","75269","1900","40390","Lexical Decision Task","14","16914","16","yes","1024"
"2.809559715","8.44","4","volt","word","88.23529411764706","88.23529411764706","1058.2941176470588","1058.2941176470588","black","no","legacy","legacy","legacy","0","uniform","1","undefined","undefined","undefined","1","j","0","0","0","0","16","0","0","0","16","NA","12","16","12","0","12","3","16","0","16","Thu Feb 18 12:36:50 2021","The main experiment item","yes","Lexical_Decision_Task.osexp","D:/Cameron Folder/OpenSesame/Assignment","no","Andale Mono","no","18","no","white","no","yes","576","legacy","12","12","3","D:/Cameron Folder/OpenSesame/Assignment/subject-5202104.csv","legacy","Lentiform Loewenfeld","3.3.7","yes","yes","600bd7cfb6416f0113b04181","602110864497cf011d9c0822","0","j","NA","space","space","space","NA","j","1077","NA","4685","25140","9770","NA","1077","2","legacy","1024","2","48000","-16","task","5202104","even","NA","50044","56730","52044","79500","1903","36815","27044","80000","NA","79499","80001","79458","56730","81079","47971","75269","1900","77958","Lexical Decision Task","15","17991","17","yes","1024"
"3.397302518","7.01","2","knit","word","88.88888888888889","88.88888888888889","1034.1666666666667","1034.1666666666667","black","no","legacy","legacy","legacy","0","uniform","1","undefined","undefined","undefined","1","j","0","0","0","0","17","0","0","0","17","NA","13","17","13","0","13","3","17","0","17","Thu Feb 18 12:36:50 2021","The main experiment item","yes","Lexical_Decision_Task.osexp","D:/Cameron Folder/OpenSesame/Assignment","no","Andale Mono","no","18","no","white","no","yes","576","legacy","13","13","3","D:/Cameron Folder/OpenSesame/Assignment/subject-5202104.csv","legacy","Lentiform Loewenfeld","3.3.7","yes","yes","600bd7cfb6416f0113b04181","602110864497cf011d9c0822","0","j","NA","space","space","space","NA","j","624","NA","4685","25140","9770","NA","624","2","legacy","1024","2","48000","-16","task","5202104","even","NA","50044","56730","52044","81646","1903","36815","27044","82146","NA","81645","82147","81602","56730","82772","47971","81102","1900","77958","Lexical Decision Task","16","18615","18","yes","1024"
"3.145920145","8.51","8","flew","word","89.47368421052632","89.47368421052632","1009.2631578947369","1009.2631578947369","black","no","legacy","legacy","legacy","0","uniform","1","undefined","undefined","undefined","1","j","0","0","0","0","18","0","0","0","18","NA","14","18","14","0","14","3","18","0","18","Thu Feb 18 12:36:50 2021","The main experiment item","yes","Lexical_Decision_Task.osexp","D:/Cameron Folder/OpenSesame/Assignment","no","Andale Mono","no","18","no","white","no","yes","576","legacy","14","14","3","D:/Cameron Folder/OpenSesame/Assignment/subject-5202104.csv","legacy","Lentiform Loewenfeld","3.3.7","yes","yes","600bd7cfb6416f0113b04181","602110864497cf011d9c0822","0","j","NA","space","space","space","NA","j","561","NA","4685","25140","9770","NA","561","2","legacy","1024","2","48000","-16","task","5202104","even","NA","50044","56730","52044","83341","1903","36815","27044","83841","NA","83340","83842","83298","56730","84404","47971","82797","1900","77958","Lexical Decision Task","17","19176","19","yes","1024"
"3.209246849","0","7","slem","non-word","90","90","989.3","989.3","black","no","legacy","legacy","legacy","0","uniform","1","undefined","undefined","undefined","1","f","0","0","0","0","19","0","0","0","19","NA","15","19","15","0","15","3","19","0","19","Thu Feb 18 12:36:50 2021","The main experiment item","yes","Lexical_Decision_Task.osexp","D:/Cameron Folder/OpenSesame/Assignment","no","Andale Mono","no","18","no","white","no","yes","576","legacy","15","15","3","D:/Cameron Folder/OpenSesame/Assignment/subject-5202104.csv","legacy","Lentiform Loewenfeld","3.3.7","yes","yes","600bd7cfb6416f0113b04181","602110864497cf011d9c0822","0","f","NA","space","space","space","NA","f","610","NA","4685","25140","9770","NA","610","2","legacy","1024","2","48000","-16","task","5202104","even","NA","50044","56730","52044","84971","1903","36815","27044","85471","NA","84970","85472","84928","56730","86082","47971","84428","1900","77958","Lexical Decision Task","18","19786","20","yes","1024"
"3.443783828","7.65","3","verb","word","90.47619047619048","90.47619047619048","968.4285714285714","968.4285714285714","black","no","legacy","legacy","legacy","0","uniform","1","undefined","undefined","undefined","1","j","0","0","0","0","20","0","0","0","20","NA","16","20","16","0","16","3","20","0","20","Thu Feb 18 12:36:50 2021","The main experiment item","yes","Lexical_Decision_Task.osexp","D:/Cameron Folder/OpenSesame/Assignment","no","Andale Mono","no","18","no","white","no","yes","576","legacy","16","16","3","D:/Cameron Folder/OpenSesame/Assignment/subject-5202104.csv","legacy","Lentiform Loewenfeld","3.3.7","yes","yes","600bd7cfb6416f0113b04181","602110864497cf011d9c0822","0","j","NA","space","space","space","NA","j","551","NA","4685","25140","9770","NA","551","2","legacy","1024","2","48000","-16","task","5202104","even","NA","50044","56730","52044","86645","1903","36815","27044","87145","NA","86644","87146","86603","56730","87698","47971","86103","1900","77958","Lexical Decision Task","19","20337","21","yes","1024"
"2.983324025","9.56","2","debt","word","90.9090909090909","90.9090909090909","952.8636363636364","952.8636363636364","black","no","legacy","legacy","legacy","0","uniform","1","undefined","undefined","undefined","1","j","0","0","0","0","21","0","0","0","21","NA","17","21","17","0","17","3","21","0","21","Thu Feb 18 12:36:50 2021","The main experiment item","yes","Lexical_Decision_Task.osexp","D:/Cameron Folder/OpenSesame/Assignment","no","Andale Mono","no","18","no","white","no","yes","576","legacy","17","17","3","D:/Cameron Folder/OpenSesame/Assignment/subject-5202104.csv","legacy","Lentiform Loewenfeld","3.3.7","yes","yes","600bd7cfb6416f0113b04181","602110864497cf011d9c0822","0","j","NA","space","space","space","NA","j","626","NA","4685","25140","9770","NA","626","2","legacy","1024","2","48000","-16","task","5202104","even","NA","50044","56730","52044","88263","1903","36815","27044","88763","NA","88262","88764","88221","56730","89391","47971","87721","1900","77958","Lexical Decision Task","20","20963","22","yes","1024"
"3.120025233","0","2","nyst","non-word","91.30434782608695","91.30434782608695","940.3913043478261","940.3913043478261","black","no","legacy","legacy","legacy","0","uniform","1","undefined","undefined","undefined","1","f","0","0","0","0","22","0","0","0","22","NA","18","22","18","0","18","3","22","0","22","Thu Feb 18 12:36:50 2021","The main experiment item","yes","Lexical_Decision_Task.osexp","D:/Cameron Folder/OpenSesame/Assignment","no","Andale Mono","no","18","no","white","no","yes","576","legacy","18","18","3","D:/Cameron Folder/OpenSesame/Assignment/subject-5202104.csv","legacy","Lentiform Loewenfeld","3.3.7","yes","yes","600bd7cfb6416f0113b04181","602110864497cf011d9c0822","0","f","NA","space","space","space","NA","f","666","NA","4685","25140","9770","NA","666","2","legacy","1024","2","48000","-16","task","5202104","even","NA","50044","56730","52044","89983","1903","36815","27044","90483","NA","89981","90484","89941","56730","91150","47971","89441","1900","77958","Lexical Decision Task","21","21629","23","yes","1024"
"3.311895072","0","9","gung","non-word","91.66666666666667","91.66666666666667","925.5","925.5","black","no","legacy","legacy","legacy","0","uniform","1","undefined","undefined","undefined","1","f","0","0","0","0","23","0","0","0","23","NA","19","23","19","0","19","3","23","0","23","Thu Feb 18 12:36:50 2021","The main experiment item","yes","Lexical_Decision_Task.osexp","D:/Cameron Folder/OpenSesame/Assignment","no","Andale Mono","no","18","no","white","no","yes","576","legacy","19","19","3","D:/Cameron Folder/OpenSesame/Assignment/subject-5202104.csv","legacy","Lentiform Loewenfeld","3.3.7","yes","yes","600bd7cfb6416f0113b04181","602110864497cf011d9c0822","0","f","NA","space","space","space","NA","f","583","NA","4685","25140","9770","NA","583","2","legacy","1024","2","48000","-16","task","5202104","even","NA","50044","56730","52044","91715","1903","36815","27044","92215","NA","91714","92215","91672","56730","92798","47971","91171","1900","77958","Lexical Decision Task","22","22212","24","yes","1024"
"3.384413096","10.15","3","glad","word","92","92","911.4","911.4","black","no","legacy","legacy","legacy","0","uniform","1","undefined","undefined","undefined","1","j","0","0","0","0","24","0","0","0","24","NA","20","24","20","0","20","3","24","0","24","Thu Feb 18 12:36:50 2021","The main experiment item","yes","Lexical_Decision_Task.osexp","D:/Cameron Folder/OpenSesame/Assignment","no","Andale Mono","no","18","no","white","no","yes","576","legacy","20","20","3","D:/Cameron Folder/OpenSesame/Assignment/subject-5202104.csv","legacy","Lentiform Loewenfeld","3.3.7","yes","yes","600bd7cfb6416f0113b04181","602110864497cf011d9c0822","0","j","NA","space","space","space","NA","j","573","NA","4685","25140","9770","NA","573","2","legacy","1024","2","48000","-16","task","5202104","even","NA","50044","56730","52044","93360","1903","36815","27044","93860","NA","93359","93861","93318","56730","94435","47971","92818","1900","77958","Lexical Decision Task","23","22785","25","yes","1024"
"3.20871002","7.15","8","cram","word","92.3076923076923","92.3076923076923","896.7692307692307","896.7692307692307","black","no","legacy","legacy","legacy","0","uniform","1","undefined","undefined","undefined","1","j","0","0","0","0","25","0","0","0","25","NA","21","25","21","0","21","3","25","0","25","Thu Feb 18 12:36:50 2021","The main experiment item","yes","Lexical_Decision_Task.osexp","D:/Cameron Folder/OpenSesame/Assignment","no","Andale Mono","no","18","no","white","no","yes","576","legacy","21","21","3","D:/Cameron Folder/OpenSesame/Assignment/subject-5202104.csv","legacy","Lentiform Loewenfeld","3.3.7","yes","yes","600bd7cfb6416f0113b04181","602110864497cf011d9c0822","0","j","NA","space","space","space","NA","j","531","NA","4685","25140","9770","NA","531","2","legacy","1024","2","48000","-16","task","5202104","even","NA","50044","56730","52044","95000","1903","36815","27044","95500","NA","94999","95501","94957","56730","96032","47971","94457","1900","77958","Lexical Decision Task","24","23316","26","yes","1024"
"3.153104174","10.89","6","door","word","92.5925925925926","92.5925925925926","883","883","black","no","legacy","legacy","legacy","0","uniform","1","undefined","undefined","undefined","1","j","0","0","0","0","26","0","0","0","26","NA","22","26","22","0","22","3","26","0","26","Thu Feb 18 12:36:50 2021","The main experiment item","yes","Lexical_Decision_Task.osexp","D:/Cameron Folder/OpenSesame/Assignment","no","Andale Mono","no","18","no","white","no","yes","576","legacy","22","22","3","D:/Cameron Folder/OpenSesame/Assignment/subject-5202104.csv","legacy","Lentiform Loewenfeld","3.3.7","yes","yes","600bd7cfb6416f0113b04181","602110864497cf011d9c0822","0","j","NA","space","space","space","NA","j","525","NA","4685","25140","9770","NA","525","2","legacy","1024","2","48000","-16","task","5202104","even","NA","50044","56730","52044","96600","1903","36815","27044","97100","NA","96599","97101","96557","56730","97626","47971","96057","1900","77958","Lexical Decision Task","25","23841","27","yes","1024"
"2.95456409","0","4","taud","non-word","92.85714285714286","92.85714285714286","877.4285714285714","877.4285714285714","black","no","legacy","legacy","legacy","0","uniform","1","undefined","undefined","undefined","1","f","0","0","0","0","27","0","0","0","27","NA","23","27","23","0","23","3","27","0","27","Thu Feb 18 12:36:50 2021","The main experiment item","yes","Lexical_Decision_Task.osexp","D:/Cameron Folder/OpenSesame/Assignment","no","Andale Mono","no","18","no","white","no","yes","576","legacy","23","23","3","D:/Cameron Folder/OpenSesame/Assignment/subject-5202104.csv","legacy","Lentiform Loewenfeld","3.3.7","yes","yes","600bd7cfb6416f0113b04181","602110864497cf011d9c0822","0","f","NA","space","space","space","NA","f","727","NA","4685","25140","9770","NA","727","2","legacy","1024","2","48000","-16","task","5202104","even","NA","50044","56730","52044","98188","1903","36815","27044","98688","NA","98186","98689","98144","56730","99417","47971","97644","1900","77958","Lexical Decision Task","26","24568","28","yes","1024"
"3.134602053","0","8","jart","non-word","93.10344827586206","93.10344827586206","870.8965517241379","870.8965517241379","black","no","legacy","legacy","legacy","0","uniform","1","undefined","undefined","undefined","1","f","0","0","0","0","28","0","0","0","28","NA","24","28","24","0","24","3","28","0","28","Thu Feb 18 12:36:50 2021","The main experiment item","yes","Lexical_Decision_Task.osexp","D:/Cameron Folder/OpenSesame/Assignment","no","Andale Mono","no","18","no","white","no","yes","576","legacy","24","24","3","D:/Cameron Folder/OpenSesame/Assignment/subject-5202104.csv","legacy","Lentiform Loewenfeld","3.3.7","yes","yes","600bd7cfb6416f0113b04181","602110864497cf011d9c0822","0","f","NA","space","space","space","NA","f","688","NA","4685","25140","9770","NA","688","2","legacy","1024","2","48000","-16","task","5202104","even","NA","50044","56730","52044","99985","1903","36815","27044","100485","NA","99984","100486","99942","56730","101175","47971","99442","1900","77958","Lexical Decision Task","27","25256","29","yes","1024"
"3.218535505","7.85","7","goat","word","93.33333333333333","93.33333333333333","859.9666666666667","859.9666666666667","black","no","legacy","legacy","legacy","0","uniform","1","undefined","undefined","undefined","1","j","0","0","0","0","29","0","0","0","29","NA","25","29","25","0","25","3","29","0","29","Thu Feb 18 12:36:50 2021","The main experiment item","yes","Lexical_Decision_Task.osexp","D:/Cameron Folder/OpenSesame/Assignment","no","Andale Mono","no","18","no","white","no","yes","576","legacy","25","25","3","D:/Cameron Folder/OpenSesame/Assignment/subject-5202104.csv","legacy","Lentiform Loewenfeld","3.3.7","yes","yes","600bd7cfb6416f0113b04181","602110864497cf011d9c0822","0","j","NA","space","space","space","NA","j","543","NA","4685","25140","9770","NA","543","2","legacy","1024","2","48000","-16","task","5202104","even","NA","50044","56730","52044","101744","1903","36815","27044","102244","NA","101743","102245","101701","56730","102788","47971","101201","1900","77958","Lexical Decision Task","28","25799","30","yes","1024"
"2.839268497","0","8","maft","non-word","93.54838709677419","93.54838709677419","851.0645161290323","851.0645161290323","black","no","legacy","legacy","legacy","0","uniform","1","undefined","undefined","undefined","1","f","0","0","0","0","30","0","0","0","30","NA","26","30","26","0","26","3","30","0","30","Thu Feb 18 12:36:50 2021","The main experiment item","yes","Lexical_Decision_Task.osexp","D:/Cameron Folder/OpenSesame/Assignment","no","Andale Mono","no","18","no","white","no","yes","576","legacy","26","26","3","D:/Cameron Folder/OpenSesame/Assignment/subject-5202104.csv","legacy","Lentiform Loewenfeld","3.3.7","yes","yes","600bd7cfb6416f0113b04181","602110864497cf011d9c0822","0","f","NA","space","space","space","NA","f","584","NA","4685","25140","9770","NA","584","2","legacy","1024","2","48000","-16","task","5202104","even","NA","50044","56730","52044","103353","1903","36815","27044","103853","NA","103352","103854","103310","56730","104438","47971","102810","1900","77958","Lexical Decision Task","29","26383","31","yes","1024"
"3.216517684","10.87","3","film","word","93.75","93.75","842.09375","842.09375","black","no","legacy","legacy","legacy","0","uniform","1","undefined","undefined","undefined","1","j","0","0","0","0","31","0","0","0","31","NA","27","31","27","0","27","3","31","0","31","Thu Feb 18 12:36:50 2021","The main experiment item","yes","Lexical_Decision_Task.osexp","D:/Cameron Folder/OpenSesame/Assignment","no","Andale Mono","no","18","no","white","no","yes","576","legacy","27","27","3","D:/Cameron Folder/OpenSesame/Assignment/subject-5202104.csv","legacy","Lentiform Loewenfeld","3.3.7","yes","yes","600bd7cfb6416f0113b04181","602110864497cf011d9c0822","0","j","NA","space","space","space","NA","j","564","NA","4685","25140","9770","NA","564","2","legacy","1024","2","48000","-16","task","5202104","even","NA","50044","56730","52044","105002","1903","36815","27044","105502","NA","105001","105503","104960","56730","106068","47971","104460","1900","77958","Lexical Decision Task","30","26947","32","yes","1024"
"3.168400243","9.12","6","horn","word","93.93939393939394","93.93939393939394","834.4545454545455","834.4545454545455","black","no","legacy","legacy","legacy","0","uniform","1","undefined","undefined","undefined","1","j","0","0","0","0","32","0","0","0","32","NA","28","32","28","0","28","3","32","0","32","Thu Feb 18 12:36:50 2021","The main experiment item","yes","Lexical_Decision_Task.osexp","D:/Cameron Folder/OpenSesame/Assignment","no","Andale Mono","no","18","no","white","no","yes","576","legacy","28","28","3","D:/Cameron Folder/OpenSesame/Assignment/subject-5202104.csv","legacy","Lentiform Loewenfeld","3.3.7","yes","yes","600bd7cfb6416f0113b04181","602110864497cf011d9c0822","0","j","NA","space","space","space","NA","j","590","NA","4685","25140","9770","NA","590","2","legacy","1024","2","48000","-16","task","5202104","even","NA","50044","56730","52044","106637","1903","36815","27044","107137","NA","106636","107138","106595","56730","107729","47971","106095","1900","77958","Lexical Decision Task","31","27537","33","yes","1024"
"2.843025032","0","9","pusk","non-word","94.11764705882354","94.11764705882354","828.5294117647059","828.5294117647059","black","no","legacy","legacy","legacy","0","uniform","1","undefined","undefined","undefined","1","f","0","0","0","0","33","0","0","0","33","NA","29","33","29","0","29","3","33","0","33","Thu Feb 18 12:36:50 2021","The main experiment item","yes","Lexical_Decision_Task.osexp","D:/Cameron Folder/OpenSesame/Assignment","no","Andale Mono","no","18","no","white","no","yes","576","legacy","29","29","3","D:/Cameron Folder/OpenSesame/Assignment/subject-5202104.csv","legacy","Lentiform Loewenfeld","3.3.7","yes","yes","600bd7cfb6416f0113b04181","602110864497cf011d9c0822","0","f","NA","space","space","space","NA","f","633","NA","4685","25140","9770","NA","633","2","legacy","1024","2","48000","-16","task","5202104","even","NA","50044","56730","52044","108290","1903","36815","27044","108790","NA","108289","108791","108248","56730","109424","47971","107748","1900","77958","Lexical Decision Task","32","28170","34","yes","1024"
"3.366547468","0","6","plat","non-word","94.28571428571429","94.28571428571429","829.6","829.6","black","no","legacy","legacy","legacy","0","uniform","1","undefined","undefined","undefined","1","f","0","0","0","0","34","0","0","0","34","NA","30","34","30","0","30","3","34","0","34","Thu Feb 18 12:36:50 2021","The main experiment item","yes","Lexical_Decision_Task.osexp","D:/Cameron Folder/OpenSesame/Assignment","no","Andale Mono","no","18","no","white","no","yes","576","legacy","30","30","3","D:/Cameron Folder/OpenSesame/Assignment/subject-5202104.csv","legacy","Lentiform Loewenfeld","3.3.7","yes","yes","600bd7cfb6416f0113b04181","602110864497cf011d9c0822","0","f","NA","space","space","space","NA","f","866","NA","4685","25140","9770","NA","866","2","legacy","1024","2","48000","-16","task","5202104","even","NA","50044","56730","52044","109987","1903","36815","27044","110487","NA","109986","110488","109945","56730","111355","47971","109445","1900","77958","Lexical Decision Task","33","29036","35","yes","1024"
"2.719886232","7.98","2","quiz","word","94.44444444444444","94.44444444444444","822.3055555555555","822.3055555555555","black","no","legacy","legacy","legacy","0","uniform","1","undefined","undefined","undefined","1","j","0","0","0","0","35","0","0","0","35","NA","31","35","31","0","31","3","35","0","35","Thu Feb 18 12:36:50 2021","The main experiment item","yes","Lexical_Decision_Task.osexp","D:/Cameron Folder/OpenSesame/Assignment","no","Andale Mono","no","18","no","white","no","yes","576","legacy","31","31","3","D:/Cameron Folder/OpenSesame/Assignment/subject-5202104.csv","legacy","Lentiform Loewenfeld","3.3.7","yes","yes","600bd7cfb6416f0113b04181","602110864497cf011d9c0822","0","j","NA","space","space","space","NA","j","567","NA","4685","25140","9770","NA","567","2","legacy","1024","2","48000","-16","task","5202104","even","NA","50044","56730","52044","111924","1903","36815","27044","112424","NA","111923","112425","111879","56730","112992","47971","111379","1900","77958","Lexical Decision Task","34","29603","36","yes","1024"
"2.803231716","5.26","3","kiln","word","91.89189189189189","91.89189189189189","816.1621621621622","816.1621621621622","black","no","legacy","legacy","legacy","0","uniform","0","undefined","undefined","undefined","0","j","0","0","0","0","36","0","0","0","36","NA","32","36","32","0","32","3","36","0","36","Thu Feb 18 12:36:50 2021","The main experiment item","yes","Lexical_Decision_Task.osexp","D:/Cameron Folder/OpenSesame/Assignment","no","Andale Mono","no","18","no","white","no","yes","576","legacy","32","32","3","D:/Cameron Folder/OpenSesame/Assignment/subject-5202104.csv","legacy","Lentiform Loewenfeld","3.3.7","yes","yes","600bd7cfb6416f0113b04181","602110864497cf011d9c0822","0","f","NA","space","space","space","NA","f","595","NA","4685","25140","9770","NA","595","2","legacy","1024","2","48000","-16","task","5202104","even","NA","50044","56730","52044","113558","1903","36815","27044","114058","NA","113557","114058","113517","56730","114654","47971","113017","1900","77958","Lexical Decision Task","34","30198","37","yes","1024"
"2.794720352","0","9","koot","non-word","92.10526315789474","92.10526315789474","819.1842105263158","819.1842105263158","black","no","legacy","legacy","legacy","0","uniform","1","undefined","undefined","undefined","1","f","0","0","0","0","37","0","0","0","37","NA","33","37","33","0","33","3","37","0","37","Thu Feb 18 12:36:50 2021","The main experiment item","yes","Lexical_Decision_Task.osexp","D:/Cameron Folder/OpenSesame/Assignment","no","Andale Mono","no","18","no","white","no","yes","576","legacy","33","33","3","D:/Cameron Folder/OpenSesame/Assignment/subject-5202104.csv","legacy","Lentiform Loewenfeld","3.3.7","yes","yes","600bd7cfb6416f0113b04181","602110864497cf011d9c0822","0","f","NA","space","space","space","NA","f","931","NA","4685","25140","9770","NA","931","2","legacy","1024","2","48000","-16","task","5202104","even","NA","50044","56730","52044","116222","1903","36815","27044","116722","NA","116221","116723","116181","56730","117654","47971","113017","1900","114681","Lexical Decision Task","35","31129","38","yes","1024"
"2.80048796","0","8","pife","non-word","92.3076923076923","92.3076923076923","816.2051282051282","816.2051282051282","black","no","legacy","legacy","legacy","0","uniform","1","undefined","undefined","undefined","1","f","0","0","0","0","38","0","0","0","38","NA","34","38","34","0","34","3","38","0","38","Thu Feb 18 12:36:50 2021","The main experiment item","yes","Lexical_Decision_Task.osexp","D:/Cameron Folder/OpenSesame/Assignment","no","Andale Mono","no","18","no","white","no","yes","576","legacy","34","34","3","D:/Cameron Folder/OpenSesame/Assignment/subject-5202104.csv","legacy","Lentiform Loewenfeld","3.3.7","yes","yes","600bd7cfb6416f0113b04181","602110864497cf011d9c0822","0","f","NA","space","space","space","NA","f","703","NA","4685","25140","9770","NA","703","2","legacy","1024","2","48000","-16","task","5202104","even","NA","50044","56730","52044","118220","1903","36815","27044","118720","NA","118219","118721","118177","56730","119425","47971","117677","1900","114681","Lexical Decision Task","36","31832","39","yes","1024"
"3.303771854","0","9","dath","non-word","92.5","92.5","811.775","811.775","black","no","legacy","legacy","legacy","0","uniform","1","undefined","undefined","undefined","1","f","0","0","0","0","39","0","0","0","39","NA","35","39","35","0","35","3","39","0","39","Thu Feb 18 12:36:50 2021","The main experiment item","yes","Lexical_Decision_Task.osexp","D:/Cameron Folder/OpenSesame/Assignment","no","Andale Mono","no","18","no","white","no","yes","576","legacy","35","35","3","D:/Cameron Folder/OpenSesame/Assignment/subject-5202104.csv","legacy","Lentiform Loewenfeld","3.3.7","yes","yes","600bd7cfb6416f0113b04181","602110864497cf011d9c0822","0","f","NA","space","space","space","NA","f","639","NA","4685","25140","9770","NA","639","2","legacy","1024","2","48000","-16","task","5202104","even","NA","50044","56730","52044","119991","1903","36815","27044","120492","NA","119990","120493","119950","56730","121132","47971","119449","1900","114681","Lexical Decision Task","37","32471","40","yes","1024"
"2.937852093","0","7","bamp","non-word","92.6829268292683","92.6829268292683","807.8780487804878","807.8780487804878","black","no","legacy","legacy","legacy","0","uniform","1","undefined","undefined","undefined","1","f","0","0","0","0","40","0","0","0","40","NA","36","40","36","0","36","3","40","0","40","Thu Feb 18 12:36:50 2021","The main experiment item","yes","Lexical_Decision_Task.osexp","D:/Cameron Folder/OpenSesame/Assignment","no","Andale Mono","no","18","no","white","no","yes","576","legacy","36","36","3","D:/Cameron Folder/OpenSesame/Assignment/subject-5202104.csv","legacy","Lentiform Loewenfeld","3.3.7","yes","yes","600bd7cfb6416f0113b04181","602110864497cf011d9c0822","0","f","NA","space","space","space","NA","f","652","NA","4685","25140","9770","NA","652","2","legacy","1024","2","48000","-16","task","5202104","even","NA","50044","56730","52044","121701","1903","36815","27044","122201","NA","121700","122202","121659","56730","122855","47971","121159","1900","114681","Lexical Decision Task","38","33123","41","yes","1024"
"2.812467698","0","7","hafe","non-word","92.85714285714286","92.85714285714286","801.3571428571429","801.3571428571429","black","no","legacy","legacy","legacy","0","uniform","1","undefined","undefined","undefined","1","f","0","0","0","0","41","0","0","0","41","NA","37","41","37","0","37","3","41","0","41","Thu Feb 18 12:36:50 2021","The main experiment item","yes","Lexical_Decision_Task.osexp","D:/Cameron Folder/OpenSesame/Assignment","no","Andale Mono","no","18","no","white","no","yes","576","legacy","37","37","3","D:/Cameron Folder/OpenSesame/Assignment/subject-5202104.csv","legacy","Lentiform Loewenfeld","3.3.7","yes","yes","600bd7cfb6416f0113b04181","602110864497cf011d9c0822","0","f","NA","space","space","space","NA","f","534","NA","4685","25140","9770","NA","534","2","legacy","1024","2","48000","-16","task","5202104","even","NA","50044","56730","52044","123421","1903","36815","27044","123921","NA","123420","123922","123379","56730","124456","47971","122879","1900","114681","Lexical Decision Task","39","33657","42","yes","1024"
"3.168890155","0","6","thet","non-word","93.02325581395348","93.02325581395348","795.3720930232558","795.3720930232558","black","no","legacy","legacy","legacy","0","uniform","1","undefined","undefined","undefined","1","f","0","0","0","0","42","0","0","0","42","NA","38","42","38","0","38","3","42","0","42","Thu Feb 18 12:36:50 2021","The main experiment item","yes","Lexical_Decision_Task.osexp","D:/Cameron Folder/OpenSesame/Assignment","no","Andale Mono","no","18","no","white","no","yes","576","legacy","38","38","3","D:/Cameron Folder/OpenSesame/Assignment/subject-5202104.csv","legacy","Lentiform Loewenfeld","3.3.7","yes","yes","600bd7cfb6416f0113b04181","602110864497cf011d9c0822","0","f","NA","space","space","space","NA","f","544","NA","4685","25140","9770","NA","544","2","legacy","1024","2","48000","-16","task","5202104","even","NA","50044","56730","52044","125019","1903","36815","27044","125520","NA","125018","125520","124976","56730","126064","47971","124476","1900","114681","Lexical Decision Task","40","34201","43","yes","1024"
"2.996511672","0","7","hoil","non-word","90.9090909090909","90.9090909090909","789.6818181818181","789.6818181818181","black","no","legacy","legacy","legacy","0","uniform","0","undefined","undefined","undefined","0","f","0","0","0","0","43","0","0","0","43","NA","39","43","39","0","39","3","43","0","43","Thu Feb 18 12:36:50 2021","The main experiment item","yes","Lexical_Decision_Task.osexp","D:/Cameron Folder/OpenSesame/Assignment","no","Andale Mono","no","18","no","white","no","yes","576","legacy","39","39","3","D:/Cameron Folder/OpenSesame/Assignment/subject-5202104.csv","legacy","Lentiform Loewenfeld","3.3.7","yes","yes","600bd7cfb6416f0113b04181","602110864497cf011d9c0822","0","j","NA","space","space","space","NA","j","545","NA","4685","25140","9770","NA","545","2","legacy","1024","2","48000","-16","task","5202104","even","NA","50044","56730","52044","126628","1903","36815","27044","127128","NA","126627","127129","126586","56730","127675","47971","126086","1900","114681","Lexical Decision Task","40","34746","44","yes","1024"
"2.953276337","6.32","4","thaw","word","91.11111111111111","91.11111111111111","786.9555555555555","786.9555555555555","black","no","legacy","legacy","legacy","0","uniform","1","undefined","undefined","undefined","1","j","0","0","0","0","44","0","0","0","44","NA","40","44","40","0","40","3","44","0","44","Thu Feb 18 12:36:50 2021","The main experiment item","yes","Lexical_Decision_Task.osexp","D:/Cameron Folder/OpenSesame/Assignment","no","Andale Mono","no","18","no","white","no","yes","576","legacy","40","40","3","D:/Cameron Folder/OpenSesame/Assignment/subject-5202104.csv","legacy","Lentiform Loewenfeld","3.3.7","yes","yes","600bd7cfb6416f0113b04181","602110864497cf011d9c0822","0","j","NA","space","space","space","NA","j","667","NA","4685","25140","9770","NA","667","2","legacy","1024","2","48000","-16","task","5202104","even","NA","50044","56730","52044","129236","1903","36815","27044","129736","NA","129234","129737","129194","56730","130405","47971","126086","1900","127694","Lexical Decision Task","41","35413","45","yes","1024"
"3.062080345","0","6","tomp","non-word","91.30434782608695","91.30434782608695","783.7826086956521","783.7826086956521","black","no","legacy","legacy","legacy","0","uniform","1","undefined","undefined","undefined","1","f","0","0","0","0","45","0","0","0","45","NA","41","45","41","0","41","3","45","0","45","Thu Feb 18 12:36:50 2021","The main experiment item","yes","Lexical_Decision_Task.osexp","D:/Cameron Folder/OpenSesame/Assignment","no","Andale Mono","no","18","no","white","no","yes","576","legacy","41","41","3","D:/Cameron Folder/OpenSesame/Assignment/subject-5202104.csv","legacy","Lentiform Loewenfeld","3.3.7","yes","yes","600bd7cfb6416f0113b04181","602110864497cf011d9c0822","0","f","NA","space","space","space","NA","f","641","NA","4685","25140","9770","NA","641","2","legacy","1024","2","48000","-16","task","5202104","even","NA","50044","56730","52044","130972","1903","36815","27044","131472","NA","130971","131473","130929","56730","132114","47971","130429","1900","127694","Lexical Decision Task","42","36054","46","yes","1024"
"3.225825991","0","7","talm","non-word","91.48936170212765","91.48936170212765","781.1276595744681","781.1276595744681","black","no","legacy","legacy","legacy","0","uniform","1","undefined","undefined","undefined","1","f","0","0","0","0","46","0","0","0","46","NA","42","46","42","0","42","3","46","0","46","Thu Feb 18 12:36:50 2021","The main experiment item","yes","Lexical_Decision_Task.osexp","D:/Cameron Folder/OpenSesame/Assignment","no","Andale Mono","no","18","no","white","no","yes","576","legacy","42","42","3","D:/Cameron Folder/OpenSesame/Assignment/subject-5202104.csv","legacy","Lentiform Loewenfeld","3.3.7","yes","yes","600bd7cfb6416f0113b04181","602110864497cf011d9c0822","0","f","NA","space","space","space","NA","f","659","NA","4685","25140","9770","NA","659","2","legacy","1024","2","48000","-16","task","5202104","even","NA","50044","56730","52044","132679","1903","36815","27044","133179","NA","132678","133179","132637","56730","133838","47971","132137","1900","127694","Lexical Decision Task","43","36713","47","yes","1024"
"3.261341392","5.08","8","reek","word","91.66666666666667","91.66666666666667","780.0625","780.0625","black","no","legacy","legacy","legacy","0","uniform","1","undefined","undefined","undefined","1","j","0","0","0","0","47","0","0","0","47","NA","43","47","43","0","43","3","47","0","47","Thu Feb 18 12:36:50 2021","The main experiment item","yes","Lexical_Decision_Task.osexp","D:/Cameron Folder/OpenSesame/Assignment","no","Andale Mono","no","18","no","white","no","yes","576","legacy","43","43","3","D:/Cameron Folder/OpenSesame/Assignment/subject-5202104.csv","legacy","Lentiform Loewenfeld","3.3.7","yes","yes","600bd7cfb6416f0113b04181","602110864497cf011d9c0822","0","j","NA","space","space","space","NA","j","730","NA","4685","25140","9770","NA","730","2","legacy","1024","2","48000","-16","task","5202104","even","NA","50044","56730","52044","134402","1903","36815","27044","134902","NA","134401","134902","134359","56730","135632","47971","133859","1900","127694","Lexical Decision Task","44","37443","48","yes","1024"
"3.120135028","0","3","vals","non-word","91.83673469387755","91.83673469387755","779","779","black","no","legacy","legacy","legacy","0","uniform","1","undefined","undefined","undefined","1","f","0","0","0","0","48","0","0","0","48","NA","44","48","44","0","44","3","48","0","48","Thu Feb 18 12:36:50 2021","The main experiment item","yes","Lexical_Decision_Task.osexp","D:/Cameron Folder/OpenSesame/Assignment","no","Andale Mono","no","18","no","white","no","yes","576","legacy","44","44","3","D:/Cameron Folder/OpenSesame/Assignment/subject-5202104.csv","legacy","Lentiform Loewenfeld","3.3.7","yes","yes","600bd7cfb6416f0113b04181","602110864497cf011d9c0822","0","f","NA","space","space","space","NA","f","728","NA","4685","25140","9770","NA","728","2","legacy","1024","2","48000","-16","task","5202104","even","NA","50044","56730","52044","136199","1903","36815","27044","136699","NA","136198","136700","136156","56730","137429","47971","135656","1900","127694","Lexical Decision Task","45","38171","49","yes","1024"
"3.474361976","5.24","6","veer","word","92","92","790.96","790.96","black","no","legacy","legacy","legacy","0","uniform","1","undefined","undefined","undefined","1","j","0","0","0","0","49","0","0","0","49","NA","45","49","45","0","45","3","49","0","49","Thu Feb 18 12:36:50 2021","The main experiment item","yes","Lexical_Decision_Task.osexp","D:/Cameron Folder/OpenSesame/Assignment","no","Andale Mono","no","18","no","white","no","yes","576","legacy","45","45","3","D:/Cameron Folder/OpenSesame/Assignment/subject-5202104.csv","legacy","Lentiform Loewenfeld","3.3.7","yes","yes","600bd7cfb6416f0113b04181","602110864497cf011d9c0822","0","j","NA","space","space","space","NA","j","1377","NA","4685","25140","9770","NA","1377","2","legacy","1024","2","48000","-16","task","5202104","even","NA","50044","56730","52044","137990","1903","36815","27044","138490","NA","137989","138491","137948","56730","139869","47971","137448","1900","127694","Lexical Decision Task","46","39548","50","yes","1024"
"3.378276681","6.39","8","bran","word","92.15686274509804","92.15686274509804","789.0980392156863","789.0980392156863","black","no","legacy","legacy","legacy","0","uniform","1","undefined","undefined","undefined","1","j","0","0","0","0","50","0","0","0","50","NA","46","50","46","0","46","3","50","0","50","Thu Feb 18 12:36:50 2021","The main experiment item","yes","Lexical_Decision_Task.osexp","D:/Cameron Folder/OpenSesame/Assignment","no","Andale Mono","no","18","no","white","no","yes","576","legacy","46","46","3","D:/Cameron Folder/OpenSesame/Assignment/subject-5202104.csv","legacy","Lentiform Loewenfeld","3.3.7","yes","yes","600bd7cfb6416f0113b04181","602110864497cf011d9c0822","0","j","NA","space","space","space","NA","j","696","NA","4685","25140","9770","NA","696","2","legacy","1024","2","48000","-16","task","5202104","even","NA","50044","56730","52044","140433","1903","36815","27044","140933","NA","140432","140934","140391","56730","141631","47971","139890","1900","127694","Lexical Decision Task","47","40244","51","yes","1024"
"2.755364069","7.72","2","hoax","word","92.3076923076923","92.3076923076923","787.9807692307693","787.9807692307693","black","no","legacy","legacy","legacy","0","uniform","1","undefined","undefined","undefined","1","j","0","0","0","0","51","0","0","0","51","NA","47","51","47","0","47","3","51","0","51","Thu Feb 18 12:36:50 2021","The main experiment item","yes","Lexical_Decision_Task.osexp","D:/Cameron Folder/OpenSesame/Assignment","no","Andale Mono","no","18","no","white","no","yes","576","legacy","47","47","3","D:/Cameron Folder/OpenSesame/Assignment/subject-5202104.csv","legacy","Lentiform Loewenfeld","3.3.7","yes","yes","600bd7cfb6416f0113b04181","602110864497cf011d9c0822","0","j","NA","space","space","space","NA","j","731","NA","4685","25140","9770","NA","731","2","legacy","1024","2","48000","-16","task","5202104","even","NA","50044","56730","52044","142194","1903","36815","27044","142694","NA","142193","142695","142150","56730","143427","47971","141650","1900","127694","Lexical Decision Task","48","40975","52","yes","1024"
"3.137775856","7.39","5","comb","word","92.45283018867924","92.45283018867924","783.1132075471698","783.1132075471698","black","no","legacy","legacy","legacy","0","uniform","1","undefined","undefined","undefined","1","j","0","0","0","0","52","0","0","0","52","NA","48","52","48","0","48","3","52","0","52","Thu Feb 18 12:36:50 2021","The main experiment item","yes","Lexical_Decision_Task.osexp","D:/Cameron Folder/OpenSesame/Assignment","no","Andale Mono","no","18","no","white","no","yes","576","legacy","48","48","3","D:/Cameron Folder/OpenSesame/Assignment/subject-5202104.csv","legacy","Lentiform Loewenfeld","3.3.7","yes","yes","600bd7cfb6416f0113b04181","602110864497cf011d9c0822","0","j","NA","space","space","space","NA","j","530","NA","4685","25140","9770","NA","530","2","legacy","1024","2","48000","-16","task","5202104","even","NA","50044","56730","52044","143993","1903","36815","27044","144493","NA","143992","144494","143950","56730","145025","47971","143450","1900","127694","Lexical Decision Task","49","41505","53","yes","1024"
"3.248054965","7.86","5","glow","word","92.5925925925926","92.5925925925926","777.4444444444445","777.4444444444445","black","no","legacy","legacy","legacy","0","uniform","1","undefined","undefined","undefined","1","j","0","0","0","0","53","0","0","0","53","NA","49","53","49","0","49","3","53","0","53","Thu Feb 18 12:36:50 2021","The main experiment item","yes","Lexical_Decision_Task.osexp","D:/Cameron Folder/OpenSesame/Assignment","no","Andale Mono","no","18","no","white","no","yes","576","legacy","49","49","3","D:/Cameron Folder/OpenSesame/Assignment/subject-5202104.csv","legacy","Lentiform Loewenfeld","3.3.7","yes","yes","600bd7cfb6416f0113b04181","602110864497cf011d9c0822","0","j","NA","space","space","space","NA","j","477","NA","4685","25140","9770","NA","477","2","legacy","1024","2","48000","-16","task","5202104","even","NA","50044","56730","52044","145593","1903","36815","27044","146093","NA","145592","146093","145551","56730","146571","47971","145051","1900","127694","Lexical Decision Task","50","41982","54","yes","1024"
"2.895974732","6.65","5","sift","word","92.72727272727273","92.72727272727273","794.7454545454545","794.7454545454545","black","no","legacy","legacy","legacy","0","uniform","1","undefined","undefined","undefined","1","j","0","0","0","0","54","0","0","0","54","0","50","54","50","0","50","3","54","0","54","Thu Feb 18 12:36:50 2021","The main experiment item","yes","Lexical_Decision_Task.osexp","D:/Cameron Folder/OpenSesame/Assignment","no","Andale Mono","no","18","no","white","no","yes","576","legacy","50","50","3","D:/Cameron Folder/OpenSesame/Assignment/subject-5202104.csv","legacy","Lentiform Loewenfeld","3.3.7","yes","yes","600bd7cfb6416f0113b04181","602110864497cf011d9c0822","0","j","NA","space","space","space","space","j","1729","NA","4685","25140","9770","11979","1729","2","legacy","1024","2","48000","-16","task","5202104","even","NA","50044","56730","52044","159143","1903","36815","27044","159643","147119","159142","159644","147093","56730","161374","47971","146593","1900","127694","Lexical Decision Task","51","43711","55","yes","1024"
"2.807758206","6.25","4","hurl","word","92.85714285714286","92.85714285714286","806.5892857142857","806.5892857142857","black","no","legacy","legacy","legacy","0","uniform","1","undefined","undefined","undefined","1","j","0","0","0","0","55","0","0","0","55","0","51","55","51","0","51","3","55","0","55","Thu Feb 18 12:36:50 2021","The main experiment item","yes","Lexical_Decision_Task.osexp","D:/Cameron Folder/OpenSesame/Assignment","no","Andale Mono","no","18","no","white","no","yes","576","legacy","51","51","3","D:/Cameron Folder/OpenSesame/Assignment/subject-5202104.csv","legacy","Lentiform Loewenfeld","3.3.7","yes","yes","600bd7cfb6416f0113b04181","602110864497cf011d9c0822","0","j","NA","space","space","space","space","j","1458","NA","4685","25140","9770","11979","1458","2","legacy","1024","2","48000","-16","task","5202104","even","NA","50044","56730","52044","161942","1903","36815","27044","162442","147119","161941","162443","161898","56730","163902","47971","161398","1900","127694","Lexical Decision Task","52","45169","56","yes","1024"
"3.088136089","8.32","9","worm","word","92.98245614035088","92.98245614035088","801.719298245614","801.719298245614","black","no","legacy","legacy","legacy","0","uniform","1","undefined","undefined","undefined","1","j","0","0","0","0","56","0","0","0","56","0","52","56","52","0","52","3","56","0","56","Thu Feb 18 12:36:50 2021","The main experiment item","yes","Lexical_Decision_Task.osexp","D:/Cameron Folder/OpenSesame/Assignment","no","Andale Mono","no","18","no","white","no","yes","576","legacy","52","52","3","D:/Cameron Folder/OpenSesame/Assignment/subject-5202104.csv","legacy","Lentiform Loewenfeld","3.3.7","yes","yes","600bd7cfb6416f0113b04181","602110864497cf011d9c0822","0","j","NA","space","space","space","space","j","529","NA","4685","25140","9770","11979","529","2","legacy","1024","2","48000","-16","task","5202104","even","NA","50044","56730","52044","164469","1903","36815","27044","164969","147119","164468","164970","164424","56730","165499","47971","163924","1900","127694","Lexical Decision Task","53","45698","57","yes","1024"
"2.972819734","0","4","scew","non-word","91.37931034482759","91.37931034482759","796.051724137931","796.051724137931","black","no","legacy","legacy","legacy","0","uniform","0","undefined","undefined","undefined","0","f","0","0","0","0","57","0","0","0","57","0","53","57","53","0","53","3","57","0","57","Thu Feb 18 12:36:50 2021","The main experiment item","yes","Lexical_Decision_Task.osexp","D:/Cameron Folder/OpenSesame/Assignment","no","Andale Mono","no","18","no","white","no","yes","576","legacy","53","53","3","D:/Cameron Folder/OpenSesame/Assignment/subject-5202104.csv","legacy","Lentiform Loewenfeld","3.3.7","yes","yes","600bd7cfb6416f0113b04181","602110864497cf011d9c0822","0","j","NA","space","space","space","space","j","473","NA","4685","25140","9770","11979","473","2","legacy","1024","2","48000","-16","task","5202104","even","NA","50044","56730","52044","166063","1903","36815","27044","166564","147119","166062","166564","166020","56730","167038","47971","165520","1900","127694","Lexical Decision Task","53","46171","58","yes","1024"
"3.529815197","0","3","lerm","non-word","89.83050847457628","89.83050847457628","792.3220338983051","792.3220338983051","black","no","legacy","legacy","legacy","0","uniform","0","undefined","undefined","undefined","0","f","0","0","0","0","58","0","0","0","58","0","54","58","54","0","54","3","58","0","58","Thu Feb 18 12:36:50 2021","The main experiment item","yes","Lexical_Decision_Task.osexp","D:/Cameron Folder/OpenSesame/Assignment","no","Andale Mono","no","18","no","white","no","yes","576","legacy","54","54","3","D:/Cameron Folder/OpenSesame/Assignment/subject-5202104.csv","legacy","Lentiform Loewenfeld","3.3.7","yes","yes","600bd7cfb6416f0113b04181","602110864497cf011d9c0822","0","j","NA","space","space","space","space","j","576","NA","4685","25140","9770","11979","576","2","legacy","1024","2","48000","-16","task","5202104","even","NA","50044","56730","52044","168602","1903","36815","27044","169102","147119","168600","169103","168559","56730","169680","47971","165520","1900","167058","Lexical Decision Task","53","46747","59","yes","1024"
"3.119255889","6.63","2","itch","word","90","90","791.0666666666667","791.0666666666667","black","no","legacy","legacy","legacy","0","uniform","1","undefined","undefined","undefined","1","j","0","0","0","0","59","0","0","0","59","0","55","59","55","0","55","3","59","0","59","Thu Feb 18 12:36:50 2021","The main experiment item","yes","Lexical_Decision_Task.osexp","D:/Cameron Folder/OpenSesame/Assignment","no","Andale Mono","no","18","no","white","no","yes","576","legacy","55","55","3","D:/Cameron Folder/OpenSesame/Assignment/subject-5202104.csv","legacy","Lentiform Loewenfeld","3.3.7","yes","yes","600bd7cfb6416f0113b04181","602110864497cf011d9c0822","0","j","NA","space","space","space","space","j","717","NA","4685","25140","9770","11979","717","2","legacy","1024","2","48000","-16","task","5202104","even","NA","50044","56730","52044","171245","1903","36815","27044","171745","147119","171243","171746","171202","56730","172463","47971","165520","1900","169702","Lexical Decision Task","54","47464","60","yes","1024"
"3.077974404","10.41","8","tool","word","90.1639344262295","90.1639344262295","787.0983606557377","787.0983606557377","black","no","legacy","legacy","legacy","0","uniform","1","undefined","undefined","undefined","1","j","0","0","0","0","60","0","0","0","60","0","56","60","56","0","56","3","60","0","60","Thu Feb 18 12:36:50 2021","The main experiment item","yes","Lexical_Decision_Task.osexp","D:/Cameron Folder/OpenSesame/Assignment","no","Andale Mono","no","18","no","white","no","yes","576","legacy","56","56","3","D:/Cameron Folder/OpenSesame/Assignment/subject-5202104.csv","legacy","Lentiform Loewenfeld","3.3.7","yes","yes","600bd7cfb6416f0113b04181","602110864497cf011d9c0822","0","j","NA","space","space","space","space","j","549","NA","4685","25140","9770","11979","549","2","legacy","1024","2","48000","-16","task","5202104","even","NA","50044","56730","52044","173023","1903","36815","27044","173523","147119","173022","173524","172981","56730","174074","47971","172481","1900","169702","Lexical Decision Task","55","48013","61","yes","1024"
"2.695481676","0","7","goke","non-word","90.3225806451613","90.3225806451613","785.0645161290323","785.0645161290323","black","no","legacy","legacy","legacy","0","uniform","1","undefined","undefined","undefined","1","f","0","0","0","0","61","0","0","0","61","0","57","61","57","0","57","3","61","0","61","Thu Feb 18 12:36:50 2021","The main experiment item","yes","Lexical_Decision_Task.osexp","D:/Cameron Folder/OpenSesame/Assignment","no","Andale Mono","no","18","no","white","no","yes","576","legacy","57","57","3","D:/Cameron Folder/OpenSesame/Assignment/subject-5202104.csv","legacy","Lentiform Loewenfeld","3.3.7","yes","yes","600bd7cfb6416f0113b04181","602110864497cf011d9c0822","0","f","NA","space","space","space","space","f","661","NA","4685","25140","9770","11979","661","2","legacy","1024","2","48000","-16","task","5202104","even","NA","50044","56730","52044","174639","1903","36815","27044","175139","147119","174638","175140","174595","56730","175801","47971","174095","1900","169702","Lexical Decision Task","56","48674","62","yes","1024"
"2.594027722","9.08","8","skip","word","90.47619047619048","90.47619047619048","782.1269841269841","782.1269841269841","black","no","legacy","legacy","legacy","0","uniform","1","undefined","undefined","undefined","1","j","0","0","0","0","62","0","0","0","62","0","58","62","58","0","58","3","62","0","62","Thu Feb 18 12:36:50 2021","The main experiment item","yes","Lexical_Decision_Task.osexp","D:/Cameron Folder/OpenSesame/Assignment","no","Andale Mono","no","18","no","white","no","yes","576","legacy","58","58","3","D:/Cameron Folder/OpenSesame/Assignment/subject-5202104.csv","legacy","Lentiform Loewenfeld","3.3.7","yes","yes","600bd7cfb6416f0113b04181","602110864497cf011d9c0822","0","j","NA","space","space","space","space","j","600","NA","4685","25140","9770","11979","600","2","legacy","1024","2","48000","-16","task","5202104","even","NA","50044","56730","52044","176368","1903","36815","27044","176868","147119","176367","176869","176324","56730","177470","47971","175824","1900","169702","Lexical Decision Task","57","49274","63","yes","1024"
"2.771097306","0","9","jold","non-word","90.625","90.625","780.171875","780.171875","black","no","legacy","legacy","legacy","0","uniform","1","undefined","undefined","undefined","1","f","0","0","0","0","63","0","0","0","63","0","59","63","59","0","59","3","63","0","63","Thu Feb 18 12:36:50 2021","The main experiment item","yes","Lexical_Decision_Task.osexp","D:/Cameron Folder/OpenSesame/Assignment","no","Andale Mono","no","18","no","white","no","yes","576","legacy","59","59","3","D:/Cameron Folder/OpenSesame/Assignment/subject-5202104.csv","legacy","Lentiform Loewenfeld","3.3.7","yes","yes","600bd7cfb6416f0113b04181","602110864497cf011d9c0822","0","f","NA","space","space","space","space","f","657","NA","4685","25140","9770","11979","657","2","legacy","1024","2","48000","-16","task","5202104","even","NA","50044","56730","52044","178032","1903","36815","27044","178532","147119","178031","178532","177988","56730","179189","47971","177488","1900","169702","Lexical Decision Task","58","49931","64","yes","1024"
"3.2757719","0","5","slea","non-word","90.76923076923077","90.76923076923077","778.4769230769231","778.4769230769231","black","no","legacy","legacy","legacy","0","uniform","1","undefined","undefined","undefined","1","f","0","0","0","0","64","0","0","0","64","0","60","64","60","0","60","3","64","0","64","Thu Feb 18 12:36:50 2021","The main experiment item","yes","Lexical_Decision_Task.osexp","D:/Cameron Folder/OpenSesame/Assignment","no","Andale Mono","no","18","no","white","no","yes","576","legacy","60","60","3","D:/Cameron Folder/OpenSesame/Assignment/subject-5202104.csv","legacy","Lentiform Loewenfeld","3.3.7","yes","yes","600bd7cfb6416f0113b04181","602110864497cf011d9c0822","0","f","NA","space","space","space","space","f","670","NA","4685","25140","9770","11979","670","2","legacy","1024","2","48000","-16","task","5202104","even","NA","50044","56730","52044","179757","1903","36815","27044","180257","147119","179756","180258","179713","56730","180929","47971","179213","1900","169702","Lexical Decision Task","59","50601","65","yes","1024"
"2.899092422","7.27","6","snag","word","90.9090909090909","90.9090909090909","777.1515151515151","777.1515151515151","black","no","legacy","legacy","legacy","0","uniform","1","undefined","undefined","undefined","1","j","0","0","0","0","65","0","0","0","65","0","61","65","61","0","61","3","65","0","65","Thu Feb 18 12:36:50 2021","The main experiment item","yes","Lexical_Decision_Task.osexp","D:/Cameron Folder/OpenSesame/Assignment","no","Andale Mono","no","18","no","white","no","yes","576","legacy","61","61","3","D:/Cameron Folder/OpenSesame/Assignment/subject-5202104.csv","legacy","Lentiform Loewenfeld","3.3.7","yes","yes","600bd7cfb6416f0113b04181","602110864497cf011d9c0822","0","j","NA","space","space","space","space","j","691","NA","4685","25140","9770","11979","691","2","legacy","1024","2","48000","-16","task","5202104","even","NA","50044","56730","52044","181495","1903","36815","27044","181995","147119","181494","181996","181451","56730","182688","47971","180951","1900","169702","Lexical Decision Task","60","51292","66","yes","1024"
"2.990042563","6.64","9","plow","word","91.04477611940298","91.04477611940298","774.2089552238806","774.2089552238806","black","no","legacy","legacy","legacy","0","uniform","1","undefined","undefined","undefined","1","j","0","0","0","0","66","0","0","0","66","0","62","66","62","0","62","3","66","0","66","Thu Feb 18 12:36:50 2021","The main experiment item","yes","Lexical_Decision_Task.osexp","D:/Cameron Folder/OpenSesame/Assignment","no","Andale Mono","no","18","no","white","no","yes","576","legacy","62","62","3","D:/Cameron Folder/OpenSesame/Assignment/subject-5202104.csv","legacy","Lentiform Loewenfeld","3.3.7","yes","yes","600bd7cfb6416f0113b04181","602110864497cf011d9c0822","0","j","NA","space","space","space","space","j","580","NA","4685","25140","9770","11979","580","2","legacy","1024","2","48000","-16","task","5202104","even","NA","50044","56730","52044","183250","1903","36815","27044","183750","147119","183249","183751","183206","56730","184332","47971","182706","1900","169702","Lexical Decision Task","61","51872","67","yes","1024"
"2.782472624","10.55","2","huge","word","91.17647058823529","91.17647058823529","771","771","black","no","legacy","legacy","legacy","0","uniform","1","undefined","undefined","undefined","1","j","0","0","0","0","67","0","0","0","67","0","63","67","63","0","63","3","67","0","67","Thu Feb 18 12:36:50 2021","The main experiment item","yes","Lexical_Decision_Task.osexp","D:/Cameron Folder/OpenSesame/Assignment","no","Andale Mono","no","18","no","white","no","yes","576","legacy","63","63","3","D:/Cameron Folder/OpenSesame/Assignment/subject-5202104.csv","legacy","Lentiform Loewenfeld","3.3.7","yes","yes","600bd7cfb6416f0113b04181","602110864497cf011d9c0822","0","j","NA","space","space","space","space","j","556","NA","4685","25140","9770","11979","556","2","legacy","1024","2","48000","-16","task","5202104","even","NA","50044","56730","52044","184894","1903","36815","27044","185394","147119","184893","185395","184852","56730","185951","47971","184352","1900","169702","Lexical Decision Task","62","52428","68","yes","1024"
"3.1430148","7.92","8","bald","word","91.30434782608695","91.30434782608695","768.463768115942","768.463768115942","black","no","legacy","legacy","legacy","0","uniform","1","undefined","undefined","undefined","1","j","0","0","0","0","68","0","0","0","68","0","64","68","64","0","64","3","68","0","68","Thu Feb 18 12:36:50 2021","The main experiment item","yes","Lexical_Decision_Task.osexp","D:/Cameron Folder/OpenSesame/Assignment","no","Andale Mono","no","18","no","white","no","yes","576","legacy","64","64","3","D:/Cameron Folder/OpenSesame/Assignment/subject-5202104.csv","legacy","Lentiform Loewenfeld","3.3.7","yes","yes","600bd7cfb6416f0113b04181","602110864497cf011d9c0822","0","j","NA","space","space","space","space","j","596","NA","4685","25140","9770","11979","596","2","legacy","1024","2","48000","-16","task","5202104","even","NA","50044","56730","52044","186517","1903","36815","27044","187017","147119","186516","187018","186474","56730","187615","47971","185974","1900","169702","Lexical Decision Task","63","53024","69","yes","1024"
"2.693726949","5.08","3","swig","word","91.42857142857143","91.42857142857143","766.8","766.8","black","no","legacy","legacy","legacy","0","uniform","1","undefined","undefined","undefined","1","j","0","0","0","0","69","0","0","0","69","0","65","69","65","0","65","3","69","0","69","Thu Feb 18 12:36:50 2021","The main experiment item","yes","Lexical_Decision_Task.osexp","D:/Cameron Folder/OpenSesame/Assignment","no","Andale Mono","no","18","no","white","no","yes","576","legacy","65","65","3","D:/Cameron Folder/OpenSesame/Assignment/subject-5202104.csv","legacy","Lentiform Loewenfeld","3.3.7","yes","yes","600bd7cfb6416f0113b04181","602110864497cf011d9c0822","0","j","NA","space","space","space","space","j","652","NA","4685","25140","9770","11979","652","2","legacy","1024","2","48000","-16","task","5202104","even","NA","50044","56730","52044","188186","1903","36815","27044","188686","147119","188184","188687","188142","56730","189340","47971","187642","1900","169702","Lexical Decision Task","64","53676","70","yes","1024"
"3.299579929","0","2","flis","non-word","91.54929577464789","91.54929577464789","763.1549295774648","763.1549295774648","black","no","legacy","legacy","legacy","0","uniform","1","undefined","undefined","undefined","1","f","0","0","0","0","70","0","0","0","70","0","66","70","66","0","66","3","70","0","70","Thu Feb 18 12:36:50 2021","The main experiment item","yes","Lexical_Decision_Task.osexp","D:/Cameron Folder/OpenSesame/Assignment","no","Andale Mono","no","18","no","white","no","yes","576","legacy","66","66","3","D:/Cameron Folder/OpenSesame/Assignment/subject-5202104.csv","legacy","Lentiform Loewenfeld","3.3.7","yes","yes","600bd7cfb6416f0113b04181","602110864497cf011d9c0822","0","f","NA","space","space","space","space","f","508","NA","4685","25140","9770","11979","508","2","legacy","1024","2","48000","-16","task","5202104","even","NA","50044","56730","52044","189904","1903","36815","27044","190404","147119","189903","190405","189862","56730","190913","47971","189362","1900","169702","Lexical Decision Task","65","54184","71","yes","1024"
"3.492014979","0","9","yine","non-word","91.66666666666667","91.66666666666667","759.0138888888889","759.0138888888889","black","no","legacy","legacy","legacy","0","uniform","1","undefined","undefined","undefined","1","f","0","0","0","0","71","0","0","0","71","0","67","71","67","0","67","3","71","0","71","Thu Feb 18 12:36:50 2021","The main experiment item","yes","Lexical_Decision_Task.osexp","D:/Cameron Folder/OpenSesame/Assignment","no","Andale Mono","no","18","no","white","no","yes","576","legacy","67","67","3","D:/Cameron Folder/OpenSesame/Assignment/subject-5202104.csv","legacy","Lentiform Loewenfeld","3.3.7","yes","yes","600bd7cfb6416f0113b04181","602110864497cf011d9c0822","0","f","NA","space","space","space","space","f","465","NA","4685","25140","9770","11979","465","2","legacy","1024","2","48000","-16","task","5202104","even","NA","50044","56730","52044","191477","1903","36815","27044","191977","147119","191476","191978","191435","56730","192443","47971","190935","1900","169702","Lexical Decision Task","66","54649","72","yes","1024"
"3.067193647","6.73","6","raft","word","91.78082191780823","91.78082191780823","759.7808219178082","759.7808219178082","black","no","legacy","legacy","legacy","0","uniform","1","undefined","undefined","undefined","1","j","0","0","0","0","72","0","0","0","72","0","68","72","68","0","68","3","72","0","72","Thu Feb 18 12:36:50 2021","The main experiment item","yes","Lexical_Decision_Task.osexp","D:/Cameron Folder/OpenSesame/Assignment","no","Andale Mono","no","18","no","white","no","yes","576","legacy","68","68","3","D:/Cameron Folder/OpenSesame/Assignment/subject-5202104.csv","legacy","Lentiform Loewenfeld","3.3.7","yes","yes","600bd7cfb6416f0113b04181","602110864497cf011d9c0822","0","j","NA","space","space","space","space","j","815","NA","4685","25140","9770","11979","815","2","legacy","1024","2","48000","-16","task","5202104","even","NA","50044","56730","52044","193006","1903","36815","27044","193506","147119","193005","193506","192964","56730","194322","47971","192464","1900","169702","Lexical Decision Task","67","55464","73","yes","1024"
"3.091901331","0","9","nipe","non-word","91.89189189189189","91.89189189189189","760","760","black","no","legacy","legacy","legacy","0","uniform","1","undefined","undefined","undefined","1","f","0","0","0","0","73","0","0","0","73","0","69","73","69","0","69","3","73","0","73","Thu Feb 18 12:36:50 2021","The main experiment item","yes","Lexical_Decision_Task.osexp","D:/Cameron Folder/OpenSesame/Assignment","no","Andale Mono","no","18","no","white","no","yes","576","legacy","69","69","3","D:/Cameron Folder/OpenSesame/Assignment/subject-5202104.csv","legacy","Lentiform Loewenfeld","3.3.7","yes","yes","600bd7cfb6416f0113b04181","602110864497cf011d9c0822","0","f","NA","space","space","space","space","f","776","NA","4685","25140","9770","11979","776","2","legacy","1024","2","48000","-16","task","5202104","even","NA","50044","56730","52044","194887","1903","36815","27044","195387","147119","194886","195387","194845","56730","196163","47971","194344","1900","169702","Lexical Decision Task","68","56240","74","yes","1024"
"3.031812271","6.52","3","gulp","word","92","92","757.6666666666666","757.6666666666666","black","no","legacy","legacy","legacy","0","uniform","1","undefined","undefined","undefined","1","j","0","0","0","0","74","0","0","0","74","0","70","74","70","0","70","3","74","0","74","Thu Feb 18 12:36:50 2021","The main experiment item","yes","Lexical_Decision_Task.osexp","D:/Cameron Folder/OpenSesame/Assignment","no","Andale Mono","no","18","no","white","no","yes","576","legacy","70","70","3","D:/Cameron Folder/OpenSesame/Assignment/subject-5202104.csv","legacy","Lentiform Loewenfeld","3.3.7","yes","yes","600bd7cfb6416f0113b04181","602110864497cf011d9c0822","0","j","NA","space","space","space","space","j","585","NA","4685","25140","9770","11979","585","2","legacy","1024","2","48000","-16","task","5202104","even","NA","50044","56730","52044","196723","1903","36815","27044","197223","147119","196722","197224","196681","56730","197810","47971","196181","1900","169702","Lexical Decision Task","69","56825","75","yes","1024"
"3.16326079","0","5","parg","non-word","92.10526315789474","92.10526315789474","756.4473684210526","756.4473684210526","black","no","legacy","legacy","legacy","0","uniform","1","undefined","undefined","undefined","1","f","0","0","0","0","75","0","0","0","75","0","71","75","71","0","71","3","75","0","75","Thu Feb 18 12:36:50 2021","The main experiment item","yes","Lexical_Decision_Task.osexp","D:/Cameron Folder/OpenSesame/Assignment","no","Andale Mono","no","18","no","white","no","yes","576","legacy","71","71","3","D:/Cameron Folder/OpenSesame/Assignment/subject-5202104.csv","legacy","Lentiform Loewenfeld","3.3.7","yes","yes","600bd7cfb6416f0113b04181","602110864497cf011d9c0822","0","f","NA","space","space","space","space","f","665","NA","4685","25140","9770","11979","665","2","legacy","1024","2","48000","-16","task","5202104","even","NA","50044","56730","52044","198371","1903","36815","27044","198871","147119","198370","198872","198329","56730","199537","47971","197829","1900","169702","Lexical Decision Task","70","57490","76","yes","1024"
"2.668385917","5.48","4","twig","word","92.20779220779221","92.20779220779221","754.3506493506494","754.3506493506494","black","no","legacy","legacy","legacy","0","uniform","1","undefined","undefined","undefined","1","j","0","0","0","0","76","0","0","0","76","0","72","76","72","0","72","3","76","0","76","Thu Feb 18 12:36:50 2021","The main experiment item","yes","Lexical_Decision_Task.osexp","D:/Cameron Folder/OpenSesame/Assignment","no","Andale Mono","no","18","no","white","no","yes","576","legacy","72","72","3","D:/Cameron Folder/OpenSesame/Assignment/subject-5202104.csv","legacy","Lentiform Loewenfeld","3.3.7","yes","yes","600bd7cfb6416f0113b04181","602110864497cf011d9c0822","0","j","NA","space","space","space","space","j","595","NA","4685","25140","9770","11979","595","2","legacy","1024","2","48000","-16","task","5202104","even","NA","50044","56730","52044","200101","1903","36815","27044","200602","147119","200100","200602","200058","56730","201198","47971","199558","1900","169702","Lexical Decision Task","71","58085","77","yes","1024"
"3.307211407","6.07","7","honk","word","92.3076923076923","92.3076923076923","753.2307692307693","753.2307692307693","black","no","legacy","legacy","legacy","0","uniform","1","undefined","undefined","undefined","1","j","0","0","0","0","77","0","0","0","77","0","73","77","73","0","73","3","77","0","77","Thu Feb 18 12:36:50 2021","The main experiment item","yes","Lexical_Decision_Task.osexp","D:/Cameron Folder/OpenSesame/Assignment","no","Andale Mono","no","18","no","white","no","yes","576","legacy","73","73","3","D:/Cameron Folder/OpenSesame/Assignment/subject-5202104.csv","legacy","Lentiform Loewenfeld","3.3.7","yes","yes","600bd7cfb6416f0113b04181","602110864497cf011d9c0822","0","j","NA","space","space","space","space","j","667","NA","4685","25140","9770","11979","667","2","legacy","1024","2","48000","-16","task","5202104","even","NA","50044","56730","52044","201759","1903","36815","27044","202259","147119","201758","202260","201717","56730","202928","47971","201217","1900","169702","Lexical Decision Task","72","58752","78","yes","1024"
"2.695770526","7.34","6","pawn","word","92.40506329113924","92.40506329113924","751.7594936708861","751.7594936708861","black","no","legacy","legacy","legacy","0","uniform","1","undefined","undefined","undefined","1","j","0","0","0","0","78","0","0","0","78","0","74","78","74","0","74","3","78","0","78","Thu Feb 18 12:36:50 2021","The main experiment item","yes","Lexical_Decision_Task.osexp","D:/Cameron Folder/OpenSesame/Assignment","no","Andale Mono","no","18","no","white","no","yes","576","legacy","74","74","3","D:/Cameron Folder/OpenSesame/Assignment/subject-5202104.csv","legacy","Lentiform Loewenfeld","3.3.7","yes","yes","600bd7cfb6416f0113b04181","602110864497cf011d9c0822","0","j","NA","space","space","space","space","j","637","NA","4685","25140","9770","11979","637","2","legacy","1024","2","48000","-16","task","5202104","even","NA","50044","56730","52044","203489","1903","36815","27044","203989","147119","203488","203990","203447","56730","204628","47971","202947","1900","169702","Lexical Decision Task","73","59389","79","yes","1024"
"2.64476673","0","5","moft","non-word","92.5","92.5","752.8625","752.8625","black","no","legacy","legacy","legacy","0","uniform","1","undefined","undefined","undefined","1","f","0","0","0","0","79","0","0","0","79","0","75","79","75","0","75","3","79","0","79","Thu Feb 18 12:36:50 2021","The main experiment item","yes","Lexical_Decision_Task.osexp","D:/Cameron Folder/OpenSesame/Assignment","no","Andale Mono","no","18","no","white","no","yes","576","legacy","75","75","3","D:/Cameron Folder/OpenSesame/Assignment/subject-5202104.csv","legacy","Lentiform Loewenfeld","3.3.7","yes","yes","600bd7cfb6416f0113b04181","602110864497cf011d9c0822","0","f","NA","space","space","space","space","f","840","NA","4685","25140","9770","11979","840","2","legacy","1024","2","48000","-16","task","5202104","even","NA","50044","56730","52044","205191","1903","36815","27044","205691","147119","205190","205692","205149","56730","206533","47971","204649","1900","169702","Lexical Decision Task","74","60229","80","yes","1024"
"2.728085817","10.02","9","bike","word","92.5925925925926","92.5925925925926","750.0123456790124","750.0123456790124","black","no","legacy","legacy","legacy","0","uniform","1","undefined","undefined","undefined","1","j","0","0","0","0","80","0","0","0","80","0","76","80","76","0","76","3","80","0","80","Thu Feb 18 12:36:50 2021","The main experiment item","yes","Lexical_Decision_Task.osexp","D:/Cameron Folder/OpenSesame/Assignment","no","Andale Mono","no","18","no","white","no","yes","576","legacy","76","76","3","D:/Cameron Folder/OpenSesame/Assignment/subject-5202104.csv","legacy","Lentiform Loewenfeld","3.3.7","yes","yes","600bd7cfb6416f0113b04181","602110864497cf011d9c0822","0","j","NA","space","space","space","space","j","522","NA","4685","25140","9770","11979","522","2","legacy","1024","2","48000","-16","task","5202104","even","NA","50044","56730","52044","207096","1903","36815","27044","207597","147119","207095","207597","207053","56730","208119","47971","206553","1900","169702","Lexical Decision Task","75","60751","81","yes","1024"
"2.971428938","9.86","7","spot","word","92.6829268292683","92.6829268292683","746.890243902439","746.890243902439","black","no","legacy","legacy","legacy","0","uniform","1","undefined","undefined","undefined","1","j","0","0","0","0","81","0","0","0","81","0","77","81","77","0","77","3","81","0","81","Thu Feb 18 12:36:50 2021","The main experiment item","yes","Lexical_Decision_Task.osexp","D:/Cameron Folder/OpenSesame/Assignment","no","Andale Mono","no","18","no","white","no","yes","576","legacy","77","77","3","D:/Cameron Folder/OpenSesame/Assignment/subject-5202104.csv","legacy","Lentiform Loewenfeld","3.3.7","yes","yes","600bd7cfb6416f0113b04181","602110864497cf011d9c0822","0","j","NA","space","space","space","space","j","494","NA","4685","25140","9770","11979","494","2","legacy","1024","2","48000","-16","task","5202104","even","NA","50044","56730","52044","208684","1903","36815","27044","209184","147119","208683","209184","208641","56730","209679","47971","208141","1900","169702","Lexical Decision Task","76","61245","82","yes","1024"
"2.986323777","10.85","8","ship","word","92.7710843373494","92.7710843373494","744.9277108433735","744.9277108433735","black","no","legacy","legacy","legacy","0","uniform","1","undefined","undefined","undefined","1","j","0","0","0","0","82","0","0","0","82","0","78","82","78","0","78","3","82","0","82","Thu Feb 18 12:36:50 2021","The main experiment item","yes","Lexical_Decision_Task.osexp","D:/Cameron Folder/OpenSesame/Assignment","no","Andale Mono","no","18","no","white","no","yes","576","legacy","78","78","3","D:/Cameron Folder/OpenSesame/Assignment/subject-5202104.csv","legacy","Lentiform Loewenfeld","3.3.7","yes","yes","600bd7cfb6416f0113b04181","602110864497cf011d9c0822","0","j","NA","space","space","space","space","j","584","NA","4685","25140","9770","11979","584","2","legacy","1024","2","48000","-16","task","5202104","even","NA","50044","56730","52044","210242","1903","36815","27044","210742","147119","210241","210743","210200","56730","211327","47971","209700","1900","169702","Lexical Decision Task","77","61829","83","yes","1024"
"2.6599162","0","2","saff","non-word","92.85714285714286","92.85714285714286","744.5","744.5","black","no","legacy","legacy","legacy","0","uniform","1","undefined","undefined","undefined","1","f","0","0","0","0","83","0","0","0","83","0","79","83","79","0","79","3","83","0","83","Thu Feb 18 12:36:50 2021","The main experiment item","yes","Lexical_Decision_Task.osexp","D:/Cameron Folder/OpenSesame/Assignment","no","Andale Mono","no","18","no","white","no","yes","576","legacy","79","79","3","D:/Cameron Folder/OpenSesame/Assignment/subject-5202104.csv","legacy","Lentiform Loewenfeld","3.3.7","yes","yes","600bd7cfb6416f0113b04181","602110864497cf011d9c0822","0","f","NA","space","space","space","space","f","709","NA","4685","25140","9770","11979","709","2","legacy","1024","2","48000","-16","task","5202104","even","NA","50044","56730","52044","211888","1903","36815","27044","212388","147119","211887","212388","211846","56730","213097","47971","211346","1900","169702","Lexical Decision Task","78","62538","84","yes","1024"
"3.274157849","0","8","leet","non-word","92.94117647058823","92.94117647058823","748.1294117647059","748.1294117647059","black","no","legacy","legacy","legacy","0","uniform","1","undefined","undefined","undefined","1","f","0","0","0","0","84","0","0","0","84","0","80","84","80","0","80","3","84","0","84","Thu Feb 18 12:36:50 2021","The main experiment item","yes","Lexical_Decision_Task.osexp","D:/Cameron Folder/OpenSesame/Assignment","no","Andale Mono","no","18","no","white","no","yes","576","legacy","80","80","3","D:/Cameron Folder/OpenSesame/Assignment/subject-5202104.csv","legacy","Lentiform Loewenfeld","3.3.7","yes","yes","600bd7cfb6416f0113b04181","602110864497cf011d9c0822","0","f","NA","space","space","space","space","f","1053","NA","4685","25140","9770","11979","1053","2","legacy","1024","2","48000","-16","task","5202104","even","NA","50044","56730","52044","213661","1903","36815","27044","214162","147119","213660","214162","213619","56730","215216","47971","213119","1900","169702","Lexical Decision Task","79","63591","85","yes","1024"
"3.259832699","0","9","flar","non-word","93.02325581395348","93.02325581395348","746.6511627906976","746.6511627906976","black","no","legacy","legacy","legacy","0","uniform","1","undefined","undefined","undefined","1","f","0","0","0","0","85","0","0","0","85","0","81","85","81","0","81","3","85","0","85","Thu Feb 18 12:36:50 2021","The main experiment item","yes","Lexical_Decision_Task.osexp","D:/Cameron Folder/OpenSesame/Assignment","no","Andale Mono","no","18","no","white","no","yes","576","legacy","81","81","3","D:/Cameron Folder/OpenSesame/Assignment/subject-5202104.csv","legacy","Lentiform Loewenfeld","3.3.7","yes","yes","600bd7cfb6416f0113b04181","602110864497cf011d9c0822","0","f","NA","space","space","space","space","f","621","NA","4685","25140","9770","11979","621","2","legacy","1024","2","48000","-16","task","5202104","even","NA","50044","56730","52044","215779","1903","36815","27044","216279","147119","215777","216280","215736","56730","216901","47971","215236","1900","169702","Lexical Decision Task","80","64212","86","yes","1024"
"2.893578687","8.69","3","surf","word","93.10344827586206","93.10344827586206","744.3448275862069","744.3448275862069","black","no","legacy","legacy","legacy","0","uniform","1","undefined","undefined","undefined","1","j","0","0","0","0","86","0","0","0","86","0","82","86","82","0","82","3","86","0","86","Thu Feb 18 12:36:50 2021","The main experiment item","yes","Lexical_Decision_Task.osexp","D:/Cameron Folder/OpenSesame/Assignment","no","Andale Mono","no","18","no","white","no","yes","576","legacy","82","82","3","D:/Cameron Folder/OpenSesame/Assignment/subject-5202104.csv","legacy","Lentiform Loewenfeld","3.3.7","yes","yes","600bd7cfb6416f0113b04181","602110864497cf011d9c0822","0","j","NA","space","space","space","space","j","546","NA","4685","25140","9770","11979","546","2","legacy","1024","2","48000","-16","task","5202104","even","NA","50044","56730","52044","217466","1903","36815","27044","217966","147119","217465","217967","217423","56730","218514","47971","216923","1900","169702","Lexical Decision Task","81","64758","87","yes","1024"
"3.049218023","7.4","9","robe","word","93.18181818181819","93.18181818181819","741.875","741.875","black","no","legacy","legacy","legacy","0","uniform","1","undefined","undefined","undefined","1","j","0","0","0","0","87","0","0","0","87","0","83","87","83","0","83","3","87","0","87","Thu Feb 18 12:36:50 2021","The main experiment item","yes","Lexical_Decision_Task.osexp","D:/Cameron Folder/OpenSesame/Assignment","no","Andale Mono","no","18","no","white","no","yes","576","legacy","83","83","3","D:/Cameron Folder/OpenSesame/Assignment/subject-5202104.csv","legacy","Lentiform Loewenfeld","3.3.7","yes","yes","600bd7cfb6416f0113b04181","602110864497cf011d9c0822","0","j","NA","space","space","space","space","j","527","NA","4685","25140","9770","11979","527","2","legacy","1024","2","48000","-16","task","5202104","even","NA","50044","56730","52044","219079","1903","36815","27044","219579","147119","219078","219580","219037","56730","220107","47971","218537","1900","169702","Lexical Decision Task","82","65285","88","yes","1024"
"2.839898939","8.99","6","soap","word","93.25842696629213","93.25842696629213","739.5056179775281","739.5056179775281","black","no","legacy","legacy","legacy","0","uniform","1","undefined","undefined","undefined","1","j","0","0","0","0","88","0","0","0","88","0","84","88","84","0","84","3","88","0","88","Thu Feb 18 12:36:50 2021","The main experiment item","yes","Lexical_Decision_Task.osexp","D:/Cameron Folder/OpenSesame/Assignment","no","Andale Mono","no","18","no","white","no","yes","576","legacy","84","84","3","D:/Cameron Folder/OpenSesame/Assignment/subject-5202104.csv","legacy","Lentiform Loewenfeld","3.3.7","yes","yes","600bd7cfb6416f0113b04181","602110864497cf011d9c0822","0","j","NA","space","space","space","space","j","531","NA","4685","25140","9770","11979","531","2","legacy","1024","2","48000","-16","task","5202104","even","NA","50044","56730","52044","220673","1903","36815","27044","221173","147119","220672","221174","220630","56730","221705","47971","220130","1900","169702","Lexical Decision Task","83","65816","89","yes","1024"
"2.845304797","0","6","buct","non-word","93.33333333333333","93.33333333333333","737.7222222222222","737.7222222222222","black","no","legacy","legacy","legacy","0","uniform","1","undefined","undefined","undefined","1","f","0","0","0","0","89","0","0","0","89","0","85","89","85","0","85","3","89","0","89","Thu Feb 18 12:36:50 2021","The main experiment item","yes","Lexical_Decision_Task.osexp","D:/Cameron Folder/OpenSesame/Assignment","no","Andale Mono","no","18","no","white","no","yes","576","legacy","85","85","3","D:/Cameron Folder/OpenSesame/Assignment/subject-5202104.csv","legacy","Lentiform Loewenfeld","3.3.7","yes","yes","600bd7cfb6416f0113b04181","602110864497cf011d9c0822","0","f","NA","space","space","space","space","f","579","NA","4685","25140","9770","11979","579","2","legacy","1024","2","48000","-16","task","5202104","even","NA","50044","56730","52044","222265","1903","36815","27044","222765","147119","222264","222766","222225","56730","223346","47971","221725","1900","169702","Lexical Decision Task","84","66395","90","yes","1024"
"2.616654026","9.37","5","gift","word","93.4065934065934","93.4065934065934","735.8461538461538","735.8461538461538","black","no","legacy","legacy","legacy","0","uniform","1","undefined","undefined","undefined","1","j","0","0","0","0","90","0","0","0","90","0","86","90","86","0","86","3","90","0","90","Thu Feb 18 12:36:50 2021","The main experiment item","yes","Lexical_Decision_Task.osexp","D:/Cameron Folder/OpenSesame/Assignment","no","Andale Mono","no","18","no","white","no","yes","576","legacy","86","86","3","D:/Cameron Folder/OpenSesame/Assignment/subject-5202104.csv","legacy","Lentiform Loewenfeld","3.3.7","yes","yes","600bd7cfb6416f0113b04181","602110864497cf011d9c0822","0","j","NA","space","space","space","space","j","567","NA","4685","25140","9770","11979","567","2","legacy","1024","2","48000","-16","task","5202104","even","NA","50044","56730","52044","223923","1903","36815","27044","224423","147119","223922","224424","223881","56730","224992","47971","223381","1900","169702","Lexical Decision Task","85","66962","91","yes","1024"
"2.709837904","6.85","8","skim","word","93.47826086956522","93.47826086956522","737.7717391304348","737.7717391304348","black","no","legacy","legacy","legacy","0","uniform","1","undefined","undefined","undefined","1","j","0","0","0","0","91","0","0","0","91","0","87","91","87","0","87","3","91","0","91","Thu Feb 18 12:36:50 2021","The main experiment item","yes","Lexical_Decision_Task.osexp","D:/Cameron Folder/OpenSesame/Assignment","no","Andale Mono","no","18","no","white","no","yes","576","legacy","87","87","3","D:/Cameron Folder/OpenSesame/Assignment/subject-5202104.csv","legacy","Lentiform Loewenfeld","3.3.7","yes","yes","600bd7cfb6416f0113b04181","602110864497cf011d9c0822","0","j","NA","space","space","space","space","j","913","NA","4685","25140","9770","11979","913","2","legacy","1024","2","48000","-16","task","5202104","even","NA","50044","56730","52044","225569","1903","36815","27044","226070","147119","225568","226070","225527","56730","226984","47971","225026","1900","169702","Lexical Decision Task","86","67875","92","yes","1024"
"2.68604012","0","4","pumb","non-word","92.47311827956989","92.47311827956989","735.8279569892474","735.8279569892474","black","no","legacy","legacy","legacy","0","uniform","0","undefined","undefined","undefined","0","f","0","0","0","0","92","0","0","0","92","0","88","92","88","0","88","3","92","0","92","Thu Feb 18 12:36:50 2021","The main experiment item","yes","Lexical_Decision_Task.osexp","D:/Cameron Folder/OpenSesame/Assignment","no","Andale Mono","no","18","no","white","no","yes","576","legacy","88","88","3","D:/Cameron Folder/OpenSesame/Assignment/subject-5202104.csv","legacy","Lentiform Loewenfeld","3.3.7","yes","yes","600bd7cfb6416f0113b04181","602110864497cf011d9c0822","0","j","NA","space","space","space","space","j","557","NA","4685","25140","9770","11979","557","2","legacy","1024","2","48000","-16","task","5202104","even","NA","50044","56730","52044","227551","1903","36815","27044","228051","147119","227550","228052","227508","56730","228609","47971","227008","1900","169702","Lexical Decision Task","86","68432","93","yes","1024"
"3.066077331","0","7","vorn","non-word","92.55319148936171","92.55319148936171","735.2021276595744","735.2021276595744","black","no","legacy","legacy","legacy","0","uniform","1","undefined","undefined","undefined","1","f","0","0","0","0","93","0","0","0","93","0","89","93","89","0","89","3","93","0","93","Thu Feb 18 12:36:50 2021","The main experiment item","yes","Lexical_Decision_Task.osexp","D:/Cameron Folder/OpenSesame/Assignment","no","Andale Mono","no","18","no","white","no","yes","576","legacy","89","89","3","D:/Cameron Folder/OpenSesame/Assignment/subject-5202104.csv","legacy","Lentiform Loewenfeld","3.3.7","yes","yes","600bd7cfb6416f0113b04181","602110864497cf011d9c0822","0","f","NA","space","space","space","space","f","677","NA","4685","25140","9770","11979","677","2","legacy","1024","2","48000","-16","task","5202104","even","NA","50044","56730","52044","230171","1903","36815","27044","230671","147119","230169","230672","230127","56730","231350","47971","227008","1900","228627","Lexical Decision Task","87","69109","94","yes","1024"
"3.028977705","0","7","frow","non-word","92.63157894736842","92.63157894736842","734.9368421052632","734.9368421052632","black","no","legacy","legacy","legacy","0","uniform","1","undefined","undefined","undefined","1","f","0","0","0","0","94","0","0","0","94","0","90","94","90","0","90","3","94","0","94","Thu Feb 18 12:36:50 2021","The main experiment item","yes","Lexical_Decision_Task.osexp","D:/Cameron Folder/OpenSesame/Assignment","no","Andale Mono","no","18","no","white","no","yes","576","legacy","90","90","3","D:/Cameron Folder/OpenSesame/Assignment/subject-5202104.csv","legacy","Lentiform Loewenfeld","3.3.7","yes","yes","600bd7cfb6416f0113b04181","602110864497cf011d9c0822","0","f","NA","space","space","space","space","f","710","NA","4685","25140","9770","11979","710","2","legacy","1024","2","48000","-16","task","5202104","even","NA","50044","56730","52044","231918","1903","36815","27044","232418","147119","231917","232419","231875","56730","233130","47971","231375","1900","228627","Lexical Decision Task","88","69819","95","yes","1024"
"3.165936429","0","7","leps","non-word","92.70833333333333","92.70833333333333","733.6354166666666","733.6354166666666","black","no","legacy","legacy","legacy","0","uniform","1","undefined","undefined","undefined","1","f","0","0","0","0","95","0","0","0","95","0","91","95","91","0","91","3","95","0","95","Thu Feb 18 12:36:50 2021","The main experiment item","yes","Lexical_Decision_Task.osexp","D:/Cameron Folder/OpenSesame/Assignment","no","Andale Mono","no","18","no","white","no","yes","576","legacy","91","91","3","D:/Cameron Folder/OpenSesame/Assignment/subject-5202104.csv","legacy","Lentiform Loewenfeld","3.3.7","yes","yes","600bd7cfb6416f0113b04181","602110864497cf011d9c0822","0","f","NA","space","space","space","space","f","610","NA","4685","25140","9770","11979","610","2","legacy","1024","2","48000","-16","task","5202104","even","NA","50044","56730","52044","233696","1903","36815","27044","234196","147119","233695","234197","233654","56730","234807","47971","233153","1900","228627","Lexical Decision Task","89","70429","96","yes","1024"
"2.703007489","8.37","3","pulp","word","92.78350515463917","92.78350515463917","732.1752577319587","732.1752577319587","black","no","legacy","legacy","legacy","0","uniform","1","undefined","undefined","undefined","1","j","0","0","0","0","96","0","0","0","96","0","92","96","92","0","92","3","96","0","96","Thu Feb 18 12:36:50 2021","The main experiment item","yes","Lexical_Decision_Task.osexp","D:/Cameron Folder/OpenSesame/Assignment","no","Andale Mono","no","18","no","white","no","yes","576","legacy","92","92","3","D:/Cameron Folder/OpenSesame/Assignment/subject-5202104.csv","legacy","Lentiform Loewenfeld","3.3.7","yes","yes","600bd7cfb6416f0113b04181","602110864497cf011d9c0822","0","j","NA","space","space","space","space","j","592","NA","4685","25140","9770","11979","592","2","legacy","1024","2","48000","-16","task","5202104","even","NA","50044","56730","52044","235390","1903","36815","27044","235890","147119","235389","235891","235348","56730","236483","47971","234848","1900","228627","Lexical Decision Task","90","71021","97","yes","1024"
"2.892836167","10.01","5","soft","word","92.85714285714286","92.85714285714286","730.969387755102","730.969387755102","black","no","legacy","legacy","legacy","0","uniform","1","undefined","undefined","undefined","1","j","0","0","0","0","97","0","0","0","97","0","93","97","93","0","93","3","97","0","97","Thu Feb 18 12:36:50 2021","The main experiment item","yes","Lexical_Decision_Task.osexp","D:/Cameron Folder/OpenSesame/Assignment","no","Andale Mono","no","18","no","white","no","yes","576","legacy","93","93","3","D:/Cameron Folder/OpenSesame/Assignment/subject-5202104.csv","legacy","Lentiform Loewenfeld","3.3.7","yes","yes","600bd7cfb6416f0113b04181","602110864497cf011d9c0822","0","j","NA","space","space","space","space","j","614","NA","4685","25140","9770","11979","614","2","legacy","1024","2","48000","-16","task","5202104","even","NA","50044","56730","52044","237052","1903","36815","27044","237552","147119","237051","237553","237010","56730","238167","47971","236510","1900","228627","Lexical Decision Task","91","71635","98","yes","1024"
