"Log_BG","Log_Freq_HAL","Ortho_N","Stimulus","Type","acc","accuracy","average_response_time","avg_rt","background","bidi","canvas_backend","clock_backend","color_backend","compensation","coordinates","correct","correct_Experimental_intro","correct_Introduction","correct_Practice_intro","correct_experimenter_kb","correct_response","count_End_Of_Experiment","count_End_Of_Practice","count_Experimental_Loop","count_Experimental_intro","count_Fixation","count_Introduction","count_Practice_Loop","count_Practice_intro","count_Stimulus","count_block_break_feedback","count_experimental_sequence","count_experimenter_kb","count_increment_trial_count","count_init_trial_count","count_logger","count_practice_sequence","count_right","count_task","count_wrong","datetime","description","disable_garbage_collection","experiment_file","experiment_path","font_bold","font_family","font_italic","font_size","font_underline","foreground","form_clicks","fullscreen","height","keyboard_backend","live_row","live_row_Experimental_Loop","live_row_Practice_Loop","logfile","mouse_backend","opensesame_codename","opensesame_version","osf_always_upload_data","osf_always_upload_experiment","osf_datanode_id","osf_id","repeat_cycle","response","response_End_Of_Experiment","response_Experimental_intro","response_Introduction","response_Practice_intro","response_block_break_feedback","response_experimenter_kb","response_time","response_time_End_Of_Experiment","response_time_Experimental_intro","response_time_Introduction","response_time_Practice_intro","response_time_block_break_feedback","response_time_experimenter_kb","round_decimals","sampler_backend","sound_buf_size","sound_channels","sound_freq","sound_sample_size","start","subject_nr","subject_parity","time_End_Of_Experiment","time_End_Of_Practice","time_Experimental_Loop","time_Experimental_intro","time_Fixation","time_Introduction","time_Practice_Loop","time_Practice_intro","time_Stimulus","time_block_break_feedback","time_experimental_sequence","time_experimenter_kb","time_increment_trial_count","time_init_trial_count","time_logger","time_practice_sequence","time_right","time_task","time_wrong","title","total_correct","total_response_time","total_responses","uniform_coordinates","width"
"3.197740804","6.74","3","ache","word","80","80","1262","1262","black","no","legacy","legacy","legacy","0","uniform","1","undefined","undefined","undefined","1","j","0","0","0","0","4","0","0","0","4","NA","0","4","0","0","0","3","4","0","4","Fri Feb 19 15:09:37 2021","The main experiment item","yes","Lexical_Decision_Task.osexp","C:/Users/Eden/OneDrive/Documents/Cogntive Psychology","no","Andale Mono","no","18","no","white","no","yes","576","legacy","0","0","3","C:/Users/Eden/OneDrive/Documents/Cogntive Psychology/subject-5214015.csv","legacy","Lentiform Loewenfeld","3.3.7","yes","yes","600bd7cfb6416f0113b04181","602110864497cf011d9c0822","0","j","NA","space","space","space","NA","j","1191","NA","2912","22640","6109","NA","1191","2","legacy","1024","2","48000","-16","task","5214015","odd","NA","41945","46862","43949","46900","2653","31406","25296","47403","NA","46898","47404","NA","46862","48596","39996","41395","2647","35008","Lexical Decision Task","4","6310","5","yes","1024"
"3.134602053","0","8","jart","non-word","83.33333333333333","83.33333333333333","1197.8333333333333","1197.8333333333333","black","no","legacy","legacy","legacy","0","uniform","1","undefined","undefined","undefined","1","f","0","0","0","0","5","0","0","0","5","NA","1","5","1","0","1","3","5","0","5","Fri Feb 19 15:09:37 2021","The main experiment item","yes","Lexical_Decision_Task.osexp","C:/Users/Eden/OneDrive/Documents/Cogntive Psychology","no","Andale Mono","no","18","no","white","no","yes","576","legacy","1","1","3","C:/Users/Eden/OneDrive/Documents/Cogntive Psychology/subject-5214015.csv","legacy","Lentiform Loewenfeld","3.3.7","yes","yes","600bd7cfb6416f0113b04181","602110864497cf011d9c0822","0","f","NA","space","space","space","NA","f","877","NA","2912","22640","6109","NA","877","2","legacy","1024","2","48000","-16","task","5214015","odd","NA","41945","46862","43949","49262","2653","31406","25296","49766","NA","49260","49766","49134","46862","50644","39996","48634","2647","35008","Lexical Decision Task","5","7187","6","yes","1024"
"3.216517684","10.87","3","film","word","85.71428571428571","85.71428571428571","1110.5714285714287","1110.5714285714287","black","no","legacy","legacy","legacy","0","uniform","1","undefined","undefined","undefined","1","j","0","0","0","0","6","0","0","0","6","NA","2","6","2","0","2","3","6","0","6","Fri Feb 19 15:09:37 2021","The main experiment item","yes","Lexical_Decision_Task.osexp","C:/Users/Eden/OneDrive/Documents/Cogntive Psychology","no","Andale Mono","no","18","no","white","no","yes","576","legacy","2","2","3","C:/Users/Eden/OneDrive/Documents/Cogntive Psychology/subject-5214015.csv","legacy","Lentiform Loewenfeld","3.3.7","yes","yes","600bd7cfb6416f0113b04181","602110864497cf011d9c0822","0","j","NA","space","space","space","NA","j","587","NA","2912","22640","6109","NA","587","2","legacy","1024","2","48000","-16","task","5214015","odd","NA","41945","46862","43949","51262","2653","31406","25296","51766","NA","51261","51766","51177","46862","52354","39996","50676","2647","35008","Lexical Decision Task","6","7774","7","yes","1024"
"2.695481676","0","7","goke","non-word","75","75","1056.125","1056.125","black","no","legacy","legacy","legacy","0","uniform","0","undefined","undefined","undefined","0","f","0","0","0","0","7","0","0","0","7","NA","3","7","3","0","3","3","7","0","7","Fri Feb 19 15:09:37 2021","The main experiment item","yes","Lexical_Decision_Task.osexp","C:/Users/Eden/OneDrive/Documents/Cogntive Psychology","no","Andale Mono","no","18","no","white","no","yes","576","legacy","3","3","3","C:/Users/Eden/OneDrive/Documents/Cogntive Psychology/subject-5214015.csv","legacy","Lentiform Loewenfeld","3.3.7","yes","yes","600bd7cfb6416f0113b04181","602110864497cf011d9c0822","0","j","NA","space","space","space","NA","j","675","NA","2912","22640","6109","NA","675","2","legacy","1024","2","48000","-16","task","5214015","odd","NA","41945","46862","43949","52968","2653","31406","25296","53472","NA","52966","53472","52886","46862","54148","39996","52386","2647","35008","Lexical Decision Task","6","8449","8","yes","1024"
"3.274543461","7.46","7","scar","word","77.77777777777777","77.77777777777777","1005.8888888888889","1005.8888888888889","black","no","legacy","legacy","legacy","0","uniform","1","undefined","undefined","undefined","1","j","0","0","0","0","8","0","0","0","8","NA","4","8","4","0","4","3","8","0","8","Fri Feb 19 15:09:37 2021","The main experiment item","yes","Lexical_Decision_Task.osexp","C:/Users/Eden/OneDrive/Documents/Cogntive Psychology","no","Andale Mono","no","18","no","white","no","yes","576","legacy","4","4","3","C:/Users/Eden/OneDrive/Documents/Cogntive Psychology/subject-5214015.csv","legacy","Lentiform Loewenfeld","3.3.7","yes","yes","600bd7cfb6416f0113b04181","602110864497cf011d9c0822","0","j","NA","space","space","space","NA","j","604","NA","2912","22640","6109","NA","604","2","legacy","1024","2","48000","-16","task","5214015","odd","NA","41945","46862","43949","55764","2653","31406","25296","56268","NA","55762","56268","55677","46862","56873","39996","52386","2647","54177","Lexical Decision Task","7","9053","9","yes","1024"
"3.16326079","0","5","parg","non-word","80","80","972.4","972.4","black","no","legacy","legacy","legacy","0","uniform","1","undefined","undefined","undefined","1","f","0","0","0","0","9","0","0","0","9","NA","5","9","5","0","5","3","9","0","9","Fri Feb 19 15:09:37 2021","The main experiment item","yes","Lexical_Decision_Task.osexp","C:/Users/Eden/OneDrive/Documents/Cogntive Psychology","no","Andale Mono","no","18","no","white","no","yes","576","legacy","5","5","3","C:/Users/Eden/OneDrive/Documents/Cogntive Psychology/subject-5214015.csv","legacy","Lentiform Loewenfeld","3.3.7","yes","yes","600bd7cfb6416f0113b04181","602110864497cf011d9c0822","0","f","NA","space","space","space","NA","f","671","NA","2912","22640","6109","NA","671","2","legacy","1024","2","48000","-16","task","5214015","odd","NA","41945","46862","43949","57483","2653","31406","25296","57987","NA","57482","57987","57405","46862","58659","39996","56905","2647","54177","Lexical Decision Task","8","9724","10","yes","1024"
"2.845304797","0","6","buct","non-word","81.81818181818181","81.81818181818181","958.6363636363636","958.6363636363636","black","no","legacy","legacy","legacy","0","uniform","1","undefined","undefined","undefined","1","f","0","0","0","0","10","0","0","0","10","NA","6","10","6","0","6","3","10","0","10","Fri Feb 19 15:09:37 2021","The main experiment item","yes","Lexical_Decision_Task.osexp","C:/Users/Eden/OneDrive/Documents/Cogntive Psychology","no","Andale Mono","no","18","no","white","no","yes","576","legacy","6","6","3","C:/Users/Eden/OneDrive/Documents/Cogntive Psychology/subject-5214015.csv","legacy","Lentiform Loewenfeld","3.3.7","yes","yes","600bd7cfb6416f0113b04181","602110864497cf011d9c0822","0","f","NA","space","space","space","NA","f","821","NA","2912","22640","6109","NA","821","2","legacy","1024","2","48000","-16","task","5214015","odd","NA","41945","46862","43949","59271","2653","31406","25296","59775","NA","59270","59775","59191","46862","60597","39996","58691","2647","54177","Lexical Decision Task","9","10545","11","yes","1024"
"2.8162413","0","5","nusk","non-word","83.33333333333333","83.33333333333333","956.8333333333334","956.8333333333334","black","no","legacy","legacy","legacy","0","uniform","1","undefined","undefined","undefined","1","f","0","0","0","0","11","0","0","0","11","NA","7","11","7","0","7","3","11","0","11","Fri Feb 19 15:09:37 2021","The main experiment item","yes","Lexical_Decision_Task.osexp","C:/Users/Eden/OneDrive/Documents/Cogntive Psychology","no","Andale Mono","no","18","no","white","no","yes","576","legacy","7","7","3","C:/Users/Eden/OneDrive/Documents/Cogntive Psychology/subject-5214015.csv","legacy","Lentiform Loewenfeld","3.3.7","yes","yes","600bd7cfb6416f0113b04181","602110864497cf011d9c0822","0","f","NA","space","space","space","NA","f","937","NA","2912","22640","6109","NA","937","2","legacy","1024","2","48000","-16","task","5214015","odd","NA","41945","46862","43949","61182","2653","31406","25296","61686","NA","61181","61686","61101","46862","62624","39996","60601","2647","54177","Lexical Decision Task","10","11482","12","yes","1024"
"2.767650507","0","6","yolt","non-word","84.61538461538461","84.61538461538461","941.3846153846154","941.3846153846154","black","no","legacy","legacy","legacy","0","uniform","1","undefined","undefined","undefined","1","f","0","0","0","0","12","0","0","0","12","NA","8","12","8","0","8","3","12","0","12","Fri Feb 19 15:09:37 2021","The main experiment item","yes","Lexical_Decision_Task.osexp","C:/Users/Eden/OneDrive/Documents/Cogntive Psychology","no","Andale Mono","no","18","no","white","no","yes","576","legacy","8","8","3","C:/Users/Eden/OneDrive/Documents/Cogntive Psychology/subject-5214015.csv","legacy","Lentiform Loewenfeld","3.3.7","yes","yes","600bd7cfb6416f0113b04181","602110864497cf011d9c0822","0","f","NA","space","space","space","NA","f","756","NA","2912","22640","6109","NA","756","2","legacy","1024","2","48000","-16","task","5214015","odd","NA","41945","46862","43949","63236","2653","31406","25296","63740","NA","63235","63740","63156","46862","64497","39996","62656","2647","54177","Lexical Decision Task","11","12238","13","yes","1024"
"3.488597715","0","9","nain","non-word","85.71428571428571","85.71428571428571","926.8571428571429","926.8571428571429","black","no","legacy","legacy","legacy","0","uniform","1","undefined","undefined","undefined","1","f","0","0","0","0","13","0","0","0","13","NA","9","13","9","0","9","3","13","0","13","Fri Feb 19 15:09:37 2021","The main experiment item","yes","Lexical_Decision_Task.osexp","C:/Users/Eden/OneDrive/Documents/Cogntive Psychology","no","Andale Mono","no","18","no","white","no","yes","576","legacy","9","9","3","C:/Users/Eden/OneDrive/Documents/Cogntive Psychology/subject-5214015.csv","legacy","Lentiform Loewenfeld","3.3.7","yes","yes","600bd7cfb6416f0113b04181","602110864497cf011d9c0822","0","f","NA","space","space","space","NA","f","738","NA","2912","22640","6109","NA","738","2","legacy","1024","2","48000","-16","task","5214015","odd","NA","41945","46862","43949","65109","2653","31406","25296","65613","NA","65108","65613","65029","46862","66352","39996","64529","2647","54177","Lexical Decision Task","12","12976","14","yes","1024"
"2.794720352","0","9","koot","non-word","86.66666666666667","86.66666666666667","907.3333333333334","907.3333333333334","black","no","legacy","legacy","legacy","0","uniform","1","undefined","undefined","undefined","1","f","0","0","0","0","14","0","0","0","14","NA","10","14","10","0","10","3","14","0","14","Fri Feb 19 15:09:37 2021","The main experiment item","yes","Lexical_Decision_Task.osexp","C:/Users/Eden/OneDrive/Documents/Cogntive Psychology","no","Andale Mono","no","18","no","white","no","yes","576","legacy","10","10","3","C:/Users/Eden/OneDrive/Documents/Cogntive Psychology/subject-5214015.csv","legacy","Lentiform Loewenfeld","3.3.7","yes","yes","600bd7cfb6416f0113b04181","602110864497cf011d9c0822","0","f","NA","space","space","space","NA","f","634","NA","2912","22640","6109","NA","634","2","legacy","1024","2","48000","-16","task","5214015","odd","NA","41945","46862","43949","66964","2653","31406","25296","67468","NA","66962","67468","66883","46862","68103","39996","66383","2647","54177","Lexical Decision Task","13","13610","15","yes","1024"
"3.090140555","5.81","8","pout","word","87.5","87.5","886.625","886.625","black","no","legacy","legacy","legacy","0","uniform","1","undefined","undefined","undefined","1","j","0","0","0","0","15","0","0","0","15","NA","11","15","11","0","11","3","15","0","15","Fri Feb 19 15:09:37 2021","The main experiment item","yes","Lexical_Decision_Task.osexp","C:/Users/Eden/OneDrive/Documents/Cogntive Psychology","no","Andale Mono","no","18","no","white","no","yes","576","legacy","11","11","3","C:/Users/Eden/OneDrive/Documents/Cogntive Psychology/subject-5214015.csv","legacy","Lentiform Loewenfeld","3.3.7","yes","yes","600bd7cfb6416f0113b04181","602110864497cf011d9c0822","0","j","NA","space","space","space","NA","j","576","NA","2912","22640","6109","NA","576","2","legacy","1024","2","48000","-16","task","5214015","odd","NA","41945","46862","43949","68690","2653","31406","25296","69194","NA","68688","69194","68610","46862","69771","39996","68110","2647","54177","Lexical Decision Task","14","14186","16","yes","1024"
"3.20996159","0","4","clee","non-word","88.23529411764706","88.23529411764706","871.5882352941177","871.5882352941177","black","no","legacy","legacy","legacy","0","uniform","1","undefined","undefined","undefined","1","f","0","0","0","0","16","0","0","0","16","NA","12","16","12","0","12","3","16","0","16","Fri Feb 19 15:09:37 2021","The main experiment item","yes","Lexical_Decision_Task.osexp","C:/Users/Eden/OneDrive/Documents/Cogntive Psychology","no","Andale Mono","no","18","no","white","no","yes","576","legacy","12","12","3","C:/Users/Eden/OneDrive/Documents/Cogntive Psychology/subject-5214015.csv","legacy","Lentiform Loewenfeld","3.3.7","yes","yes","600bd7cfb6416f0113b04181","602110864497cf011d9c0822","0","f","NA","space","space","space","NA","f","631","NA","2912","22640","6109","NA","631","2","legacy","1024","2","48000","-16","task","5214015","odd","NA","41945","46862","43949","70384","2653","31406","25296","70888","NA","70383","70888","70302","46862","71520","39996","69802","2647","54177","Lexical Decision Task","15","14817","17","yes","1024"
"3.248054965","7.86","5","glow","word","83.33333333333333","83.33333333333333","856.1111111111111","856.1111111111111","black","no","legacy","legacy","legacy","0","uniform","0","undefined","undefined","undefined","0","j","0","0","0","0","17","0","0","0","17","NA","13","17","13","0","13","3","17","0","17","Fri Feb 19 15:09:37 2021","The main experiment item","yes","Lexical_Decision_Task.osexp","C:/Users/Eden/OneDrive/Documents/Cogntive Psychology","no","Andale Mono","no","18","no","white","no","yes","576","legacy","13","13","3","C:/Users/Eden/OneDrive/Documents/Cogntive Psychology/subject-5214015.csv","legacy","Lentiform Loewenfeld","3.3.7","yes","yes","600bd7cfb6416f0113b04181","602110864497cf011d9c0822","0","f","NA","space","space","space","NA","f","593","NA","2912","22640","6109","NA","593","2","legacy","1024","2","48000","-16","task","5214015","odd","NA","41945","46862","43949","72130","2653","31406","25296","72634","NA","72128","72634","72051","46862","73228","39996","71551","2647","54177","Lexical Decision Task","15","15410","18","yes","1024"
"3.529815197","0","3","lerm","non-word","84.21052631578948","84.21052631578948","849.6315789473684","849.6315789473684","black","no","legacy","legacy","legacy","0","uniform","1","undefined","undefined","undefined","1","f","0","0","0","0","18","0","0","0","18","NA","14","18","14","0","14","3","18","0","18","Fri Feb 19 15:09:37 2021","The main experiment item","yes","Lexical_Decision_Task.osexp","C:/Users/Eden/OneDrive/Documents/Cogntive Psychology","no","Andale Mono","no","18","no","white","no","yes","576","legacy","14","14","3","C:/Users/Eden/OneDrive/Documents/Cogntive Psychology/subject-5214015.csv","legacy","Lentiform Loewenfeld","3.3.7","yes","yes","600bd7cfb6416f0113b04181","602110864497cf011d9c0822","0","f","NA","space","space","space","NA","f","733","NA","2912","22640","6109","NA","733","2","legacy","1024","2","48000","-16","task","5214015","odd","NA","41945","46862","43949","74847","2653","31406","25296","75351","NA","74845","75351","74761","46862","76085","39996","71551","2647","73261","Lexical Decision Task","16","16143","19","yes","1024"
"3.153001286","8.7","5","palm","word","85","85","838.55","838.55","black","no","legacy","legacy","legacy","0","uniform","1","undefined","undefined","undefined","1","j","0","0","0","0","19","0","0","0","19","NA","15","19","15","0","15","3","19","0","19","Fri Feb 19 15:09:37 2021","The main experiment item","yes","Lexical_Decision_Task.osexp","C:/Users/Eden/OneDrive/Documents/Cogntive Psychology","no","Andale Mono","no","18","no","white","no","yes","576","legacy","15","15","3","C:/Users/Eden/OneDrive/Documents/Cogntive Psychology/subject-5214015.csv","legacy","Lentiform Loewenfeld","3.3.7","yes","yes","600bd7cfb6416f0113b04181","602110864497cf011d9c0822","0","j","NA","space","space","space","NA","j","628","NA","2912","22640","6109","NA","628","2","legacy","1024","2","48000","-16","task","5214015","odd","NA","41945","46862","43949","76696","2653","31406","25296","77200","NA","76694","77200","76617","46862","77830","39996","76117","2647","73261","Lexical Decision Task","17","16771","20","yes","1024"
"2.842815106","7.86","8","lump","word","85.71428571428571","85.71428571428571","826.6190476190476","826.6190476190476","black","no","legacy","legacy","legacy","0","uniform","1","undefined","undefined","undefined","1","j","0","0","0","0","20","0","0","0","20","NA","16","20","16","0","16","3","20","0","20","Fri Feb 19 15:09:37 2021","The main experiment item","yes","Lexical_Decision_Task.osexp","C:/Users/Eden/OneDrive/Documents/Cogntive Psychology","no","Andale Mono","no","18","no","white","no","yes","576","legacy","16","16","3","C:/Users/Eden/OneDrive/Documents/Cogntive Psychology/subject-5214015.csv","legacy","Lentiform Loewenfeld","3.3.7","yes","yes","600bd7cfb6416f0113b04181","602110864497cf011d9c0822","0","j","NA","space","space","space","NA","j","588","NA","2912","22640","6109","NA","588","2","legacy","1024","2","48000","-16","task","5214015","odd","NA","41945","46862","43949","78416","2653","31406","25296","78920","NA","78414","78920","78335","46862","79508","39996","77835","2647","73261","Lexical Decision Task","18","17359","21","yes","1024"
"3.372543801","9.24","8","coat","word","86.36363636363636","86.36363636363636","815.0909090909091","815.0909090909091","black","no","legacy","legacy","legacy","0","uniform","1","undefined","undefined","undefined","1","j","0","0","0","0","21","0","0","0","21","NA","17","21","17","0","17","3","21","0","21","Fri Feb 19 15:09:37 2021","The main experiment item","yes","Lexical_Decision_Task.osexp","C:/Users/Eden/OneDrive/Documents/Cogntive Psychology","no","Andale Mono","no","18","no","white","no","yes","576","legacy","17","17","3","C:/Users/Eden/OneDrive/Documents/Cogntive Psychology/subject-5214015.csv","legacy","Lentiform Loewenfeld","3.3.7","yes","yes","600bd7cfb6416f0113b04181","602110864497cf011d9c0822","0","j","NA","space","space","space","NA","j","573","NA","2912","22640","6109","NA","573","2","legacy","1024","2","48000","-16","task","5214015","odd","NA","41945","46862","43949","80121","2653","31406","25296","80625","NA","80120","80625","80043","46862","81199","39996","79543","2647","73261","Lexical Decision Task","19","17932","22","yes","1024"
"3.043885998","0","9","gome","non-word","86.95652173913044","86.95652173913044","805.4347826086956","805.4347826086956","black","no","legacy","legacy","legacy","0","uniform","1","undefined","undefined","undefined","1","f","0","0","0","0","22","0","0","0","22","NA","18","22","18","0","18","3","22","0","22","Fri Feb 19 15:09:37 2021","The main experiment item","yes","Lexical_Decision_Task.osexp","C:/Users/Eden/OneDrive/Documents/Cogntive Psychology","no","Andale Mono","no","18","no","white","no","yes","576","legacy","18","18","3","C:/Users/Eden/OneDrive/Documents/Cogntive Psychology/subject-5214015.csv","legacy","Lentiform Loewenfeld","3.3.7","yes","yes","600bd7cfb6416f0113b04181","602110864497cf011d9c0822","0","f","NA","space","space","space","NA","f","593","NA","2912","22640","6109","NA","593","2","legacy","1024","2","48000","-16","task","5214015","odd","NA","41945","46862","43949","81814","2653","31406","25296","82318","NA","81812","82318","81731","46862","82912","39996","81231","2647","73261","Lexical Decision Task","20","18525","23","yes","1024"
"2.875447132","0","9","jelt","non-word","87.5","87.5","805.5833333333334","805.5833333333334","black","no","legacy","legacy","legacy","0","uniform","1","undefined","undefined","undefined","1","f","0","0","0","0","23","0","0","0","23","NA","19","23","19","0","19","3","23","0","23","Fri Feb 19 15:09:37 2021","The main experiment item","yes","Lexical_Decision_Task.osexp","C:/Users/Eden/OneDrive/Documents/Cogntive Psychology","no","Andale Mono","no","18","no","white","no","yes","576","legacy","19","19","3","C:/Users/Eden/OneDrive/Documents/Cogntive Psychology/subject-5214015.csv","legacy","Lentiform Loewenfeld","3.3.7","yes","yes","600bd7cfb6416f0113b04181","602110864497cf011d9c0822","0","f","NA","space","space","space","NA","f","809","NA","2912","22640","6109","NA","809","2","legacy","1024","2","48000","-16","task","5214015","odd","NA","41945","46862","43949","83523","2653","31406","25296","84027","NA","83522","84027","83446","46862","84837","39996","82946","2647","73261","Lexical Decision Task","21","19334","24","yes","1024"
"2.812467698","0","7","hafe","non-word","88","88","807.48","807.48","black","no","legacy","legacy","legacy","0","uniform","1","undefined","undefined","undefined","1","f","0","0","0","0","24","0","0","0","24","NA","20","24","20","0","20","3","24","0","24","Fri Feb 19 15:09:37 2021","The main experiment item","yes","Lexical_Decision_Task.osexp","C:/Users/Eden/OneDrive/Documents/Cogntive Psychology","no","Andale Mono","no","18","no","white","no","yes","576","legacy","20","20","3","C:/Users/Eden/OneDrive/Documents/Cogntive Psychology/subject-5214015.csv","legacy","Lentiform Loewenfeld","3.3.7","yes","yes","600bd7cfb6416f0113b04181","602110864497cf011d9c0822","0","f","NA","space","space","space","NA","f","853","NA","2912","22640","6109","NA","853","2","legacy","1024","2","48000","-16","task","5214015","odd","NA","41945","46862","43949","85448","2653","31406","25296","85952","NA","85447","85952","85368","46862","86806","39996","84868","2647","73261","Lexical Decision Task","22","20187","25","yes","1024"
"2.803231716","5.26","3","kiln","word","88.46153846153847","88.46153846153847","816.5769230769231","816.5769230769231","black","no","legacy","legacy","legacy","0","uniform","1","undefined","undefined","undefined","1","j","0","0","0","0","25","0","0","0","25","NA","21","25","21","0","21","3","25","0","25","Fri Feb 19 15:09:37 2021","The main experiment item","yes","Lexical_Decision_Task.osexp","C:/Users/Eden/OneDrive/Documents/Cogntive Psychology","no","Andale Mono","no","18","no","white","no","yes","576","legacy","21","21","3","C:/Users/Eden/OneDrive/Documents/Cogntive Psychology/subject-5214015.csv","legacy","Lentiform Loewenfeld","3.3.7","yes","yes","600bd7cfb6416f0113b04181","602110864497cf011d9c0822","0","j","NA","space","space","space","NA","j","1044","NA","2912","22640","6109","NA","1044","2","legacy","1024","2","48000","-16","task","5214015","odd","NA","41945","46862","43949","87419","2653","31406","25296","87923","NA","87417","87923","87337","46862","88969","39996","86837","2647","73261","Lexical Decision Task","23","21231","26","yes","1024"
"3.132473155","0","4","glim","non-word","88.88888888888889","88.88888888888889","813.0370370370371","813.0370370370371","black","no","legacy","legacy","legacy","0","uniform","1","undefined","undefined","undefined","1","f","0","0","0","0","26","0","0","0","26","NA","22","26","22","0","22","3","26","0","26","Fri Feb 19 15:09:37 2021","The main experiment item","yes","Lexical_Decision_Task.osexp","C:/Users/Eden/OneDrive/Documents/Cogntive Psychology","no","Andale Mono","no","18","no","white","no","yes","576","legacy","22","22","3","C:/Users/Eden/OneDrive/Documents/Cogntive Psychology/subject-5214015.csv","legacy","Lentiform Loewenfeld","3.3.7","yes","yes","600bd7cfb6416f0113b04181","602110864497cf011d9c0822","0","f","NA","space","space","space","NA","f","721","NA","2912","22640","6109","NA","721","2","legacy","1024","2","48000","-16","task","5214015","odd","NA","41945","46862","43949","89579","2653","31406","25296","90083","NA","89578","90083","89501","46862","90805","39996","89001","2647","73261","Lexical Decision Task","24","21952","27","yes","1024"
"2.696356389","0","1","pizz","non-word","89.28571428571429","89.28571428571429","808.3571428571429","808.3571428571429","black","no","legacy","legacy","legacy","0","uniform","1","undefined","undefined","undefined","1","f","0","0","0","0","27","0","0","0","27","NA","23","27","23","0","23","3","27","0","27","Fri Feb 19 15:09:37 2021","The main experiment item","yes","Lexical_Decision_Task.osexp","C:/Users/Eden/OneDrive/Documents/Cogntive Psychology","no","Andale Mono","no","18","no","white","no","yes","576","legacy","23","23","3","C:/Users/Eden/OneDrive/Documents/Cogntive Psychology/subject-5214015.csv","legacy","Lentiform Loewenfeld","3.3.7","yes","yes","600bd7cfb6416f0113b04181","602110864497cf011d9c0822","0","f","NA","space","space","space","NA","f","682","NA","2912","22640","6109","NA","682","2","legacy","1024","2","48000","-16","task","5214015","odd","NA","41945","46862","43949","91391","2653","31406","25296","91895","NA","91390","91895","91311","46862","92578","39996","90811","2647","73261","Lexical Decision Task","25","22634","28","yes","1024"
"2.695770526","7.34","6","pawn","word","89.65517241379311","89.65517241379311","800.3793103448276","800.3793103448276","black","no","legacy","legacy","legacy","0","uniform","1","undefined","undefined","undefined","1","j","0","0","0","0","28","0","0","0","28","NA","24","28","24","0","24","3","28","0","28","Fri Feb 19 15:09:37 2021","The main experiment item","yes","Lexical_Decision_Task.osexp","C:/Users/Eden/OneDrive/Documents/Cogntive Psychology","no","Andale Mono","no","18","no","white","no","yes","576","legacy","24","24","3","C:/Users/Eden/OneDrive/Documents/Cogntive Psychology/subject-5214015.csv","legacy","Lentiform Loewenfeld","3.3.7","yes","yes","600bd7cfb6416f0113b04181","602110864497cf011d9c0822","0","j","NA","space","space","space","NA","j","577","NA","2912","22640","6109","NA","577","2","legacy","1024","2","48000","-16","task","5214015","odd","NA","41945","46862","43949","93187","2653","31406","25296","93691","NA","93186","93691","93111","46862","94269","39996","92611","2647","73261","Lexical Decision Task","26","23211","29","yes","1024"
"3.137775856","7.39","5","comb","word","90","90","793.8","793.8","black","no","legacy","legacy","legacy","0","uniform","1","undefined","undefined","undefined","1","j","0","0","0","0","29","0","0","0","29","NA","25","29","25","0","25","3","29","0","29","Fri Feb 19 15:09:37 2021","The main experiment item","yes","Lexical_Decision_Task.osexp","C:/Users/Eden/OneDrive/Documents/Cogntive Psychology","no","Andale Mono","no","18","no","white","no","yes","576","legacy","25","25","3","C:/Users/Eden/OneDrive/Documents/Cogntive Psychology/subject-5214015.csv","legacy","Lentiform Loewenfeld","3.3.7","yes","yes","600bd7cfb6416f0113b04181","602110864497cf011d9c0822","0","j","NA","space","space","space","NA","j","603","NA","2912","22640","6109","NA","603","2","legacy","1024","2","48000","-16","task","5214015","odd","NA","41945","46862","43949","94853","2653","31406","25296","95357","NA","94852","95357","94774","46862","95961","39996","94274","2647","73261","Lexical Decision Task","27","23814","30","yes","1024"
"2.899638141","0","3","hapt","non-word","90.3225806451613","90.3225806451613","789.7096774193549","789.7096774193549","black","no","legacy","legacy","legacy","0","uniform","1","undefined","undefined","undefined","1","f","0","0","0","0","30","0","0","0","30","NA","26","30","26","0","26","3","30","0","30","Fri Feb 19 15:09:37 2021","The main experiment item","yes","Lexical_Decision_Task.osexp","C:/Users/Eden/OneDrive/Documents/Cogntive Psychology","no","Andale Mono","no","18","no","white","no","yes","576","legacy","26","26","3","C:/Users/Eden/OneDrive/Documents/Cogntive Psychology/subject-5214015.csv","legacy","Lentiform Loewenfeld","3.3.7","yes","yes","600bd7cfb6416f0113b04181","602110864497cf011d9c0822","0","f","NA","space","space","space","NA","f","667","NA","2912","22640","6109","NA","667","2","legacy","1024","2","48000","-16","task","5214015","odd","NA","41945","46862","43949","96573","2653","31406","25296","97077","NA","96572","97077","96494","46862","97746","39996","95994","2647","73261","Lexical Decision Task","28","24481","31","yes","1024"
"2.64476673","0","5","moft","non-word","90.625","90.625","786.625","786.625","black","no","legacy","legacy","legacy","0","uniform","1","undefined","undefined","undefined","1","f","0","0","0","0","31","0","0","0","31","NA","27","31","27","0","27","3","31","0","31","Fri Feb 19 15:09:37 2021","The main experiment item","yes","Lexical_Decision_Task.osexp","C:/Users/Eden/OneDrive/Documents/Cogntive Psychology","no","Andale Mono","no","18","no","white","no","yes","576","legacy","27","27","3","C:/Users/Eden/OneDrive/Documents/Cogntive Psychology/subject-5214015.csv","legacy","Lentiform Loewenfeld","3.3.7","yes","yes","600bd7cfb6416f0113b04181","602110864497cf011d9c0822","0","f","NA","space","space","space","NA","f","691","NA","2912","22640","6109","NA","691","2","legacy","1024","2","48000","-16","task","5214015","odd","NA","41945","46862","43949","98355","2653","31406","25296","98859","NA","98354","98859","98275","46862","99551","39996","97775","2647","73261","Lexical Decision Task","29","25172","32","yes","1024"
"3.066077331","0","7","vorn","non-word","90.9090909090909","90.9090909090909","784.3333333333334","784.3333333333334","black","no","legacy","legacy","legacy","0","uniform","1","undefined","undefined","undefined","1","f","0","0","0","0","32","0","0","0","32","NA","28","32","28","0","28","3","32","0","32","Fri Feb 19 15:09:37 2021","The main experiment item","yes","Lexical_Decision_Task.osexp","C:/Users/Eden/OneDrive/Documents/Cogntive Psychology","no","Andale Mono","no","18","no","white","no","yes","576","legacy","28","28","3","C:/Users/Eden/OneDrive/Documents/Cogntive Psychology/subject-5214015.csv","legacy","Lentiform Loewenfeld","3.3.7","yes","yes","600bd7cfb6416f0113b04181","602110864497cf011d9c0822","0","f","NA","space","space","space","NA","f","711","NA","2912","22640","6109","NA","711","2","legacy","1024","2","48000","-16","task","5214015","odd","NA","41945","46862","43949","100160","2653","31406","25296","100662","NA","100159","100663","100081","46862","101375","39996","99580","2647","73261","Lexical Decision Task","30","25883","33","yes","1024"
"2.696644658","5.78","2","yolk","word","91.17647058823529","91.17647058823529","777.5294117647059","777.5294117647059","black","no","legacy","legacy","legacy","0","uniform","1","undefined","undefined","undefined","1","j","0","0","0","0","33","0","0","0","33","NA","29","33","29","0","29","3","33","0","33","Fri Feb 19 15:09:37 2021","The main experiment item","yes","Lexical_Decision_Task.osexp","C:/Users/Eden/OneDrive/Documents/Cogntive Psychology","no","Andale Mono","no","18","no","white","no","yes","576","legacy","29","29","3","C:/Users/Eden/OneDrive/Documents/Cogntive Psychology/subject-5214015.csv","legacy","Lentiform Loewenfeld","3.3.7","yes","yes","600bd7cfb6416f0113b04181","602110864497cf011d9c0822","0","j","NA","space","space","space","NA","j","553","NA","2912","22640","6109","NA","553","2","legacy","1024","2","48000","-16","task","5214015","odd","NA","41945","46862","43949","101986","2653","31406","25296","102490","NA","101984","102490","101906","46862","103044","39996","101406","2647","73261","Lexical Decision Task","31","26436","34","yes","1024"
"3.397302518","7.01","2","knit","word","91.42857142857143","91.42857142857143","771.6285714285714","771.6285714285714","black","no","legacy","legacy","legacy","0","uniform","1","undefined","undefined","undefined","1","j","0","0","0","0","34","0","0","0","34","NA","30","34","30","0","30","3","34","0","34","Fri Feb 19 15:09:37 2021","The main experiment item","yes","Lexical_Decision_Task.osexp","C:/Users/Eden/OneDrive/Documents/Cogntive Psychology","no","Andale Mono","no","18","no","white","no","yes","576","legacy","30","30","3","C:/Users/Eden/OneDrive/Documents/Cogntive Psychology/subject-5214015.csv","legacy","Lentiform Loewenfeld","3.3.7","yes","yes","600bd7cfb6416f0113b04181","602110864497cf011d9c0822","0","j","NA","space","space","space","NA","j","571","NA","2912","22640","6109","NA","571","2","legacy","1024","2","48000","-16","task","5214015","odd","NA","41945","46862","43949","103672","2653","31406","25296","104176","NA","103671","104176","103576","46862","104748","39996","103076","2647","73261","Lexical Decision Task","32","27007","35","yes","1024"
"3.039414119","0","9","meep","non-word","91.66666666666667","91.66666666666667","766.7222222222222","766.7222222222222","black","no","legacy","legacy","legacy","0","uniform","1","undefined","undefined","undefined","1","f","0","0","0","0","35","0","0","0","35","NA","31","35","31","0","31","3","35","0","35","Fri Feb 19 15:09:37 2021","The main experiment item","yes","Lexical_Decision_Task.osexp","C:/Users/Eden/OneDrive/Documents/Cogntive Psychology","no","Andale Mono","no","18","no","white","no","yes","576","legacy","31","31","3","C:/Users/Eden/OneDrive/Documents/Cogntive Psychology/subject-5214015.csv","legacy","Lentiform Loewenfeld","3.3.7","yes","yes","600bd7cfb6416f0113b04181","602110864497cf011d9c0822","0","f","NA","space","space","space","NA","f","595","NA","2912","22640","6109","NA","595","2","legacy","1024","2","48000","-16","task","5214015","odd","NA","41945","46862","43949","105362","2653","31406","25296","105866","NA","105361","105866","105279","46862","106463","39996","104779","2647","73261","Lexical Decision Task","33","27602","36","yes","1024"
"3.064581521","5.51","6","cask","word","91.89189189189189","91.89189189189189","770.8918918918919","770.8918918918919","black","no","legacy","legacy","legacy","0","uniform","1","undefined","undefined","undefined","1","j","0","0","0","0","36","0","0","0","36","NA","32","36","32","0","32","3","36","0","36","Fri Feb 19 15:09:37 2021","The main experiment item","yes","Lexical_Decision_Task.osexp","C:/Users/Eden/OneDrive/Documents/Cogntive Psychology","no","Andale Mono","no","18","no","white","no","yes","576","legacy","32","32","3","C:/Users/Eden/OneDrive/Documents/Cogntive Psychology/subject-5214015.csv","legacy","Lentiform Loewenfeld","3.3.7","yes","yes","600bd7cfb6416f0113b04181","602110864497cf011d9c0822","0","j","NA","space","space","space","NA","j","921","NA","2912","22640","6109","NA","921","2","legacy","1024","2","48000","-16","task","5214015","odd","NA","41945","46862","43949","107045","2653","31406","25296","107549","NA","107044","107549","106968","46862","108471","39996","106468","2647","73261","Lexical Decision Task","34","28523","37","yes","1024"
"2.664011697","8.19","4","hawk","word","92.10526315789474","92.10526315789474","767.1052631578947","767.1052631578947","black","no","legacy","legacy","legacy","0","uniform","1","undefined","undefined","undefined","1","j","0","0","0","0","37","0","0","0","37","NA","33","37","33","0","33","3","37","0","37","Fri Feb 19 15:09:37 2021","The main experiment item","yes","Lexical_Decision_Task.osexp","C:/Users/Eden/OneDrive/Documents/Cogntive Psychology","no","Andale Mono","no","18","no","white","no","yes","576","legacy","33","33","3","C:/Users/Eden/OneDrive/Documents/Cogntive Psychology/subject-5214015.csv","legacy","Lentiform Loewenfeld","3.3.7","yes","yes","600bd7cfb6416f0113b04181","602110864497cf011d9c0822","0","j","NA","space","space","space","NA","j","627","NA","2912","22640","6109","NA","627","2","legacy","1024","2","48000","-16","task","5214015","odd","NA","41945","46862","43949","109080","2653","31406","25296","109584","NA","109079","109584","109002","46862","110212","39996","108502","2647","73261","Lexical Decision Task","35","29150","38","yes","1024"
"3.088136089","8.32","9","worm","word","92.3076923076923","92.3076923076923","762.1538461538462","762.1538461538462","black","no","legacy","legacy","legacy","0","uniform","1","undefined","undefined","undefined","1","j","0","0","0","0","38","0","0","0","38","NA","34","38","34","0","34","3","38","0","38","Fri Feb 19 15:09:37 2021","The main experiment item","yes","Lexical_Decision_Task.osexp","C:/Users/Eden/OneDrive/Documents/Cogntive Psychology","no","Andale Mono","no","18","no","white","no","yes","576","legacy","34","34","3","C:/Users/Eden/OneDrive/Documents/Cogntive Psychology/subject-5214015.csv","legacy","Lentiform Loewenfeld","3.3.7","yes","yes","600bd7cfb6416f0113b04181","602110864497cf011d9c0822","0","j","NA","space","space","space","NA","j","574","NA","2912","22640","6109","NA","574","2","legacy","1024","2","48000","-16","task","5214015","odd","NA","41945","46862","43949","110823","2653","31406","25296","111327","NA","110821","111327","110743","46862","111902","39996","110243","2647","73261","Lexical Decision Task","36","29724","39","yes","1024"
"2.880623071","0","9","curp","non-word","92.5","92.5","756.1","756.1","black","no","legacy","legacy","legacy","0","uniform","1","undefined","undefined","undefined","1","f","0","0","0","0","39","0","0","0","39","NA","35","39","35","0","35","3","39","0","39","Fri Feb 19 15:09:37 2021","The main experiment item","yes","Lexical_Decision_Task.osexp","C:/Users/Eden/OneDrive/Documents/Cogntive Psychology","no","Andale Mono","no","18","no","white","no","yes","576","legacy","35","35","3","C:/Users/Eden/OneDrive/Documents/Cogntive Psychology/subject-5214015.csv","legacy","Lentiform Loewenfeld","3.3.7","yes","yes","600bd7cfb6416f0113b04181","602110864497cf011d9c0822","0","f","NA","space","space","space","NA","f","520","NA","2912","22640","6109","NA","520","2","legacy","1024","2","48000","-16","task","5214015","odd","NA","41945","46862","43949","112487","2653","31406","25296","112991","NA","112486","112991","112407","46862","113512","39996","111906","2647","73261","Lexical Decision Task","37","30244","40","yes","1024"
"3.261341392","5.08","8","reek","word","92.6829268292683","92.6829268292683","757.4878048780488","757.4878048780488","black","no","legacy","legacy","legacy","0","uniform","1","undefined","undefined","undefined","1","j","0","0","0","0","40","0","0","0","40","NA","36","40","36","0","36","3","40","0","40","Fri Feb 19 15:09:37 2021","The main experiment item","yes","Lexical_Decision_Task.osexp","C:/Users/Eden/OneDrive/Documents/Cogntive Psychology","no","Andale Mono","no","18","no","white","no","yes","576","legacy","36","36","3","C:/Users/Eden/OneDrive/Documents/Cogntive Psychology/subject-5214015.csv","legacy","Lentiform Loewenfeld","3.3.7","yes","yes","600bd7cfb6416f0113b04181","602110864497cf011d9c0822","0","j","NA","space","space","space","NA","j","813","NA","2912","22640","6109","NA","813","2","legacy","1024","2","48000","-16","task","5214015","odd","NA","41945","46862","43949","114125","2653","31406","25296","114629","NA","114123","114629","114044","46862","115442","39996","113544","2647","73261","Lexical Decision Task","38","31057","41","yes","1024"
"3.443783828","7.65","3","verb","word","92.85714285714286","92.85714285714286","754.8571428571429","754.8571428571429","black","no","legacy","legacy","legacy","0","uniform","1","undefined","undefined","undefined","1","j","0","0","0","0","41","0","0","0","41","NA","37","41","37","0","37","3","41","0","41","Fri Feb 19 15:09:37 2021","The main experiment item","yes","Lexical_Decision_Task.osexp","C:/Users/Eden/OneDrive/Documents/Cogntive Psychology","no","Andale Mono","no","18","no","white","no","yes","576","legacy","37","37","3","C:/Users/Eden/OneDrive/Documents/Cogntive Psychology/subject-5214015.csv","legacy","Lentiform Loewenfeld","3.3.7","yes","yes","600bd7cfb6416f0113b04181","602110864497cf011d9c0822","0","j","NA","space","space","space","NA","j","647","NA","2912","22640","6109","NA","647","2","legacy","1024","2","48000","-16","task","5214015","odd","NA","41945","46862","43949","116051","2653","31406","25296","116555","NA","116049","116556","115976","46862","117204","39996","115476","2647","73261","Lexical Decision Task","39","31704","42","yes","1024"
"3.208172527","10.27","7","deck","word","93.02325581395348","93.02325581395348","750.1860465116279","750.1860465116279","black","no","legacy","legacy","legacy","0","uniform","1","undefined","undefined","undefined","1","j","0","0","0","0","42","0","0","0","42","NA","38","42","38","0","38","3","42","0","42","Fri Feb 19 15:09:37 2021","The main experiment item","yes","Lexical_Decision_Task.osexp","C:/Users/Eden/OneDrive/Documents/Cogntive Psychology","no","Andale Mono","no","18","no","white","no","yes","576","legacy","38","38","3","C:/Users/Eden/OneDrive/Documents/Cogntive Psychology/subject-5214015.csv","legacy","Lentiform Loewenfeld","3.3.7","yes","yes","600bd7cfb6416f0113b04181","602110864497cf011d9c0822","0","j","NA","space","space","space","NA","j","554","NA","2912","22640","6109","NA","554","2","legacy","1024","2","48000","-16","task","5214015","odd","NA","41945","46862","43949","117814","2653","31406","25296","118318","NA","117813","118318","117736","46862","118874","39996","117236","2647","73261","Lexical Decision Task","40","32258","43","yes","1024"
"2.907588697","8.91","9","mood","word","93.18181818181819","93.18181818181819","744.1363636363636","744.1363636363636","black","no","legacy","legacy","legacy","0","uniform","1","undefined","undefined","undefined","1","j","0","0","0","0","43","0","0","0","43","NA","39","43","39","0","39","3","43","0","43","Fri Feb 19 15:09:37 2021","The main experiment item","yes","Lexical_Decision_Task.osexp","C:/Users/Eden/OneDrive/Documents/Cogntive Psychology","no","Andale Mono","no","18","no","white","no","yes","576","legacy","39","39","3","C:/Users/Eden/OneDrive/Documents/Cogntive Psychology/subject-5214015.csv","legacy","Lentiform Loewenfeld","3.3.7","yes","yes","600bd7cfb6416f0113b04181","602110864497cf011d9c0822","0","j","NA","space","space","space","NA","j","484","NA","2912","22640","6109","NA","484","2","legacy","1024","2","48000","-16","task","5214015","odd","NA","41945","46862","43949","119496","2653","31406","25296","120000","NA","119495","120000","119406","46862","120485","39996","118906","2647","73261","Lexical Decision Task","41","32742","44","yes","1024"
"3.168400243","9.12","6","horn","word","93.33333333333333","93.33333333333333","740.6","740.6","black","no","legacy","legacy","legacy","0","uniform","1","undefined","undefined","undefined","1","j","0","0","0","0","44","0","0","0","44","NA","40","44","40","0","40","3","44","0","44","Fri Feb 19 15:09:37 2021","The main experiment item","yes","Lexical_Decision_Task.osexp","C:/Users/Eden/OneDrive/Documents/Cogntive Psychology","no","Andale Mono","no","18","no","white","no","yes","576","legacy","40","40","3","C:/Users/Eden/OneDrive/Documents/Cogntive Psychology/subject-5214015.csv","legacy","Lentiform Loewenfeld","3.3.7","yes","yes","600bd7cfb6416f0113b04181","602110864497cf011d9c0822","0","j","NA","space","space","space","NA","j","585","NA","2912","22640","6109","NA","585","2","legacy","1024","2","48000","-16","task","5214015","odd","NA","41945","46862","43949","121096","2653","31406","25296","121600","NA","121094","121600","121016","46862","122186","39996","120516","2647","73261","Lexical Decision Task","42","33327","45","yes","1024"
"2.68604012","0","4","pumb","non-word","91.30434782608695","91.30434782608695","740.0652173913044","740.0652173913044","black","no","legacy","legacy","legacy","0","uniform","0","undefined","undefined","undefined","0","f","0","0","0","0","45","0","0","0","45","NA","41","45","41","0","41","3","45","0","45","Fri Feb 19 15:09:37 2021","The main experiment item","yes","Lexical_Decision_Task.osexp","C:/Users/Eden/OneDrive/Documents/Cogntive Psychology","no","Andale Mono","no","18","no","white","no","yes","576","legacy","41","41","3","C:/Users/Eden/OneDrive/Documents/Cogntive Psychology/subject-5214015.csv","legacy","Lentiform Loewenfeld","3.3.7","yes","yes","600bd7cfb6416f0113b04181","602110864497cf011d9c0822","0","j","NA","space","space","space","NA","j","716","NA","2912","22640","6109","NA","716","2","legacy","1024","2","48000","-16","task","5214015","odd","NA","41945","46862","43949","122796","2653","31406","25296","123300","NA","122795","123300","122717","46862","124017","39996","122217","2647","73261","Lexical Decision Task","42","34043","46","yes","1024"
"3.168890155","0","6","thet","non-word","91.48936170212765","91.48936170212765","738.2978723404256","738.2978723404256","black","no","legacy","legacy","legacy","0","uniform","1","undefined","undefined","undefined","1","f","0","0","0","0","46","0","0","0","46","NA","42","46","42","0","42","3","46","0","46","Fri Feb 19 15:09:37 2021","The main experiment item","yes","Lexical_Decision_Task.osexp","C:/Users/Eden/OneDrive/Documents/Cogntive Psychology","no","Andale Mono","no","18","no","white","no","yes","576","legacy","42","42","3","C:/Users/Eden/OneDrive/Documents/Cogntive Psychology/subject-5214015.csv","legacy","Lentiform Loewenfeld","3.3.7","yes","yes","600bd7cfb6416f0113b04181","602110864497cf011d9c0822","0","f","NA","space","space","space","NA","f","657","NA","2912","22640","6109","NA","657","2","legacy","1024","2","48000","-16","task","5214015","odd","NA","41945","46862","43949","125621","2653","31406","25296","126123","NA","125620","126124","125546","46862","126782","39996","122217","2647","124046","Lexical Decision Task","43","34700","47","yes","1024"
"3.2757719","0","5","slea","non-word","91.66666666666667","91.66666666666667","739.8541666666666","739.8541666666666","black","no","legacy","legacy","legacy","0","uniform","1","undefined","undefined","undefined","1","f","0","0","0","0","47","0","0","0","47","NA","43","47","43","0","43","3","47","0","47","Fri Feb 19 15:09:37 2021","The main experiment item","yes","Lexical_Decision_Task.osexp","C:/Users/Eden/OneDrive/Documents/Cogntive Psychology","no","Andale Mono","no","18","no","white","no","yes","576","legacy","43","43","3","C:/Users/Eden/OneDrive/Documents/Cogntive Psychology/subject-5214015.csv","legacy","Lentiform Loewenfeld","3.3.7","yes","yes","600bd7cfb6416f0113b04181","602110864497cf011d9c0822","0","f","NA","space","space","space","NA","f","813","NA","2912","22640","6109","NA","813","2","legacy","1024","2","48000","-16","task","5214015","odd","NA","41945","46862","43949","127391","2653","31406","25296","127895","NA","127389","127895","127313","46862","128709","39996","126813","2647","124046","Lexical Decision Task","44","35513","48","yes","1024"
"2.82129731","6.72","5","plum","word","91.83673469387755","91.83673469387755","737.795918367347","737.795918367347","black","no","legacy","legacy","legacy","0","uniform","1","undefined","undefined","undefined","1","j","0","0","0","0","48","0","0","0","48","NA","44","48","44","0","44","3","48","0","48","Fri Feb 19 15:09:37 2021","The main experiment item","yes","Lexical_Decision_Task.osexp","C:/Users/Eden/OneDrive/Documents/Cogntive Psychology","no","Andale Mono","no","18","no","white","no","yes","576","legacy","44","44","3","C:/Users/Eden/OneDrive/Documents/Cogntive Psychology/subject-5214015.csv","legacy","Lentiform Loewenfeld","3.3.7","yes","yes","600bd7cfb6416f0113b04181","602110864497cf011d9c0822","0","j","NA","space","space","space","NA","j","639","NA","2912","22640","6109","NA","639","2","legacy","1024","2","48000","-16","task","5214015","odd","NA","41945","46862","43949","129318","2653","31406","25296","129822","NA","129317","129822","129241","46862","130462","39996","128741","2647","124046","Lexical Decision Task","45","36152","49","yes","1024"
"2.952953801","0","8","clax","non-word","92","92","736.86","736.86","black","no","legacy","legacy","legacy","0","uniform","1","undefined","undefined","undefined","1","f","0","0","0","0","49","0","0","0","49","NA","45","49","45","0","45","3","49","0","49","Fri Feb 19 15:09:37 2021","The main experiment item","yes","Lexical_Decision_Task.osexp","C:/Users/Eden/OneDrive/Documents/Cogntive Psychology","no","Andale Mono","no","18","no","white","no","yes","576","legacy","45","45","3","C:/Users/Eden/OneDrive/Documents/Cogntive Psychology/subject-5214015.csv","legacy","Lentiform Loewenfeld","3.3.7","yes","yes","600bd7cfb6416f0113b04181","602110864497cf011d9c0822","0","f","NA","space","space","space","NA","f","691","NA","2912","22640","6109","NA","691","2","legacy","1024","2","48000","-16","task","5214015","odd","NA","41945","46862","43949","131080","2653","31406","25296","131584","NA","131079","131584","130994","46862","132276","39996","130494","2647","124046","Lexical Decision Task","46","36843","50","yes","1024"
"3.378276681","6.39","8","bran","word","90.19607843137256","90.19607843137256","742.7254901960785","742.7254901960785","black","no","legacy","legacy","legacy","0","uniform","0","undefined","undefined","undefined","0","j","0","0","0","0","50","0","0","0","50","NA","46","50","46","0","46","3","50","0","50","Fri Feb 19 15:09:37 2021","The main experiment item","yes","Lexical_Decision_Task.osexp","C:/Users/Eden/OneDrive/Documents/Cogntive Psychology","no","Andale Mono","no","18","no","white","no","yes","576","legacy","46","46","3","C:/Users/Eden/OneDrive/Documents/Cogntive Psychology/subject-5214015.csv","legacy","Lentiform Loewenfeld","3.3.7","yes","yes","600bd7cfb6416f0113b04181","602110864497cf011d9c0822","0","f","NA","space","space","space","NA","f","1036","NA","2912","22640","6109","NA","1036","2","legacy","1024","2","48000","-16","task","5214015","odd","NA","41945","46862","43949","132890","2653","31406","25296","133394","NA","132889","133394","132809","46862","134431","39996","132309","2647","124046","Lexical Decision Task","46","37879","51","yes","1024"
"3.028977705","0","7","frow","non-word","88.46153846153847","88.46153846153847","761.9615384615385","761.9615384615385","black","no","legacy","legacy","legacy","0","uniform","0","undefined","undefined","undefined","0","f","0","0","0","0","51","0","0","0","51","NA","47","51","47","0","47","3","51","0","51","Fri Feb 19 15:09:37 2021","The main experiment item","yes","Lexical_Decision_Task.osexp","C:/Users/Eden/OneDrive/Documents/Cogntive Psychology","no","Andale Mono","no","18","no","white","no","yes","576","legacy","47","47","3","C:/Users/Eden/OneDrive/Documents/Cogntive Psychology/subject-5214015.csv","legacy","Lentiform Loewenfeld","3.3.7","yes","yes","600bd7cfb6416f0113b04181","602110864497cf011d9c0822","0","j","NA","space","space","space","NA","j","1743","NA","2912","22640","6109","NA","1743","2","legacy","1024","2","48000","-16","task","5214015","odd","NA","41945","46862","43949","136049","2653","31406","25296","136553","NA","136047","136553","135962","46862","138297","39996","132309","2647","134462","Lexical Decision Task","46","39622","52","yes","1024"
"3.153104174","10.89","6","door","word","88.67924528301887","88.67924528301887","758.9622641509434","758.9622641509434","black","no","legacy","legacy","legacy","0","uniform","1","undefined","undefined","undefined","1","j","0","0","0","0","52","0","0","0","52","NA","48","52","48","0","48","3","52","0","52","Fri Feb 19 15:09:37 2021","The main experiment item","yes","Lexical_Decision_Task.osexp","C:/Users/Eden/OneDrive/Documents/Cogntive Psychology","no","Andale Mono","no","18","no","white","no","yes","576","legacy","48","48","3","C:/Users/Eden/OneDrive/Documents/Cogntive Psychology/subject-5214015.csv","legacy","Lentiform Loewenfeld","3.3.7","yes","yes","600bd7cfb6416f0113b04181","602110864497cf011d9c0822","0","j","NA","space","space","space","NA","j","603","NA","2912","22640","6109","NA","603","2","legacy","1024","2","48000","-16","task","5214015","odd","NA","41945","46862","43949","139913","2653","31406","25296","140417","NA","139912","140417","139828","46862","141021","39996","132309","2647","138328","Lexical Decision Task","47","40225","53","yes","1024"
"3.382617311","0","4","pret","non-word","88.88888888888889","88.88888888888889","756.3148148148148","756.3148148148148","black","no","legacy","legacy","legacy","0","uniform","1","undefined","undefined","undefined","1","f","0","0","0","0","53","0","0","0","53","NA","49","53","49","0","49","3","53","0","53","Fri Feb 19 15:09:37 2021","The main experiment item","yes","Lexical_Decision_Task.osexp","C:/Users/Eden/OneDrive/Documents/Cogntive Psychology","no","Andale Mono","no","18","no","white","no","yes","576","legacy","49","49","3","C:/Users/Eden/OneDrive/Documents/Cogntive Psychology/subject-5214015.csv","legacy","Lentiform Loewenfeld","3.3.7","yes","yes","600bd7cfb6416f0113b04181","602110864497cf011d9c0822","0","f","NA","space","space","space","NA","f","616","NA","2912","22640","6109","NA","616","2","legacy","1024","2","48000","-16","task","5214015","odd","NA","41945","46862","43949","141636","2653","31406","25296","142140","NA","141634","142140","141556","46862","142758","39996","141056","2647","138328","Lexical Decision Task","48","40841","54","yes","1024"
"2.980911938","7.15","7","hoop","word","89.0909090909091","89.0909090909091","756.8909090909091","756.8909090909091","black","no","legacy","legacy","legacy","0","uniform","1","undefined","undefined","undefined","1","j","0","0","0","0","54","0","0","0","54","0","50","54","50","0","50","3","54","0","54","Fri Feb 19 15:09:37 2021","The main experiment item","yes","Lexical_Decision_Task.osexp","C:/Users/Eden/OneDrive/Documents/Cogntive Psychology","no","Andale Mono","no","18","no","white","no","yes","576","legacy","50","50","3","C:/Users/Eden/OneDrive/Documents/Cogntive Psychology/subject-5214015.csv","legacy","Lentiform Loewenfeld","3.3.7","yes","yes","600bd7cfb6416f0113b04181","602110864497cf011d9c0822","0","j","NA","space","space","space","space","j","788","NA","2912","22640","6109","18442","788","2","legacy","1024","2","48000","-16","task","5214015","odd","NA","41945","46862","43949","161845","2653","31406","25296","162348","143344","161844","162349","143289","46862","163138","39996","142789","2647","138328","Lexical Decision Task","49","41629","55","yes","1024"
"2.713490543","0","3","feps","non-word","89.28571428571429","89.28571428571429","774.8392857142857","774.8392857142857","black","no","legacy","legacy","legacy","0","uniform","1","undefined","undefined","undefined","1","f","0","0","0","0","55","0","0","0","55","0","51","55","51","0","51","3","55","0","55","Fri Feb 19 15:09:37 2021","The main experiment item","yes","Lexical_Decision_Task.osexp","C:/Users/Eden/OneDrive/Documents/Cogntive Psychology","no","Andale Mono","no","18","no","white","no","yes","576","legacy","51","51","3","C:/Users/Eden/OneDrive/Documents/Cogntive Psychology/subject-5214015.csv","legacy","Lentiform Loewenfeld","3.3.7","yes","yes","600bd7cfb6416f0113b04181","602110864497cf011d9c0822","0","f","NA","space","space","space","space","f","1762","NA","2912","22640","6109","18442","1762","2","legacy","1024","2","48000","-16","task","5214015","odd","NA","41945","46862","43949","163746","2653","31406","25296","164249","143344","163744","164250","163669","46862","166013","39996","163169","2647","138328","Lexical Decision Task","50","43391","56","yes","1024"
"3.031408464","0","7","drow","non-word","89.47368421052632","89.47368421052632","787.3508771929825","787.3508771929825","black","no","legacy","legacy","legacy","0","uniform","1","undefined","undefined","undefined","1","f","0","0","0","0","56","0","0","0","56","0","52","56","52","0","52","3","56","0","56","Fri Feb 19 15:09:37 2021","The main experiment item","yes","Lexical_Decision_Task.osexp","C:/Users/Eden/OneDrive/Documents/Cogntive Psychology","no","Andale Mono","no","18","no","white","no","yes","576","legacy","52","52","3","C:/Users/Eden/OneDrive/Documents/Cogntive Psychology/subject-5214015.csv","legacy","Lentiform Loewenfeld","3.3.7","yes","yes","600bd7cfb6416f0113b04181","602110864497cf011d9c0822","0","f","NA","space","space","space","space","f","1488","NA","2912","22640","6109","18442","1488","2","legacy","1024","2","48000","-16","task","5214015","odd","NA","41945","46862","43949","166624","2653","31406","25296","167127","143344","166623","167127","166545","46862","168617","39996","166044","2647","138328","Lexical Decision Task","51","44879","57","yes","1024"
"2.7084209","0","8","vump","non-word","89.65517241379311","89.65517241379311","789.4655172413793","789.4655172413793","black","no","legacy","legacy","legacy","0","uniform","1","undefined","undefined","undefined","1","f","0","0","0","0","57","0","0","0","57","0","53","57","53","0","53","3","57","0","57","Fri Feb 19 15:09:37 2021","The main experiment item","yes","Lexical_Decision_Task.osexp","C:/Users/Eden/OneDrive/Documents/Cogntive Psychology","no","Andale Mono","no","18","no","white","no","yes","576","legacy","53","53","3","C:/Users/Eden/OneDrive/Documents/Cogntive Psychology/subject-5214015.csv","legacy","Lentiform Loewenfeld","3.3.7","yes","yes","600bd7cfb6416f0113b04181","602110864497cf011d9c0822","0","f","NA","space","space","space","space","f","910","NA","2912","22640","6109","18442","910","2","legacy","1024","2","48000","-16","task","5214015","odd","NA","41945","46862","43949","169227","2653","31406","25296","169731","143344","169225","169731","169149","46862","170642","39996","168649","2647","138328","Lexical Decision Task","52","45789","58","yes","1024"
"2.714888338","0","3","brug","non-word","89.83050847457628","89.83050847457628","791.2542372881356","791.2542372881356","black","no","legacy","legacy","legacy","0","uniform","1","undefined","undefined","undefined","1","f","0","0","0","0","58","0","0","0","58","0","54","58","54","0","54","3","58","0","58","Fri Feb 19 15:09:37 2021","The main experiment item","yes","Lexical_Decision_Task.osexp","C:/Users/Eden/OneDrive/Documents/Cogntive Psychology","no","Andale Mono","no","18","no","white","no","yes","576","legacy","54","54","3","C:/Users/Eden/OneDrive/Documents/Cogntive Psychology/subject-5214015.csv","legacy","Lentiform Loewenfeld","3.3.7","yes","yes","600bd7cfb6416f0113b04181","602110864497cf011d9c0822","0","f","NA","space","space","space","space","f","895","NA","2912","22640","6109","18442","895","2","legacy","1024","2","48000","-16","task","5214015","odd","NA","41945","46862","43949","171256","2653","31406","25296","171760","143344","171254","171760","171173","46862","172656","39996","170673","2647","138328","Lexical Decision Task","53","46684","59","yes","1024"
"2.728085817","10.02","9","bike","word","90","90","805","805","black","no","legacy","legacy","legacy","0","uniform","1","undefined","undefined","undefined","1","j","0","0","0","0","59","0","0","0","59","0","55","59","55","0","55","3","59","0","59","Fri Feb 19 15:09:37 2021","The main experiment item","yes","Lexical_Decision_Task.osexp","C:/Users/Eden/OneDrive/Documents/Cogntive Psychology","no","Andale Mono","no","18","no","white","no","yes","576","legacy","55","55","3","C:/Users/Eden/OneDrive/Documents/Cogntive Psychology/subject-5214015.csv","legacy","Lentiform Loewenfeld","3.3.7","yes","yes","600bd7cfb6416f0113b04181","602110864497cf011d9c0822","0","j","NA","space","space","space","space","j","1616","NA","2912","22640","6109","18442","1616","2","legacy","1024","2","48000","-16","task","5214015","odd","NA","41945","46862","43949","173263","2653","31406","25296","173767","143344","173262","173767","173187","46862","175384","39996","172687","2647","138328","Lexical Decision Task","54","48300","60","yes","1024"
"2.873320602","0","4","lurg","non-word","90.1639344262295","90.1639344262295","801.8196721311475","801.8196721311475","black","no","legacy","legacy","legacy","0","uniform","1","undefined","undefined","undefined","1","f","0","0","0","0","60","0","0","0","60","0","56","60","56","0","56","3","60","0","60","Fri Feb 19 15:09:37 2021","The main experiment item","yes","Lexical_Decision_Task.osexp","C:/Users/Eden/OneDrive/Documents/Cogntive Psychology","no","Andale Mono","no","18","no","white","no","yes","576","legacy","56","56","3","C:/Users/Eden/OneDrive/Documents/Cogntive Psychology/subject-5214015.csv","legacy","Lentiform Loewenfeld","3.3.7","yes","yes","600bd7cfb6416f0113b04181","602110864497cf011d9c0822","0","f","NA","space","space","space","space","f","611","NA","2912","22640","6109","18442","611","2","legacy","1024","2","48000","-16","task","5214015","odd","NA","41945","46862","43949","175996","2653","31406","25296","176500","143344","175994","176501","175916","46862","177113","39996","175416","2647","138328","Lexical Decision Task","55","48911","61","yes","1024"
"2.893578687","8.69","3","surf","word","90.3225806451613","90.3225806451613","803.8387096774194","803.8387096774194","black","no","legacy","legacy","legacy","0","uniform","1","undefined","undefined","undefined","1","j","0","0","0","0","61","0","0","0","61","0","57","61","57","0","57","3","61","0","61","Fri Feb 19 15:09:37 2021","The main experiment item","yes","Lexical_Decision_Task.osexp","C:/Users/Eden/OneDrive/Documents/Cogntive Psychology","no","Andale Mono","no","18","no","white","no","yes","576","legacy","57","57","3","C:/Users/Eden/OneDrive/Documents/Cogntive Psychology/subject-5214015.csv","legacy","Lentiform Loewenfeld","3.3.7","yes","yes","600bd7cfb6416f0113b04181","602110864497cf011d9c0822","0","j","NA","space","space","space","space","j","927","NA","2912","22640","6109","18442","927","2","legacy","1024","2","48000","-16","task","5214015","odd","NA","41945","46862","43949","177720","2653","31406","25296","178224","143344","177719","178224","177642","46862","179153","39996","177142","2647","138328","Lexical Decision Task","56","49838","62","yes","1024"
"2.9737419","7.69","7","claw","word","90.47619047619048","90.47619047619048","803.7142857142857","803.7142857142857","black","no","legacy","legacy","legacy","0","uniform","1","undefined","undefined","undefined","1","j","0","0","0","0","62","0","0","0","62","0","58","62","58","0","58","3","62","0","62","Fri Feb 19 15:09:37 2021","The main experiment item","yes","Lexical_Decision_Task.osexp","C:/Users/Eden/OneDrive/Documents/Cogntive Psychology","no","Andale Mono","no","18","no","white","no","yes","576","legacy","58","58","3","C:/Users/Eden/OneDrive/Documents/Cogntive Psychology/subject-5214015.csv","legacy","Lentiform Loewenfeld","3.3.7","yes","yes","600bd7cfb6416f0113b04181","602110864497cf011d9c0822","0","j","NA","space","space","space","space","j","796","NA","2912","22640","6109","18442","796","2","legacy","1024","2","48000","-16","task","5214015","odd","NA","41945","46862","43949","179767","2653","31406","25296","180271","143344","179765","180271","179685","46862","181069","39996","179185","2647","138328","Lexical Decision Task","57","50634","63","yes","1024"
"2.703007489","8.37","3","pulp","word","90.625","90.625","805.140625","805.140625","black","no","legacy","legacy","legacy","0","uniform","1","undefined","undefined","undefined","1","j","0","0","0","0","63","0","0","0","63","0","59","63","59","0","59","3","63","0","63","Fri Feb 19 15:09:37 2021","The main experiment item","yes","Lexical_Decision_Task.osexp","C:/Users/Eden/OneDrive/Documents/Cogntive Psychology","no","Andale Mono","no","18","no","white","no","yes","576","legacy","59","59","3","C:/Users/Eden/OneDrive/Documents/Cogntive Psychology/subject-5214015.csv","legacy","Lentiform Loewenfeld","3.3.7","yes","yes","600bd7cfb6416f0113b04181","602110864497cf011d9c0822","0","j","NA","space","space","space","space","j","895","NA","2912","22640","6109","18442","895","2","legacy","1024","2","48000","-16","task","5214015","odd","NA","41945","46862","43949","181678","2653","31406","25296","182182","143344","181676","182183","181600","46862","183078","39996","181100","2647","138328","Lexical Decision Task","58","51529","64","yes","1024"
"3.174641193","0","3","ramb","non-word","90.76923076923077","90.76923076923077","818.5076923076923","818.5076923076923","black","no","legacy","legacy","legacy","0","uniform","1","undefined","undefined","undefined","1","f","0","0","0","0","64","0","0","0","64","0","60","64","60","0","60","3","64","0","64","Fri Feb 19 15:09:37 2021","The main experiment item","yes","Lexical_Decision_Task.osexp","C:/Users/Eden/OneDrive/Documents/Cogntive Psychology","no","Andale Mono","no","18","no","white","no","yes","576","legacy","60","60","3","C:/Users/Eden/OneDrive/Documents/Cogntive Psychology/subject-5214015.csv","legacy","Lentiform Loewenfeld","3.3.7","yes","yes","600bd7cfb6416f0113b04181","602110864497cf011d9c0822","0","f","NA","space","space","space","space","f","1674","NA","2912","22640","6109","18442","1674","2","legacy","1024","2","48000","-16","task","5214015","odd","NA","41945","46862","43949","183692","2653","31406","25296","184196","143344","183690","184196","183611","46862","185871","39996","183111","2647","138328","Lexical Decision Task","59","53203","65","yes","1024"
"3.374198258","0","8","vist","non-word","89.39393939393939","89.39393939393939","814.560606060606","814.560606060606","black","no","legacy","legacy","legacy","0","uniform","0","undefined","undefined","undefined","0","f","0","0","0","0","65","0","0","0","65","0","61","65","61","0","61","3","65","0","65","Fri Feb 19 15:09:37 2021","The main experiment item","yes","Lexical_Decision_Task.osexp","C:/Users/Eden/OneDrive/Documents/Cogntive Psychology","no","Andale Mono","no","18","no","white","no","yes","576","legacy","61","61","3","C:/Users/Eden/OneDrive/Documents/Cogntive Psychology/subject-5214015.csv","legacy","Lentiform Loewenfeld","3.3.7","yes","yes","600bd7cfb6416f0113b04181","602110864497cf011d9c0822","0","j","NA","space","space","space","space","j","558","NA","2912","22640","6109","18442","558","2","legacy","1024","2","48000","-16","task","5214015","odd","NA","41945","46862","43949","186484","2653","31406","25296","186988","143344","186483","186988","186405","46862","187548","39996","185905","2647","138328","Lexical Decision Task","59","53761","66","yes","1024"
"3.366547468","0","6","plat","non-word","89.55223880597015","89.55223880597015","814.0298507462686","814.0298507462686","black","no","legacy","legacy","legacy","0","uniform","1","undefined","undefined","undefined","1","f","0","0","0","0","66","0","0","0","66","0","62","66","62","0","62","3","66","0","66","Fri Feb 19 15:09:37 2021","The main experiment item","yes","Lexical_Decision_Task.osexp","C:/Users/Eden/OneDrive/Documents/Cogntive Psychology","no","Andale Mono","no","18","no","white","no","yes","576","legacy","62","62","3","C:/Users/Eden/OneDrive/Documents/Cogntive Psychology/subject-5214015.csv","legacy","Lentiform Loewenfeld","3.3.7","yes","yes","600bd7cfb6416f0113b04181","602110864497cf011d9c0822","0","f","NA","space","space","space","space","f","779","NA","2912","22640","6109","18442","779","2","legacy","1024","2","48000","-16","task","5214015","odd","NA","41945","46862","43949","189163","2653","31406","25296","189667","143344","189161","189667","189080","46862","190447","39996","185905","2647","187580","Lexical Decision Task","60","54540","67","yes","1024"
"3.062080345","0","6","tomp","non-word","89.70588235294117","89.70588235294117","812.1176470588235","812.1176470588235","black","no","legacy","legacy","legacy","0","uniform","1","undefined","undefined","undefined","1","f","0","0","0","0","67","0","0","0","67","0","63","67","63","0","63","3","67","0","67","Fri Feb 19 15:09:37 2021","The main experiment item","yes","Lexical_Decision_Task.osexp","C:/Users/Eden/OneDrive/Documents/Cogntive Psychology","no","Andale Mono","no","18","no","white","no","yes","576","legacy","63","63","3","C:/Users/Eden/OneDrive/Documents/Cogntive Psychology/subject-5214015.csv","legacy","Lentiform Loewenfeld","3.3.7","yes","yes","600bd7cfb6416f0113b04181","602110864497cf011d9c0822","0","f","NA","space","space","space","space","f","684","NA","2912","22640","6109","18442","684","2","legacy","1024","2","48000","-16","task","5214015","odd","NA","41945","46862","43949","191056","2653","31406","25296","191560","143344","191054","191560","190978","46862","192245","39996","190478","2647","187580","Lexical Decision Task","61","55224","68","yes","1024"
"3.259832699","0","9","flar","non-word","89.85507246376811","89.85507246376811","810.5942028985507","810.5942028985507","black","no","legacy","legacy","legacy","0","uniform","1","undefined","undefined","undefined","1","f","0","0","0","0","68","0","0","0","68","0","64","68","64","0","64","3","68","0","68","Fri Feb 19 15:09:37 2021","The main experiment item","yes","Lexical_Decision_Task.osexp","C:/Users/Eden/OneDrive/Documents/Cogntive Psychology","no","Andale Mono","no","18","no","white","no","yes","576","legacy","64","64","3","C:/Users/Eden/OneDrive/Documents/Cogntive Psychology/subject-5214015.csv","legacy","Lentiform Loewenfeld","3.3.7","yes","yes","600bd7cfb6416f0113b04181","602110864497cf011d9c0822","0","f","NA","space","space","space","space","f","707","NA","2912","22640","6109","18442","707","2","legacy","1024","2","48000","-16","task","5214015","odd","NA","41945","46862","43949","192860","2653","31406","25296","193364","143344","192859","193364","192779","46862","194073","39996","192279","2647","187580","Lexical Decision Task","62","55931","69","yes","1024"
"3.481012421","8.34","5","teen","word","90","90","807.9285714285714","807.9285714285714","black","no","legacy","legacy","legacy","0","uniform","1","undefined","undefined","undefined","1","j","0","0","0","0","69","0","0","0","69","0","65","69","65","0","65","3","69","0","69","Fri Feb 19 15:09:37 2021","The main experiment item","yes","Lexical_Decision_Task.osexp","C:/Users/Eden/OneDrive/Documents/Cogntive Psychology","no","Andale Mono","no","18","no","white","no","yes","576","legacy","65","65","3","C:/Users/Eden/OneDrive/Documents/Cogntive Psychology/subject-5214015.csv","legacy","Lentiform Loewenfeld","3.3.7","yes","yes","600bd7cfb6416f0113b04181","602110864497cf011d9c0822","0","j","NA","space","space","space","space","j","624","NA","2912","22640","6109","18442","624","2","legacy","1024","2","48000","-16","task","5214015","odd","NA","41945","46862","43949","194681","2653","31406","25296","195186","143344","194680","195186","194604","46862","195811","39996","194104","2647","187580","Lexical Decision Task","63","56555","70","yes","1024"
"3.068433376","8.09","2","bulb","word","90.14084507042253","90.14084507042253","810.169014084507","810.169014084507","black","no","legacy","legacy","legacy","0","uniform","1","undefined","undefined","undefined","1","j","0","0","0","0","70","0","0","0","70","0","66","70","66","0","66","3","70","0","70","Fri Feb 19 15:09:37 2021","The main experiment item","yes","Lexical_Decision_Task.osexp","C:/Users/Eden/OneDrive/Documents/Cogntive Psychology","no","Andale Mono","no","18","no","white","no","yes","576","legacy","66","66","3","C:/Users/Eden/OneDrive/Documents/Cogntive Psychology/subject-5214015.csv","legacy","Lentiform Loewenfeld","3.3.7","yes","yes","600bd7cfb6416f0113b04181","602110864497cf011d9c0822","0","j","NA","space","space","space","space","j","967","NA","2912","22640","6109","18442","967","2","legacy","1024","2","48000","-16","task","5214015","odd","NA","41945","46862","43949","196423","2653","31406","25296","196927","143344","196421","196927","196345","46862","197896","39996","195845","2647","187580","Lexical Decision Task","64","57522","71","yes","1024"
"2.719886232","7.98","2","quiz","word","90.27777777777777","90.27777777777777","806.7222222222222","806.7222222222222","black","no","legacy","legacy","legacy","0","uniform","1","undefined","undefined","undefined","1","j","0","0","0","0","71","0","0","0","71","0","67","71","67","0","67","3","71","0","71","Fri Feb 19 15:09:37 2021","The main experiment item","yes","Lexical_Decision_Task.osexp","C:/Users/Eden/OneDrive/Documents/Cogntive Psychology","no","Andale Mono","no","18","no","white","no","yes","576","legacy","67","67","3","C:/Users/Eden/OneDrive/Documents/Cogntive Psychology/subject-5214015.csv","legacy","Lentiform Loewenfeld","3.3.7","yes","yes","600bd7cfb6416f0113b04181","602110864497cf011d9c0822","0","j","NA","space","space","space","space","j","562","NA","2912","22640","6109","18442","562","2","legacy","1024","2","48000","-16","task","5214015","odd","NA","41945","46862","43949","198511","2653","31406","25296","199015","143344","198510","199015","198430","46862","199579","39996","197930","2647","187580","Lexical Decision Task","65","58084","72","yes","1024"
"2.895974732","6.65","5","sift","word","89.04109589041096","89.04109589041096","805.5616438356165","805.5616438356165","black","no","legacy","legacy","legacy","0","uniform","0","undefined","undefined","undefined","0","j","0","0","0","0","72","0","0","0","72","0","68","72","68","0","68","3","72","0","72","Fri Feb 19 15:09:37 2021","The main experiment item","yes","Lexical_Decision_Task.osexp","C:/Users/Eden/OneDrive/Documents/Cogntive Psychology","no","Andale Mono","no","18","no","white","no","yes","576","legacy","68","68","3","C:/Users/Eden/OneDrive/Documents/Cogntive Psychology/subject-5214015.csv","legacy","Lentiform Loewenfeld","3.3.7","yes","yes","600bd7cfb6416f0113b04181","602110864497cf011d9c0822","0","f","NA","space","space","space","space","f","722","NA","2912","22640","6109","18442","722","2","legacy","1024","2","48000","-16","task","5214015","odd","NA","41945","46862","43949","200197","2653","31406","25296","200701","143344","200195","200701","200111","46862","201425","39996","199611","2647","187580","Lexical Decision Task","65","58806","73","yes","1024"
"2.990042563","6.64","9","plow","word","89.1891891891892","89.1891891891892","807.8783783783783","807.8783783783783","black","no","legacy","legacy","legacy","0","uniform","1","undefined","undefined","undefined","1","j","0","0","0","0","73","0","0","0","73","0","69","73","69","0","69","3","73","0","73","Fri Feb 19 15:09:37 2021","The main experiment item","yes","Lexical_Decision_Task.osexp","C:/Users/Eden/OneDrive/Documents/Cogntive Psychology","no","Andale Mono","no","18","no","white","no","yes","576","legacy","69","69","3","C:/Users/Eden/OneDrive/Documents/Cogntive Psychology/subject-5214015.csv","legacy","Lentiform Loewenfeld","3.3.7","yes","yes","600bd7cfb6416f0113b04181","602110864497cf011d9c0822","0","j","NA","space","space","space","space","j","977","NA","2912","22640","6109","18442","977","2","legacy","1024","2","48000","-16","task","5214015","odd","NA","41945","46862","43949","203046","2653","31406","25296","203550","143344","203044","203550","202956","46862","204528","39996","199611","2647","201456","Lexical Decision Task","66","59783","74","yes","1024"
"3.368162872","0","4","ferk","non-word","89.33333333333333","89.33333333333333","805.8666666666667","805.8666666666667","black","no","legacy","legacy","legacy","0","uniform","1","undefined","undefined","undefined","1","f","0","0","0","0","74","0","0","0","74","0","70","74","70","0","70","3","74","0","74","Fri Feb 19 15:09:37 2021","The main experiment item","yes","Lexical_Decision_Task.osexp","C:/Users/Eden/OneDrive/Documents/Cogntive Psychology","no","Andale Mono","no","18","no","white","no","yes","576","legacy","70","70","3","C:/Users/Eden/OneDrive/Documents/Cogntive Psychology/subject-5214015.csv","legacy","Lentiform Loewenfeld","3.3.7","yes","yes","600bd7cfb6416f0113b04181","602110864497cf011d9c0822","0","f","NA","space","space","space","space","f","657","NA","2912","22640","6109","18442","657","2","legacy","1024","2","48000","-16","task","5214015","odd","NA","41945","46862","43949","205140","2653","31406","25296","205644","143344","205138","205644","205061","46862","206302","39996","204561","2647","201456","Lexical Decision Task","67","60440","75","yes","1024"
"2.814027728","8.2","4","foam","word","89.47368421052632","89.47368421052632","802.7631578947369","802.7631578947369","black","no","legacy","legacy","legacy","0","uniform","1","undefined","undefined","undefined","1","j","0","0","0","0","75","0","0","0","75","0","71","75","71","0","71","3","75","0","75","Fri Feb 19 15:09:37 2021","The main experiment item","yes","Lexical_Decision_Task.osexp","C:/Users/Eden/OneDrive/Documents/Cogntive Psychology","no","Andale Mono","no","18","no","white","no","yes","576","legacy","71","71","3","C:/Users/Eden/OneDrive/Documents/Cogntive Psychology/subject-5214015.csv","legacy","Lentiform Loewenfeld","3.3.7","yes","yes","600bd7cfb6416f0113b04181","602110864497cf011d9c0822","0","j","NA","space","space","space","space","j","570","NA","2912","22640","6109","18442","570","2","legacy","1024","2","48000","-16","task","5214015","odd","NA","41945","46862","43949","206914","2653","31406","25296","207418","143344","206913","207418","206833","46862","207989","39996","206333","2647","201456","Lexical Decision Task","68","61010","76","yes","1024"
"2.778633532","0","3","jurp","non-word","89.6103896103896","89.6103896103896","801.2337662337662","801.2337662337662","black","no","legacy","legacy","legacy","0","uniform","1","undefined","undefined","undefined","1","f","0","0","0","0","76","0","0","0","76","0","72","76","72","0","72","3","76","0","76","Fri Feb 19 15:09:37 2021","The main experiment item","yes","Lexical_Decision_Task.osexp","C:/Users/Eden/OneDrive/Documents/Cogntive Psychology","no","Andale Mono","no","18","no","white","no","yes","576","legacy","72","72","3","C:/Users/Eden/OneDrive/Documents/Cogntive Psychology/subject-5214015.csv","legacy","Lentiform Loewenfeld","3.3.7","yes","yes","600bd7cfb6416f0113b04181","602110864497cf011d9c0822","0","f","NA","space","space","space","space","f","685","NA","2912","22640","6109","18442","685","2","legacy","1024","2","48000","-16","task","5214015","odd","NA","41945","46862","43949","208600","2653","31406","25296","209104","143344","208599","209104","208521","46862","209791","39996","208021","2647","201456","Lexical Decision Task","69","61695","77","yes","1024"
"2.698387659","6.66","7","skid","word","89.74358974358974","89.74358974358974","800.2948717948718","800.2948717948718","black","no","legacy","legacy","legacy","0","uniform","1","undefined","undefined","undefined","1","j","0","0","0","0","77","0","0","0","77","0","73","77","73","0","73","3","77","0","77","Fri Feb 19 15:09:37 2021","The main experiment item","yes","Lexical_Decision_Task.osexp","C:/Users/Eden/OneDrive/Documents/Cogntive Psychology","no","Andale Mono","no","18","no","white","no","yes","576","legacy","73","73","3","C:/Users/Eden/OneDrive/Documents/Cogntive Psychology/subject-5214015.csv","legacy","Lentiform Loewenfeld","3.3.7","yes","yes","600bd7cfb6416f0113b04181","602110864497cf011d9c0822","0","j","NA","space","space","space","space","j","728","NA","2912","22640","6109","18442","728","2","legacy","1024","2","48000","-16","task","5214015","odd","NA","41945","46862","43949","210400","2653","31406","25296","210904","143344","210399","210904","210322","46862","211635","39996","209822","2647","201456","Lexical Decision Task","70","62423","78","yes","1024"
"2.966923697","5.4","2","fume","word","89.87341772151899","89.87341772151899","798.2405063291139","798.2405063291139","black","no","legacy","legacy","legacy","0","uniform","1","undefined","undefined","undefined","1","j","0","0","0","0","78","0","0","0","78","0","74","78","74","0","74","3","78","0","78","Fri Feb 19 15:09:37 2021","The main experiment item","yes","Lexical_Decision_Task.osexp","C:/Users/Eden/OneDrive/Documents/Cogntive Psychology","no","Andale Mono","no","18","no","white","no","yes","576","legacy","74","74","3","C:/Users/Eden/OneDrive/Documents/Cogntive Psychology/subject-5214015.csv","legacy","Lentiform Loewenfeld","3.3.7","yes","yes","600bd7cfb6416f0113b04181","602110864497cf011d9c0822","0","j","NA","space","space","space","space","j","638","NA","2912","22640","6109","18442","638","2","legacy","1024","2","48000","-16","task","5214015","odd","NA","41945","46862","43949","212244","2653","31406","25296","212748","143344","212243","212748","212164","46862","213387","39996","211664","2647","201456","Lexical Decision Task","71","63061","79","yes","1024"
"3.274157849","0","8","leet","non-word","90","90","797.475","797.475","black","no","legacy","legacy","legacy","0","uniform","1","undefined","undefined","undefined","1","f","0","0","0","0","79","0","0","0","79","0","75","79","75","0","75","3","79","0","79","Fri Feb 19 15:09:37 2021","The main experiment item","yes","Lexical_Decision_Task.osexp","C:/Users/Eden/OneDrive/Documents/Cogntive Psychology","no","Andale Mono","no","18","no","white","no","yes","576","legacy","75","75","3","C:/Users/Eden/OneDrive/Documents/Cogntive Psychology/subject-5214015.csv","legacy","Lentiform Loewenfeld","3.3.7","yes","yes","600bd7cfb6416f0113b04181","602110864497cf011d9c0822","0","f","NA","space","space","space","space","f","737","NA","2912","22640","6109","18442","737","2","legacy","1024","2","48000","-16","task","5214015","odd","NA","41945","46862","43949","213969","2653","31406","25296","214472","143344","213967","214472","213893","46862","215211","39996","213392","2647","201456","Lexical Decision Task","72","63798","80","yes","1024"
"2.979548375","8.71","4","soup","word","90.12345679012346","90.12345679012346","796.604938271605","796.604938271605","black","no","legacy","legacy","legacy","0","uniform","1","undefined","undefined","undefined","1","j","0","0","0","0","80","0","0","0","80","0","76","80","76","0","76","3","80","0","80","Fri Feb 19 15:09:37 2021","The main experiment item","yes","Lexical_Decision_Task.osexp","C:/Users/Eden/OneDrive/Documents/Cogntive Psychology","no","Andale Mono","no","18","no","white","no","yes","576","legacy","76","76","3","C:/Users/Eden/OneDrive/Documents/Cogntive Psychology/subject-5214015.csv","legacy","Lentiform Loewenfeld","3.3.7","yes","yes","600bd7cfb6416f0113b04181","602110864497cf011d9c0822","0","j","NA","space","space","space","space","j","727","NA","2912","22640","6109","18442","727","2","legacy","1024","2","48000","-16","task","5214015","odd","NA","41945","46862","43949","215824","2653","31406","25296","216327","143344","215822","216327","215742","46862","217055","39996","215242","2647","201456","Lexical Decision Task","73","64525","81","yes","1024"
"2.784379519","0","2","snaf","non-word","90.2439024390244","90.2439024390244","794.9634146341464","794.9634146341464","black","no","legacy","legacy","legacy","0","uniform","1","undefined","undefined","undefined","1","f","0","0","0","0","81","0","0","0","81","0","77","81","77","0","77","3","81","0","81","Fri Feb 19 15:09:37 2021","The main experiment item","yes","Lexical_Decision_Task.osexp","C:/Users/Eden/OneDrive/Documents/Cogntive Psychology","no","Andale Mono","no","18","no","white","no","yes","576","legacy","77","77","3","C:/Users/Eden/OneDrive/Documents/Cogntive Psychology/subject-5214015.csv","legacy","Lentiform Loewenfeld","3.3.7","yes","yes","600bd7cfb6416f0113b04181","602110864497cf011d9c0822","0","f","NA","space","space","space","space","f","662","NA","2912","22640","6109","18442","662","2","legacy","1024","2","48000","-16","task","5214015","odd","NA","41945","46862","43949","217671","2653","31406","25296","218175","143344","217670","218175","217589","46862","218839","39996","217089","2647","201456","Lexical Decision Task","74","65187","82","yes","1024"
"2.675164031","8.57","6","glue","word","90.36144578313252","90.36144578313252","793.1204819277109","793.1204819277109","black","no","legacy","legacy","legacy","0","uniform","1","undefined","undefined","undefined","1","j","0","0","0","0","82","0","0","0","82","0","78","82","78","0","78","3","82","0","82","Fri Feb 19 15:09:37 2021","The main experiment item","yes","Lexical_Decision_Task.osexp","C:/Users/Eden/OneDrive/Documents/Cogntive Psychology","no","Andale Mono","no","18","no","white","no","yes","576","legacy","78","78","3","C:/Users/Eden/OneDrive/Documents/Cogntive Psychology/subject-5214015.csv","legacy","Lentiform Loewenfeld","3.3.7","yes","yes","600bd7cfb6416f0113b04181","602110864497cf011d9c0822","0","j","NA","space","space","space","space","j","642","NA","2912","22640","6109","18442","642","2","legacy","1024","2","48000","-16","task","5214015","odd","NA","41945","46862","43949","219452","2653","31406","25296","219955","143344","219451","219955","219373","46862","220598","39996","218873","2647","201456","Lexical Decision Task","75","65829","83","yes","1024"
"2.839898939","8.99","6","soap","word","90.47619047619048","90.47619047619048","790.797619047619","790.797619047619","black","no","legacy","legacy","legacy","0","uniform","1","undefined","undefined","undefined","1","j","0","0","0","0","83","0","0","0","83","0","79","83","79","0","79","3","83","0","83","Fri Feb 19 15:09:37 2021","The main experiment item","yes","Lexical_Decision_Task.osexp","C:/Users/Eden/OneDrive/Documents/Cogntive Psychology","no","Andale Mono","no","18","no","white","no","yes","576","legacy","79","79","3","C:/Users/Eden/OneDrive/Documents/Cogntive Psychology/subject-5214015.csv","legacy","Lentiform Loewenfeld","3.3.7","yes","yes","600bd7cfb6416f0113b04181","602110864497cf011d9c0822","0","j","NA","space","space","space","space","j","598","NA","2912","22640","6109","18442","598","2","legacy","1024","2","48000","-16","task","5214015","odd","NA","41945","46862","43949","221214","2653","31406","25296","221718","143344","221213","221718","221131","46862","222318","39996","220631","2647","201456","Lexical Decision Task","76","66427","84","yes","1024"
"3.102203805","7.21","3","drip","word","90.58823529411765","90.58823529411765","789.7411764705882","789.7411764705882","black","no","legacy","legacy","legacy","0","uniform","1","undefined","undefined","undefined","1","j","0","0","0","0","84","0","0","0","84","0","80","84","80","0","80","3","84","0","84","Fri Feb 19 15:09:37 2021","The main experiment item","yes","Lexical_Decision_Task.osexp","C:/Users/Eden/OneDrive/Documents/Cogntive Psychology","no","Andale Mono","no","18","no","white","no","yes","576","legacy","80","80","3","C:/Users/Eden/OneDrive/Documents/Cogntive Psychology/subject-5214015.csv","legacy","Lentiform Loewenfeld","3.3.7","yes","yes","600bd7cfb6416f0113b04181","602110864497cf011d9c0822","0","j","NA","space","space","space","space","j","701","NA","2912","22640","6109","18442","701","2","legacy","1024","2","48000","-16","task","5214015","odd","NA","41945","46862","43949","222902","2653","31406","25296","223406","143344","222899","223406","222823","46862","224108","39996","222323","2647","201456","Lexical Decision Task","77","67128","85","yes","1024"
"2.693726949","5.08","3","swig","word","90.69767441860465","90.69767441860465","788.6511627906976","788.6511627906976","black","no","legacy","legacy","legacy","0","uniform","1","undefined","undefined","undefined","1","j","0","0","0","0","85","0","0","0","85","0","81","85","81","0","81","3","85","0","85","Fri Feb 19 15:09:37 2021","The main experiment item","yes","Lexical_Decision_Task.osexp","C:/Users/Eden/OneDrive/Documents/Cogntive Psychology","no","Andale Mono","no","18","no","white","no","yes","576","legacy","81","81","3","C:/Users/Eden/OneDrive/Documents/Cogntive Psychology/subject-5214015.csv","legacy","Lentiform Loewenfeld","3.3.7","yes","yes","600bd7cfb6416f0113b04181","602110864497cf011d9c0822","0","j","NA","space","space","space","space","j","696","NA","2912","22640","6109","18442","696","2","legacy","1024","2","48000","-16","task","5214015","odd","NA","41945","46862","43949","224724","2653","31406","25296","225228","143344","224721","225228","224640","46862","225925","39996","224140","2647","201456","Lexical Decision Task","78","67824","86","yes","1024"
"3.209246849","0","7","slem","non-word","90.80459770114942","90.80459770114942","785.4597701149426","785.4597701149426","black","no","legacy","legacy","legacy","0","uniform","1","undefined","undefined","undefined","1","f","0","0","0","0","86","0","0","0","86","0","82","86","82","0","82","3","86","0","86","Fri Feb 19 15:09:37 2021","The main experiment item","yes","Lexical_Decision_Task.osexp","C:/Users/Eden/OneDrive/Documents/Cogntive Psychology","no","Andale Mono","no","18","no","white","no","yes","576","legacy","82","82","3","C:/Users/Eden/OneDrive/Documents/Cogntive Psychology/subject-5214015.csv","legacy","Lentiform Loewenfeld","3.3.7","yes","yes","600bd7cfb6416f0113b04181","602110864497cf011d9c0822","0","f","NA","space","space","space","space","f","511","NA","2912","22640","6109","18442","511","2","legacy","1024","2","48000","-16","task","5214015","odd","NA","41945","46862","43949","226539","2653","31406","25296","227043","143344","226536","227043","226456","46862","227555","39996","225956","2647","201456","Lexical Decision Task","79","68335","87","yes","1024"
"2.6599162","0","6","flug","non-word","90.9090909090909","90.9090909090909","788.7045454545455","788.7045454545455","black","no","legacy","legacy","legacy","0","uniform","1","undefined","undefined","undefined","1","f","0","0","0","0","87","0","0","0","87","0","83","87","83","0","83","3","87","0","87","Fri Feb 19 15:09:37 2021","The main experiment item","yes","Lexical_Decision_Task.osexp","C:/Users/Eden/OneDrive/Documents/Cogntive Psychology","no","Andale Mono","no","18","no","white","no","yes","576","legacy","83","83","3","C:/Users/Eden/OneDrive/Documents/Cogntive Psychology/subject-5214015.csv","legacy","Lentiform Loewenfeld","3.3.7","yes","yes","600bd7cfb6416f0113b04181","602110864497cf011d9c0822","0","f","NA","space","space","space","space","f","1071","NA","2912","22640","6109","18442","1071","2","legacy","1024","2","48000","-16","task","5214015","odd","NA","41945","46862","43949","228166","2653","31406","25296","228670","143344","228165","228670","228090","46862","229742","39996","227590","2647","201456","Lexical Decision Task","80","69406","88","yes","1024"
"3.440331212","7.35","6","stew","word","91.01123595505618","91.01123595505618","787.6516853932584","787.6516853932584","black","no","legacy","legacy","legacy","0","uniform","1","undefined","undefined","undefined","1","j","0","0","0","0","88","0","0","0","88","0","84","88","84","0","84","3","88","0","88","Fri Feb 19 15:09:37 2021","The main experiment item","yes","Lexical_Decision_Task.osexp","C:/Users/Eden/OneDrive/Documents/Cogntive Psychology","no","Andale Mono","no","18","no","white","no","yes","576","legacy","84","84","3","C:/Users/Eden/OneDrive/Documents/Cogntive Psychology/subject-5214015.csv","legacy","Lentiform Loewenfeld","3.3.7","yes","yes","600bd7cfb6416f0113b04181","602110864497cf011d9c0822","0","j","NA","space","space","space","space","j","695","NA","2912","22640","6109","18442","695","2","legacy","1024","2","48000","-16","task","5214015","odd","NA","41945","46862","43949","230353","2653","31406","25296","230857","143344","230351","230857","230274","46862","231554","39996","229774","2647","201456","Lexical Decision Task","81","70101","89","yes","1024"
"3.474361976","5.24","6","veer","word","90","90","785.9333333333333","785.9333333333333","black","no","legacy","legacy","legacy","0","uniform","0","undefined","undefined","undefined","0","j","0","0","0","0","89","0","0","0","89","0","85","89","85","0","85","3","89","0","89","Fri Feb 19 15:09:37 2021","The main experiment item","yes","Lexical_Decision_Task.osexp","C:/Users/Eden/OneDrive/Documents/Cogntive Psychology","no","Andale Mono","no","18","no","white","no","yes","576","legacy","85","85","3","C:/Users/Eden/OneDrive/Documents/Cogntive Psychology/subject-5214015.csv","legacy","Lentiform Loewenfeld","3.3.7","yes","yes","600bd7cfb6416f0113b04181","602110864497cf011d9c0822","0","f","NA","space","space","space","space","f","633","NA","2912","22640","6109","18442","633","2","legacy","1024","2","48000","-16","task","5214015","odd","NA","41945","46862","43949","232162","2653","31406","25296","232666","143344","232160","232666","232084","46862","233301","39996","231584","2647","201456","Lexical Decision Task","81","70734","90","yes","1024"
"3.269668578","0","7","trag","non-word","89.01098901098901","89.01098901098901","783.8351648351648","783.8351648351648","black","no","legacy","legacy","legacy","0","uniform","0","undefined","undefined","undefined","0","f","0","0","0","0","90","0","0","0","90","0","86","90","86","0","86","3","90","0","90","Fri Feb 19 15:09:37 2021","The main experiment item","yes","Lexical_Decision_Task.osexp","C:/Users/Eden/OneDrive/Documents/Cogntive Psychology","no","Andale Mono","no","18","no","white","no","yes","576","legacy","86","86","3","C:/Users/Eden/OneDrive/Documents/Cogntive Psychology/subject-5214015.csv","legacy","Lentiform Loewenfeld","3.3.7","yes","yes","600bd7cfb6416f0113b04181","602110864497cf011d9c0822","0","j","NA","space","space","space","space","j","595","NA","2912","22640","6109","18442","595","2","legacy","1024","2","48000","-16","task","5214015","odd","NA","41945","46862","43949","234893","2653","31406","25296","235397","143344","234892","235397","234806","46862","235994","39996","231584","2647","233306","Lexical Decision Task","81","71329","91","yes","1024"
"3.077974404","10.41","8","tool","word","89.1304347826087","89.1304347826087","784.6630434782609","784.6630434782609","black","no","legacy","legacy","legacy","0","uniform","1","undefined","undefined","undefined","1","j","0","0","0","0","91","0","0","0","91","0","87","91","87","0","87","3","91","0","91","Fri Feb 19 15:09:37 2021","The main experiment item","yes","Lexical_Decision_Task.osexp","C:/Users/Eden/OneDrive/Documents/Cogntive Psychology","no","Andale Mono","no","18","no","white","no","yes","576","legacy","87","87","3","C:/Users/Eden/OneDrive/Documents/Cogntive Psychology/subject-5214015.csv","legacy","Lentiform Loewenfeld","3.3.7","yes","yes","600bd7cfb6416f0113b04181","602110864497cf011d9c0822","0","j","NA","space","space","space","space","j","860","NA","2912","22640","6109","18442","860","2","legacy","1024","2","48000","-16","task","5214015","odd","NA","41945","46862","43949","237586","2653","31406","25296","238090","143344","237585","238090","237499","46862","238951","39996","231584","2647","235999","Lexical Decision Task","82","72189","92","yes","1024"
"2.813801082","5.47","7","nook","word","88.17204301075269","88.17204301075269","782.8172043010753","782.8172043010753","black","no","legacy","legacy","legacy","0","uniform","0","undefined","undefined","undefined","0","j","0","0","0","0","92","0","0","0","92","0","88","92","88","0","88","3","92","0","92","Fri Feb 19 15:09:37 2021","The main experiment item","yes","Lexical_Decision_Task.osexp","C:/Users/Eden/OneDrive/Documents/Cogntive Psychology","no","Andale Mono","no","18","no","white","no","yes","576","legacy","88","88","3","C:/Users/Eden/OneDrive/Documents/Cogntive Psychology/subject-5214015.csv","legacy","Lentiform Loewenfeld","3.3.7","yes","yes","600bd7cfb6416f0113b04181","602110864497cf011d9c0822","0","f","NA","space","space","space","space","f","613","NA","2912","22640","6109","18442","613","2","legacy","1024","2","48000","-16","task","5214015","odd","NA","41945","46862","43949","239566","2653","31406","25296","240070","143344","239564","240070","239483","46862","240684","39996","238983","2647","235999","Lexical Decision Task","82","72802","93","yes","1024"
"2.86332286","6.71","2","feud","word","88.29787234042553","88.29787234042553","783.2446808510638","783.2446808510638","black","no","legacy","legacy","legacy","0","uniform","1","undefined","undefined","undefined","1","j","0","0","0","0","93","0","0","0","93","0","89","93","89","0","89","3","93","0","93","Fri Feb 19 15:09:37 2021","The main experiment item","yes","Lexical_Decision_Task.osexp","C:/Users/Eden/OneDrive/Documents/Cogntive Psychology","no","Andale Mono","no","18","no","white","no","yes","576","legacy","89","89","3","C:/Users/Eden/OneDrive/Documents/Cogntive Psychology/subject-5214015.csv","legacy","Lentiform Loewenfeld","3.3.7","yes","yes","600bd7cfb6416f0113b04181","602110864497cf011d9c0822","0","j","NA","space","space","space","space","j","823","NA","2912","22640","6109","18442","823","2","legacy","1024","2","48000","-16","task","5214015","odd","NA","41945","46862","43949","242300","2653","31406","25296","242804","143344","242299","242804","242216","46862","243629","39996","238983","2647","240716","Lexical Decision Task","83","73625","94","yes","1024"
"3.031812271","6.52","3","gulp","word","88.42105263157895","88.42105263157895","782.4421052631579","782.4421052631579","black","no","legacy","legacy","legacy","0","uniform","1","undefined","undefined","undefined","1","j","0","0","0","0","94","0","0","0","94","0","90","94","90","0","90","3","94","0","94","Fri Feb 19 15:09:37 2021","The main experiment item","yes","Lexical_Decision_Task.osexp","C:/Users/Eden/OneDrive/Documents/Cogntive Psychology","no","Andale Mono","no","18","no","white","no","yes","576","legacy","90","90","3","C:/Users/Eden/OneDrive/Documents/Cogntive Psychology/subject-5214015.csv","legacy","Lentiform Loewenfeld","3.3.7","yes","yes","600bd7cfb6416f0113b04181","602110864497cf011d9c0822","0","j","NA","space","space","space","space","j","707","NA","2912","22640","6109","18442","707","2","legacy","1024","2","48000","-16","task","5214015","odd","NA","41945","46862","43949","244229","2653","31406","25296","244733","143344","244228","244733","244160","46862","245442","39996","243660","2647","240716","Lexical Decision Task","84","74332","95","yes","1024"
