"Log_BG","Log_Freq_HAL","Ortho_N","Stimulus","Type","acc","accuracy","average_response_time","avg_rt","background","bidi","canvas_backend","clock_backend","color_backend","compensation","coordinates","correct","correct_Experimental_intro","correct_Introduction","correct_Practice_intro","correct_experimenter_kb","correct_response","count_End_Of_Experiment","count_End_Of_Practice","count_Experimental_Loop","count_Experimental_intro","count_Fixation","count_Introduction","count_Practice_Loop","count_Practice_intro","count_Stimulus","count_block_break_feedback","count_experimental_sequence","count_experimenter_kb","count_increment_trial_count","count_init_trial_count","count_logger","count_practice_sequence","count_right","count_task","count_wrong","datetime","description","disable_garbage_collection","experiment_file","experiment_path","font_bold","font_family","font_italic","font_size","font_underline","foreground","form_clicks","fullscreen","height","keyboard_backend","live_row","live_row_Experimental_Loop","live_row_Practice_Loop","logfile","mouse_backend","opensesame_codename","opensesame_version","osf_always_upload_data","osf_always_upload_experiment","osf_datanode_id","osf_id","repeat_cycle","response","response_End_Of_Experiment","response_Experimental_intro","response_Introduction","response_Practice_intro","response_block_break_feedback","response_experimenter_kb","response_time","response_time_End_Of_Experiment","response_time_Experimental_intro","response_time_Introduction","response_time_Practice_intro","response_time_block_break_feedback","response_time_experimenter_kb","round_decimals","sampler_backend","sound_buf_size","sound_channels","sound_freq","sound_sample_size","start","subject_nr","subject_parity","time_End_Of_Experiment","time_End_Of_Practice","time_Experimental_Loop","time_Experimental_intro","time_Fixation","time_Introduction","time_Practice_Loop","time_Practice_intro","time_Stimulus","time_block_break_feedback","time_experimental_sequence","time_experimenter_kb","time_increment_trial_count","time_init_trial_count","time_logger","time_practice_sequence","time_right","time_task","time_wrong","title","total_correct","total_response_time","total_responses","uniform_coordinates","width"
"2.803231716","5.26","3","kiln","word","100","100","2000","2000","black","no","legacy","legacy","legacy","0","uniform","1","undefined","undefined","undefined","1","j","0","0","0","0","4","0","0","0","4","NA","0","4","0","0","0","3","4","0","4","Thu Feb 25 11:18:02 2021","The main experiment item","yes","Lexical_Decision_Task.osexp","/Users/evabarnard","no","Andale Mono","no","18","no","white","no","yes","576","legacy","0","0","3","/Users/evabarnard/subject-5214649.csv","legacy","Lentiform Loewenfeld","3.3.7","yes","yes","600bd7cfb6416f0113b04181","602110864497cf011d9c0822","0","j","NA","space","space","space","NA","j","2333","NA","3400","9995","8957","NA","2333","2","legacy","1024","2","48000","-16","task","5214649","odd","NA","36088","41492","38091","41525","5162","24130","15168","42029","NA","41522","42030","NA","41492","44364","32101","35559","5120","NA","Lexical Decision Task","5","10000","5","yes","1024"
"2.884795364","0","6","flob","non-word","100","100","1876.8333333333333","1876.8333333333333","black","no","legacy","legacy","legacy","0","uniform","1","undefined","undefined","undefined","1","f","0","0","0","0","5","0","0","0","5","NA","1","5","1","0","1","3","5","0","5","Thu Feb 25 11:18:02 2021","The main experiment item","yes","Lexical_Decision_Task.osexp","/Users/evabarnard","no","Andale Mono","no","18","no","white","no","yes","576","legacy","1","1","3","/Users/evabarnard/subject-5214649.csv","legacy","Lentiform Loewenfeld","3.3.7","yes","yes","600bd7cfb6416f0113b04181","602110864497cf011d9c0822","0","f","NA","space","space","space","NA","f","1261","NA","3400","9995","8957","NA","1261","2","legacy","1024","2","48000","-16","task","5214649","odd","NA","36088","41492","38091","44936","5162","24130","15168","45439","NA","44932","45440","44875","41492","46702","32101","44374","5120","NA","Lexical Decision Task","6","11261","6","yes","1024"
"2.594027722","9.08","8","skip","word","100","100","1708.5714285714287","1708.5714285714287","black","no","legacy","legacy","legacy","0","uniform","1","undefined","undefined","undefined","1","j","0","0","0","0","6","0","0","0","6","NA","2","6","2","0","2","3","6","0","6","Thu Feb 25 11:18:02 2021","The main experiment item","yes","Lexical_Decision_Task.osexp","/Users/evabarnard","no","Andale Mono","no","18","no","white","no","yes","576","legacy","2","2","3","/Users/evabarnard/subject-5214649.csv","legacy","Lentiform Loewenfeld","3.3.7","yes","yes","600bd7cfb6416f0113b04181","602110864497cf011d9c0822","0","j","NA","space","space","space","NA","j","699","NA","3400","9995","8957","NA","699","2","legacy","1024","2","48000","-16","task","5214649","odd","NA","36088","41492","38091","47278","5162","24130","15168","47782","NA","47275","47783","47208","41492","48483","32101","46707","5120","NA","Lexical Decision Task","7","11960","7","yes","1024"
"2.839268497","0","8","maft","non-word","100","100","1677.5","1677.5","black","no","legacy","legacy","legacy","0","uniform","1","undefined","undefined","undefined","1","f","0","0","0","0","7","0","0","0","7","NA","3","7","3","0","3","3","7","0","7","Thu Feb 25 11:18:02 2021","The main experiment item","yes","Lexical_Decision_Task.osexp","/Users/evabarnard","no","Andale Mono","no","18","no","white","no","yes","576","legacy","3","3","3","/Users/evabarnard/subject-5214649.csv","legacy","Lentiform Loewenfeld","3.3.7","yes","yes","600bd7cfb6416f0113b04181","602110864497cf011d9c0822","0","f","NA","space","space","space","NA","f","1460","NA","3400","9995","8957","NA","1460","2","legacy","1024","2","48000","-16","task","5214649","odd","NA","36088","41492","38091","49064","5162","24130","15168","49568","NA","49061","49569","48989","41492","51030","32101","48488","5120","NA","Lexical Decision Task","8","13420","8","yes","1024"
"3.091901331","0","9","nipe","non-word","88.88888888888889","88.88888888888889","1824.4444444444443","1824.4444444444443","black","no","legacy","legacy","legacy","0","uniform","0","undefined","undefined","undefined","0","f","0","0","0","0","8","0","0","0","8","NA","4","8","4","0","4","3","8","0","8","Thu Feb 25 11:18:02 2021","The main experiment item","yes","Lexical_Decision_Task.osexp","/Users/evabarnard","no","Andale Mono","no","18","no","white","no","yes","576","legacy","4","4","3","/Users/evabarnard/subject-5214649.csv","legacy","Lentiform Loewenfeld","3.3.7","yes","yes","600bd7cfb6416f0113b04181","602110864497cf011d9c0822","0","None","NA","space","space","space","NA","None","3000","NA","3400","9995","8957","NA","3000","2","legacy","1024","2","48000","-16","task","5214649","odd","NA","36088","41492","38091","51591","5162","24130","15168","52095","NA","51588","52096","51536","41492","55096","32101","51035","5120","NA","Lexical Decision Task","8","16420","9","yes","1024"
"2.8162413","0","5","nusk","non-word","90","90","1739.9","1739.9","black","no","legacy","legacy","legacy","0","uniform","1","undefined","undefined","undefined","1","f","0","0","0","0","9","0","0","0","9","NA","5","9","5","0","5","3","9","0","9","Thu Feb 25 11:18:02 2021","The main experiment item","yes","Lexical_Decision_Task.osexp","/Users/evabarnard","no","Andale Mono","no","18","no","white","no","yes","576","legacy","5","5","3","/Users/evabarnard/subject-5214649.csv","legacy","Lentiform Loewenfeld","3.3.7","yes","yes","600bd7cfb6416f0113b04181","602110864497cf011d9c0822","0","f","NA","space","space","space","NA","f","979","NA","3400","9995","8957","NA","979","2","legacy","1024","2","48000","-16","task","5214649","odd","NA","36088","41492","38091","56670","5162","24130","15168","57173","NA","56667","57174","56601","41492","58154","32101","51035","5120","55101","Lexical Decision Task","9","17399","10","yes","1024"
"3.230789326","5.38","5","prim","word","90.9090909090909","90.9090909090909","1639.8181818181818","1639.8181818181818","black","no","legacy","legacy","legacy","0","uniform","1","undefined","undefined","undefined","1","j","0","0","0","0","10","0","0","0","10","NA","6","10","6","0","6","3","10","0","10","Thu Feb 25 11:18:02 2021","The main experiment item","yes","Lexical_Decision_Task.osexp","/Users/evabarnard","no","Andale Mono","no","18","no","white","no","yes","576","legacy","6","6","3","/Users/evabarnard/subject-5214649.csv","legacy","Lentiform Loewenfeld","3.3.7","yes","yes","600bd7cfb6416f0113b04181","602110864497cf011d9c0822","0","j","NA","space","space","space","NA","j","639","NA","3400","9995","8957","NA","639","2","legacy","1024","2","48000","-16","task","5214649","odd","NA","36088","41492","38091","58717","5162","24130","15168","59221","NA","58714","59222","58660","41492","59862","32101","58160","5120","55101","Lexical Decision Task","10","18038","11","yes","1024"
"3.076883066","0","8","mout","non-word","91.66666666666667","91.66666666666667","1608.9166666666667","1608.9166666666667","black","no","legacy","legacy","legacy","0","uniform","1","undefined","undefined","undefined","1","f","0","0","0","0","11","0","0","0","11","NA","7","11","7","0","7","3","11","0","11","Thu Feb 25 11:18:02 2021","The main experiment item","yes","Lexical_Decision_Task.osexp","/Users/evabarnard","no","Andale Mono","no","18","no","white","no","yes","576","legacy","7","7","3","/Users/evabarnard/subject-5214649.csv","legacy","Lentiform Loewenfeld","3.3.7","yes","yes","600bd7cfb6416f0113b04181","602110864497cf011d9c0822","0","f","NA","space","space","space","NA","f","1269","NA","3400","9995","8957","NA","1269","2","legacy","1024","2","48000","-16","task","5214649","odd","NA","36088","41492","38091","60428","5162","24130","15168","60930","NA","60424","60931","60370","41492","62201","32101","59869","5120","55101","Lexical Decision Task","11","19307","12","yes","1024"
"3.137775856","7.39","5","comb","word","92.3076923076923","92.3076923076923","1534.3076923076924","1534.3076923076924","black","no","legacy","legacy","legacy","0","uniform","1","undefined","undefined","undefined","1","j","0","0","0","0","12","0","0","0","12","NA","8","12","8","0","8","3","12","0","12","Thu Feb 25 11:18:02 2021","The main experiment item","yes","Lexical_Decision_Task.osexp","/Users/evabarnard","no","Andale Mono","no","18","no","white","no","yes","576","legacy","8","8","3","/Users/evabarnard/subject-5214649.csv","legacy","Lentiform Loewenfeld","3.3.7","yes","yes","600bd7cfb6416f0113b04181","602110864497cf011d9c0822","0","j","NA","space","space","space","NA","j","639","NA","3400","9995","8957","NA","639","2","legacy","1024","2","48000","-16","task","5214649","odd","NA","36088","41492","38091","62764","5162","24130","15168","63269","NA","62761","63269","62707","41492","63909","32101","62206","5120","55101","Lexical Decision Task","12","19946","13","yes","1024"
"2.972357144","0","5","dasp","non-word","92.85714285714286","92.85714285714286","1491.642857142857","1491.642857142857","black","no","legacy","legacy","legacy","0","uniform","1","undefined","undefined","undefined","1","f","0","0","0","0","13","0","0","0","13","NA","9","13","9","0","9","3","13","0","13","Thu Feb 25 11:18:02 2021","The main experiment item","yes","Lexical_Decision_Task.osexp","/Users/evabarnard","no","Andale Mono","no","18","no","white","no","yes","576","legacy","9","9","3","/Users/evabarnard/subject-5214649.csv","legacy","Lentiform Loewenfeld","3.3.7","yes","yes","600bd7cfb6416f0113b04181","602110864497cf011d9c0822","0","f","NA","space","space","space","NA","f","937","NA","3400","9995","8957","NA","937","2","legacy","1024","2","48000","-16","task","5214649","odd","NA","36088","41492","38091","64471","5162","24130","15168","64975","NA","64468","64975","64415","41492","65913","32101","63915","5120","55101","Lexical Decision Task","13","20883","14","yes","1024"
"3.378276681","6.39","8","bran","word","86.66666666666667","86.66666666666667","1476.7333333333333","1476.7333333333333","black","no","legacy","legacy","legacy","0","uniform","0","undefined","undefined","undefined","0","j","0","0","0","0","14","0","0","0","14","NA","10","14","10","0","10","3","14","0","14","Thu Feb 25 11:18:02 2021","The main experiment item","yes","Lexical_Decision_Task.osexp","/Users/evabarnard","no","Andale Mono","no","18","no","white","no","yes","576","legacy","10","10","3","/Users/evabarnard/subject-5214649.csv","legacy","Lentiform Loewenfeld","3.3.7","yes","yes","600bd7cfb6416f0113b04181","602110864497cf011d9c0822","0","f","NA","space","space","space","NA","f","1268","NA","3400","9995","8957","NA","1268","2","legacy","1024","2","48000","-16","task","5214649","odd","NA","36088","41492","38091","66476","5162","24130","15168","66980","NA","66473","66981","66419","41492","68250","32101","65919","5120","55101","Lexical Decision Task","13","22151","15","yes","1024"
"3.131833513","7.66","4","limb","word","87.5","87.5","1427.8125","1427.8125","black","no","legacy","legacy","legacy","0","uniform","1","undefined","undefined","undefined","1","j","0","0","0","0","15","0","0","0","15","NA","11","15","11","0","11","3","15","0","15","Thu Feb 25 11:18:02 2021","The main experiment item","yes","Lexical_Decision_Task.osexp","/Users/evabarnard","no","Andale Mono","no","18","no","white","no","yes","576","legacy","11","11","3","/Users/evabarnard/subject-5214649.csv","legacy","Lentiform Loewenfeld","3.3.7","yes","yes","600bd7cfb6416f0113b04181","602110864497cf011d9c0822","0","j","NA","space","space","space","NA","j","694","NA","3400","9995","8957","NA","694","2","legacy","1024","2","48000","-16","task","5214649","odd","NA","36088","41492","38091","69815","5162","24130","15168","70320","NA","69812","70320","69756","41492","71015","32101","65919","5120","68256","Lexical Decision Task","14","22845","16","yes","1024"
"2.920123326","7.43","4","duel","word","88.23529411764706","88.23529411764706","1390.6470588235295","1390.6470588235295","black","no","legacy","legacy","legacy","0","uniform","1","undefined","undefined","undefined","1","j","0","0","0","0","16","0","0","0","16","NA","12","16","12","0","12","3","16","0","16","Thu Feb 25 11:18:02 2021","The main experiment item","yes","Lexical_Decision_Task.osexp","/Users/evabarnard","no","Andale Mono","no","18","no","white","no","yes","576","legacy","12","12","3","/Users/evabarnard/subject-5214649.csv","legacy","Lentiform Loewenfeld","3.3.7","yes","yes","600bd7cfb6416f0113b04181","602110864497cf011d9c0822","0","j","NA","space","space","space","NA","j","796","NA","3400","9995","8957","NA","796","2","legacy","1024","2","48000","-16","task","5214649","odd","NA","36088","41492","38091","71577","5162","24130","15168","72081","NA","71574","72081","71521","41492","72878","32101","71021","5120","68256","Lexical Decision Task","15","23641","17","yes","1024"
"3.031812271","6.52","3","gulp","word","88.88888888888889","88.88888888888889","1360.1666666666667","1360.1666666666667","black","no","legacy","legacy","legacy","0","uniform","1","undefined","undefined","undefined","1","j","0","0","0","0","17","0","0","0","17","NA","13","17","13","0","13","3","17","0","17","Thu Feb 25 11:18:02 2021","The main experiment item","yes","Lexical_Decision_Task.osexp","/Users/evabarnard","no","Andale Mono","no","18","no","white","no","yes","576","legacy","13","13","3","/Users/evabarnard/subject-5214649.csv","legacy","Lentiform Loewenfeld","3.3.7","yes","yes","600bd7cfb6416f0113b04181","602110864497cf011d9c0822","0","j","NA","space","space","space","NA","j","842","NA","3400","9995","8957","NA","842","2","legacy","1024","2","48000","-16","task","5214649","odd","NA","36088","41492","38091","73440","5162","24130","15168","73943","NA","73437","73944","73384","41492","74786","32101","72884","5120","68256","Lexical Decision Task","16","24483","18","yes","1024"
"3.20996159","0","4","clee","non-word","89.47368421052632","89.47368421052632","1339.3157894736842","1339.3157894736842","black","no","legacy","legacy","legacy","0","uniform","1","undefined","undefined","undefined","1","f","0","0","0","0","18","0","0","0","18","NA","14","18","14","0","14","3","18","0","18","Thu Feb 25 11:18:02 2021","The main experiment item","yes","Lexical_Decision_Task.osexp","/Users/evabarnard","no","Andale Mono","no","18","no","white","no","yes","576","legacy","14","14","3","/Users/evabarnard/subject-5214649.csv","legacy","Lentiform Loewenfeld","3.3.7","yes","yes","600bd7cfb6416f0113b04181","602110864497cf011d9c0822","0","f","NA","space","space","space","NA","f","964","NA","3400","9995","8957","NA","964","2","legacy","1024","2","48000","-16","task","5214649","odd","NA","36088","41492","38091","75350","5162","24130","15168","75855","NA","75347","75855","75292","41492","76819","32101","74792","5120","68256","Lexical Decision Task","17","25447","19","yes","1024"
"2.819763221","0","2","durp","non-word","90","90","1324.05","1324.05","black","no","legacy","legacy","legacy","0","uniform","1","undefined","undefined","undefined","1","f","0","0","0","0","19","0","0","0","19","NA","15","19","15","0","15","3","19","0","19","Thu Feb 25 11:18:02 2021","The main experiment item","yes","Lexical_Decision_Task.osexp","/Users/evabarnard","no","Andale Mono","no","18","no","white","no","yes","576","legacy","15","15","3","/Users/evabarnard/subject-5214649.csv","legacy","Lentiform Loewenfeld","3.3.7","yes","yes","600bd7cfb6416f0113b04181","602110864497cf011d9c0822","0","f","NA","space","space","space","NA","f","1034","NA","3400","9995","8957","NA","1034","2","legacy","1024","2","48000","-16","task","5214649","odd","NA","36088","41492","38091","77382","5162","24130","15168","77886","NA","77379","77886","77325","41492","78921","32101","76825","5120","68256","Lexical Decision Task","18","26481","20","yes","1024"
"2.695481676","0","7","goke","non-word","90.47619047619048","90.47619047619048","1309.142857142857","1309.142857142857","black","no","legacy","legacy","legacy","0","uniform","1","undefined","undefined","undefined","1","f","0","0","0","0","20","0","0","0","20","NA","16","20","16","0","16","3","20","0","20","Thu Feb 25 11:18:02 2021","The main experiment item","yes","Lexical_Decision_Task.osexp","/Users/evabarnard","no","Andale Mono","no","18","no","white","no","yes","576","legacy","16","16","3","/Users/evabarnard/subject-5214649.csv","legacy","Lentiform Loewenfeld","3.3.7","yes","yes","600bd7cfb6416f0113b04181","602110864497cf011d9c0822","0","f","NA","space","space","space","NA","f","1011","NA","3400","9995","8957","NA","1011","2","legacy","1024","2","48000","-16","task","5214649","odd","NA","36088","41492","38091","79483","5162","24130","15168","79986","NA","79480","79987","79427","41492","80999","32101","78926","5120","68256","Lexical Decision Task","19","27492","21","yes","1024"
"2.9737419","7.69","7","claw","word","90.9090909090909","90.9090909090909","1278.3181818181818","1278.3181818181818","black","no","legacy","legacy","legacy","0","uniform","1","undefined","undefined","undefined","1","j","0","0","0","0","21","0","0","0","21","NA","17","21","17","0","17","3","21","0","21","Thu Feb 25 11:18:02 2021","The main experiment item","yes","Lexical_Decision_Task.osexp","/Users/evabarnard","no","Andale Mono","no","18","no","white","no","yes","576","legacy","17","17","3","/Users/evabarnard/subject-5214649.csv","legacy","Lentiform Loewenfeld","3.3.7","yes","yes","600bd7cfb6416f0113b04181","602110864497cf011d9c0822","0","j","NA","space","space","space","NA","j","631","NA","3400","9995","8957","NA","631","2","legacy","1024","2","48000","-16","task","5214649","odd","NA","36088","41492","38091","81562","5162","24130","15168","82066","NA","81559","82067","81505","41492","82699","32101","81005","5120","68256","Lexical Decision Task","20","28123","22","yes","1024"
"2.980911938","7.15","7","hoop","word","91.30434782608695","91.30434782608695","1250.5217391304348","1250.5217391304348","black","no","legacy","legacy","legacy","0","uniform","1","undefined","undefined","undefined","1","j","0","0","0","0","22","0","0","0","22","NA","18","22","18","0","18","3","22","0","22","Thu Feb 25 11:18:02 2021","The main experiment item","yes","Lexical_Decision_Task.osexp","/Users/evabarnard","no","Andale Mono","no","18","no","white","no","yes","576","legacy","18","18","3","/Users/evabarnard/subject-5214649.csv","legacy","Lentiform Loewenfeld","3.3.7","yes","yes","600bd7cfb6416f0113b04181","602110864497cf011d9c0822","0","j","NA","space","space","space","NA","j","639","NA","3400","9995","8957","NA","639","2","legacy","1024","2","48000","-16","task","5214649","odd","NA","36088","41492","38091","83262","5162","24130","15168","83766","NA","83259","83767","83205","41492","84407","32101","82704","5120","68256","Lexical Decision Task","21","28762","23","yes","1024"
"3.100255637","0","6","brax","non-word","87.5","87.5","1239.7083333333333","1239.7083333333333","black","no","legacy","legacy","legacy","0","uniform","0","undefined","undefined","undefined","0","f","0","0","0","0","23","0","0","0","23","NA","19","23","19","0","19","3","23","0","23","Thu Feb 25 11:18:02 2021","The main experiment item","yes","Lexical_Decision_Task.osexp","/Users/evabarnard","no","Andale Mono","no","18","no","white","no","yes","576","legacy","19","19","3","/Users/evabarnard/subject-5214649.csv","legacy","Lentiform Loewenfeld","3.3.7","yes","yes","600bd7cfb6416f0113b04181","602110864497cf011d9c0822","0","j","NA","space","space","space","NA","j","991","NA","3400","9995","8957","NA","991","2","legacy","1024","2","48000","-16","task","5214649","odd","NA","36088","41492","38091","84969","5162","24130","15168","85473","NA","84965","85473","84913","41492","86465","32101","84412","5120","68256","Lexical Decision Task","21","29753","24","yes","1024"
"3.531734309","0","6","lerd","non-word","88","88","1230.56","1230.56","black","no","legacy","legacy","legacy","0","uniform","1","undefined","undefined","undefined","1","f","0","0","0","0","24","0","0","0","24","NA","20","24","20","0","20","3","24","0","24","Thu Feb 25 11:18:02 2021","The main experiment item","yes","Lexical_Decision_Task.osexp","/Users/evabarnard","no","Andale Mono","no","18","no","white","no","yes","576","legacy","20","20","3","/Users/evabarnard/subject-5214649.csv","legacy","Lentiform Loewenfeld","3.3.7","yes","yes","600bd7cfb6416f0113b04181","602110864497cf011d9c0822","0","f","NA","space","space","space","NA","f","1011","NA","3400","9995","8957","NA","1011","2","legacy","1024","2","48000","-16","task","5214649","odd","NA","36088","41492","38091","88031","5162","24130","15168","88534","NA","88027","88535","87970","41492","89547","32101","84412","5120","86470","Lexical Decision Task","22","30764","25","yes","1024"
"3.269668578","0","7","trag","non-word","88.46153846153847","88.46153846153847","1218.1923076923076","1218.1923076923076","black","no","legacy","legacy","legacy","0","uniform","1","undefined","undefined","undefined","1","f","0","0","0","0","25","0","0","0","25","NA","21","25","21","0","21","3","25","0","25","Thu Feb 25 11:18:02 2021","The main experiment item","yes","Lexical_Decision_Task.osexp","/Users/evabarnard","no","Andale Mono","no","18","no","white","no","yes","576","legacy","21","21","3","/Users/evabarnard/subject-5214649.csv","legacy","Lentiform Loewenfeld","3.3.7","yes","yes","600bd7cfb6416f0113b04181","602110864497cf011d9c0822","0","f","NA","space","space","space","NA","f","909","NA","3400","9995","8957","NA","909","2","legacy","1024","2","48000","-16","task","5214649","odd","NA","36088","41492","38091","90109","5162","24130","15168","90613","NA","90106","90614","90053","41492","91523","32101","89552","5120","86470","Lexical Decision Task","23","31673","26","yes","1024"
"3.15462682","0","6","noal","non-word","88.88888888888889","88.88888888888889","1204.5925925925926","1204.5925925925926","black","no","legacy","legacy","legacy","0","uniform","1","undefined","undefined","undefined","1","f","0","0","0","0","26","0","0","0","26","NA","22","26","22","0","22","3","26","0","26","Thu Feb 25 11:18:02 2021","The main experiment item","yes","Lexical_Decision_Task.osexp","/Users/evabarnard","no","Andale Mono","no","18","no","white","no","yes","576","legacy","22","22","3","/Users/evabarnard/subject-5214649.csv","legacy","Lentiform Loewenfeld","3.3.7","yes","yes","600bd7cfb6416f0113b04181","602110864497cf011d9c0822","0","f","NA","space","space","space","NA","f","851","NA","3400","9995","8957","NA","851","2","legacy","1024","2","48000","-16","task","5214649","odd","NA","36088","41492","38091","92085","5162","24130","15168","92589","NA","92082","92589","92029","41492","93441","32101","91529","5120","86470","Lexical Decision Task","24","32524","27","yes","1024"
"2.892836167","10.01","5","soft","word","89.28571428571429","89.28571428571429","1183.5","1183.5","black","no","legacy","legacy","legacy","0","uniform","1","undefined","undefined","undefined","1","j","0","0","0","0","27","0","0","0","27","NA","23","27","23","0","23","3","27","0","27","Thu Feb 25 11:18:02 2021","The main experiment item","yes","Lexical_Decision_Task.osexp","/Users/evabarnard","no","Andale Mono","no","18","no","white","no","yes","576","legacy","23","23","3","/Users/evabarnard/subject-5214649.csv","legacy","Lentiform Loewenfeld","3.3.7","yes","yes","600bd7cfb6416f0113b04181","602110864497cf011d9c0822","0","j","NA","space","space","space","NA","j","614","NA","3400","9995","8957","NA","614","2","legacy","1024","2","48000","-16","task","5214649","odd","NA","36088","41492","38091","94003","5162","24130","15168","94507","NA","94000","94508","93947","41492","95123","32101","93447","5120","86470","Lexical Decision Task","25","33138","28","yes","1024"
"2.6599162","0","2","saff","non-word","89.65517241379311","89.65517241379311","1212.8620689655172","1212.8620689655172","black","no","legacy","legacy","legacy","0","uniform","1","undefined","undefined","undefined","1","f","0","0","0","0","28","0","0","0","28","NA","24","28","24","0","24","3","28","0","28","Thu Feb 25 11:18:02 2021","The main experiment item","yes","Lexical_Decision_Task.osexp","/Users/evabarnard","no","Andale Mono","no","18","no","white","no","yes","576","legacy","24","24","3","/Users/evabarnard/subject-5214649.csv","legacy","Lentiform Loewenfeld","3.3.7","yes","yes","600bd7cfb6416f0113b04181","602110864497cf011d9c0822","0","f","NA","space","space","space","NA","f","2035","NA","3400","9995","8957","NA","2035","2","legacy","1024","2","48000","-16","task","5214649","odd","NA","36088","41492","38091","95684","5162","24130","15168","96188","NA","95681","96189","95629","41492","98225","32101","95128","5120","86470","Lexical Decision Task","26","35173","29","yes","1024"
"2.839898939","8.99","6","soap","word","90","90","1193.2333333333333","1193.2333333333333","black","no","legacy","legacy","legacy","0","uniform","1","undefined","undefined","undefined","1","j","0","0","0","0","29","0","0","0","29","NA","25","29","25","0","25","3","29","0","29","Thu Feb 25 11:18:02 2021","The main experiment item","yes","Lexical_Decision_Task.osexp","/Users/evabarnard","no","Andale Mono","no","18","no","white","no","yes","576","legacy","25","25","3","/Users/evabarnard/subject-5214649.csv","legacy","Lentiform Loewenfeld","3.3.7","yes","yes","600bd7cfb6416f0113b04181","602110864497cf011d9c0822","0","j","NA","space","space","space","NA","j","624","NA","3400","9995","8957","NA","624","2","legacy","1024","2","48000","-16","task","5214649","odd","NA","36088","41492","38091","98787","5162","24130","15168","99290","NA","98784","99291","98731","41492","99916","32101","98231","5120","86470","Lexical Decision Task","27","35797","30","yes","1024"
"2.696356389","0","1","pizz","non-word","90.3225806451613","90.3225806451613","1182.483870967742","1182.483870967742","black","no","legacy","legacy","legacy","0","uniform","1","undefined","undefined","undefined","1","f","0","0","0","0","30","0","0","0","30","NA","26","30","26","0","26","3","30","0","30","Thu Feb 25 11:18:02 2021","The main experiment item","yes","Lexical_Decision_Task.osexp","/Users/evabarnard","no","Andale Mono","no","18","no","white","no","yes","576","legacy","26","26","3","/Users/evabarnard/subject-5214649.csv","legacy","Lentiform Loewenfeld","3.3.7","yes","yes","600bd7cfb6416f0113b04181","602110864497cf011d9c0822","0","f","NA","space","space","space","NA","f","860","NA","3400","9995","8957","NA","860","2","legacy","1024","2","48000","-16","task","5214649","odd","NA","36088","41492","38091","100478","5162","24130","15168","100982","NA","100475","100983","100422","41492","101844","32101","99922","5120","86470","Lexical Decision Task","28","36657","31","yes","1024"
"2.899092422","7.27","6","snag","word","90.625","90.625","1170.78125","1170.78125","black","no","legacy","legacy","legacy","0","uniform","1","undefined","undefined","undefined","1","j","0","0","0","0","31","0","0","0","31","NA","27","31","27","0","27","3","31","0","31","Thu Feb 25 11:18:02 2021","The main experiment item","yes","Lexical_Decision_Task.osexp","/Users/evabarnard","no","Andale Mono","no","18","no","white","no","yes","576","legacy","27","27","3","/Users/evabarnard/subject-5214649.csv","legacy","Lentiform Loewenfeld","3.3.7","yes","yes","600bd7cfb6416f0113b04181","602110864497cf011d9c0822","0","j","NA","space","space","space","NA","j","808","NA","3400","9995","8957","NA","808","2","legacy","1024","2","48000","-16","task","5214649","odd","NA","36088","41492","38091","102406","5162","24130","15168","102909","NA","102402","102910","102350","41492","103719","32101","101849","5120","86470","Lexical Decision Task","29","37465","32","yes","1024"
"3.140404328","10.66","9","deep","word","90.9090909090909","90.9090909090909","1153.4242424242425","1153.4242424242425","black","no","legacy","legacy","legacy","0","uniform","1","undefined","undefined","undefined","1","j","0","0","0","0","32","0","0","0","32","NA","28","32","28","0","28","3","32","0","32","Thu Feb 25 11:18:02 2021","The main experiment item","yes","Lexical_Decision_Task.osexp","/Users/evabarnard","no","Andale Mono","no","18","no","white","no","yes","576","legacy","28","28","3","/Users/evabarnard/subject-5214649.csv","legacy","Lentiform Loewenfeld","3.3.7","yes","yes","600bd7cfb6416f0113b04181","602110864497cf011d9c0822","0","j","NA","space","space","space","NA","j","598","NA","3400","9995","8957","NA","598","2","legacy","1024","2","48000","-16","task","5214649","odd","NA","36088","41492","38091","104280","5162","24130","15168","104784","NA","104277","104784","104224","41492","105383","32101","103723","5120","86470","Lexical Decision Task","30","38063","33","yes","1024"
"3.216517684","10.87","3","film","word","91.17647058823529","91.17647058823529","1136.7058823529412","1136.7058823529412","black","no","legacy","legacy","legacy","0","uniform","1","undefined","undefined","undefined","1","j","0","0","0","0","33","0","0","0","33","NA","29","33","29","0","29","3","33","0","33","Thu Feb 25 11:18:02 2021","The main experiment item","yes","Lexical_Decision_Task.osexp","/Users/evabarnard","no","Andale Mono","no","18","no","white","no","yes","576","legacy","29","29","3","/Users/evabarnard/subject-5214649.csv","legacy","Lentiform Loewenfeld","3.3.7","yes","yes","600bd7cfb6416f0113b04181","602110864497cf011d9c0822","0","j","NA","space","space","space","NA","j","585","NA","3400","9995","8957","NA","585","2","legacy","1024","2","48000","-16","task","5214649","odd","NA","36088","41492","38091","105945","5162","24130","15168","106449","NA","105942","106449","105889","41492","107035","32101","105389","5120","86470","Lexical Decision Task","31","38648","34","yes","1024"
"3.248054965","7.86","5","glow","word","91.42857142857143","91.42857142857143","1121.7714285714285","1121.7714285714285","black","no","legacy","legacy","legacy","0","uniform","1","undefined","undefined","undefined","1","j","0","0","0","0","34","0","0","0","34","NA","30","34","30","0","30","3","34","0","34","Thu Feb 25 11:18:02 2021","The main experiment item","yes","Lexical_Decision_Task.osexp","/Users/evabarnard","no","Andale Mono","no","18","no","white","no","yes","576","legacy","30","30","3","/Users/evabarnard/subject-5214649.csv","legacy","Lentiform Loewenfeld","3.3.7","yes","yes","600bd7cfb6416f0113b04181","602110864497cf011d9c0822","0","j","NA","space","space","space","NA","j","614","NA","3400","9995","8957","NA","614","2","legacy","1024","2","48000","-16","task","5214649","odd","NA","36088","41492","38091","107597","5162","24130","15168","108100","NA","107594","108100","107542","41492","108715","32101","107041","5120","86470","Lexical Decision Task","32","39262","35","yes","1024"
"2.767650507","0","6","yolt","non-word","91.66666666666667","91.66666666666667","1114","1114","black","no","legacy","legacy","legacy","0","uniform","1","undefined","undefined","undefined","1","f","0","0","0","0","35","0","0","0","35","NA","31","35","31","0","31","3","35","0","35","Thu Feb 25 11:18:02 2021","The main experiment item","yes","Lexical_Decision_Task.osexp","/Users/evabarnard","no","Andale Mono","no","18","no","white","no","yes","576","legacy","31","31","3","/Users/evabarnard/subject-5214649.csv","legacy","Lentiform Loewenfeld","3.3.7","yes","yes","600bd7cfb6416f0113b04181","602110864497cf011d9c0822","0","f","NA","space","space","space","NA","f","842","NA","3400","9995","8957","NA","842","2","legacy","1024","2","48000","-16","task","5214649","odd","NA","36088","41492","38091","109277","5162","24130","15168","109781","NA","109274","109782","109221","41492","110625","32101","108720","5120","86470","Lexical Decision Task","33","40104","36","yes","1024"
"2.880623071","0","9","curp","non-word","91.89189189189189","91.89189189189189","1104.2162162162163","1104.2162162162163","black","no","legacy","legacy","legacy","0","uniform","1","undefined","undefined","undefined","1","f","0","0","0","0","36","0","0","0","36","NA","32","36","32","0","32","3","36","0","36","Thu Feb 25 11:18:02 2021","The main experiment item","yes","Lexical_Decision_Task.osexp","/Users/evabarnard","no","Andale Mono","no","18","no","white","no","yes","576","legacy","32","32","3","/Users/evabarnard/subject-5214649.csv","legacy","Lentiform Loewenfeld","3.3.7","yes","yes","600bd7cfb6416f0113b04181","602110864497cf011d9c0822","0","f","NA","space","space","space","NA","f","752","NA","3400","9995","8957","NA","752","2","legacy","1024","2","48000","-16","task","5214649","odd","NA","36088","41492","38091","111186","5162","24130","15168","111690","NA","111183","111691","111131","41492","112444","32101","110631","5120","86470","Lexical Decision Task","34","40856","37","yes","1024"
"3.208978517","10.33","4","fish","word","92.10526315789474","92.10526315789474","1090.1842105263158","1090.1842105263158","black","no","legacy","legacy","legacy","0","uniform","1","undefined","undefined","undefined","1","j","0","0","0","0","37","0","0","0","37","NA","33","37","33","0","33","3","37","0","37","Thu Feb 25 11:18:02 2021","The main experiment item","yes","Lexical_Decision_Task.osexp","/Users/evabarnard","no","Andale Mono","no","18","no","white","no","yes","576","legacy","33","33","3","/Users/evabarnard/subject-5214649.csv","legacy","Lentiform Loewenfeld","3.3.7","yes","yes","600bd7cfb6416f0113b04181","602110864497cf011d9c0822","0","j","NA","space","space","space","NA","j","571","NA","3400","9995","8957","NA","571","2","legacy","1024","2","48000","-16","task","5214649","odd","NA","36088","41492","38091","113005","5162","24130","15168","113509","NA","113002","113510","112950","41492","114082","32101","112450","5120","86470","Lexical Decision Task","35","41427","38","yes","1024"
"3.090140555","5.81","8","pout","word","92.3076923076923","92.3076923076923","1077.6410256410256","1077.6410256410256","black","no","legacy","legacy","legacy","0","uniform","1","undefined","undefined","undefined","1","j","0","0","0","0","38","0","0","0","38","NA","34","38","34","0","34","3","38","0","38","Thu Feb 25 11:18:02 2021","The main experiment item","yes","Lexical_Decision_Task.osexp","/Users/evabarnard","no","Andale Mono","no","18","no","white","no","yes","576","legacy","34","34","3","/Users/evabarnard/subject-5214649.csv","legacy","Lentiform Loewenfeld","3.3.7","yes","yes","600bd7cfb6416f0113b04181","602110864497cf011d9c0822","0","j","NA","space","space","space","NA","j","601","NA","3400","9995","8957","NA","601","2","legacy","1024","2","48000","-16","task","5214649","odd","NA","36088","41492","38091","114643","5162","24130","15168","115147","NA","114640","115148","114588","41492","115750","32101","114088","5120","86470","Lexical Decision Task","36","42028","39","yes","1024"
"2.576725172","0","8","gowl","non-word","92.5","92.5","1073.875","1073.875","black","no","legacy","legacy","legacy","0","uniform","1","undefined","undefined","undefined","1","f","0","0","0","0","39","0","0","0","39","NA","35","39","35","0","35","3","39","0","39","Thu Feb 25 11:18:02 2021","The main experiment item","yes","Lexical_Decision_Task.osexp","/Users/evabarnard","no","Andale Mono","no","18","no","white","no","yes","576","legacy","35","35","3","/Users/evabarnard/subject-5214649.csv","legacy","Lentiform Loewenfeld","3.3.7","yes","yes","600bd7cfb6416f0113b04181","602110864497cf011d9c0822","0","f","NA","space","space","space","NA","f","927","NA","3400","9995","8957","NA","927","2","legacy","1024","2","48000","-16","task","5214649","odd","NA","36088","41492","38091","116312","5162","24130","15168","116817","NA","116309","116817","116256","41492","117745","32101","115756","5120","86470","Lexical Decision Task","37","42955","40","yes","1024"
"3.039414119","0","9","meep","non-word","92.6829268292683","92.6829268292683","1065.1707317073171","1065.1707317073171","black","no","legacy","legacy","legacy","0","uniform","1","undefined","undefined","undefined","1","f","0","0","0","0","40","0","0","0","40","NA","36","40","36","0","36","3","40","0","40","Thu Feb 25 11:18:02 2021","The main experiment item","yes","Lexical_Decision_Task.osexp","/Users/evabarnard","no","Andale Mono","no","18","no","white","no","yes","576","legacy","36","36","3","/Users/evabarnard/subject-5214649.csv","legacy","Lentiform Loewenfeld","3.3.7","yes","yes","600bd7cfb6416f0113b04181","602110864497cf011d9c0822","0","f","NA","space","space","space","NA","f","717","NA","3400","9995","8957","NA","717","2","legacy","1024","2","48000","-16","task","5214649","odd","NA","36088","41492","38091","118306","5162","24130","15168","118810","NA","118303","118811","118250","41492","119529","32101","117750","5120","86470","Lexical Decision Task","38","43672","41","yes","1024"
"2.82129731","6.72","5","plum","word","92.85714285714286","92.85714285714286","1054.5714285714287","1054.5714285714287","black","no","legacy","legacy","legacy","0","uniform","1","undefined","undefined","undefined","1","j","0","0","0","0","41","0","0","0","41","NA","37","41","37","0","37","3","41","0","41","Thu Feb 25 11:18:02 2021","The main experiment item","yes","Lexical_Decision_Task.osexp","/Users/evabarnard","no","Andale Mono","no","18","no","white","no","yes","576","legacy","37","37","3","/Users/evabarnard/subject-5214649.csv","legacy","Lentiform Loewenfeld","3.3.7","yes","yes","600bd7cfb6416f0113b04181","602110864497cf011d9c0822","0","j","NA","space","space","space","NA","j","620","NA","3400","9995","8957","NA","620","2","legacy","1024","2","48000","-16","task","5214649","odd","NA","36088","41492","38091","120091","5162","24130","15168","120595","NA","120088","120596","120035","41492","121217","32101","119534","5120","86470","Lexical Decision Task","39","44292","42","yes","1024"
"3.156347201","0","8","lasp","non-word","93.02325581395348","93.02325581395348","1046.1627906976744","1046.1627906976744","black","no","legacy","legacy","legacy","0","uniform","1","undefined","undefined","undefined","1","f","0","0","0","0","42","0","0","0","42","NA","38","42","38","0","38","3","42","0","42","Thu Feb 25 11:18:02 2021","The main experiment item","yes","Lexical_Decision_Task.osexp","/Users/evabarnard","no","Andale Mono","no","18","no","white","no","yes","576","legacy","38","38","3","/Users/evabarnard/subject-5214649.csv","legacy","Lentiform Loewenfeld","3.3.7","yes","yes","600bd7cfb6416f0113b04181","602110864497cf011d9c0822","0","f","NA","space","space","space","NA","f","693","NA","3400","9995","8957","NA","693","2","legacy","1024","2","48000","-16","task","5214649","odd","NA","36088","41492","38091","121779","5162","24130","15168","122282","NA","121775","122283","121723","41492","122977","32101","121222","5120","86470","Lexical Decision Task","40","44985","43","yes","1024"
"3.094121596","0","8","fode","non-word","93.18181818181819","93.18181818181819","1039.7727272727273","1039.7727272727273","black","no","legacy","legacy","legacy","0","uniform","1","undefined","undefined","undefined","1","f","0","0","0","0","43","0","0","0","43","NA","39","43","39","0","39","3","43","0","43","Thu Feb 25 11:18:02 2021","The main experiment item","yes","Lexical_Decision_Task.osexp","/Users/evabarnard","no","Andale Mono","no","18","no","white","no","yes","576","legacy","39","39","3","/Users/evabarnard/subject-5214649.csv","legacy","Lentiform Loewenfeld","3.3.7","yes","yes","600bd7cfb6416f0113b04181","602110864497cf011d9c0822","0","f","NA","space","space","space","NA","f","765","NA","3400","9995","8957","NA","765","2","legacy","1024","2","48000","-16","task","5214649","odd","NA","36088","41492","38091","123539","5162","24130","15168","124042","NA","123536","124043","123483","41492","124809","32101","122983","5120","86470","Lexical Decision Task","41","45750","44","yes","1024"
"3.274157849","0","8","leet","non-word","93.33333333333333","93.33333333333333","1031.6444444444444","1031.6444444444444","black","no","legacy","legacy","legacy","0","uniform","1","undefined","undefined","undefined","1","f","0","0","0","0","44","0","0","0","44","NA","40","44","40","0","40","3","44","0","44","Thu Feb 25 11:18:02 2021","The main experiment item","yes","Lexical_Decision_Task.osexp","/Users/evabarnard","no","Andale Mono","no","18","no","white","no","yes","576","legacy","40","40","3","/Users/evabarnard/subject-5214649.csv","legacy","Lentiform Loewenfeld","3.3.7","yes","yes","600bd7cfb6416f0113b04181","602110864497cf011d9c0822","0","f","NA","space","space","space","NA","f","674","NA","3400","9995","8957","NA","674","2","legacy","1024","2","48000","-16","task","5214649","odd","NA","36088","41492","38091","125373","5162","24130","15168","125877","NA","125370","125878","125316","41492","126553","32101","124815","5120","86470","Lexical Decision Task","42","46424","45","yes","1024"
"2.821076612","0","4","lult","non-word","93.47826086956522","93.47826086956522","1023.695652173913","1023.695652173913","black","no","legacy","legacy","legacy","0","uniform","1","undefined","undefined","undefined","1","f","0","0","0","0","45","0","0","0","45","NA","41","45","41","0","41","3","45","0","45","Thu Feb 25 11:18:02 2021","The main experiment item","yes","Lexical_Decision_Task.osexp","/Users/evabarnard","no","Andale Mono","no","18","no","white","no","yes","576","legacy","41","41","3","/Users/evabarnard/subject-5214649.csv","legacy","Lentiform Loewenfeld","3.3.7","yes","yes","600bd7cfb6416f0113b04181","602110864497cf011d9c0822","0","f","NA","space","space","space","NA","f","666","NA","3400","9995","8957","NA","666","2","legacy","1024","2","48000","-16","task","5214649","odd","NA","36088","41492","38091","127114","5162","24130","15168","127618","NA","127111","127619","127059","41492","128286","32101","126559","5120","86470","Lexical Decision Task","43","47090","46","yes","1024"
"3.119255889","6.63","2","itch","word","93.61702127659575","93.61702127659575","1019.7872340425532","1019.7872340425532","black","no","legacy","legacy","legacy","0","uniform","1","undefined","undefined","undefined","1","j","0","0","0","0","46","0","0","0","46","NA","42","46","42","0","42","3","46","0","46","Thu Feb 25 11:18:02 2021","The main experiment item","yes","Lexical_Decision_Task.osexp","/Users/evabarnard","no","Andale Mono","no","18","no","white","no","yes","576","legacy","42","42","3","/Users/evabarnard/subject-5214649.csv","legacy","Lentiform Loewenfeld","3.3.7","yes","yes","600bd7cfb6416f0113b04181","602110864497cf011d9c0822","0","j","NA","space","space","space","NA","j","840","NA","3400","9995","8957","NA","840","2","legacy","1024","2","48000","-16","task","5214649","odd","NA","36088","41492","38091","128847","5162","24130","15168","129351","NA","128844","129352","128791","41492","130193","32101","128291","5120","86470","Lexical Decision Task","44","47930","47","yes","1024"
"2.744553742","0","2","nawk","non-word","93.75","93.75","1012","1012","black","no","legacy","legacy","legacy","0","uniform","1","undefined","undefined","undefined","1","f","0","0","0","0","47","0","0","0","47","NA","43","47","43","0","43","3","47","0","47","Thu Feb 25 11:18:02 2021","The main experiment item","yes","Lexical_Decision_Task.osexp","/Users/evabarnard","no","Andale Mono","no","18","no","white","no","yes","576","legacy","43","43","3","/Users/evabarnard/subject-5214649.csv","legacy","Lentiform Loewenfeld","3.3.7","yes","yes","600bd7cfb6416f0113b04181","602110864497cf011d9c0822","0","f","NA","space","space","space","NA","f","646","NA","3400","9995","8957","NA","646","2","legacy","1024","2","48000","-16","task","5214649","odd","NA","36088","41492","38091","130756","5162","24130","15168","131260","NA","130753","131260","130699","41492","131907","32101","130199","5120","86470","Lexical Decision Task","45","48576","48","yes","1024"
"3.209246849","0","7","slem","non-word","93.87755102040816","93.87755102040816","1007.0612244897959","1007.0612244897959","black","no","legacy","legacy","legacy","0","uniform","1","undefined","undefined","undefined","1","f","0","0","0","0","48","0","0","0","48","NA","44","48","44","0","44","3","48","0","48","Thu Feb 25 11:18:02 2021","The main experiment item","yes","Lexical_Decision_Task.osexp","/Users/evabarnard","no","Andale Mono","no","18","no","white","no","yes","576","legacy","44","44","3","/Users/evabarnard/subject-5214649.csv","legacy","Lentiform Loewenfeld","3.3.7","yes","yes","600bd7cfb6416f0113b04181","602110864497cf011d9c0822","0","f","NA","space","space","space","NA","f","770","NA","3400","9995","8957","NA","770","2","legacy","1024","2","48000","-16","task","5214649","odd","NA","36088","41492","38091","132469","5162","24130","15168","132973","NA","132466","132973","132413","41492","133744","32101","131912","5120","86470","Lexical Decision Task","46","49346","49","yes","1024"
"2.873320602","0","4","lurg","non-word","94","94","1001.26","1001.26","black","no","legacy","legacy","legacy","0","uniform","1","undefined","undefined","undefined","1","f","0","0","0","0","49","0","0","0","49","NA","45","49","45","0","45","3","49","0","49","Thu Feb 25 11:18:02 2021","The main experiment item","yes","Lexical_Decision_Task.osexp","/Users/evabarnard","no","Andale Mono","no","18","no","white","no","yes","576","legacy","45","45","3","/Users/evabarnard/subject-5214649.csv","legacy","Lentiform Loewenfeld","3.3.7","yes","yes","600bd7cfb6416f0113b04181","602110864497cf011d9c0822","0","f","NA","space","space","space","NA","f","717","NA","3400","9995","8957","NA","717","2","legacy","1024","2","48000","-16","task","5214649","odd","NA","36088","41492","38091","134305","5162","24130","15168","134808","NA","134302","134809","134249","41492","135527","32101","133749","5120","86470","Lexical Decision Task","47","50063","50","yes","1024"
"3.067070856","9.39","3","loud","word","94.11764705882354","94.11764705882354","993.6862745098039","993.6862745098039","black","no","legacy","legacy","legacy","0","uniform","1","undefined","undefined","undefined","1","j","0","0","0","0","50","0","0","0","50","NA","46","50","46","0","46","3","50","0","50","Thu Feb 25 11:18:02 2021","The main experiment item","yes","Lexical_Decision_Task.osexp","/Users/evabarnard","no","Andale Mono","no","18","no","white","no","yes","576","legacy","46","46","3","/Users/evabarnard/subject-5214649.csv","legacy","Lentiform Loewenfeld","3.3.7","yes","yes","600bd7cfb6416f0113b04181","602110864497cf011d9c0822","0","j","NA","space","space","space","NA","j","615","NA","3400","9995","8957","NA","615","2","legacy","1024","2","48000","-16","task","5214649","odd","NA","36088","41492","38091","136092","5162","24130","15168","136595","NA","136088","136596","136035","41492","137212","32101","135534","5120","86470","Lexical Decision Task","48","50678","51","yes","1024"
"3.276537627","9.15","5","trap","word","94.23076923076923","94.23076923076923","985.7884615384615","985.7884615384615","black","no","legacy","legacy","legacy","0","uniform","1","undefined","undefined","undefined","1","j","0","0","0","0","51","0","0","0","51","NA","47","51","47","0","47","3","51","0","51","Thu Feb 25 11:18:02 2021","The main experiment item","yes","Lexical_Decision_Task.osexp","/Users/evabarnard","no","Andale Mono","no","18","no","white","no","yes","576","legacy","47","47","3","/Users/evabarnard/subject-5214649.csv","legacy","Lentiform Loewenfeld","3.3.7","yes","yes","600bd7cfb6416f0113b04181","602110864497cf011d9c0822","0","j","NA","space","space","space","NA","j","583","NA","3400","9995","8957","NA","583","2","legacy","1024","2","48000","-16","task","5214649","odd","NA","36088","41492","38091","137774","5162","24130","15168","138278","NA","137771","138279","137718","41492","138863","32101","137218","5120","86470","Lexical Decision Task","49","51261","52","yes","1024"
"3.257359335","8","6","brew","word","94.33962264150944","94.33962264150944","978.3207547169811","978.3207547169811","black","no","legacy","legacy","legacy","0","uniform","1","undefined","undefined","undefined","1","j","0","0","0","0","52","0","0","0","52","NA","48","52","48","0","48","3","52","0","52","Thu Feb 25 11:18:02 2021","The main experiment item","yes","Lexical_Decision_Task.osexp","/Users/evabarnard","no","Andale Mono","no","18","no","white","no","yes","576","legacy","48","48","3","/Users/evabarnard/subject-5214649.csv","legacy","Lentiform Loewenfeld","3.3.7","yes","yes","600bd7cfb6416f0113b04181","602110864497cf011d9c0822","0","j","NA","space","space","space","NA","j","590","NA","3400","9995","8957","NA","590","2","legacy","1024","2","48000","-16","task","5214649","odd","NA","36088","41492","38091","139425","5162","24130","15168","139929","NA","139422","139930","139369","41492","140521","32101","138868","5120","86470","Lexical Decision Task","50","51851","53","yes","1024"
"2.693726949","5.08","3","swig","word","94.44444444444444","94.44444444444444","978.5185185185185","978.5185185185185","black","no","legacy","legacy","legacy","0","uniform","1","undefined","undefined","undefined","1","j","0","0","0","0","53","0","0","0","53","NA","49","53","49","0","49","3","53","0","53","Thu Feb 25 11:18:02 2021","The main experiment item","yes","Lexical_Decision_Task.osexp","/Users/evabarnard","no","Andale Mono","no","18","no","white","no","yes","576","legacy","49","49","3","/Users/evabarnard/subject-5214649.csv","legacy","Lentiform Loewenfeld","3.3.7","yes","yes","600bd7cfb6416f0113b04181","602110864497cf011d9c0822","0","j","NA","space","space","space","NA","j","989","NA","3400","9995","8957","NA","989","2","legacy","1024","2","48000","-16","task","5214649","odd","NA","36088","41492","38091","141083","5162","24130","15168","141586","NA","141080","141587","141027","41492","142577","32101","140527","5120","86470","Lexical Decision Task","51","52840","54","yes","1024"
"3.259832699","0","9","flar","non-word","94.54545454545455","94.54545454545455","977.2363636363636","977.2363636363636","black","no","legacy","legacy","legacy","0","uniform","1","undefined","undefined","undefined","1","f","0","0","0","0","54","0","0","0","54","0","50","54","50","0","50","3","54","0","54","Thu Feb 25 11:18:02 2021","The main experiment item","yes","Lexical_Decision_Task.osexp","/Users/evabarnard","no","Andale Mono","no","18","no","white","no","yes","576","legacy","50","50","3","/Users/evabarnard/subject-5214649.csv","legacy","Lentiform Loewenfeld","3.3.7","yes","yes","600bd7cfb6416f0113b04181","602110864497cf011d9c0822","0","f","NA","space","space","space","space","f","908","NA","3400","9995","8957","4548","908","2","legacy","1024","2","48000","-16","task","5214649","odd","NA","36088","41492","38091","147717","5162","24130","15168","148221","143111","147714","148221","143082","41492","149130","32101","142582","5120","86470","Lexical Decision Task","52","53748","55","yes","1024"
"3.174641193","0","3","ramb","non-word","92.85714285714286","92.85714285714286","975.6964285714286","975.6964285714286","black","no","legacy","legacy","legacy","0","uniform","0","undefined","undefined","undefined","0","f","0","0","0","0","55","0","0","0","55","0","51","55","51","0","51","3","55","0","55","Thu Feb 25 11:18:02 2021","The main experiment item","yes","Lexical_Decision_Task.osexp","/Users/evabarnard","no","Andale Mono","no","18","no","white","no","yes","576","legacy","51","51","3","/Users/evabarnard/subject-5214649.csv","legacy","Lentiform Loewenfeld","3.3.7","yes","yes","600bd7cfb6416f0113b04181","602110864497cf011d9c0822","0","j","NA","space","space","space","space","j","891","NA","3400","9995","8957","4548","891","2","legacy","1024","2","48000","-16","task","5214649","odd","NA","36088","41492","38091","149692","5162","24130","15168","150195","143111","149689","150196","149636","41492","151088","32101","149136","5120","86470","Lexical Decision Task","52","54639","56","yes","1024"
"3.043885998","0","9","gome","non-word","92.98245614035088","92.98245614035088","971.4561403508771","971.4561403508771","black","no","legacy","legacy","legacy","0","uniform","1","undefined","undefined","undefined","1","f","0","0","0","0","56","0","0","0","56","0","52","56","52","0","52","3","56","0","56","Thu Feb 25 11:18:02 2021","The main experiment item","yes","Lexical_Decision_Task.osexp","/Users/evabarnard","no","Andale Mono","no","18","no","white","no","yes","576","legacy","52","52","3","/Users/evabarnard/subject-5214649.csv","legacy","Lentiform Loewenfeld","3.3.7","yes","yes","600bd7cfb6416f0113b04181","602110864497cf011d9c0822","0","f","NA","space","space","space","space","f","734","NA","3400","9995","8957","4548","734","2","legacy","1024","2","48000","-16","task","5214649","odd","NA","36088","41492","38091","152651","5162","24130","15168","153155","143111","152648","153156","152593","41492","153891","32101","149136","5120","151092","Lexical Decision Task","53","55373","57","yes","1024"
"3.049218023","7.4","9","robe","word","93.10344827586206","93.10344827586206","966","966","black","no","legacy","legacy","legacy","0","uniform","1","undefined","undefined","undefined","1","j","0","0","0","0","57","0","0","0","57","0","53","57","53","0","53","3","57","0","57","Thu Feb 25 11:18:02 2021","The main experiment item","yes","Lexical_Decision_Task.osexp","/Users/evabarnard","no","Andale Mono","no","18","no","white","no","yes","576","legacy","53","53","3","/Users/evabarnard/subject-5214649.csv","legacy","Lentiform Loewenfeld","3.3.7","yes","yes","600bd7cfb6416f0113b04181","602110864497cf011d9c0822","0","j","NA","space","space","space","space","j","655","NA","3400","9995","8957","4548","655","2","legacy","1024","2","48000","-16","task","5214649","odd","NA","36088","41492","38091","154453","5162","24130","15168","154957","143111","154450","154958","154397","41492","155614","32101","153897","5120","151092","Lexical Decision Task","54","56028","58","yes","1024"
"2.937852093","0","7","bamp","non-word","93.22033898305085","93.22033898305085","962.8474576271186","962.8474576271186","black","no","legacy","legacy","legacy","0","uniform","1","undefined","undefined","undefined","1","f","0","0","0","0","58","0","0","0","58","0","54","58","54","0","54","3","58","0","58","Thu Feb 25 11:18:02 2021","The main experiment item","yes","Lexical_Decision_Task.osexp","/Users/evabarnard","no","Andale Mono","no","18","no","white","no","yes","576","legacy","54","54","3","/Users/evabarnard/subject-5214649.csv","legacy","Lentiform Loewenfeld","3.3.7","yes","yes","600bd7cfb6416f0113b04181","602110864497cf011d9c0822","0","f","NA","space","space","space","space","f","780","NA","3400","9995","8957","4548","780","2","legacy","1024","2","48000","-16","task","5214649","odd","NA","36088","41492","38091","156182","5162","24130","15168","156685","143111","156179","156685","156120","41492","157466","32101","155620","5120","151092","Lexical Decision Task","55","56808","59","yes","1024"
"3.066077331","0","7","vorn","non-word","93.33333333333333","93.33333333333333","958.0666666666667","958.0666666666667","black","no","legacy","legacy","legacy","0","uniform","1","undefined","undefined","undefined","1","f","0","0","0","0","59","0","0","0","59","0","55","59","55","0","55","3","59","0","59","Thu Feb 25 11:18:02 2021","The main experiment item","yes","Lexical_Decision_Task.osexp","/Users/evabarnard","no","Andale Mono","no","18","no","white","no","yes","576","legacy","55","55","3","/Users/evabarnard/subject-5214649.csv","legacy","Lentiform Loewenfeld","3.3.7","yes","yes","600bd7cfb6416f0113b04181","602110864497cf011d9c0822","0","f","NA","space","space","space","space","f","676","NA","3400","9995","8957","4548","676","2","legacy","1024","2","48000","-16","task","5214649","odd","NA","36088","41492","38091","158028","5162","24130","15168","158533","143111","158025","158533","157972","41492","159210","32101","157472","5120","151092","Lexical Decision Task","56","57484","60","yes","1024"
"3.492014979","0","9","yine","non-word","93.44262295081967","93.44262295081967","952.2786885245902","952.2786885245902","black","no","legacy","legacy","legacy","0","uniform","1","undefined","undefined","undefined","1","f","0","0","0","0","60","0","0","0","60","0","56","60","56","0","56","3","60","0","60","Thu Feb 25 11:18:02 2021","The main experiment item","yes","Lexical_Decision_Task.osexp","/Users/evabarnard","no","Andale Mono","no","18","no","white","no","yes","576","legacy","56","56","3","/Users/evabarnard/subject-5214649.csv","legacy","Lentiform Loewenfeld","3.3.7","yes","yes","600bd7cfb6416f0113b04181","602110864497cf011d9c0822","0","f","NA","space","space","space","space","f","605","NA","3400","9995","8957","4548","605","2","legacy","1024","2","48000","-16","task","5214649","odd","NA","36088","41492","38091","159771","5162","24130","15168","160275","143111","159768","160275","159715","41492","160881","32101","159215","5120","151092","Lexical Decision Task","57","58089","61","yes","1024"
"3.225825991","0","7","talm","non-word","93.54838709677419","93.54838709677419","950","950","black","no","legacy","legacy","legacy","0","uniform","1","undefined","undefined","undefined","1","f","0","0","0","0","61","0","0","0","61","0","57","61","57","0","57","3","61","0","61","Thu Feb 25 11:18:02 2021","The main experiment item","yes","Lexical_Decision_Task.osexp","/Users/evabarnard","no","Andale Mono","no","18","no","white","no","yes","576","legacy","57","57","3","/Users/evabarnard/subject-5214649.csv","legacy","Lentiform Loewenfeld","3.3.7","yes","yes","600bd7cfb6416f0113b04181","602110864497cf011d9c0822","0","f","NA","space","space","space","space","f","811","NA","3400","9995","8957","4548","811","2","legacy","1024","2","48000","-16","task","5214649","odd","NA","36088","41492","38091","161442","5162","24130","15168","161946","143111","161439","161947","161387","41492","162759","32101","160886","5120","151092","Lexical Decision Task","58","58900","62","yes","1024"
"3.397302518","7.01","2","knit","word","93.65079365079364","93.65079365079364","944.1587301587301","944.1587301587301","black","no","legacy","legacy","legacy","0","uniform","1","undefined","undefined","undefined","1","j","0","0","0","0","62","0","0","0","62","0","58","62","58","0","58","3","62","0","62","Thu Feb 25 11:18:02 2021","The main experiment item","yes","Lexical_Decision_Task.osexp","/Users/evabarnard","no","Andale Mono","no","18","no","white","no","yes","576","legacy","58","58","3","/Users/evabarnard/subject-5214649.csv","legacy","Lentiform Loewenfeld","3.3.7","yes","yes","600bd7cfb6416f0113b04181","602110864497cf011d9c0822","0","j","NA","space","space","space","space","j","582","NA","3400","9995","8957","4548","582","2","legacy","1024","2","48000","-16","task","5214649","odd","NA","36088","41492","38091","163322","5162","24130","15168","163826","143111","163319","163826","163265","41492","164409","32101","162765","5120","151092","Lexical Decision Task","59","59482","63","yes","1024"
"3.120135028","0","3","vals","non-word","93.75","93.75","941.296875","941.296875","black","no","legacy","legacy","legacy","0","uniform","1","undefined","undefined","undefined","1","f","0","0","0","0","63","0","0","0","63","0","59","63","59","0","59","3","63","0","63","Thu Feb 25 11:18:02 2021","The main experiment item","yes","Lexical_Decision_Task.osexp","/Users/evabarnard","no","Andale Mono","no","18","no","white","no","yes","576","legacy","59","59","3","/Users/evabarnard/subject-5214649.csv","legacy","Lentiform Loewenfeld","3.3.7","yes","yes","600bd7cfb6416f0113b04181","602110864497cf011d9c0822","0","f","NA","space","space","space","space","f","761","NA","3400","9995","8957","4548","761","2","legacy","1024","2","48000","-16","task","5214649","odd","NA","36088","41492","38091","164973","5162","24130","15168","165476","143111","164970","165477","164916","41492","166239","32101","164415","5120","151092","Lexical Decision Task","60","60243","64","yes","1024"
"2.698100546","0","9","mulk","non-word","93.84615384615384","93.84615384615384","939.7846153846153","939.7846153846153","black","no","legacy","legacy","legacy","0","uniform","1","undefined","undefined","undefined","1","f","0","0","0","0","64","0","0","0","64","0","60","64","60","0","60","3","64","0","64","Thu Feb 25 11:18:02 2021","The main experiment item","yes","Lexical_Decision_Task.osexp","/Users/evabarnard","no","Andale Mono","no","18","no","white","no","yes","576","legacy","60","60","3","/Users/evabarnard/subject-5214649.csv","legacy","Lentiform Loewenfeld","3.3.7","yes","yes","600bd7cfb6416f0113b04181","602110864497cf011d9c0822","0","f","NA","space","space","space","space","f","843","NA","3400","9995","8957","4548","843","2","legacy","1024","2","48000","-16","task","5214649","odd","NA","36088","41492","38091","166816","5162","24130","15168","167320","143111","166813","167321","166753","41492","168165","32101","166253","5120","151092","Lexical Decision Task","61","61086","65","yes","1024"
"3.064581521","5.51","6","cask","word","92.42424242424242","92.42424242424242","948.530303030303","948.530303030303","black","no","legacy","legacy","legacy","0","uniform","0","undefined","undefined","undefined","0","j","0","0","0","0","65","0","0","0","65","0","61","65","61","0","61","3","65","0","65","Thu Feb 25 11:18:02 2021","The main experiment item","yes","Lexical_Decision_Task.osexp","/Users/evabarnard","no","Andale Mono","no","18","no","white","no","yes","576","legacy","61","61","3","/Users/evabarnard/subject-5214649.csv","legacy","Lentiform Loewenfeld","3.3.7","yes","yes","600bd7cfb6416f0113b04181","602110864497cf011d9c0822","0","f","NA","space","space","space","space","f","1517","NA","3400","9995","8957","4548","1517","2","legacy","1024","2","48000","-16","task","5214649","odd","NA","36088","41492","38091","168727","5162","24130","15168","169230","143111","168723","169231","168671","41492","170749","32101","168171","5120","151092","Lexical Decision Task","61","62603","66","yes","1024"
"2.799799878","0","4","ciff","non-word","92.53731343283582","92.53731343283582","949.4477611940298","949.4477611940298","black","no","legacy","legacy","legacy","0","uniform","1","undefined","undefined","undefined","1","f","0","0","0","0","66","0","0","0","66","0","62","66","62","0","62","3","66","0","66","Thu Feb 25 11:18:02 2021","The main experiment item","yes","Lexical_Decision_Task.osexp","/Users/evabarnard","no","Andale Mono","no","18","no","white","no","yes","576","legacy","62","62","3","/Users/evabarnard/subject-5214649.csv","legacy","Lentiform Loewenfeld","3.3.7","yes","yes","600bd7cfb6416f0113b04181","602110864497cf011d9c0822","0","f","NA","space","space","space","space","f","1010","NA","3400","9995","8957","4548","1010","2","legacy","1024","2","48000","-16","task","5214649","odd","NA","36088","41492","38091","172314","5162","24130","15168","172818","143111","172311","172819","172255","41492","173830","32101","168171","5120","170755","Lexical Decision Task","62","63613","67","yes","1024"
"2.898725182","0","7","turl","non-word","92.6470588235294","92.6470588235294","948.6323529411765","948.6323529411765","black","no","legacy","legacy","legacy","0","uniform","1","undefined","undefined","undefined","1","f","0","0","0","0","67","0","0","0","67","0","63","67","63","0","63","3","67","0","67","Thu Feb 25 11:18:02 2021","The main experiment item","yes","Lexical_Decision_Task.osexp","/Users/evabarnard","no","Andale Mono","no","18","no","white","no","yes","576","legacy","63","63","3","/Users/evabarnard/subject-5214649.csv","legacy","Lentiform Loewenfeld","3.3.7","yes","yes","600bd7cfb6416f0113b04181","602110864497cf011d9c0822","0","f","NA","space","space","space","space","f","894","NA","3400","9995","8957","4548","894","2","legacy","1024","2","48000","-16","task","5214649","odd","NA","36088","41492","38091","174395","5162","24130","15168","174899","143111","174392","174899","174335","41492","175794","32101","173835","5120","170755","Lexical Decision Task","63","64507","68","yes","1024"
"2.895974732","6.65","5","sift","word","91.30434782608695","91.30434782608695","954.1014492753624","954.1014492753624","black","no","legacy","legacy","legacy","0","uniform","0","undefined","undefined","undefined","0","j","0","0","0","0","68","0","0","0","68","0","64","68","64","0","64","3","68","0","68","Thu Feb 25 11:18:02 2021","The main experiment item","yes","Lexical_Decision_Task.osexp","/Users/evabarnard","no","Andale Mono","no","18","no","white","no","yes","576","legacy","64","64","3","/Users/evabarnard/subject-5214649.csv","legacy","Lentiform Loewenfeld","3.3.7","yes","yes","600bd7cfb6416f0113b04181","602110864497cf011d9c0822","0","f","NA","space","space","space","space","f","1326","NA","3400","9995","8957","4548","1326","2","legacy","1024","2","48000","-16","task","5214649","odd","NA","36088","41492","38091","176356","5162","24130","15168","176859","143111","176352","176859","176299","41492","178186","32101","175799","5120","170755","Lexical Decision Task","63","65833","69","yes","1024"
"2.893578687","8.69","3","surf","word","91.42857142857143","91.42857142857143","949.4571428571429","949.4571428571429","black","no","legacy","legacy","legacy","0","uniform","1","undefined","undefined","undefined","1","j","0","0","0","0","69","0","0","0","69","0","65","69","65","0","65","3","69","0","69","Thu Feb 25 11:18:02 2021","The main experiment item","yes","Lexical_Decision_Task.osexp","/Users/evabarnard","no","Andale Mono","no","18","no","white","no","yes","576","legacy","65","65","3","/Users/evabarnard/subject-5214649.csv","legacy","Lentiform Loewenfeld","3.3.7","yes","yes","600bd7cfb6416f0113b04181","602110864497cf011d9c0822","0","j","NA","space","space","space","space","j","629","NA","3400","9995","8957","4548","629","2","legacy","1024","2","48000","-16","task","5214649","odd","NA","36088","41492","38091","179750","5162","24130","15168","180254","143111","179747","180255","179692","41492","180886","32101","175799","5120","178192","Lexical Decision Task","64","66462","70","yes","1024"
"3.274543461","7.46","7","scar","word","91.54929577464789","91.54929577464789","943.7183098591549","943.7183098591549","black","no","legacy","legacy","legacy","0","uniform","1","undefined","undefined","undefined","1","j","0","0","0","0","70","0","0","0","70","0","66","70","66","0","66","3","70","0","70","Thu Feb 25 11:18:02 2021","The main experiment item","yes","Lexical_Decision_Task.osexp","/Users/evabarnard","no","Andale Mono","no","18","no","white","no","yes","576","legacy","66","66","3","/Users/evabarnard/subject-5214649.csv","legacy","Lentiform Loewenfeld","3.3.7","yes","yes","600bd7cfb6416f0113b04181","602110864497cf011d9c0822","0","j","NA","space","space","space","space","j","542","NA","3400","9995","8957","4548","542","2","legacy","1024","2","48000","-16","task","5214649","odd","NA","36088","41492","38091","181463","5162","24130","15168","181966","143111","181458","181967","181391","41492","182510","32101","180890","5120","178192","Lexical Decision Task","65","67004","71","yes","1024"
"3.529815197","0","3","lerm","non-word","91.66666666666667","91.66666666666667","948.6527777777778","948.6527777777778","black","no","legacy","legacy","legacy","0","uniform","1","undefined","undefined","undefined","1","f","0","0","0","0","71","0","0","0","71","0","67","71","67","0","67","3","71","0","71","Thu Feb 25 11:18:02 2021","The main experiment item","yes","Lexical_Decision_Task.osexp","/Users/evabarnard","no","Andale Mono","no","18","no","white","no","yes","576","legacy","67","67","3","/Users/evabarnard/subject-5214649.csv","legacy","Lentiform Loewenfeld","3.3.7","yes","yes","600bd7cfb6416f0113b04181","602110864497cf011d9c0822","0","f","NA","space","space","space","space","f","1299","NA","3400","9995","8957","4548","1299","2","legacy","1024","2","48000","-16","task","5214649","odd","NA","36088","41492","38091","183073","5162","24130","15168","183577","143111","183070","183578","183017","41492","184878","32101","182516","5120","178192","Lexical Decision Task","66","68303","72","yes","1024"
"2.812467698","0","7","hafe","non-word","91.78082191780823","91.78082191780823","946.3561643835617","946.3561643835617","black","no","legacy","legacy","legacy","0","uniform","1","undefined","undefined","undefined","1","f","0","0","0","0","72","0","0","0","72","0","68","72","68","0","68","3","72","0","72","Thu Feb 25 11:18:02 2021","The main experiment item","yes","Lexical_Decision_Task.osexp","/Users/evabarnard","no","Andale Mono","no","18","no","white","no","yes","576","legacy","68","68","3","/Users/evabarnard/subject-5214649.csv","legacy","Lentiform Loewenfeld","3.3.7","yes","yes","600bd7cfb6416f0113b04181","602110864497cf011d9c0822","0","f","NA","space","space","space","space","f","781","NA","3400","9995","8957","4548","781","2","legacy","1024","2","48000","-16","task","5214649","odd","NA","36088","41492","38091","185447","5162","24130","15168","185951","143111","185444","185952","185384","41492","186734","32101","184884","5120","178192","Lexical Decision Task","67","69084","73","yes","1024"
"3.443783828","7.65","3","verb","word","91.89189189189189","91.89189189189189","942.7162162162163","942.7162162162163","black","no","legacy","legacy","legacy","0","uniform","1","undefined","undefined","undefined","1","j","0","0","0","0","73","0","0","0","73","0","69","73","69","0","69","3","73","0","73","Thu Feb 25 11:18:02 2021","The main experiment item","yes","Lexical_Decision_Task.osexp","/Users/evabarnard","no","Andale Mono","no","18","no","white","no","yes","576","legacy","69","69","3","/Users/evabarnard/subject-5214649.csv","legacy","Lentiform Loewenfeld","3.3.7","yes","yes","600bd7cfb6416f0113b04181","602110864497cf011d9c0822","0","j","NA","space","space","space","space","j","677","NA","3400","9995","8957","4548","677","2","legacy","1024","2","48000","-16","task","5214649","odd","NA","36088","41492","38091","187296","5162","24130","15168","187800","143111","187293","187801","187240","41492","188479","32101","186740","5120","178192","Lexical Decision Task","68","69761","74","yes","1024"
"2.68604012","0","3","mulb","non-word","92","92","939","939","black","no","legacy","legacy","legacy","0","uniform","1","undefined","undefined","undefined","1","f","0","0","0","0","74","0","0","0","74","0","70","74","70","0","70","3","74","0","74","Thu Feb 25 11:18:02 2021","The main experiment item","yes","Lexical_Decision_Task.osexp","/Users/evabarnard","no","Andale Mono","no","18","no","white","no","yes","576","legacy","70","70","3","/Users/evabarnard/subject-5214649.csv","legacy","Lentiform Loewenfeld","3.3.7","yes","yes","600bd7cfb6416f0113b04181","602110864497cf011d9c0822","0","f","NA","space","space","space","space","f","664","NA","3400","9995","8957","4548","664","2","legacy","1024","2","48000","-16","task","5214649","odd","NA","36088","41492","38091","189040","5162","24130","15168","189544","143111","189038","189545","188985","41492","190210","32101","188484","5120","178192","Lexical Decision Task","69","70425","75","yes","1024"
"3.208172527","10.27","7","deck","word","92.10526315789474","92.10526315789474","934.6578947368421","934.6578947368421","black","no","legacy","legacy","legacy","0","uniform","1","undefined","undefined","undefined","1","j","0","0","0","0","75","0","0","0","75","0","71","75","71","0","71","3","75","0","75","Thu Feb 25 11:18:02 2021","The main experiment item","yes","Lexical_Decision_Task.osexp","/Users/evabarnard","no","Andale Mono","no","18","no","white","no","yes","576","legacy","71","71","3","/Users/evabarnard/subject-5214649.csv","legacy","Lentiform Loewenfeld","3.3.7","yes","yes","600bd7cfb6416f0113b04181","602110864497cf011d9c0822","0","j","NA","space","space","space","space","j","609","NA","3400","9995","8957","4548","609","2","legacy","1024","2","48000","-16","task","5214649","odd","NA","36088","41492","38091","190771","5162","24130","15168","191275","143111","190768","191276","190715","41492","191887","32101","190215","5120","178192","Lexical Decision Task","70","71034","76","yes","1024"
"2.784379519","0","2","snaf","non-word","90.9090909090909","90.9090909090909","942.8441558441558","942.8441558441558","black","no","legacy","legacy","legacy","0","uniform","0","undefined","undefined","undefined","0","f","0","0","0","0","76","0","0","0","76","0","72","76","72","0","72","3","76","0","76","Thu Feb 25 11:18:02 2021","The main experiment item","yes","Lexical_Decision_Task.osexp","/Users/evabarnard","no","Andale Mono","no","18","no","white","no","yes","576","legacy","72","72","3","/Users/evabarnard/subject-5214649.csv","legacy","Lentiform Loewenfeld","3.3.7","yes","yes","600bd7cfb6416f0113b04181","602110864497cf011d9c0822","0","j","NA","space","space","space","space","j","1565","NA","3400","9995","8957","4548","1565","2","legacy","1024","2","48000","-16","task","5214649","odd","NA","36088","41492","38091","192448","5162","24130","15168","192952","143111","192446","192953","192392","41492","194519","32101","191892","5120","178192","Lexical Decision Task","70","72599","77","yes","1024"
"3.003891166","8.05","2","frog","word","89.74358974358974","89.74358974358974","938.2307692307693","938.2307692307693","black","no","legacy","legacy","legacy","0","uniform","0","undefined","undefined","undefined","0","j","0","0","0","0","77","0","0","0","77","0","73","77","73","0","73","3","77","0","77","Thu Feb 25 11:18:02 2021","The main experiment item","yes","Lexical_Decision_Task.osexp","/Users/evabarnard","no","Andale Mono","no","18","no","white","no","yes","576","legacy","73","73","3","/Users/evabarnard/subject-5214649.csv","legacy","Lentiform Loewenfeld","3.3.7","yes","yes","600bd7cfb6416f0113b04181","602110864497cf011d9c0822","0","f","NA","space","space","space","space","f","583","NA","3400","9995","8957","4548","583","2","legacy","1024","2","48000","-16","task","5214649","odd","NA","36088","41492","38091","196085","5162","24130","15168","196589","143111","196082","196590","196026","41492","197174","32101","191892","5120","194525","Lexical Decision Task","70","73182","78","yes","1024"
"3.311895072","0","9","gung","non-word","89.87341772151899","89.87341772151899","938.6455696202531","938.6455696202531","black","no","legacy","legacy","legacy","0","uniform","1","undefined","undefined","undefined","1","f","0","0","0","0","78","0","0","0","78","0","74","78","74","0","74","3","78","0","78","Thu Feb 25 11:18:02 2021","The main experiment item","yes","Lexical_Decision_Task.osexp","/Users/evabarnard","no","Andale Mono","no","18","no","white","no","yes","576","legacy","74","74","3","/Users/evabarnard/subject-5214649.csv","legacy","Lentiform Loewenfeld","3.3.7","yes","yes","600bd7cfb6416f0113b04181","602110864497cf011d9c0822","0","f","NA","space","space","space","space","f","971","NA","3400","9995","8957","4548","971","2","legacy","1024","2","48000","-16","task","5214649","odd","NA","36088","41492","38091","198740","5162","24130","15168","199244","143111","198737","199244","198681","41492","200216","32101","191892","5120","197180","Lexical Decision Task","71","74153","79","yes","1024"
"3.374137706","10.21","4","tree","word","90","90","934.3125","934.3125","black","no","legacy","legacy","legacy","0","uniform","1","undefined","undefined","undefined","1","j","0","0","0","0","79","0","0","0","79","0","75","79","75","0","75","3","79","0","79","Thu Feb 25 11:18:02 2021","The main experiment item","yes","Lexical_Decision_Task.osexp","/Users/evabarnard","no","Andale Mono","no","18","no","white","no","yes","576","legacy","75","75","3","/Users/evabarnard/subject-5214649.csv","legacy","Lentiform Loewenfeld","3.3.7","yes","yes","600bd7cfb6416f0113b04181","602110864497cf011d9c0822","0","j","NA","space","space","space","space","j","592","NA","3400","9995","8957","4548","592","2","legacy","1024","2","48000","-16","task","5214649","odd","NA","36088","41492","38091","200778","5162","24130","15168","201281","143111","200775","201282","200722","41492","201875","32101","200222","5120","197180","Lexical Decision Task","72","74745","80","yes","1024"
"3.197740804","6.74","3","ache","word","90.12345679012346","90.12345679012346","932.7777777777778","932.7777777777778","black","no","legacy","legacy","legacy","0","uniform","1","undefined","undefined","undefined","1","j","0","0","0","0","80","0","0","0","80","0","76","80","76","0","76","3","80","0","80","Thu Feb 25 11:18:02 2021","The main experiment item","yes","Lexical_Decision_Task.osexp","/Users/evabarnard","no","Andale Mono","no","18","no","white","no","yes","576","legacy","76","76","3","/Users/evabarnard/subject-5214649.csv","legacy","Lentiform Loewenfeld","3.3.7","yes","yes","600bd7cfb6416f0113b04181","602110864497cf011d9c0822","0","j","NA","space","space","space","space","j","810","NA","3400","9995","8957","4548","810","2","legacy","1024","2","48000","-16","task","5214649","odd","NA","36088","41492","38091","202448","5162","24130","15168","202950","143111","202444","202951","202381","41492","203762","32101","201881","5120","197180","Lexical Decision Task","73","75555","81","yes","1024"
"3.363486562","6.93","9","lush","word","90.2439024390244","90.2439024390244","929.1341463414634","929.1341463414634","black","no","legacy","legacy","legacy","0","uniform","1","undefined","undefined","undefined","1","j","0","0","0","0","81","0","0","0","81","0","77","81","77","0","77","3","81","0","81","Thu Feb 25 11:18:02 2021","The main experiment item","yes","Lexical_Decision_Task.osexp","/Users/evabarnard","no","Andale Mono","no","18","no","white","no","yes","576","legacy","77","77","3","/Users/evabarnard/subject-5214649.csv","legacy","Lentiform Loewenfeld","3.3.7","yes","yes","600bd7cfb6416f0113b04181","602110864497cf011d9c0822","0","j","NA","space","space","space","space","j","634","NA","3400","9995","8957","4548","634","2","legacy","1024","2","48000","-16","task","5214649","odd","NA","36088","41492","38091","204323","5162","24130","15168","204827","143111","204320","204827","204267","41492","205463","32101","203766","5120","197180","Lexical Decision Task","74","76189","82","yes","1024"
"3.145920145","8.51","8","flew","word","90.36144578313252","90.36144578313252","926.4216867469879","926.4216867469879","black","no","legacy","legacy","legacy","0","uniform","1","undefined","undefined","undefined","1","j","0","0","0","0","82","0","0","0","82","0","78","82","78","0","78","3","82","0","82","Thu Feb 25 11:18:02 2021","The main experiment item","yes","Lexical_Decision_Task.osexp","/Users/evabarnard","no","Andale Mono","no","18","no","white","no","yes","576","legacy","78","78","3","/Users/evabarnard/subject-5214649.csv","legacy","Lentiform Loewenfeld","3.3.7","yes","yes","600bd7cfb6416f0113b04181","602110864497cf011d9c0822","0","j","NA","space","space","space","space","j","704","NA","3400","9995","8957","4548","704","2","legacy","1024","2","48000","-16","task","5214649","odd","NA","36088","41492","38091","206042","5162","24130","15168","206544","143111","206037","206545","205970","41492","207250","32101","205470","5120","197180","Lexical Decision Task","75","76893","83","yes","1024"
"2.842815106","7.86","8","lump","word","90.47619047619048","90.47619047619048","922.25","922.25","black","no","legacy","legacy","legacy","0","uniform","1","undefined","undefined","undefined","1","j","0","0","0","0","83","0","0","0","83","0","79","83","79","0","79","3","83","0","83","Thu Feb 25 11:18:02 2021","The main experiment item","yes","Lexical_Decision_Task.osexp","/Users/evabarnard","no","Andale Mono","no","18","no","white","no","yes","576","legacy","79","79","3","/Users/evabarnard/subject-5214649.csv","legacy","Lentiform Loewenfeld","3.3.7","yes","yes","600bd7cfb6416f0113b04181","602110864497cf011d9c0822","0","j","NA","space","space","space","space","j","576","NA","3400","9995","8957","4548","576","2","legacy","1024","2","48000","-16","task","5214649","odd","NA","36088","41492","38091","207813","5162","24130","15168","208317","143111","207810","208318","207757","41492","208896","32101","207257","5120","197180","Lexical Decision Task","76","77469","84","yes","1024"
"2.845304797","0","6","buct","non-word","90.58823529411765","90.58823529411765","920.8941176470588","920.8941176470588","black","no","legacy","legacy","legacy","0","uniform","1","undefined","undefined","undefined","1","f","0","0","0","0","84","0","0","0","84","0","80","84","80","0","80","3","84","0","84","Thu Feb 25 11:18:02 2021","The main experiment item","yes","Lexical_Decision_Task.osexp","/Users/evabarnard","no","Andale Mono","no","18","no","white","no","yes","576","legacy","80","80","3","/Users/evabarnard/subject-5214649.csv","legacy","Lentiform Loewenfeld","3.3.7","yes","yes","600bd7cfb6416f0113b04181","602110864497cf011d9c0822","0","f","NA","space","space","space","space","f","807","NA","3400","9995","8957","4548","807","2","legacy","1024","2","48000","-16","task","5214649","odd","NA","36088","41492","38091","209459","5162","24130","15168","209963","143111","209456","209964","209402","41492","210773","32101","208902","5120","197180","Lexical Decision Task","77","78276","85","yes","1024"
"3.031408464","0","7","drow","non-word","90.69767441860465","90.69767441860465","924.1860465116279","924.1860465116279","black","no","legacy","legacy","legacy","0","uniform","1","undefined","undefined","undefined","1","f","0","0","0","0","85","0","0","0","85","0","81","85","81","0","81","3","85","0","85","Thu Feb 25 11:18:02 2021","The main experiment item","yes","Lexical_Decision_Task.osexp","/Users/evabarnard","no","Andale Mono","no","18","no","white","no","yes","576","legacy","81","81","3","/Users/evabarnard/subject-5214649.csv","legacy","Lentiform Loewenfeld","3.3.7","yes","yes","600bd7cfb6416f0113b04181","602110864497cf011d9c0822","0","f","NA","space","space","space","space","f","1204","NA","3400","9995","8957","4548","1204","2","legacy","1024","2","48000","-16","task","5214649","odd","NA","36088","41492","38091","211334","5162","24130","15168","211837","143111","211331","211838","211278","41492","213043","32101","210778","5120","197180","Lexical Decision Task","78","79480","86","yes","1024"
"3.22685757","9.99","7","roll","word","90.80459770114942","90.80459770114942","919.5747126436781","919.5747126436781","black","no","legacy","legacy","legacy","0","uniform","1","undefined","undefined","undefined","1","j","0","0","0","0","86","0","0","0","86","0","82","86","82","0","82","3","86","0","86","Thu Feb 25 11:18:02 2021","The main experiment item","yes","Lexical_Decision_Task.osexp","/Users/evabarnard","no","Andale Mono","no","18","no","white","no","yes","576","legacy","82","82","3","/Users/evabarnard/subject-5214649.csv","legacy","Lentiform Loewenfeld","3.3.7","yes","yes","600bd7cfb6416f0113b04181","602110864497cf011d9c0822","0","j","NA","space","space","space","space","j","523","NA","3400","9995","8957","4548","523","2","legacy","1024","2","48000","-16","task","5214649","odd","NA","36088","41492","38091","213606","5162","24130","15168","214109","143111","213603","214110","213550","41492","214634","32101","213049","5120","197180","Lexical Decision Task","79","80003","87","yes","1024"
"2.875447132","0","9","jelt","non-word","90.9090909090909","90.9090909090909","918.2840909090909","918.2840909090909","black","no","legacy","legacy","legacy","0","uniform","1","undefined","undefined","undefined","1","f","0","0","0","0","87","0","0","0","87","0","83","87","83","0","83","3","87","0","87","Thu Feb 25 11:18:02 2021","The main experiment item","yes","Lexical_Decision_Task.osexp","/Users/evabarnard","no","Andale Mono","no","18","no","white","no","yes","576","legacy","83","83","3","/Users/evabarnard/subject-5214649.csv","legacy","Lentiform Loewenfeld","3.3.7","yes","yes","600bd7cfb6416f0113b04181","602110864497cf011d9c0822","0","f","NA","space","space","space","space","f","806","NA","3400","9995","8957","4548","806","2","legacy","1024","2","48000","-16","task","5214649","odd","NA","36088","41492","38091","215198","5162","24130","15168","215700","143111","215195","215701","215141","41492","216508","32101","214640","5120","197180","Lexical Decision Task","80","80809","88","yes","1024"
"3.302475237","0","7","leel","non-word","91.01123595505618","91.01123595505618","918.2921348314607","918.2921348314607","black","no","legacy","legacy","legacy","0","uniform","1","undefined","undefined","undefined","1","f","0","0","0","0","88","0","0","0","88","0","84","88","84","0","84","3","88","0","88","Thu Feb 25 11:18:02 2021","The main experiment item","yes","Lexical_Decision_Task.osexp","/Users/evabarnard","no","Andale Mono","no","18","no","white","no","yes","576","legacy","84","84","3","/Users/evabarnard/subject-5214649.csv","legacy","Lentiform Loewenfeld","3.3.7","yes","yes","600bd7cfb6416f0113b04181","602110864497cf011d9c0822","0","f","NA","space","space","space","space","f","919","NA","3400","9995","8957","4548","919","2","legacy","1024","2","48000","-16","task","5214649","odd","NA","36088","41492","38091","217070","5162","24130","15168","217574","143111","217067","217575","217014","41492","218495","32101","216513","5120","197180","Lexical Decision Task","81","81728","89","yes","1024"
"3.431095062","5.74","9","perk","word","91.11111111111111","91.11111111111111","915","915","black","no","legacy","legacy","legacy","0","uniform","1","undefined","undefined","undefined","1","j","0","0","0","0","89","0","0","0","89","0","85","89","85","0","85","3","89","0","89","Thu Feb 25 11:18:02 2021","The main experiment item","yes","Lexical_Decision_Task.osexp","/Users/evabarnard","no","Andale Mono","no","18","no","white","no","yes","576","legacy","85","85","3","/Users/evabarnard/subject-5214649.csv","legacy","Lentiform Loewenfeld","3.3.7","yes","yes","600bd7cfb6416f0113b04181","602110864497cf011d9c0822","0","j","NA","space","space","space","space","j","622","NA","3400","9995","8957","4548","622","2","legacy","1024","2","48000","-16","task","5214649","odd","NA","36088","41492","38091","219056","5162","24130","15168","219560","143111","219053","219561","219000","41492","220184","32101","218500","5120","197180","Lexical Decision Task","82","82350","90","yes","1024"
"3.495914186","0","4","peng","non-word","90.10989010989012","90.10989010989012","911.3296703296703","911.3296703296703","black","no","legacy","legacy","legacy","0","uniform","0","undefined","undefined","undefined","0","f","0","0","0","0","90","0","0","0","90","0","86","90","86","0","86","3","90","0","90","Thu Feb 25 11:18:02 2021","The main experiment item","yes","Lexical_Decision_Task.osexp","/Users/evabarnard","no","Andale Mono","no","18","no","white","no","yes","576","legacy","86","86","3","/Users/evabarnard/subject-5214649.csv","legacy","Lentiform Loewenfeld","3.3.7","yes","yes","600bd7cfb6416f0113b04181","602110864497cf011d9c0822","0","j","NA","space","space","space","space","j","581","NA","3400","9995","8957","4548","581","2","legacy","1024","2","48000","-16","task","5214649","odd","NA","36088","41492","38091","220746","5162","24130","15168","221249","143111","220743","221250","220690","41492","221833","32101","220189","5120","197180","Lexical Decision Task","82","82931","91","yes","1024"
"2.981215883","10.66","5","hair","word","90.21739130434783","90.21739130434783","910.8586956521739","910.8586956521739","black","no","legacy","legacy","legacy","0","uniform","1","undefined","undefined","undefined","1","j","0","0","0","0","91","0","0","0","91","0","87","91","87","0","87","3","91","0","91","Thu Feb 25 11:18:02 2021","The main experiment item","yes","Lexical_Decision_Task.osexp","/Users/evabarnard","no","Andale Mono","no","18","no","white","no","yes","576","legacy","87","87","3","/Users/evabarnard/subject-5214649.csv","legacy","Lentiform Loewenfeld","3.3.7","yes","yes","600bd7cfb6416f0113b04181","602110864497cf011d9c0822","0","j","NA","space","space","space","space","j","868","NA","3400","9995","8957","4548","868","2","legacy","1024","2","48000","-16","task","5214649","odd","NA","36088","41492","38091","223399","5162","24130","15168","223902","143111","223396","223903","223339","41492","224772","32101","220189","5120","221839","Lexical Decision Task","83","83799","92","yes","1024"
"2.771097306","0","9","jold","non-word","90.3225806451613","90.3225806451613","909.1612903225806","909.1612903225806","black","no","legacy","legacy","legacy","0","uniform","1","undefined","undefined","undefined","1","f","0","0","0","0","92","0","0","0","92","0","88","92","88","0","88","3","92","0","92","Thu Feb 25 11:18:02 2021","The main experiment item","yes","Lexical_Decision_Task.osexp","/Users/evabarnard","no","Andale Mono","no","18","no","white","no","yes","576","legacy","88","88","3","/Users/evabarnard/subject-5214649.csv","legacy","Lentiform Loewenfeld","3.3.7","yes","yes","600bd7cfb6416f0113b04181","602110864497cf011d9c0822","0","f","NA","space","space","space","space","f","753","NA","3400","9995","8957","4548","753","2","legacy","1024","2","48000","-16","task","5214649","odd","NA","36088","41492","38091","225336","5162","24130","15168","225839","143111","225333","225840","225279","41492","226594","32101","224778","5120","221839","Lexical Decision Task","84","84552","93","yes","1024"
"2.983324025","9.56","2","debt","word","90.42553191489361","90.42553191489361","907.9574468085107","907.9574468085107","black","no","legacy","legacy","legacy","0","uniform","1","undefined","undefined","undefined","1","j","0","0","0","0","93","0","0","0","93","0","89","93","89","0","89","3","93","0","93","Thu Feb 25 11:18:02 2021","The main experiment item","yes","Lexical_Decision_Task.osexp","/Users/evabarnard","no","Andale Mono","no","18","no","white","no","yes","576","legacy","89","89","3","/Users/evabarnard/subject-5214649.csv","legacy","Lentiform Loewenfeld","3.3.7","yes","yes","600bd7cfb6416f0113b04181","602110864497cf011d9c0822","0","j","NA","space","space","space","space","j","796","NA","3400","9995","8957","4548","796","2","legacy","1024","2","48000","-16","task","5214649","odd","NA","36088","41492","38091","227164","5162","24130","15168","227668","143111","227161","227668","227107","41492","228465","32101","226607","5120","221839","Lexical Decision Task","85","85348","94","yes","1024"
"2.703007489","8.37","3","pulp","word","90.52631578947368","90.52631578947368","906.0105263157894","906.0105263157894","black","no","legacy","legacy","legacy","0","uniform","1","undefined","undefined","undefined","1","j","0","0","0","0","94","0","0","0","94","0","90","94","90","0","90","3","94","0","94","Thu Feb 25 11:18:02 2021","The main experiment item","yes","Lexical_Decision_Task.osexp","/Users/evabarnard","no","Andale Mono","no","18","no","white","no","yes","576","legacy","90","90","3","/Users/evabarnard/subject-5214649.csv","legacy","Lentiform Loewenfeld","3.3.7","yes","yes","600bd7cfb6416f0113b04181","602110864497cf011d9c0822","0","j","NA","space","space","space","space","j","723","NA","3400","9995","8957","4548","723","2","legacy","1024","2","48000","-16","task","5214649","odd","NA","36088","41492","38091","229027","5162","24130","15168","229530","143111","229024","229531","228971","41492","230255","32101","228471","5120","221839","Lexical Decision Task","86","86071","95","yes","1024"
"3.105055783","0","2","norp","non-word","90.625","90.625","904.15625","904.15625","black","no","legacy","legacy","legacy","0","uniform","1","undefined","undefined","undefined","1","f","0","0","0","0","95","0","0","0","95","0","91","95","91","0","91","3","95","0","95","Thu Feb 25 11:18:02 2021","The main experiment item","yes","Lexical_Decision_Task.osexp","/Users/evabarnard","no","Andale Mono","no","18","no","white","no","yes","576","legacy","91","91","3","/Users/evabarnard/subject-5214649.csv","legacy","Lentiform Loewenfeld","3.3.7","yes","yes","600bd7cfb6416f0113b04181","602110864497cf011d9c0822","0","f","NA","space","space","space","space","f","728","NA","3400","9995","8957","4548","728","2","legacy","1024","2","48000","-16","task","5214649","odd","NA","36088","41492","38091","230817","5162","24130","15168","231320","143111","230813","231321","230761","41492","232050","32101","230261","5120","221839","Lexical Decision Task","87","86799","96","yes","1024"
"2.907588697","8.91","9","mood","word","90.72164948453609","90.72164948453609","900.0721649484536","900.0721649484536","black","no","legacy","legacy","legacy","0","uniform","1","undefined","undefined","undefined","1","j","0","0","0","0","96","0","0","0","96","0","92","96","92","0","92","3","96","0","96","Thu Feb 25 11:18:02 2021","The main experiment item","yes","Lexical_Decision_Task.osexp","/Users/evabarnard","no","Andale Mono","no","18","no","white","no","yes","576","legacy","92","92","3","/Users/evabarnard/subject-5214649.csv","legacy","Lentiform Loewenfeld","3.3.7","yes","yes","600bd7cfb6416f0113b04181","602110864497cf011d9c0822","0","j","NA","space","space","space","space","j","508","NA","3400","9995","8957","4548","508","2","legacy","1024","2","48000","-16","task","5214649","odd","NA","36088","41492","38091","232612","5162","24130","15168","233116","143111","232609","233117","232556","41492","233626","32101","232056","5120","221839","Lexical Decision Task","88","87307","97","yes","1024"
"3.368162872","0","4","ferk","non-word","90.81632653061224","90.81632653061224","898.1224489795918","898.1224489795918","black","no","legacy","legacy","legacy","0","uniform","1","undefined","undefined","undefined","1","f","0","0","0","0","97","0","0","0","97","0","93","97","93","0","93","3","97","0","97","Thu Feb 25 11:18:02 2021","The main experiment item","yes","Lexical_Decision_Task.osexp","/Users/evabarnard","no","Andale Mono","no","18","no","white","no","yes","576","legacy","93","93","3","/Users/evabarnard/subject-5214649.csv","legacy","Lentiform Loewenfeld","3.3.7","yes","yes","600bd7cfb6416f0113b04181","602110864497cf011d9c0822","0","f","NA","space","space","space","space","f","709","NA","3400","9995","8957","4548","709","2","legacy","1024","2","48000","-16","task","5214649","odd","NA","36088","41492","38091","234188","5162","24130","15168","234692","143111","234185","234692","234132","41492","235402","32101","233632","5120","221839","Lexical Decision Task","89","88016","98","yes","1024"
"3.481012421","8.34","5","teen","word","90.9090909090909","90.9090909090909","893.8181818181819","893.8181818181819","black","no","legacy","legacy","legacy","0","uniform","1","undefined","undefined","undefined","1","j","0","0","0","0","98","0","0","0","98","0","94","98","94","0","94","3","98","0","98","Thu Feb 25 11:18:02 2021","The main experiment item","yes","Lexical_Decision_Task.osexp","/Users/evabarnard","no","Andale Mono","no","18","no","white","no","yes","576","legacy","94","94","3","/Users/evabarnard/subject-5214649.csv","legacy","Lentiform Loewenfeld","3.3.7","yes","yes","600bd7cfb6416f0113b04181","602110864497cf011d9c0822","0","j","NA","space","space","space","space","j","472","NA","3400","9995","8957","4548","472","2","legacy","1024","2","48000","-16","task","5214649","odd","NA","36088","41492","38091","235964","5162","24130","15168","236468","143111","235961","236468","235908","41492","236942","32101","235408","5120","221839","Lexical Decision Task","90","88488","99","yes","1024"
"3.168890155","0","6","thet","non-word","91","91","894.1","894.1","black","no","legacy","legacy","legacy","0","uniform","1","undefined","undefined","undefined","1","f","0","0","0","0","99","0","0","0","99","0","95","99","95","0","95","3","99","0","99","Thu Feb 25 11:18:02 2021","The main experiment item","yes","Lexical_Decision_Task.osexp","/Users/evabarnard","no","Andale Mono","no","18","no","white","no","yes","576","legacy","95","95","3","/Users/evabarnard/subject-5214649.csv","legacy","Lentiform Loewenfeld","3.3.7","yes","yes","600bd7cfb6416f0113b04181","602110864497cf011d9c0822","0","f","NA","space","space","space","space","f","922","NA","3400","9995","8957","4548","922","2","legacy","1024","2","48000","-16","task","5214649","odd","NA","36088","41492","38091","237503","5162","24130","15168","238006","143111","237500","238007","237447","41492","238931","32101","236947","5120","221839","Lexical Decision Task","91","89410","100","yes","1024"
"3.153001286","8.7","5","palm","word","91.08910891089108","91.08910891089108","891.5544554455446","891.5544554455446","black","no","legacy","legacy","legacy","0","uniform","1","undefined","undefined","undefined","1","j","0","0","0","0","100","0","0","0","100","0","96","100","96","0","96","3","100","0","100","Thu Feb 25 11:18:02 2021","The main experiment item","yes","Lexical_Decision_Task.osexp","/Users/evabarnard","no","Andale Mono","no","18","no","white","no","yes","576","legacy","96","96","3","/Users/evabarnard/subject-5214649.csv","legacy","Lentiform Loewenfeld","3.3.7","yes","yes","600bd7cfb6416f0113b04181","602110864497cf011d9c0822","0","j","NA","space","space","space","space","j","637","NA","3400","9995","8957","4548","637","2","legacy","1024","2","48000","-16","task","5214649","odd","NA","36088","41492","38091","239492","5162","24130","15168","239996","143111","239489","239997","239436","41492","240635","32101","238936","5120","221839","Lexical Decision Task","92","90047","101","yes","1024"
"2.986323777","10.85","8","ship","word","91.17647058823529","91.17647058823529","890.2352941176471","890.2352941176471","black","no","legacy","legacy","legacy","0","uniform","1","undefined","undefined","undefined","1","j","0","0","0","0","101","0","0","0","101","0","97","101","97","0","97","3","101","0","101","Thu Feb 25 11:18:02 2021","The main experiment item","yes","Lexical_Decision_Task.osexp","/Users/evabarnard","no","Andale Mono","no","18","no","white","no","yes","576","legacy","97","97","3","/Users/evabarnard/subject-5214649.csv","legacy","Lentiform Loewenfeld","3.3.7","yes","yes","600bd7cfb6416f0113b04181","602110864497cf011d9c0822","0","j","NA","space","space","space","space","j","757","NA","3400","9995","8957","4548","757","2","legacy","1024","2","48000","-16","task","5214649","odd","NA","36088","41492","38091","241197","5162","24130","15168","241701","143111","241194","241702","241141","41492","242460","32101","240640","5120","221839","Lexical Decision Task","93","90804","102","yes","1024"
