"Log_BG","Log_Freq_HAL","Ortho_N","Stimulus","Type","acc","accuracy","average_response_time","avg_rt","background","bidi","canvas_backend","clock_backend","color_backend","compensation","coordinates","correct","correct_Experimental_intro","correct_Introduction","correct_Practice_intro","correct_experimenter_kb","correct_response","count_End_Of_Experiment","count_End_Of_Practice","count_Experimental_Loop","count_Experimental_intro","count_Fixation","count_Introduction","count_Practice_Loop","count_Practice_intro","count_Stimulus","count_block_break_feedback","count_experimental_sequence","count_experimenter_kb","count_increment_trial_count","count_init_trial_count","count_logger","count_practice_sequence","count_right","count_task","count_wrong","datetime","description","disable_garbage_collection","experiment_file","experiment_path","font_bold","font_family","font_italic","font_size","font_underline","foreground","form_clicks","fullscreen","height","keyboard_backend","live_row","live_row_Experimental_Loop","live_row_Practice_Loop","logfile","mouse_backend","opensesame_codename","opensesame_version","osf_always_upload_data","osf_always_upload_experiment","osf_datanode_id","osf_id","repeat_cycle","response","response_End_Of_Experiment","response_Experimental_intro","response_Introduction","response_Practice_intro","response_block_break_feedback","response_experimenter_kb","response_time","response_time_End_Of_Experiment","response_time_Experimental_intro","response_time_Introduction","response_time_Practice_intro","response_time_block_break_feedback","response_time_experimenter_kb","round_decimals","sampler_backend","sound_buf_size","sound_channels","sound_freq","sound_sample_size","start","subject_nr","subject_parity","time_End_Of_Experiment","time_End_Of_Practice","time_Experimental_Loop","time_Experimental_intro","time_Fixation","time_Introduction","time_Practice_Loop","time_Practice_intro","time_Stimulus","time_block_break_feedback","time_experimental_sequence","time_experimenter_kb","time_increment_trial_count","time_init_trial_count","time_logger","time_practice_sequence","time_right","time_task","time_wrong","title","total_correct","total_response_time","total_responses","uniform_coordinates","width"
"3.067193647","6.73","6","raft","word","100","100","972.4","972.4","black","no","legacy","legacy","legacy","0","uniform","1","undefined","undefined","undefined","1","j","0","0","0","0","4","0","0","0","4","NA","0","4","0","0","0","3","4","0","4","Thu Feb 18 13:36:43 2021","The main experiment item","yes","Lexical_Decision_Task.osexp","C:/Users/matth/OneDrive/Desktop/Assignment Documents/Cognitive/Year 2/Opensesame Files","no","Andale Mono","no","18","no","white","no","yes","576","legacy","0","0","3","C:/Users/matth/OneDrive/Desktop/Assignment Documents/Cognitive/Year 2/Opensesame Files/subject-5203711.csv Lexical Decision Task.csv","legacy","Lentiform Loewenfeld","3.3.7","yes","yes","600bd7cfb6416f0113b04181","602110864497cf011d9c0822","0","j","NA","j","j","j","NA","j","978","NA","2505","19998","6791","NA","978","2","legacy","1024","2","48000","-16","task","5203711","odd","NA","39789","44299","41793","44369","4595","31389","24597","44873","NA","44367","44874","NA","44299","45853","37935","39246","4582","NA","Lexical Decision Task","5","4862","5","yes","1024"
"3.043885998","0","9","gome","non-word","100","100","966","966","black","no","legacy","legacy","legacy","0","uniform","1","undefined","undefined","undefined","1","f","0","0","0","0","5","0","0","0","5","NA","1","5","1","0","1","3","5","0","5","Thu Feb 18 13:36:43 2021","The main experiment item","yes","Lexical_Decision_Task.osexp","C:/Users/matth/OneDrive/Desktop/Assignment Documents/Cognitive/Year 2/Opensesame Files","no","Andale Mono","no","18","no","white","no","yes","576","legacy","1","1","3","C:/Users/matth/OneDrive/Desktop/Assignment Documents/Cognitive/Year 2/Opensesame Files/subject-5203711.csv Lexical Decision Task.csv","legacy","Lentiform Loewenfeld","3.3.7","yes","yes","600bd7cfb6416f0113b04181","602110864497cf011d9c0822","0","f","NA","j","j","j","NA","f","934","NA","2505","19998","6791","NA","934","2","legacy","1024","2","48000","-16","task","5203711","odd","NA","39789","44299","41793","46563","4595","31389","24597","47065","NA","46562","47065","46411","44299","48000","37935","45911","4582","NA","Lexical Decision Task","6","5796","6","yes","1024"
"3.132473155","0","4","glim","non-word","100","100","978","978","black","no","legacy","legacy","legacy","0","uniform","1","undefined","undefined","undefined","1","f","0","0","0","0","6","0","0","0","6","NA","2","6","2","0","2","3","6","0","6","Thu Feb 18 13:36:43 2021","The main experiment item","yes","Lexical_Decision_Task.osexp","C:/Users/matth/OneDrive/Desktop/Assignment Documents/Cognitive/Year 2/Opensesame Files","no","Andale Mono","no","18","no","white","no","yes","576","legacy","2","2","3","C:/Users/matth/OneDrive/Desktop/Assignment Documents/Cognitive/Year 2/Opensesame Files/subject-5203711.csv Lexical Decision Task.csv","legacy","Lentiform Loewenfeld","3.3.7","yes","yes","600bd7cfb6416f0113b04181","602110864497cf011d9c0822","0","f","NA","j","j","j","NA","f","1050","NA","2505","19998","6791","NA","1050","2","legacy","1024","2","48000","-16","task","5203711","odd","NA","39789","44299","41793","48645","4595","31389","24597","49148","NA","48642","49148","48547","44299","50199","37935","48047","4582","NA","Lexical Decision Task","7","6846","7","yes","1024"
"2.952953801","0","8","clax","non-word","100","100","954.25","954.25","black","no","legacy","legacy","legacy","0","uniform","1","undefined","undefined","undefined","1","f","0","0","0","0","7","0","0","0","7","NA","3","7","3","0","3","3","7","0","7","Thu Feb 18 13:36:43 2021","The main experiment item","yes","Lexical_Decision_Task.osexp","C:/Users/matth/OneDrive/Desktop/Assignment Documents/Cognitive/Year 2/Opensesame Files","no","Andale Mono","no","18","no","white","no","yes","576","legacy","3","3","3","C:/Users/matth/OneDrive/Desktop/Assignment Documents/Cognitive/Year 2/Opensesame Files/subject-5203711.csv Lexical Decision Task.csv","legacy","Lentiform Loewenfeld","3.3.7","yes","yes","600bd7cfb6416f0113b04181","602110864497cf011d9c0822","0","f","NA","j","j","j","NA","f","788","NA","2505","19998","6791","NA","788","2","legacy","1024","2","48000","-16","task","5203711","odd","NA","39789","44299","41793","50833","4595","31389","24597","51338","NA","50831","51338","50741","44299","52127","37935","50241","4582","NA","Lexical Decision Task","8","7634","8","yes","1024"
"2.64476673","0","5","moft","non-word","100","100","926.5555555555555","926.5555555555555","black","no","legacy","legacy","legacy","0","uniform","1","undefined","undefined","undefined","1","f","0","0","0","0","8","0","0","0","8","NA","4","8","4","0","4","3","8","0","8","Thu Feb 18 13:36:43 2021","The main experiment item","yes","Lexical_Decision_Task.osexp","C:/Users/matth/OneDrive/Desktop/Assignment Documents/Cognitive/Year 2/Opensesame Files","no","Andale Mono","no","18","no","white","no","yes","576","legacy","4","4","3","C:/Users/matth/OneDrive/Desktop/Assignment Documents/Cognitive/Year 2/Opensesame Files/subject-5203711.csv Lexical Decision Task.csv","legacy","Lentiform Loewenfeld","3.3.7","yes","yes","600bd7cfb6416f0113b04181","602110864497cf011d9c0822","0","f","NA","j","j","j","NA","f","705","NA","2505","19998","6791","NA","705","2","legacy","1024","2","48000","-16","task","5203711","odd","NA","39789","44299","41793","52767","4595","31389","24597","53269","NA","52765","53270","52670","44299","53976","37935","52170","4582","NA","Lexical Decision Task","9","8339","9","yes","1024"
"2.69019608","9.01","2","myth","word","100","100","896","896","black","no","legacy","legacy","legacy","0","uniform","1","undefined","undefined","undefined","1","j","0","0","0","0","9","0","0","0","9","NA","5","9","5","0","5","3","9","0","9","Thu Feb 18 13:36:43 2021","The main experiment item","yes","Lexical_Decision_Task.osexp","C:/Users/matth/OneDrive/Desktop/Assignment Documents/Cognitive/Year 2/Opensesame Files","no","Andale Mono","no","18","no","white","no","yes","576","legacy","5","5","3","C:/Users/matth/OneDrive/Desktop/Assignment Documents/Cognitive/Year 2/Opensesame Files/subject-5203711.csv Lexical Decision Task.csv","legacy","Lentiform Loewenfeld","3.3.7","yes","yes","600bd7cfb6416f0113b04181","602110864497cf011d9c0822","0","j","NA","j","j","j","NA","j","621","NA","2505","19998","6791","NA","621","2","legacy","1024","2","48000","-16","task","5203711","odd","NA","39789","44299","41793","54572","4595","31389","24597","55074","NA","54570","55074","54482","44299","55696","37935","53982","4582","NA","Lexical Decision Task","10","8960","10","yes","1024"
"2.981215883","10.66","5","hair","word","100","100","864.0909090909091","864.0909090909091","black","no","legacy","legacy","legacy","0","uniform","1","undefined","undefined","undefined","1","j","0","0","0","0","10","0","0","0","10","NA","6","10","6","0","6","3","10","0","10","Thu Feb 18 13:36:43 2021","The main experiment item","yes","Lexical_Decision_Task.osexp","C:/Users/matth/OneDrive/Desktop/Assignment Documents/Cognitive/Year 2/Opensesame Files","no","Andale Mono","no","18","no","white","no","yes","576","legacy","6","6","3","C:/Users/matth/OneDrive/Desktop/Assignment Documents/Cognitive/Year 2/Opensesame Files/subject-5203711.csv Lexical Decision Task.csv","legacy","Lentiform Loewenfeld","3.3.7","yes","yes","600bd7cfb6416f0113b04181","602110864497cf011d9c0822","0","j","NA","j","j","j","NA","j","545","NA","2505","19998","6791","NA","545","2","legacy","1024","2","48000","-16","task","5203711","odd","NA","39789","44299","41793","56333","4595","31389","24597","56835","NA","56330","56835","56240","44299","57381","37935","55740","4582","NA","Lexical Decision Task","11","9505","11","yes","1024"
"3.384413096","10.15","3","glad","word","100","100","834.5","834.5","black","no","legacy","legacy","legacy","0","uniform","1","undefined","undefined","undefined","1","j","0","0","0","0","11","0","0","0","11","NA","7","11","7","0","7","3","11","0","11","Thu Feb 18 13:36:43 2021","The main experiment item","yes","Lexical_Decision_Task.osexp","C:/Users/matth/OneDrive/Desktop/Assignment Documents/Cognitive/Year 2/Opensesame Files","no","Andale Mono","no","18","no","white","no","yes","576","legacy","7","7","3","C:/Users/matth/OneDrive/Desktop/Assignment Documents/Cognitive/Year 2/Opensesame Files/subject-5203711.csv Lexical Decision Task.csv","legacy","Lentiform Loewenfeld","3.3.7","yes","yes","600bd7cfb6416f0113b04181","602110864497cf011d9c0822","0","j","NA","j","j","j","NA","j","509","NA","2505","19998","6791","NA","509","2","legacy","1024","2","48000","-16","task","5203711","odd","NA","39789","44299","41793","58016","4595","31389","24597","58520","NA","58014","58520","57927","44299","59030","37935","57427","4582","NA","Lexical Decision Task","12","10014","12","yes","1024"
"3.16326079","0","5","parg","non-word","100","100","812.8461538461538","812.8461538461538","black","no","legacy","legacy","legacy","0","uniform","1","undefined","undefined","undefined","1","f","0","0","0","0","12","0","0","0","12","NA","8","12","8","0","8","3","12","0","12","Thu Feb 18 13:36:43 2021","The main experiment item","yes","Lexical_Decision_Task.osexp","C:/Users/matth/OneDrive/Desktop/Assignment Documents/Cognitive/Year 2/Opensesame Files","no","Andale Mono","no","18","no","white","no","yes","576","legacy","8","8","3","C:/Users/matth/OneDrive/Desktop/Assignment Documents/Cognitive/Year 2/Opensesame Files/subject-5203711.csv Lexical Decision Task.csv","legacy","Lentiform Loewenfeld","3.3.7","yes","yes","600bd7cfb6416f0113b04181","602110864497cf011d9c0822","0","f","NA","j","j","j","NA","f","553","NA","2505","19998","6791","NA","553","2","legacy","1024","2","48000","-16","task","5203711","odd","NA","39789","44299","41793","59692","4595","31389","24597","60194","NA","59689","60194","59573","44299","60748","37935","59073","4582","NA","Lexical Decision Task","13","10567","13","yes","1024"
"2.983324025","9.56","2","debt","word","100","100","797.2857142857143","797.2857142857143","black","no","legacy","legacy","legacy","0","uniform","1","undefined","undefined","undefined","1","j","0","0","0","0","13","0","0","0","13","NA","9","13","9","0","9","3","13","0","13","Thu Feb 18 13:36:43 2021","The main experiment item","yes","Lexical_Decision_Task.osexp","C:/Users/matth/OneDrive/Desktop/Assignment Documents/Cognitive/Year 2/Opensesame Files","no","Andale Mono","no","18","no","white","no","yes","576","legacy","9","9","3","C:/Users/matth/OneDrive/Desktop/Assignment Documents/Cognitive/Year 2/Opensesame Files/subject-5203711.csv Lexical Decision Task.csv","legacy","Lentiform Loewenfeld","3.3.7","yes","yes","600bd7cfb6416f0113b04181","602110864497cf011d9c0822","0","j","NA","j","j","j","NA","j","595","NA","2505","19998","6791","NA","595","2","legacy","1024","2","48000","-16","task","5203711","odd","NA","39789","44299","41793","61341","4595","31389","24597","61843","NA","61339","61843","61254","44299","62439","37935","60754","4582","NA","Lexical Decision Task","14","11162","14","yes","1024"
"2.845304797","0","6","buct","non-word","100","100","787","787","black","no","legacy","legacy","legacy","0","uniform","1","undefined","undefined","undefined","1","f","0","0","0","0","14","0","0","0","14","NA","10","14","10","0","10","3","14","0","14","Thu Feb 18 13:36:43 2021","The main experiment item","yes","Lexical_Decision_Task.osexp","C:/Users/matth/OneDrive/Desktop/Assignment Documents/Cognitive/Year 2/Opensesame Files","no","Andale Mono","no","18","no","white","no","yes","576","legacy","10","10","3","C:/Users/matth/OneDrive/Desktop/Assignment Documents/Cognitive/Year 2/Opensesame Files/subject-5203711.csv Lexical Decision Task.csv","legacy","Lentiform Loewenfeld","3.3.7","yes","yes","600bd7cfb6416f0113b04181","602110864497cf011d9c0822","0","f","NA","j","j","j","NA","f","643","NA","2505","19998","6791","NA","643","2","legacy","1024","2","48000","-16","task","5203711","odd","NA","39789","44299","41793","63068","4595","31389","24597","63572","NA","63067","63572","62986","44299","64216","37935","62486","4582","NA","Lexical Decision Task","15","11805","15","yes","1024"
"3.102203805","7.21","3","drip","word","100","100","772.125","772.125","black","no","legacy","legacy","legacy","0","uniform","1","undefined","undefined","undefined","1","j","0","0","0","0","15","0","0","0","15","NA","11","15","11","0","11","3","15","0","15","Thu Feb 18 13:36:43 2021","The main experiment item","yes","Lexical_Decision_Task.osexp","C:/Users/matth/OneDrive/Desktop/Assignment Documents/Cognitive/Year 2/Opensesame Files","no","Andale Mono","no","18","no","white","no","yes","576","legacy","11","11","3","C:/Users/matth/OneDrive/Desktop/Assignment Documents/Cognitive/Year 2/Opensesame Files/subject-5203711.csv Lexical Decision Task.csv","legacy","Lentiform Loewenfeld","3.3.7","yes","yes","600bd7cfb6416f0113b04181","602110864497cf011d9c0822","0","j","NA","j","j","j","NA","j","549","NA","2505","19998","6791","NA","549","2","legacy","1024","2","48000","-16","task","5203711","odd","NA","39789","44299","41793","64820","4595","31389","24597","65324","NA","64818","65324","64724","44299","65874","37935","64224","4582","NA","Lexical Decision Task","16","12354","16","yes","1024"
"3.090140555","5.81","8","pout","word","100","100","763.9411764705883","763.9411764705883","black","no","legacy","legacy","legacy","0","uniform","1","undefined","undefined","undefined","1","j","0","0","0","0","16","0","0","0","16","NA","12","16","12","0","12","3","16","0","16","Thu Feb 18 13:36:43 2021","The main experiment item","yes","Lexical_Decision_Task.osexp","C:/Users/matth/OneDrive/Desktop/Assignment Documents/Cognitive/Year 2/Opensesame Files","no","Andale Mono","no","18","no","white","no","yes","576","legacy","12","12","3","C:/Users/matth/OneDrive/Desktop/Assignment Documents/Cognitive/Year 2/Opensesame Files/subject-5203711.csv Lexical Decision Task.csv","legacy","Lentiform Loewenfeld","3.3.7","yes","yes","600bd7cfb6416f0113b04181","602110864497cf011d9c0822","0","j","NA","j","j","j","NA","j","633","NA","2505","19998","6791","NA","633","2","legacy","1024","2","48000","-16","task","5203711","odd","NA","39789","44299","41793","66511","4595","31389","24597","67016","NA","66510","67016","66418","44299","67650","37935","65918","4582","NA","Lexical Decision Task","17","12987","17","yes","1024"
"3.274543461","7.46","7","scar","word","100","100","748.1666666666666","748.1666666666666","black","no","legacy","legacy","legacy","0","uniform","1","undefined","undefined","undefined","1","j","0","0","0","0","17","0","0","0","17","NA","13","17","13","0","13","3","17","0","17","Thu Feb 18 13:36:43 2021","The main experiment item","yes","Lexical_Decision_Task.osexp","C:/Users/matth/OneDrive/Desktop/Assignment Documents/Cognitive/Year 2/Opensesame Files","no","Andale Mono","no","18","no","white","no","yes","576","legacy","13","13","3","C:/Users/matth/OneDrive/Desktop/Assignment Documents/Cognitive/Year 2/Opensesame Files/subject-5203711.csv Lexical Decision Task.csv","legacy","Lentiform Loewenfeld","3.3.7","yes","yes","600bd7cfb6416f0113b04181","602110864497cf011d9c0822","0","j","NA","j","j","j","NA","j","480","NA","2505","19998","6791","NA","480","2","legacy","1024","2","48000","-16","task","5203711","odd","NA","39789","44299","41793","68246","4595","31389","24597","68749","NA","68244","68749","68158","44299","69230","37935","67658","4582","NA","Lexical Decision Task","18","13467","18","yes","1024"
"3.374137706","10.21","4","tree","word","100","100","732.2105263157895","732.2105263157895","black","no","legacy","legacy","legacy","0","uniform","1","undefined","undefined","undefined","1","j","0","0","0","0","18","0","0","0","18","NA","14","18","14","0","14","3","18","0","18","Thu Feb 18 13:36:43 2021","The main experiment item","yes","Lexical_Decision_Task.osexp","C:/Users/matth/OneDrive/Desktop/Assignment Documents/Cognitive/Year 2/Opensesame Files","no","Andale Mono","no","18","no","white","no","yes","576","legacy","14","14","3","C:/Users/matth/OneDrive/Desktop/Assignment Documents/Cognitive/Year 2/Opensesame Files/subject-5203711.csv Lexical Decision Task.csv","legacy","Lentiform Loewenfeld","3.3.7","yes","yes","600bd7cfb6416f0113b04181","602110864497cf011d9c0822","0","j","NA","j","j","j","NA","j","445","NA","2505","19998","6791","NA","445","2","legacy","1024","2","48000","-16","task","5203711","odd","NA","39789","44299","41793","69808","4595","31389","24597","70312","NA","69806","70312","69735","44299","70758","37935","69235","4582","NA","Lexical Decision Task","19","13912","19","yes","1024"
"2.920123326","7.43","4","duel","word","100","100","722.5","722.5","black","no","legacy","legacy","legacy","0","uniform","1","undefined","undefined","undefined","1","j","0","0","0","0","19","0","0","0","19","NA","15","19","15","0","15","3","19","0","19","Thu Feb 18 13:36:43 2021","The main experiment item","yes","Lexical_Decision_Task.osexp","C:/Users/matth/OneDrive/Desktop/Assignment Documents/Cognitive/Year 2/Opensesame Files","no","Andale Mono","no","18","no","white","no","yes","576","legacy","15","15","3","C:/Users/matth/OneDrive/Desktop/Assignment Documents/Cognitive/Year 2/Opensesame Files/subject-5203711.csv Lexical Decision Task.csv","legacy","Lentiform Loewenfeld","3.3.7","yes","yes","600bd7cfb6416f0113b04181","602110864497cf011d9c0822","0","j","NA","j","j","j","NA","j","538","NA","2505","19998","6791","NA","538","2","legacy","1024","2","48000","-16","task","5203711","odd","NA","39789","44299","41793","71378","4595","31389","24597","71882","NA","71376","71882","71295","44299","72421","37935","70795","4582","NA","Lexical Decision Task","20","14450","20","yes","1024"
"3.049218023","7.4","9","robe","word","100","100","710.5714285714286","710.5714285714286","black","no","legacy","legacy","legacy","0","uniform","1","undefined","undefined","undefined","1","j","0","0","0","0","20","0","0","0","20","NA","16","20","16","0","16","3","20","0","20","Thu Feb 18 13:36:43 2021","The main experiment item","yes","Lexical_Decision_Task.osexp","C:/Users/matth/OneDrive/Desktop/Assignment Documents/Cognitive/Year 2/Opensesame Files","no","Andale Mono","no","18","no","white","no","yes","576","legacy","16","16","3","C:/Users/matth/OneDrive/Desktop/Assignment Documents/Cognitive/Year 2/Opensesame Files/subject-5203711.csv Lexical Decision Task.csv","legacy","Lentiform Loewenfeld","3.3.7","yes","yes","600bd7cfb6416f0113b04181","602110864497cf011d9c0822","0","j","NA","j","j","j","NA","j","472","NA","2505","19998","6791","NA","472","2","legacy","1024","2","48000","-16","task","5203711","odd","NA","39789","44299","41793","73058","4595","31389","24597","73562","NA","73057","73562","72959","44299","74035","37935","72459","4582","NA","Lexical Decision Task","21","14922","21","yes","1024"
"2.782472624","10.55","2","huge","word","100","100","698.6363636363636","698.6363636363636","black","no","legacy","legacy","legacy","0","uniform","1","undefined","undefined","undefined","1","j","0","0","0","0","21","0","0","0","21","NA","17","21","17","0","17","3","21","0","21","Thu Feb 18 13:36:43 2021","The main experiment item","yes","Lexical_Decision_Task.osexp","C:/Users/matth/OneDrive/Desktop/Assignment Documents/Cognitive/Year 2/Opensesame Files","no","Andale Mono","no","18","no","white","no","yes","576","legacy","17","17","3","C:/Users/matth/OneDrive/Desktop/Assignment Documents/Cognitive/Year 2/Opensesame Files/subject-5203711.csv Lexical Decision Task.csv","legacy","Lentiform Loewenfeld","3.3.7","yes","yes","600bd7cfb6416f0113b04181","602110864497cf011d9c0822","0","j","NA","j","j","j","NA","j","448","NA","2505","19998","6791","NA","448","2","legacy","1024","2","48000","-16","task","5203711","odd","NA","39789","44299","41793","74639","4595","31389","24597","75140","NA","74637","75140","74546","44299","75589","37935","74046","4582","NA","Lexical Decision Task","22","15370","22","yes","1024"
"3.168890155","0","6","thet","non-word","100","100","697.2608695652174","697.2608695652174","black","no","legacy","legacy","legacy","0","uniform","1","undefined","undefined","undefined","1","f","0","0","0","0","22","0","0","0","22","NA","18","22","18","0","18","3","22","0","22","Thu Feb 18 13:36:43 2021","The main experiment item","yes","Lexical_Decision_Task.osexp","C:/Users/matth/OneDrive/Desktop/Assignment Documents/Cognitive/Year 2/Opensesame Files","no","Andale Mono","no","18","no","white","no","yes","576","legacy","18","18","3","C:/Users/matth/OneDrive/Desktop/Assignment Documents/Cognitive/Year 2/Opensesame Files/subject-5203711.csv Lexical Decision Task.csv","legacy","Lentiform Loewenfeld","3.3.7","yes","yes","600bd7cfb6416f0113b04181","602110864497cf011d9c0822","0","f","NA","j","j","j","NA","f","667","NA","2505","19998","6791","NA","667","2","legacy","1024","2","48000","-16","task","5203711","odd","NA","39789","44299","41793","76195","4595","31389","24597","76697","NA","76191","76697","76094","44299","77365","37935","75594","4582","NA","Lexical Decision Task","23","16037","23","yes","1024"
"3.119255889","6.63","2","itch","word","95.83333333333333","95.83333333333333","691.75","691.75","black","no","legacy","legacy","legacy","0","uniform","0","undefined","undefined","undefined","0","j","0","0","0","0","23","0","0","0","23","NA","19","23","19","0","19","3","23","0","23","Thu Feb 18 13:36:43 2021","The main experiment item","yes","Lexical_Decision_Task.osexp","C:/Users/matth/OneDrive/Desktop/Assignment Documents/Cognitive/Year 2/Opensesame Files","no","Andale Mono","no","18","no","white","no","yes","576","legacy","19","19","3","C:/Users/matth/OneDrive/Desktop/Assignment Documents/Cognitive/Year 2/Opensesame Files/subject-5203711.csv Lexical Decision Task.csv","legacy","Lentiform Loewenfeld","3.3.7","yes","yes","600bd7cfb6416f0113b04181","602110864497cf011d9c0822","0","f","NA","j","j","j","NA","f","565","NA","2505","19998","6791","NA","565","2","legacy","1024","2","48000","-16","task","5203711","odd","NA","39789","44299","41793","77967","4595","31389","24597","78469","NA","77965","78469","77872","44299","79035","37935","77372","4582","NA","Lexical Decision Task","23","16602","24","yes","1024"
"3.120025233","0","2","nyst","non-word","96","96","695.12","695.12","black","no","legacy","legacy","legacy","0","uniform","1","undefined","undefined","undefined","1","f","0","0","0","0","24","0","0","0","24","NA","20","24","20","0","20","3","24","0","24","Thu Feb 18 13:36:43 2021","The main experiment item","yes","Lexical_Decision_Task.osexp","C:/Users/matth/OneDrive/Desktop/Assignment Documents/Cognitive/Year 2/Opensesame Files","no","Andale Mono","no","18","no","white","no","yes","576","legacy","20","20","3","C:/Users/matth/OneDrive/Desktop/Assignment Documents/Cognitive/Year 2/Opensesame Files/subject-5203711.csv Lexical Decision Task.csv","legacy","Lentiform Loewenfeld","3.3.7","yes","yes","600bd7cfb6416f0113b04181","602110864497cf011d9c0822","0","f","NA","j","j","j","NA","f","776","NA","2505","19998","6791","NA","776","2","legacy","1024","2","48000","-16","task","5203711","odd","NA","39789","44299","41793","80715","4595","31389","24597","81219","NA","80712","81219","80578","44299","81996","37935","77372","4582","79078","Lexical Decision Task","24","17378","25","yes","1024"
"2.706148589","0","4","hube","non-word","96.15384615384616","96.15384615384616","699.2692307692307","699.2692307692307","black","no","legacy","legacy","legacy","0","uniform","1","undefined","undefined","undefined","1","f","0","0","0","0","25","0","0","0","25","NA","21","25","21","0","21","3","25","0","25","Thu Feb 18 13:36:43 2021","The main experiment item","yes","Lexical_Decision_Task.osexp","C:/Users/matth/OneDrive/Desktop/Assignment Documents/Cognitive/Year 2/Opensesame Files","no","Andale Mono","no","18","no","white","no","yes","576","legacy","21","21","3","C:/Users/matth/OneDrive/Desktop/Assignment Documents/Cognitive/Year 2/Opensesame Files/subject-5203711.csv Lexical Decision Task.csv","legacy","Lentiform Loewenfeld","3.3.7","yes","yes","600bd7cfb6416f0113b04181","602110864497cf011d9c0822","0","f","NA","j","j","j","NA","f","803","NA","2505","19998","6791","NA","803","2","legacy","1024","2","48000","-16","task","5203711","odd","NA","39789","44299","41793","82599","4595","31389","24597","83104","NA","82597","83104","82502","44299","83908","37935","82002","4582","79078","Lexical Decision Task","25","18181","26","yes","1024"
"3.20996159","0","4","clee","non-word","96.29629629629629","96.29629629629629","707.2592592592592","707.2592592592592","black","no","legacy","legacy","legacy","0","uniform","1","undefined","undefined","undefined","1","f","0","0","0","0","26","0","0","0","26","NA","22","26","22","0","22","3","26","0","26","Thu Feb 18 13:36:43 2021","The main experiment item","yes","Lexical_Decision_Task.osexp","C:/Users/matth/OneDrive/Desktop/Assignment Documents/Cognitive/Year 2/Opensesame Files","no","Andale Mono","no","18","no","white","no","yes","576","legacy","22","22","3","C:/Users/matth/OneDrive/Desktop/Assignment Documents/Cognitive/Year 2/Opensesame Files/subject-5203711.csv Lexical Decision Task.csv","legacy","Lentiform Loewenfeld","3.3.7","yes","yes","600bd7cfb6416f0113b04181","602110864497cf011d9c0822","0","f","NA","j","j","j","NA","f","915","NA","2505","19998","6791","NA","915","2","legacy","1024","2","48000","-16","task","5203711","odd","NA","39789","44299","41793","84507","4595","31389","24597","85011","NA","84504","85011","84414","44299","85927","37935","83914","4582","79078","Lexical Decision Task","26","19096","27","yes","1024"
"3.062080345","0","6","tomp","non-word","96.42857142857143","96.42857142857143","706.4285714285714","706.4285714285714","black","no","legacy","legacy","legacy","0","uniform","1","undefined","undefined","undefined","1","f","0","0","0","0","27","0","0","0","27","NA","23","27","23","0","23","3","27","0","27","Thu Feb 18 13:36:43 2021","The main experiment item","yes","Lexical_Decision_Task.osexp","C:/Users/matth/OneDrive/Desktop/Assignment Documents/Cognitive/Year 2/Opensesame Files","no","Andale Mono","no","18","no","white","no","yes","576","legacy","23","23","3","C:/Users/matth/OneDrive/Desktop/Assignment Documents/Cognitive/Year 2/Opensesame Files/subject-5203711.csv Lexical Decision Task.csv","legacy","Lentiform Loewenfeld","3.3.7","yes","yes","600bd7cfb6416f0113b04181","602110864497cf011d9c0822","0","f","NA","j","j","j","NA","f","684","NA","2505","19998","6791","NA","684","2","legacy","1024","2","48000","-16","task","5203711","odd","NA","39789","44299","41793","86566","4595","31389","24597","87069","NA","86564","87069","86471","44299","87754","37935","85970","4582","79078","Lexical Decision Task","27","19780","28","yes","1024"
"2.95456409","0","4","taud","non-word","96.55172413793103","96.55172413793103","705.0344827586207","705.0344827586207","black","no","legacy","legacy","legacy","0","uniform","1","undefined","undefined","undefined","1","f","0","0","0","0","28","0","0","0","28","NA","24","28","24","0","24","3","28","0","28","Thu Feb 18 13:36:43 2021","The main experiment item","yes","Lexical_Decision_Task.osexp","C:/Users/matth/OneDrive/Desktop/Assignment Documents/Cognitive/Year 2/Opensesame Files","no","Andale Mono","no","18","no","white","no","yes","576","legacy","24","24","3","C:/Users/matth/OneDrive/Desktop/Assignment Documents/Cognitive/Year 2/Opensesame Files/subject-5203711.csv Lexical Decision Task.csv","legacy","Lentiform Loewenfeld","3.3.7","yes","yes","600bd7cfb6416f0113b04181","602110864497cf011d9c0822","0","f","NA","j","j","j","NA","f","666","NA","2505","19998","6791","NA","666","2","legacy","1024","2","48000","-16","task","5203711","odd","NA","39789","44299","41793","88383","4595","31389","24597","88887","NA","88380","88887","88299","44299","89555","37935","87799","4582","79078","Lexical Decision Task","28","20446","29","yes","1024"
"2.778633532","0","3","jurp","non-word","96.66666666666667","96.66666666666667","703.3","703.3","black","no","legacy","legacy","legacy","0","uniform","1","undefined","undefined","undefined","1","f","0","0","0","0","29","0","0","0","29","NA","25","29","25","0","25","3","29","0","29","Thu Feb 18 13:36:43 2021","The main experiment item","yes","Lexical_Decision_Task.osexp","C:/Users/matth/OneDrive/Desktop/Assignment Documents/Cognitive/Year 2/Opensesame Files","no","Andale Mono","no","18","no","white","no","yes","576","legacy","25","25","3","C:/Users/matth/OneDrive/Desktop/Assignment Documents/Cognitive/Year 2/Opensesame Files/subject-5203711.csv Lexical Decision Task.csv","legacy","Lentiform Loewenfeld","3.3.7","yes","yes","600bd7cfb6416f0113b04181","602110864497cf011d9c0822","0","f","NA","j","j","j","NA","f","653","NA","2505","19998","6791","NA","653","2","legacy","1024","2","48000","-16","task","5203711","odd","NA","39789","44299","41793","90164","4595","31389","24597","90667","NA","90162","90667","90069","44299","91321","37935","89569","4582","79078","Lexical Decision Task","29","21099","30","yes","1024"
"2.693726949","5.08","3","swig","word","96.7741935483871","96.7741935483871","706.483870967742","706.483870967742","black","no","legacy","legacy","legacy","0","uniform","1","undefined","undefined","undefined","1","j","0","0","0","0","30","0","0","0","30","NA","26","30","26","0","26","3","30","0","30","Thu Feb 18 13:36:43 2021","The main experiment item","yes","Lexical_Decision_Task.osexp","C:/Users/matth/OneDrive/Desktop/Assignment Documents/Cognitive/Year 2/Opensesame Files","no","Andale Mono","no","18","no","white","no","yes","576","legacy","26","26","3","C:/Users/matth/OneDrive/Desktop/Assignment Documents/Cognitive/Year 2/Opensesame Files/subject-5203711.csv Lexical Decision Task.csv","legacy","Lentiform Loewenfeld","3.3.7","yes","yes","600bd7cfb6416f0113b04181","602110864497cf011d9c0822","0","j","NA","j","j","j","NA","j","802","NA","2505","19998","6791","NA","802","2","legacy","1024","2","48000","-16","task","5203711","odd","NA","39789","44299","41793","91947","4595","31389","24597","92451","NA","91945","92451","91870","44299","93254","37935","91370","4582","79078","Lexical Decision Task","30","21901","31","yes","1024"
"3.137775856","7.39","5","comb","word","96.875","96.875","701.71875","701.71875","black","no","legacy","legacy","legacy","0","uniform","1","undefined","undefined","undefined","1","j","0","0","0","0","31","0","0","0","31","NA","27","31","27","0","27","3","31","0","31","Thu Feb 18 13:36:43 2021","The main experiment item","yes","Lexical_Decision_Task.osexp","C:/Users/matth/OneDrive/Desktop/Assignment Documents/Cognitive/Year 2/Opensesame Files","no","Andale Mono","no","18","no","white","no","yes","576","legacy","27","27","3","C:/Users/matth/OneDrive/Desktop/Assignment Documents/Cognitive/Year 2/Opensesame Files/subject-5203711.csv Lexical Decision Task.csv","legacy","Lentiform Loewenfeld","3.3.7","yes","yes","600bd7cfb6416f0113b04181","602110864497cf011d9c0822","0","j","NA","j","j","j","NA","j","554","NA","2505","19998","6791","NA","554","2","legacy","1024","2","48000","-16","task","5203711","odd","NA","39789","44299","41793","93889","4595","31389","24597","94391","NA","93887","94391","93796","44299","94946","37935","93296","4582","79078","Lexical Decision Task","31","22455","32","yes","1024"
"2.843025032","0","9","pusk","non-word","96.96969696969697","96.96969696969697","703.7272727272727","703.7272727272727","black","no","legacy","legacy","legacy","0","uniform","1","undefined","undefined","undefined","1","f","0","0","0","0","32","0","0","0","32","NA","28","32","28","0","28","3","32","0","32","Thu Feb 18 13:36:43 2021","The main experiment item","yes","Lexical_Decision_Task.osexp","C:/Users/matth/OneDrive/Desktop/Assignment Documents/Cognitive/Year 2/Opensesame Files","no","Andale Mono","no","18","no","white","no","yes","576","legacy","28","28","3","C:/Users/matth/OneDrive/Desktop/Assignment Documents/Cognitive/Year 2/Opensesame Files/subject-5203711.csv Lexical Decision Task.csv","legacy","Lentiform Loewenfeld","3.3.7","yes","yes","600bd7cfb6416f0113b04181","602110864497cf011d9c0822","0","f","NA","j","j","j","NA","f","768","NA","2505","19998","6791","NA","768","2","legacy","1024","2","48000","-16","task","5203711","odd","NA","39789","44299","41793","95536","4595","31389","24597","96040","NA","95535","96040","95453","44299","96810","37935","94953","4582","79078","Lexical Decision Task","32","23223","33","yes","1024"
"3.100255637","0","6","brax","non-word","97.05882352941177","97.05882352941177","709.0294117647059","709.0294117647059","black","no","legacy","legacy","legacy","0","uniform","1","undefined","undefined","undefined","1","f","0","0","0","0","33","0","0","0","33","NA","29","33","29","0","29","3","33","0","33","Thu Feb 18 13:36:43 2021","The main experiment item","yes","Lexical_Decision_Task.osexp","C:/Users/matth/OneDrive/Desktop/Assignment Documents/Cognitive/Year 2/Opensesame Files","no","Andale Mono","no","18","no","white","no","yes","576","legacy","29","29","3","C:/Users/matth/OneDrive/Desktop/Assignment Documents/Cognitive/Year 2/Opensesame Files/subject-5203711.csv Lexical Decision Task.csv","legacy","Lentiform Loewenfeld","3.3.7","yes","yes","600bd7cfb6416f0113b04181","602110864497cf011d9c0822","0","f","NA","j","j","j","NA","f","884","NA","2505","19998","6791","NA","884","2","legacy","1024","2","48000","-16","task","5203711","odd","NA","39789","44299","41793","97474","4595","31389","24597","97977","NA","97472","97977","97356","44299","98862","37935","96856","4582","79078","Lexical Decision Task","33","24107","34","yes","1024"
"2.67699827","0","6","hulf","non-word","97.14285714285714","97.14285714285714","704.5142857142857","704.5142857142857","black","no","legacy","legacy","legacy","0","uniform","1","undefined","undefined","undefined","1","f","0","0","0","0","34","0","0","0","34","NA","30","34","30","0","30","3","34","0","34","Thu Feb 18 13:36:43 2021","The main experiment item","yes","Lexical_Decision_Task.osexp","C:/Users/matth/OneDrive/Desktop/Assignment Documents/Cognitive/Year 2/Opensesame Files","no","Andale Mono","no","18","no","white","no","yes","576","legacy","30","30","3","C:/Users/matth/OneDrive/Desktop/Assignment Documents/Cognitive/Year 2/Opensesame Files/subject-5203711.csv Lexical Decision Task.csv","legacy","Lentiform Loewenfeld","3.3.7","yes","yes","600bd7cfb6416f0113b04181","602110864497cf011d9c0822","0","f","NA","j","j","j","NA","f","551","NA","2505","19998","6791","NA","551","2","legacy","1024","2","48000","-16","task","5203711","odd","NA","39789","44299","41793","99460","4595","31389","24597","99964","NA","99458","99964","99380","44299","100516","37935","98880","4582","79078","Lexical Decision Task","34","24658","35","yes","1024"
"3.261341392","5.08","8","reek","word","97.22222222222223","97.22222222222223","743.7222222222222","743.7222222222222","black","no","legacy","legacy","legacy","0","uniform","1","undefined","undefined","undefined","1","j","0","0","0","0","35","0","0","0","35","NA","31","35","31","0","31","3","35","0","35","Thu Feb 18 13:36:43 2021","The main experiment item","yes","Lexical_Decision_Task.osexp","C:/Users/matth/OneDrive/Desktop/Assignment Documents/Cognitive/Year 2/Opensesame Files","no","Andale Mono","no","18","no","white","no","yes","576","legacy","31","31","3","C:/Users/matth/OneDrive/Desktop/Assignment Documents/Cognitive/Year 2/Opensesame Files/subject-5203711.csv Lexical Decision Task.csv","legacy","Lentiform Loewenfeld","3.3.7","yes","yes","600bd7cfb6416f0113b04181","602110864497cf011d9c0822","0","j","NA","j","j","j","NA","j","2116","NA","2505","19998","6791","NA","2116","2","legacy","1024","2","48000","-16","task","5203711","odd","NA","39789","44299","41793","101199","4595","31389","24597","101702","NA","101197","101702","101062","44299","103819","37935","100562","4582","79078","Lexical Decision Task","35","26774","36","yes","1024"
"3.531734309","0","6","lerd","non-word","97.29729729729729","97.29729729729729","741.027027027027","741.027027027027","black","no","legacy","legacy","legacy","0","uniform","1","undefined","undefined","undefined","1","f","0","0","0","0","36","0","0","0","36","NA","32","36","32","0","32","3","36","0","36","Thu Feb 18 13:36:43 2021","The main experiment item","yes","Lexical_Decision_Task.osexp","C:/Users/matth/OneDrive/Desktop/Assignment Documents/Cognitive/Year 2/Opensesame Files","no","Andale Mono","no","18","no","white","no","yes","576","legacy","32","32","3","C:/Users/matth/OneDrive/Desktop/Assignment Documents/Cognitive/Year 2/Opensesame Files/subject-5203711.csv Lexical Decision Task.csv","legacy","Lentiform Loewenfeld","3.3.7","yes","yes","600bd7cfb6416f0113b04181","602110864497cf011d9c0822","0","f","NA","j","j","j","NA","f","644","NA","2505","19998","6791","NA","644","2","legacy","1024","2","48000","-16","task","5203711","odd","NA","39789","44299","41793","104441","4595","31389","24597","104945","NA","104438","104945","104363","44299","105591","37935","103863","4582","79078","Lexical Decision Task","36","27418","37","yes","1024"
"3.2757719","0","5","slea","non-word","97.36842105263158","97.36842105263158","740.421052631579","740.421052631579","black","no","legacy","legacy","legacy","0","uniform","1","undefined","undefined","undefined","1","f","0","0","0","0","37","0","0","0","37","NA","33","37","33","0","33","3","37","0","37","Thu Feb 18 13:36:43 2021","The main experiment item","yes","Lexical_Decision_Task.osexp","C:/Users/matth/OneDrive/Desktop/Assignment Documents/Cognitive/Year 2/Opensesame Files","no","Andale Mono","no","18","no","white","no","yes","576","legacy","33","33","3","C:/Users/matth/OneDrive/Desktop/Assignment Documents/Cognitive/Year 2/Opensesame Files/subject-5203711.csv Lexical Decision Task.csv","legacy","Lentiform Loewenfeld","3.3.7","yes","yes","600bd7cfb6416f0113b04181","602110864497cf011d9c0822","0","f","NA","j","j","j","NA","f","718","NA","2505","19998","6791","NA","718","2","legacy","1024","2","48000","-16","task","5203711","odd","NA","39789","44299","41793","106233","4595","31389","24597","106735","NA","106231","106735","106138","44299","107454","37935","105638","4582","79078","Lexical Decision Task","37","28136","38","yes","1024"
"3.121778632","0","9","sark","non-word","97.43589743589743","97.43589743589743","736.8974358974359","736.8974358974359","black","no","legacy","legacy","legacy","0","uniform","1","undefined","undefined","undefined","1","f","0","0","0","0","38","0","0","0","38","NA","34","38","34","0","34","3","38","0","38","Thu Feb 18 13:36:43 2021","The main experiment item","yes","Lexical_Decision_Task.osexp","C:/Users/matth/OneDrive/Desktop/Assignment Documents/Cognitive/Year 2/Opensesame Files","no","Andale Mono","no","18","no","white","no","yes","576","legacy","34","34","3","C:/Users/matth/OneDrive/Desktop/Assignment Documents/Cognitive/Year 2/Opensesame Files/subject-5203711.csv Lexical Decision Task.csv","legacy","Lentiform Loewenfeld","3.3.7","yes","yes","600bd7cfb6416f0113b04181","602110864497cf011d9c0822","0","f","NA","j","j","j","NA","f","603","NA","2505","19998","6791","NA","603","2","legacy","1024","2","48000","-16","task","5203711","odd","NA","39789","44299","41793","108080","4595","31389","24597","108583","NA","108077","108583","107995","44299","109188","37935","107495","4582","79078","Lexical Decision Task","38","28739","39","yes","1024"
"2.695770526","7.34","6","pawn","word","97.5","97.5","733.975","733.975","black","no","legacy","legacy","legacy","0","uniform","1","undefined","undefined","undefined","1","j","0","0","0","0","39","0","0","0","39","NA","35","39","35","0","35","3","39","0","39","Thu Feb 18 13:36:43 2021","The main experiment item","yes","Lexical_Decision_Task.osexp","C:/Users/matth/OneDrive/Desktop/Assignment Documents/Cognitive/Year 2/Opensesame Files","no","Andale Mono","no","18","no","white","no","yes","576","legacy","35","35","3","C:/Users/matth/OneDrive/Desktop/Assignment Documents/Cognitive/Year 2/Opensesame Files/subject-5203711.csv Lexical Decision Task.csv","legacy","Lentiform Loewenfeld","3.3.7","yes","yes","600bd7cfb6416f0113b04181","602110864497cf011d9c0822","0","j","NA","j","j","j","NA","j","620","NA","2505","19998","6791","NA","620","2","legacy","1024","2","48000","-16","task","5203711","odd","NA","39789","44299","41793","109824","4595","31389","24597","110329","NA","109822","110329","109733","44299","110950","37935","109232","4582","79078","Lexical Decision Task","39","29359","40","yes","1024"
"3.077974404","10.41","8","tool","word","97.5609756097561","97.5609756097561","729.7560975609756","729.7560975609756","black","no","legacy","legacy","legacy","0","uniform","1","undefined","undefined","undefined","1","j","0","0","0","0","40","0","0","0","40","NA","36","40","36","0","36","3","40","0","40","Thu Feb 18 13:36:43 2021","The main experiment item","yes","Lexical_Decision_Task.osexp","C:/Users/matth/OneDrive/Desktop/Assignment Documents/Cognitive/Year 2/Opensesame Files","no","Andale Mono","no","18","no","white","no","yes","576","legacy","36","36","3","C:/Users/matth/OneDrive/Desktop/Assignment Documents/Cognitive/Year 2/Opensesame Files/subject-5203711.csv Lexical Decision Task.csv","legacy","Lentiform Loewenfeld","3.3.7","yes","yes","600bd7cfb6416f0113b04181","602110864497cf011d9c0822","0","j","NA","j","j","j","NA","j","561","NA","2505","19998","6791","NA","561","2","legacy","1024","2","48000","-16","task","5203711","odd","NA","39789","44299","41793","111577","4595","31389","24597","112081","NA","111575","112081","111494","44299","112643","37935","110994","4582","79078","Lexical Decision Task","40","29920","41","yes","1024"
"2.668385917","5.48","4","twig","word","97.61904761904762","97.61904761904762","730.5238095238095","730.5238095238095","black","no","legacy","legacy","legacy","0","uniform","1","undefined","undefined","undefined","1","j","0","0","0","0","41","0","0","0","41","NA","37","41","37","0","37","3","41","0","41","Thu Feb 18 13:36:43 2021","The main experiment item","yes","Lexical_Decision_Task.osexp","C:/Users/matth/OneDrive/Desktop/Assignment Documents/Cognitive/Year 2/Opensesame Files","no","Andale Mono","no","18","no","white","no","yes","576","legacy","37","37","3","C:/Users/matth/OneDrive/Desktop/Assignment Documents/Cognitive/Year 2/Opensesame Files/subject-5203711.csv Lexical Decision Task.csv","legacy","Lentiform Loewenfeld","3.3.7","yes","yes","600bd7cfb6416f0113b04181","602110864497cf011d9c0822","0","j","NA","j","j","j","NA","j","762","NA","2505","19998","6791","NA","762","2","legacy","1024","2","48000","-16","task","5203711","odd","NA","39789","44299","41793","113247","4595","31389","24597","113749","NA","113245","113750","113152","44299","114514","37935","112652","4582","79078","Lexical Decision Task","41","30682","42","yes","1024"
"3.218535505","7.85","7","goat","word","97.67441860465117","97.67441860465117","726.1627906976744","726.1627906976744","black","no","legacy","legacy","legacy","0","uniform","1","undefined","undefined","undefined","1","j","0","0","0","0","42","0","0","0","42","NA","38","42","38","0","38","3","42","0","42","Thu Feb 18 13:36:43 2021","The main experiment item","yes","Lexical_Decision_Task.osexp","C:/Users/matth/OneDrive/Desktop/Assignment Documents/Cognitive/Year 2/Opensesame Files","no","Andale Mono","no","18","no","white","no","yes","576","legacy","38","38","3","C:/Users/matth/OneDrive/Desktop/Assignment Documents/Cognitive/Year 2/Opensesame Files/subject-5203711.csv Lexical Decision Task.csv","legacy","Lentiform Loewenfeld","3.3.7","yes","yes","600bd7cfb6416f0113b04181","602110864497cf011d9c0822","0","j","NA","j","j","j","NA","j","543","NA","2505","19998","6791","NA","543","2","legacy","1024","2","48000","-16","task","5203711","odd","NA","39789","44299","41793","115143","4595","31389","24597","115648","NA","115141","115649","115057","44299","116194","37935","114557","4582","79078","Lexical Decision Task","42","31225","43","yes","1024"
"2.80048796","0","8","pife","non-word","97.72727272727273","97.72727272727273","726.75","726.75","black","no","legacy","legacy","legacy","0","uniform","1","undefined","undefined","undefined","1","f","0","0","0","0","43","0","0","0","43","NA","39","43","39","0","39","3","43","0","43","Thu Feb 18 13:36:43 2021","The main experiment item","yes","Lexical_Decision_Task.osexp","C:/Users/matth/OneDrive/Desktop/Assignment Documents/Cognitive/Year 2/Opensesame Files","no","Andale Mono","no","18","no","white","no","yes","576","legacy","39","39","3","C:/Users/matth/OneDrive/Desktop/Assignment Documents/Cognitive/Year 2/Opensesame Files/subject-5203711.csv Lexical Decision Task.csv","legacy","Lentiform Loewenfeld","3.3.7","yes","yes","600bd7cfb6416f0113b04181","602110864497cf011d9c0822","0","f","NA","j","j","j","NA","f","752","NA","2505","19998","6791","NA","752","2","legacy","1024","2","48000","-16","task","5203711","odd","NA","39789","44299","41793","116829","4595","31389","24597","117331","NA","116827","117331","116737","44299","118085","37935","116237","4582","79078","Lexical Decision Task","43","31977","44","yes","1024"
"2.709837904","6.85","8","skim","word","97.77777777777777","97.77777777777777","723.3333333333334","723.3333333333334","black","no","legacy","legacy","legacy","0","uniform","1","undefined","undefined","undefined","1","j","0","0","0","0","44","0","0","0","44","NA","40","44","40","0","40","3","44","0","44","Thu Feb 18 13:36:43 2021","The main experiment item","yes","Lexical_Decision_Task.osexp","C:/Users/matth/OneDrive/Desktop/Assignment Documents/Cognitive/Year 2/Opensesame Files","no","Andale Mono","no","18","no","white","no","yes","576","legacy","40","40","3","C:/Users/matth/OneDrive/Desktop/Assignment Documents/Cognitive/Year 2/Opensesame Files/subject-5203711.csv Lexical Decision Task.csv","legacy","Lentiform Loewenfeld","3.3.7","yes","yes","600bd7cfb6416f0113b04181","602110864497cf011d9c0822","0","j","NA","j","j","j","NA","j","573","NA","2505","19998","6791","NA","573","2","legacy","1024","2","48000","-16","task","5203711","odd","NA","39789","44299","41793","118683","4595","31389","24597","119187","NA","118680","119187","118591","44299","119762","37935","118091","4582","79078","Lexical Decision Task","44","32550","45","yes","1024"
"2.892836167","10.01","5","soft","word","97.82608695652173","97.82608695652173","719.1086956521739","719.1086956521739","black","no","legacy","legacy","legacy","0","uniform","1","undefined","undefined","undefined","1","j","0","0","0","0","45","0","0","0","45","NA","41","45","41","0","41","3","45","0","45","Thu Feb 18 13:36:43 2021","The main experiment item","yes","Lexical_Decision_Task.osexp","C:/Users/matth/OneDrive/Desktop/Assignment Documents/Cognitive/Year 2/Opensesame Files","no","Andale Mono","no","18","no","white","no","yes","576","legacy","41","41","3","C:/Users/matth/OneDrive/Desktop/Assignment Documents/Cognitive/Year 2/Opensesame Files/subject-5203711.csv Lexical Decision Task.csv","legacy","Lentiform Loewenfeld","3.3.7","yes","yes","600bd7cfb6416f0113b04181","602110864497cf011d9c0822","0","j","NA","j","j","j","NA","j","529","NA","2505","19998","6791","NA","529","2","legacy","1024","2","48000","-16","task","5203711","odd","NA","39789","44299","41793","120397","4595","31389","24597","120900","NA","120395","120900","120306","44299","121430","37935","119804","4582","79078","Lexical Decision Task","45","33079","46","yes","1024"
"2.868644438","10.52","4","town","word","97.87234042553192","97.87234042553192","713.5744680851063","713.5744680851063","black","no","legacy","legacy","legacy","0","uniform","1","undefined","undefined","undefined","1","j","0","0","0","0","46","0","0","0","46","NA","42","46","42","0","42","3","46","0","46","Thu Feb 18 13:36:43 2021","The main experiment item","yes","Lexical_Decision_Task.osexp","C:/Users/matth/OneDrive/Desktop/Assignment Documents/Cognitive/Year 2/Opensesame Files","no","Andale Mono","no","18","no","white","no","yes","576","legacy","42","42","3","C:/Users/matth/OneDrive/Desktop/Assignment Documents/Cognitive/Year 2/Opensesame Files/subject-5203711.csv Lexical Decision Task.csv","legacy","Lentiform Loewenfeld","3.3.7","yes","yes","600bd7cfb6416f0113b04181","602110864497cf011d9c0822","0","j","NA","j","j","j","NA","j","459","NA","2505","19998","6791","NA","459","2","legacy","1024","2","48000","-16","task","5203711","odd","NA","39789","44299","41793","122059","4595","31389","24597","122561","NA","122057","122561","121974","44299","123021","37935","121474","4582","79078","Lexical Decision Task","46","33538","47","yes","1024"
"3.460446784","0","5","dess","non-word","97.91666666666667","97.91666666666667","715.7291666666666","715.7291666666666","black","no","legacy","legacy","legacy","0","uniform","1","undefined","undefined","undefined","1","f","0","0","0","0","47","0","0","0","47","NA","43","47","43","0","43","3","47","0","47","Thu Feb 18 13:36:43 2021","The main experiment item","yes","Lexical_Decision_Task.osexp","C:/Users/matth/OneDrive/Desktop/Assignment Documents/Cognitive/Year 2/Opensesame Files","no","Andale Mono","no","18","no","white","no","yes","576","legacy","43","43","3","C:/Users/matth/OneDrive/Desktop/Assignment Documents/Cognitive/Year 2/Opensesame Files/subject-5203711.csv Lexical Decision Task.csv","legacy","Lentiform Loewenfeld","3.3.7","yes","yes","600bd7cfb6416f0113b04181","602110864497cf011d9c0822","0","f","NA","j","j","j","NA","f","817","NA","2505","19998","6791","NA","817","2","legacy","1024","2","48000","-16","task","5203711","odd","NA","39789","44299","41793","123728","4595","31389","24597","124232","NA","123726","124232","123566","44299","125050","37935","123066","4582","79078","Lexical Decision Task","47","34355","48","yes","1024"
"3.492014979","0","9","yine","non-word","97.95918367346938","97.95918367346938","714.9591836734694","714.9591836734694","black","no","legacy","legacy","legacy","0","uniform","1","undefined","undefined","undefined","1","f","0","0","0","0","48","0","0","0","48","NA","44","48","44","0","44","3","48","0","48","Thu Feb 18 13:36:43 2021","The main experiment item","yes","Lexical_Decision_Task.osexp","C:/Users/matth/OneDrive/Desktop/Assignment Documents/Cognitive/Year 2/Opensesame Files","no","Andale Mono","no","18","no","white","no","yes","576","legacy","44","44","3","C:/Users/matth/OneDrive/Desktop/Assignment Documents/Cognitive/Year 2/Opensesame Files/subject-5203711.csv Lexical Decision Task.csv","legacy","Lentiform Loewenfeld","3.3.7","yes","yes","600bd7cfb6416f0113b04181","602110864497cf011d9c0822","0","f","NA","j","j","j","NA","f","678","NA","2505","19998","6791","NA","678","2","legacy","1024","2","48000","-16","task","5203711","odd","NA","39789","44299","41793","125695","4595","31389","24597","126198","NA","125692","126199","125596","44299","126879","37935","125096","4582","79078","Lexical Decision Task","48","35033","49","yes","1024"
"3.159867847","5.98","5","brim","word","98","98","714.54","714.54","black","no","legacy","legacy","legacy","0","uniform","1","undefined","undefined","undefined","1","j","0","0","0","0","49","0","0","0","49","NA","45","49","45","0","45","3","49","0","49","Thu Feb 18 13:36:43 2021","The main experiment item","yes","Lexical_Decision_Task.osexp","C:/Users/matth/OneDrive/Desktop/Assignment Documents/Cognitive/Year 2/Opensesame Files","no","Andale Mono","no","18","no","white","no","yes","576","legacy","45","45","3","C:/Users/matth/OneDrive/Desktop/Assignment Documents/Cognitive/Year 2/Opensesame Files/subject-5203711.csv Lexical Decision Task.csv","legacy","Lentiform Loewenfeld","3.3.7","yes","yes","600bd7cfb6416f0113b04181","602110864497cf011d9c0822","0","j","NA","j","j","j","NA","j","694","NA","2505","19998","6791","NA","694","2","legacy","1024","2","48000","-16","task","5203711","odd","NA","39789","44299","41793","127511","4595","31389","24597","128015","NA","127510","128015","127421","44299","128712","37935","126920","4582","79078","Lexical Decision Task","49","35727","50","yes","1024"
"3.140404328","10.66","9","deep","word","98.03921568627452","98.03921568627452","709.8235294117648","709.8235294117648","black","no","legacy","legacy","legacy","0","uniform","1","undefined","undefined","undefined","1","j","0","0","0","0","50","0","0","0","50","NA","46","50","46","0","46","3","50","0","50","Thu Feb 18 13:36:43 2021","The main experiment item","yes","Lexical_Decision_Task.osexp","C:/Users/matth/OneDrive/Desktop/Assignment Documents/Cognitive/Year 2/Opensesame Files","no","Andale Mono","no","18","no","white","no","yes","576","legacy","46","46","3","C:/Users/matth/OneDrive/Desktop/Assignment Documents/Cognitive/Year 2/Opensesame Files/subject-5203711.csv Lexical Decision Task.csv","legacy","Lentiform Loewenfeld","3.3.7","yes","yes","600bd7cfb6416f0113b04181","602110864497cf011d9c0822","0","j","NA","j","j","j","NA","j","474","NA","2505","19998","6791","NA","474","2","legacy","1024","2","48000","-16","task","5203711","odd","NA","39789","44299","41793","129338","4595","31389","24597","129840","NA","129336","129840","129256","44299","130318","37935","128756","4582","79078","Lexical Decision Task","50","36201","51","yes","1024"
"2.924968096","0","4","phim","non-word","98.07692307692308","98.07692307692308","708.0192307692307","708.0192307692307","black","no","legacy","legacy","legacy","0","uniform","1","undefined","undefined","undefined","1","f","0","0","0","0","51","0","0","0","51","NA","47","51","47","0","47","3","51","0","51","Thu Feb 18 13:36:43 2021","The main experiment item","yes","Lexical_Decision_Task.osexp","C:/Users/matth/OneDrive/Desktop/Assignment Documents/Cognitive/Year 2/Opensesame Files","no","Andale Mono","no","18","no","white","no","yes","576","legacy","47","47","3","C:/Users/matth/OneDrive/Desktop/Assignment Documents/Cognitive/Year 2/Opensesame Files/subject-5203711.csv Lexical Decision Task.csv","legacy","Lentiform Loewenfeld","3.3.7","yes","yes","600bd7cfb6416f0113b04181","602110864497cf011d9c0822","0","f","NA","j","j","j","NA","f","616","NA","2505","19998","6791","NA","616","2","legacy","1024","2","48000","-16","task","5203711","odd","NA","39789","44299","41793","130913","4595","31389","24597","131417","NA","130910","131417","130826","44299","132034","37935","130326","4582","79078","Lexical Decision Task","51","36817","52","yes","1024"
"2.576725172","0","8","gowl","non-word","98.11320754716981","98.11320754716981","708.7735849056604","708.7735849056604","black","no","legacy","legacy","legacy","0","uniform","1","undefined","undefined","undefined","1","f","0","0","0","0","52","0","0","0","52","NA","48","52","48","0","48","3","52","0","52","Thu Feb 18 13:36:43 2021","The main experiment item","yes","Lexical_Decision_Task.osexp","C:/Users/matth/OneDrive/Desktop/Assignment Documents/Cognitive/Year 2/Opensesame Files","no","Andale Mono","no","18","no","white","no","yes","576","legacy","48","48","3","C:/Users/matth/OneDrive/Desktop/Assignment Documents/Cognitive/Year 2/Opensesame Files/subject-5203711.csv Lexical Decision Task.csv","legacy","Lentiform Loewenfeld","3.3.7","yes","yes","600bd7cfb6416f0113b04181","602110864497cf011d9c0822","0","f","NA","j","j","j","NA","f","748","NA","2505","19998","6791","NA","748","2","legacy","1024","2","48000","-16","task","5203711","odd","NA","39789","44299","41793","132670","4595","31389","24597","133174","NA","132668","133175","132580","44299","133924","37935","132080","4582","79078","Lexical Decision Task","52","37565","53","yes","1024"
"2.771097306","0","9","jold","non-word","98.14814814814815","98.14814814814815","706.7962962962963","706.7962962962963","black","no","legacy","legacy","legacy","0","uniform","1","undefined","undefined","undefined","1","f","0","0","0","0","53","0","0","0","53","NA","49","53","49","0","49","3","53","0","53","Thu Feb 18 13:36:43 2021","The main experiment item","yes","Lexical_Decision_Task.osexp","C:/Users/matth/OneDrive/Desktop/Assignment Documents/Cognitive/Year 2/Opensesame Files","no","Andale Mono","no","18","no","white","no","yes","576","legacy","49","49","3","C:/Users/matth/OneDrive/Desktop/Assignment Documents/Cognitive/Year 2/Opensesame Files/subject-5203711.csv Lexical Decision Task.csv","legacy","Lentiform Loewenfeld","3.3.7","yes","yes","600bd7cfb6416f0113b04181","602110864497cf011d9c0822","0","f","NA","j","j","j","NA","f","602","NA","2505","19998","6791","NA","602","2","legacy","1024","2","48000","-16","task","5203711","odd","NA","39789","44299","41793","134555","4595","31389","24597","135058","NA","134553","135059","134466","44299","135663","37935","133966","4582","79078","Lexical Decision Task","53","38167","54","yes","1024"
"2.616654026","9.37","5","gift","word","98.18181818181819","98.18181818181819","704.9636363636364","704.9636363636364","black","no","legacy","legacy","legacy","0","uniform","1","undefined","undefined","undefined","1","j","0","0","0","0","54","0","0","0","54","0","50","54","50","0","50","3","54","0","54","Thu Feb 18 13:36:43 2021","The main experiment item","yes","Lexical_Decision_Task.osexp","C:/Users/matth/OneDrive/Desktop/Assignment Documents/Cognitive/Year 2/Opensesame Files","no","Andale Mono","no","18","no","white","no","yes","576","legacy","50","50","3","C:/Users/matth/OneDrive/Desktop/Assignment Documents/Cognitive/Year 2/Opensesame Files/subject-5203711.csv Lexical Decision Task.csv","legacy","Lentiform Loewenfeld","3.3.7","yes","yes","600bd7cfb6416f0113b04181","602110864497cf011d9c0822","0","j","NA","j","j","j","j","j","606","NA","2505","19998","6791","3610","606","2","legacy","1024","2","48000","-16","task","5203711","odd","NA","39789","44299","41793","139938","4595","31389","24597","140443","136250","139935","140443","136172","44299","141051","37935","135671","4582","79078","Lexical Decision Task","54","38773","55","yes","1024"
"3.269668578","0","7","trag","non-word","98.21428571428571","98.21428571428571","705.1428571428571","705.1428571428571","black","no","legacy","legacy","legacy","0","uniform","1","undefined","undefined","undefined","1","f","0","0","0","0","55","0","0","0","55","0","51","55","51","0","51","3","55","0","55","Thu Feb 18 13:36:43 2021","The main experiment item","yes","Lexical_Decision_Task.osexp","C:/Users/matth/OneDrive/Desktop/Assignment Documents/Cognitive/Year 2/Opensesame Files","no","Andale Mono","no","18","no","white","no","yes","576","legacy","51","51","3","C:/Users/matth/OneDrive/Desktop/Assignment Documents/Cognitive/Year 2/Opensesame Files/subject-5203711.csv Lexical Decision Task.csv","legacy","Lentiform Loewenfeld","3.3.7","yes","yes","600bd7cfb6416f0113b04181","602110864497cf011d9c0822","0","f","NA","j","j","j","j","f","715","NA","2505","19998","6791","3610","715","2","legacy","1024","2","48000","-16","task","5203711","odd","NA","39789","44299","41793","141678","4595","31389","24597","142181","136250","141677","142181","141596","44299","142898","37935","141096","4582","79078","Lexical Decision Task","55","39488","56","yes","1024"
"3.156347201","0","8","lasp","non-word","98.24561403508773","98.24561403508773","704.7894736842105","704.7894736842105","black","no","legacy","legacy","legacy","0","uniform","1","undefined","undefined","undefined","1","f","0","0","0","0","56","0","0","0","56","0","52","56","52","0","52","3","56","0","56","Thu Feb 18 13:36:43 2021","The main experiment item","yes","Lexical_Decision_Task.osexp","C:/Users/matth/OneDrive/Desktop/Assignment Documents/Cognitive/Year 2/Opensesame Files","no","Andale Mono","no","18","no","white","no","yes","576","legacy","52","52","3","C:/Users/matth/OneDrive/Desktop/Assignment Documents/Cognitive/Year 2/Opensesame Files/subject-5203711.csv Lexical Decision Task.csv","legacy","Lentiform Loewenfeld","3.3.7","yes","yes","600bd7cfb6416f0113b04181","602110864497cf011d9c0822","0","f","NA","j","j","j","j","f","685","NA","2505","19998","6791","3610","685","2","legacy","1024","2","48000","-16","task","5203711","odd","NA","39789","44299","41793","143526","4595","31389","24597","144031","136250","143525","144031","143444","44299","144717","37935","142944","4582","79078","Lexical Decision Task","56","40173","57","yes","1024"
"2.898725182","0","7","turl","non-word","98.27586206896552","98.27586206896552","703.0689655172414","703.0689655172414","black","no","legacy","legacy","legacy","0","uniform","1","undefined","undefined","undefined","1","f","0","0","0","0","57","0","0","0","57","0","53","57","53","0","53","3","57","0","57","Thu Feb 18 13:36:43 2021","The main experiment item","yes","Lexical_Decision_Task.osexp","C:/Users/matth/OneDrive/Desktop/Assignment Documents/Cognitive/Year 2/Opensesame Files","no","Andale Mono","no","18","no","white","no","yes","576","legacy","53","53","3","C:/Users/matth/OneDrive/Desktop/Assignment Documents/Cognitive/Year 2/Opensesame Files/subject-5203711.csv Lexical Decision Task.csv","legacy","Lentiform Loewenfeld","3.3.7","yes","yes","600bd7cfb6416f0113b04181","602110864497cf011d9c0822","0","f","NA","j","j","j","j","f","605","NA","2505","19998","6791","3610","605","2","legacy","1024","2","48000","-16","task","5203711","odd","NA","39789","44299","41793","145347","4595","31389","24597","145850","136250","145345","145851","145264","44299","146458","37935","144764","4582","79078","Lexical Decision Task","57","40778","58","yes","1024"
"3.440331212","7.35","6","stew","word","98.30508474576271","98.30508474576271","700.6440677966102","700.6440677966102","black","no","legacy","legacy","legacy","0","uniform","1","undefined","undefined","undefined","1","j","0","0","0","0","58","0","0","0","58","0","54","58","54","0","54","3","58","0","58","Thu Feb 18 13:36:43 2021","The main experiment item","yes","Lexical_Decision_Task.osexp","C:/Users/matth/OneDrive/Desktop/Assignment Documents/Cognitive/Year 2/Opensesame Files","no","Andale Mono","no","18","no","white","no","yes","576","legacy","54","54","3","C:/Users/matth/OneDrive/Desktop/Assignment Documents/Cognitive/Year 2/Opensesame Files/subject-5203711.csv Lexical Decision Task.csv","legacy","Lentiform Loewenfeld","3.3.7","yes","yes","600bd7cfb6416f0113b04181","602110864497cf011d9c0822","0","j","NA","j","j","j","j","j","560","NA","2505","19998","6791","3610","560","2","legacy","1024","2","48000","-16","task","5203711","odd","NA","39789","44299","41793","147125","4595","31389","24597","147629","136250","147123","147629","147004","44299","148192","37935","146504","4582","79078","Lexical Decision Task","58","41338","59","yes","1024"
"2.695481676","0","7","goke","non-word","98.33333333333333","98.33333333333333","697.1","697.1","black","no","legacy","legacy","legacy","0","uniform","1","undefined","undefined","undefined","1","f","0","0","0","0","59","0","0","0","59","0","55","59","55","0","55","3","59","0","59","Thu Feb 18 13:36:43 2021","The main experiment item","yes","Lexical_Decision_Task.osexp","C:/Users/matth/OneDrive/Desktop/Assignment Documents/Cognitive/Year 2/Opensesame Files","no","Andale Mono","no","18","no","white","no","yes","576","legacy","55","55","3","C:/Users/matth/OneDrive/Desktop/Assignment Documents/Cognitive/Year 2/Opensesame Files/subject-5203711.csv Lexical Decision Task.csv","legacy","Lentiform Loewenfeld","3.3.7","yes","yes","600bd7cfb6416f0113b04181","602110864497cf011d9c0822","0","f","NA","j","j","j","j","f","488","NA","2505","19998","6791","3610","488","2","legacy","1024","2","48000","-16","task","5203711","odd","NA","39789","44299","41793","148820","4595","31389","24597","149323","136250","148818","149323","148735","44299","149813","37935","148235","4582","79078","Lexical Decision Task","59","41826","60","yes","1024"
"3.064581521","5.51","6","cask","word","98.36065573770492","98.36065573770492","701.9016393442623","701.9016393442623","black","no","legacy","legacy","legacy","0","uniform","1","undefined","undefined","undefined","1","j","0","0","0","0","60","0","0","0","60","0","56","60","56","0","56","3","60","0","60","Thu Feb 18 13:36:43 2021","The main experiment item","yes","Lexical_Decision_Task.osexp","C:/Users/matth/OneDrive/Desktop/Assignment Documents/Cognitive/Year 2/Opensesame Files","no","Andale Mono","no","18","no","white","no","yes","576","legacy","56","56","3","C:/Users/matth/OneDrive/Desktop/Assignment Documents/Cognitive/Year 2/Opensesame Files/subject-5203711.csv Lexical Decision Task.csv","legacy","Lentiform Loewenfeld","3.3.7","yes","yes","600bd7cfb6416f0113b04181","602110864497cf011d9c0822","0","j","NA","j","j","j","j","j","990","NA","2505","19998","6791","3610","990","2","legacy","1024","2","48000","-16","task","5203711","odd","NA","39789","44299","41793","150420","4595","31389","24597","150924","136250","150418","150924","150319","44299","151916","37935","149819","4582","79078","Lexical Decision Task","60","42816","61","yes","1024"
"2.675164031","8.57","6","glue","word","98.38709677419355","98.38709677419355","699.241935483871","699.241935483871","black","no","legacy","legacy","legacy","0","uniform","1","undefined","undefined","undefined","1","j","0","0","0","0","61","0","0","0","61","0","57","61","57","0","57","3","61","0","61","Thu Feb 18 13:36:43 2021","The main experiment item","yes","Lexical_Decision_Task.osexp","C:/Users/matth/OneDrive/Desktop/Assignment Documents/Cognitive/Year 2/Opensesame Files","no","Andale Mono","no","18","no","white","no","yes","576","legacy","57","57","3","C:/Users/matth/OneDrive/Desktop/Assignment Documents/Cognitive/Year 2/Opensesame Files/subject-5203711.csv Lexical Decision Task.csv","legacy","Lentiform Loewenfeld","3.3.7","yes","yes","600bd7cfb6416f0113b04181","602110864497cf011d9c0822","0","j","NA","j","j","j","j","j","537","NA","2505","19998","6791","3610","537","2","legacy","1024","2","48000","-16","task","5203711","odd","NA","39789","44299","41793","152555","4595","31389","24597","153058","136250","152552","153058","152461","44299","153598","37935","151961","4582","79078","Lexical Decision Task","61","43353","62","yes","1024"
"3.039414119","0","9","meep","non-word","98.41269841269842","98.41269841269842","698.7619047619048","698.7619047619048","black","no","legacy","legacy","legacy","0","uniform","1","undefined","undefined","undefined","1","f","0","0","0","0","62","0","0","0","62","0","58","62","58","0","58","3","62","0","62","Thu Feb 18 13:36:43 2021","The main experiment item","yes","Lexical_Decision_Task.osexp","C:/Users/matth/OneDrive/Desktop/Assignment Documents/Cognitive/Year 2/Opensesame Files","no","Andale Mono","no","18","no","white","no","yes","576","legacy","58","58","3","C:/Users/matth/OneDrive/Desktop/Assignment Documents/Cognitive/Year 2/Opensesame Files/subject-5203711.csv Lexical Decision Task.csv","legacy","Lentiform Loewenfeld","3.3.7","yes","yes","600bd7cfb6416f0113b04181","602110864497cf011d9c0822","0","f","NA","j","j","j","j","f","669","NA","2505","19998","6791","3610","669","2","legacy","1024","2","48000","-16","task","5203711","odd","NA","39789","44299","41793","154223","4595","31389","24597","154728","136250","154221","154728","154134","44299","155398","37935","153634","4582","79078","Lexical Decision Task","62","44022","63","yes","1024"
"3.15462682","0","6","noal","non-word","98.4375","98.4375","697.234375","697.234375","black","no","legacy","legacy","legacy","0","uniform","1","undefined","undefined","undefined","1","f","0","0","0","0","63","0","0","0","63","0","59","63","59","0","59","3","63","0","63","Thu Feb 18 13:36:43 2021","The main experiment item","yes","Lexical_Decision_Task.osexp","C:/Users/matth/OneDrive/Desktop/Assignment Documents/Cognitive/Year 2/Opensesame Files","no","Andale Mono","no","18","no","white","no","yes","576","legacy","59","59","3","C:/Users/matth/OneDrive/Desktop/Assignment Documents/Cognitive/Year 2/Opensesame Files/subject-5203711.csv Lexical Decision Task.csv","legacy","Lentiform Loewenfeld","3.3.7","yes","yes","600bd7cfb6416f0113b04181","602110864497cf011d9c0822","0","f","NA","j","j","j","j","f","601","NA","2505","19998","6791","3610","601","2","legacy","1024","2","48000","-16","task","5203711","odd","NA","39789","44299","41793","156061","4595","31389","24597","156563","136250","156058","156563","155944","44299","157167","37935","155444","4582","79078","Lexical Decision Task","63","44623","64","yes","1024"
"3.372543801","9.24","8","coat","word","98.46153846153847","98.46153846153847","696.1076923076923","696.1076923076923","black","no","legacy","legacy","legacy","0","uniform","1","undefined","undefined","undefined","1","j","0","0","0","0","64","0","0","0","64","0","60","64","60","0","60","3","64","0","64","Thu Feb 18 13:36:43 2021","The main experiment item","yes","Lexical_Decision_Task.osexp","C:/Users/matth/OneDrive/Desktop/Assignment Documents/Cognitive/Year 2/Opensesame Files","no","Andale Mono","no","18","no","white","no","yes","576","legacy","60","60","3","C:/Users/matth/OneDrive/Desktop/Assignment Documents/Cognitive/Year 2/Opensesame Files/subject-5203711.csv Lexical Decision Task.csv","legacy","Lentiform Loewenfeld","3.3.7","yes","yes","600bd7cfb6416f0113b04181","602110864497cf011d9c0822","0","j","NA","j","j","j","j","j","624","NA","2505","19998","6791","3610","624","2","legacy","1024","2","48000","-16","task","5203711","odd","NA","39789","44299","41793","157806","4595","31389","24597","158309","136250","157805","158310","157710","44299","158937","37935","157210","4582","79078","Lexical Decision Task","64","45247","65","yes","1024"
"2.708989954","9.28","9","bowl","word","98.48484848484848","98.48484848484848","693.3787878787879","693.3787878787879","black","no","legacy","legacy","legacy","0","uniform","1","undefined","undefined","undefined","1","j","0","0","0","0","65","0","0","0","65","0","61","65","61","0","61","3","65","0","65","Thu Feb 18 13:36:43 2021","The main experiment item","yes","Lexical_Decision_Task.osexp","C:/Users/matth/OneDrive/Desktop/Assignment Documents/Cognitive/Year 2/Opensesame Files","no","Andale Mono","no","18","no","white","no","yes","576","legacy","61","61","3","C:/Users/matth/OneDrive/Desktop/Assignment Documents/Cognitive/Year 2/Opensesame Files/subject-5203711.csv Lexical Decision Task.csv","legacy","Lentiform Loewenfeld","3.3.7","yes","yes","600bd7cfb6416f0113b04181","602110864497cf011d9c0822","0","j","NA","j","j","j","j","j","516","NA","2505","19998","6791","3610","516","2","legacy","1024","2","48000","-16","task","5203711","odd","NA","39789","44299","41793","159528","4595","31389","24597","160031","136250","159526","160031","159446","44299","160548","37935","158945","4582","79078","Lexical Decision Task","65","45763","66","yes","1024"
"3.037294994","8.64","7","roof","word","98.50746268656717","98.50746268656717","691.1492537313433","691.1492537313433","black","no","legacy","legacy","legacy","0","uniform","1","undefined","undefined","undefined","1","j","0","0","0","0","66","0","0","0","66","0","62","66","62","0","62","3","66","0","66","Thu Feb 18 13:36:43 2021","The main experiment item","yes","Lexical_Decision_Task.osexp","C:/Users/matth/OneDrive/Desktop/Assignment Documents/Cognitive/Year 2/Opensesame Files","no","Andale Mono","no","18","no","white","no","yes","576","legacy","62","62","3","C:/Users/matth/OneDrive/Desktop/Assignment Documents/Cognitive/Year 2/Opensesame Files/subject-5203711.csv Lexical Decision Task.csv","legacy","Lentiform Loewenfeld","3.3.7","yes","yes","600bd7cfb6416f0113b04181","602110864497cf011d9c0822","0","j","NA","j","j","j","j","j","544","NA","2505","19998","6791","3610","544","2","legacy","1024","2","48000","-16","task","5203711","odd","NA","39789","44299","41793","161179","4595","31389","24597","161684","136250","161177","161684","161093","44299","162230","37935","160592","4582","79078","Lexical Decision Task","66","46307","67","yes","1024"
"3.010582609","0","2","drod","non-word","98.52941176470588","98.52941176470588","690.1176470588235","690.1176470588235","black","no","legacy","legacy","legacy","0","uniform","1","undefined","undefined","undefined","1","f","0","0","0","0","67","0","0","0","67","0","63","67","63","0","63","3","67","0","67","Thu Feb 18 13:36:43 2021","The main experiment item","yes","Lexical_Decision_Task.osexp","C:/Users/matth/OneDrive/Desktop/Assignment Documents/Cognitive/Year 2/Opensesame Files","no","Andale Mono","no","18","no","white","no","yes","576","legacy","63","63","3","C:/Users/matth/OneDrive/Desktop/Assignment Documents/Cognitive/Year 2/Opensesame Files/subject-5203711.csv Lexical Decision Task.csv","legacy","Lentiform Loewenfeld","3.3.7","yes","yes","600bd7cfb6416f0113b04181","602110864497cf011d9c0822","0","f","NA","j","j","j","j","f","621","NA","2505","19998","6791","3610","621","2","legacy","1024","2","48000","-16","task","5203711","odd","NA","39789","44299","41793","162861","4595","31389","24597","163365","136250","162859","163365","162776","44299","163988","37935","162276","4582","79078","Lexical Decision Task","67","46928","68","yes","1024"
"3.22685757","9.99","7","roll","word","98.55072463768116","98.55072463768116","687.463768115942","687.463768115942","black","no","legacy","legacy","legacy","0","uniform","1","undefined","undefined","undefined","1","j","0","0","0","0","68","0","0","0","68","0","64","68","64","0","64","3","68","0","68","Thu Feb 18 13:36:43 2021","The main experiment item","yes","Lexical_Decision_Task.osexp","C:/Users/matth/OneDrive/Desktop/Assignment Documents/Cognitive/Year 2/Opensesame Files","no","Andale Mono","no","18","no","white","no","yes","576","legacy","64","64","3","C:/Users/matth/OneDrive/Desktop/Assignment Documents/Cognitive/Year 2/Opensesame Files/subject-5203711.csv Lexical Decision Task.csv","legacy","Lentiform Loewenfeld","3.3.7","yes","yes","600bd7cfb6416f0113b04181","602110864497cf011d9c0822","0","j","NA","j","j","j","j","j","507","NA","2505","19998","6791","3610","507","2","legacy","1024","2","48000","-16","task","5203711","odd","NA","39789","44299","41793","164626","4595","31389","24597","165128","136250","164624","165128","164534","44299","165639","37935","164034","4582","79078","Lexical Decision Task","68","47435","69","yes","1024"
"3.368162872","0","4","ferk","non-word","98.57142857142857","98.57142857142857","685.7285714285714","685.7285714285714","black","no","legacy","legacy","legacy","0","uniform","1","undefined","undefined","undefined","1","f","0","0","0","0","69","0","0","0","69","0","65","69","65","0","65","3","69","0","69","Thu Feb 18 13:36:43 2021","The main experiment item","yes","Lexical_Decision_Task.osexp","C:/Users/matth/OneDrive/Desktop/Assignment Documents/Cognitive/Year 2/Opensesame Files","no","Andale Mono","no","18","no","white","no","yes","576","legacy","65","65","3","C:/Users/matth/OneDrive/Desktop/Assignment Documents/Cognitive/Year 2/Opensesame Files/subject-5203711.csv Lexical Decision Task.csv","legacy","Lentiform Loewenfeld","3.3.7","yes","yes","600bd7cfb6416f0113b04181","602110864497cf011d9c0822","0","f","NA","j","j","j","j","f","566","NA","2505","19998","6791","3610","566","2","legacy","1024","2","48000","-16","task","5203711","odd","NA","39789","44299","41793","166266","4595","31389","24597","166771","136250","166264","166771","166162","44299","167339","37935","165662","4582","79078","Lexical Decision Task","69","48001","70","yes","1024"
"2.842815106","7.86","8","lump","word","98.59154929577464","98.59154929577464","683.1267605633802","683.1267605633802","black","no","legacy","legacy","legacy","0","uniform","1","undefined","undefined","undefined","1","j","0","0","0","0","70","0","0","0","70","0","66","70","66","0","66","3","70","0","70","Thu Feb 18 13:36:43 2021","The main experiment item","yes","Lexical_Decision_Task.osexp","C:/Users/matth/OneDrive/Desktop/Assignment Documents/Cognitive/Year 2/Opensesame Files","no","Andale Mono","no","18","no","white","no","yes","576","legacy","66","66","3","C:/Users/matth/OneDrive/Desktop/Assignment Documents/Cognitive/Year 2/Opensesame Files/subject-5203711.csv Lexical Decision Task.csv","legacy","Lentiform Loewenfeld","3.3.7","yes","yes","600bd7cfb6416f0113b04181","602110864497cf011d9c0822","0","j","NA","j","j","j","j","j","501","NA","2505","19998","6791","3610","501","2","legacy","1024","2","48000","-16","task","5203711","odd","NA","39789","44299","41793","167967","4595","31389","24597","168470","136250","167965","168470","167882","44299","168973","37935","167381","4582","79078","Lexical Decision Task","70","48502","71","yes","1024"
"3.366547468","0","6","plat","non-word","97.22222222222223","97.22222222222223","684.5972222222222","684.5972222222222","black","no","legacy","legacy","legacy","0","uniform","0","undefined","undefined","undefined","0","f","0","0","0","0","71","0","0","0","71","0","67","71","67","0","67","3","71","0","71","Thu Feb 18 13:36:43 2021","The main experiment item","yes","Lexical_Decision_Task.osexp","C:/Users/matth/OneDrive/Desktop/Assignment Documents/Cognitive/Year 2/Opensesame Files","no","Andale Mono","no","18","no","white","no","yes","576","legacy","67","67","3","C:/Users/matth/OneDrive/Desktop/Assignment Documents/Cognitive/Year 2/Opensesame Files/subject-5203711.csv Lexical Decision Task.csv","legacy","Lentiform Loewenfeld","3.3.7","yes","yes","600bd7cfb6416f0113b04181","602110864497cf011d9c0822","0","j","NA","j","j","j","j","j","789","NA","2505","19998","6791","3610","789","2","legacy","1024","2","48000","-16","task","5203711","odd","NA","39789","44299","41793","169608","4595","31389","24597","170113","136250","169606","170113","169519","44299","170903","37935","169019","4582","79078","Lexical Decision Task","70","49291","72","yes","1024"
"2.713490543","0","3","feps","non-word","97.26027397260275","97.26027397260275","690.3698630136986","690.3698630136986","black","no","legacy","legacy","legacy","0","uniform","1","undefined","undefined","undefined","1","f","0","0","0","0","72","0","0","0","72","0","68","72","68","0","68","3","72","0","72","Thu Feb 18 13:36:43 2021","The main experiment item","yes","Lexical_Decision_Task.osexp","C:/Users/matth/OneDrive/Desktop/Assignment Documents/Cognitive/Year 2/Opensesame Files","no","Andale Mono","no","18","no","white","no","yes","576","legacy","68","68","3","C:/Users/matth/OneDrive/Desktop/Assignment Documents/Cognitive/Year 2/Opensesame Files/subject-5203711.csv Lexical Decision Task.csv","legacy","Lentiform Loewenfeld","3.3.7","yes","yes","600bd7cfb6416f0113b04181","602110864497cf011d9c0822","0","f","NA","j","j","j","j","f","1106","NA","2505","19998","6791","3610","1106","2","legacy","1024","2","48000","-16","task","5203711","odd","NA","39789","44299","41793","172540","4595","31389","24597","173044","136250","172537","173044","172450","44299","174151","37935","169019","4582","170950","Lexical Decision Task","71","50397","73","yes","1024"
"3.082307743","9.68","8","camp","word","97.29729729729729","97.29729729729729","699.8108108108108","699.8108108108108","black","no","legacy","legacy","legacy","0","uniform","1","undefined","undefined","undefined","1","j","0","0","0","0","73","0","0","0","73","0","69","73","69","0","69","3","73","0","73","Thu Feb 18 13:36:43 2021","The main experiment item","yes","Lexical_Decision_Task.osexp","C:/Users/matth/OneDrive/Desktop/Assignment Documents/Cognitive/Year 2/Opensesame Files","no","Andale Mono","no","18","no","white","no","yes","576","legacy","69","69","3","C:/Users/matth/OneDrive/Desktop/Assignment Documents/Cognitive/Year 2/Opensesame Files/subject-5203711.csv Lexical Decision Task.csv","legacy","Lentiform Loewenfeld","3.3.7","yes","yes","600bd7cfb6416f0113b04181","602110864497cf011d9c0822","0","j","NA","j","j","j","j","j","1389","NA","2505","19998","6791","3610","1389","2","legacy","1024","2","48000","-16","task","5203711","odd","NA","39789","44299","41793","174775","4595","31389","24597","175278","136250","174773","175279","174686","44299","176669","37935","174186","4582","170950","Lexical Decision Task","72","51786","74","yes","1024"
"2.793790385","5.67","9","swab","word","97.33333333333333","97.33333333333333","701.1066666666667","701.1066666666667","black","no","legacy","legacy","legacy","0","uniform","1","undefined","undefined","undefined","1","j","0","0","0","0","74","0","0","0","74","0","70","74","70","0","70","3","74","0","74","Thu Feb 18 13:36:43 2021","The main experiment item","yes","Lexical_Decision_Task.osexp","C:/Users/matth/OneDrive/Desktop/Assignment Documents/Cognitive/Year 2/Opensesame Files","no","Andale Mono","no","18","no","white","no","yes","576","legacy","70","70","3","C:/Users/matth/OneDrive/Desktop/Assignment Documents/Cognitive/Year 2/Opensesame Files/subject-5203711.csv Lexical Decision Task.csv","legacy","Lentiform Loewenfeld","3.3.7","yes","yes","600bd7cfb6416f0113b04181","602110864497cf011d9c0822","0","j","NA","j","j","j","j","j","797","NA","2505","19998","6791","3610","797","2","legacy","1024","2","48000","-16","task","5203711","odd","NA","39789","44299","41793","177301","4595","31389","24597","177804","136250","177298","177804","177183","44299","178602","37935","176683","4582","170950","Lexical Decision Task","73","52583","75","yes","1024"
"3.003891166","8.05","2","frog","word","97.36842105263158","97.36842105263158","701.2763157894736","701.2763157894736","black","no","legacy","legacy","legacy","0","uniform","1","undefined","undefined","undefined","1","j","0","0","0","0","75","0","0","0","75","0","71","75","71","0","71","3","75","0","75","Thu Feb 18 13:36:43 2021","The main experiment item","yes","Lexical_Decision_Task.osexp","C:/Users/matth/OneDrive/Desktop/Assignment Documents/Cognitive/Year 2/Opensesame Files","no","Andale Mono","no","18","no","white","no","yes","576","legacy","71","71","3","C:/Users/matth/OneDrive/Desktop/Assignment Documents/Cognitive/Year 2/Opensesame Files/subject-5203711.csv Lexical Decision Task.csv","legacy","Lentiform Loewenfeld","3.3.7","yes","yes","600bd7cfb6416f0113b04181","602110864497cf011d9c0822","0","j","NA","j","j","j","j","j","714","NA","2505","19998","6791","3610","714","2","legacy","1024","2","48000","-16","task","5203711","odd","NA","39789","44299","41793","179233","4595","31389","24597","179736","136250","179231","179736","179145","44299","180452","37935","178645","4582","170950","Lexical Decision Task","74","53297","76","yes","1024"
"3.216517684","10.87","3","film","word","97.40259740259741","97.40259740259741","701.4935064935065","701.4935064935065","black","no","legacy","legacy","legacy","0","uniform","1","undefined","undefined","undefined","1","j","0","0","0","0","76","0","0","0","76","0","72","76","72","0","72","3","76","0","76","Thu Feb 18 13:36:43 2021","The main experiment item","yes","Lexical_Decision_Task.osexp","C:/Users/matth/OneDrive/Desktop/Assignment Documents/Cognitive/Year 2/Opensesame Files","no","Andale Mono","no","18","no","white","no","yes","576","legacy","72","72","3","C:/Users/matth/OneDrive/Desktop/Assignment Documents/Cognitive/Year 2/Opensesame Files/subject-5203711.csv Lexical Decision Task.csv","legacy","Lentiform Loewenfeld","3.3.7","yes","yes","600bd7cfb6416f0113b04181","602110864497cf011d9c0822","0","j","NA","j","j","j","j","j","718","NA","2505","19998","6791","3610","718","2","legacy","1024","2","48000","-16","task","5203711","odd","NA","39789","44299","41793","181085","4595","31389","24597","181589","136250","181084","181590","180997","44299","182311","37935","180497","4582","170950","Lexical Decision Task","75","54015","77","yes","1024"
"2.86332286","6.71","2","feud","word","97.43589743589743","97.43589743589743","704.1153846153846","704.1153846153846","black","no","legacy","legacy","legacy","0","uniform","1","undefined","undefined","undefined","1","j","0","0","0","0","77","0","0","0","77","0","73","77","73","0","73","3","77","0","77","Thu Feb 18 13:36:43 2021","The main experiment item","yes","Lexical_Decision_Task.osexp","C:/Users/matth/OneDrive/Desktop/Assignment Documents/Cognitive/Year 2/Opensesame Files","no","Andale Mono","no","18","no","white","no","yes","576","legacy","73","73","3","C:/Users/matth/OneDrive/Desktop/Assignment Documents/Cognitive/Year 2/Opensesame Files/subject-5203711.csv Lexical Decision Task.csv","legacy","Lentiform Loewenfeld","3.3.7","yes","yes","600bd7cfb6416f0113b04181","602110864497cf011d9c0822","0","j","NA","j","j","j","j","j","906","NA","2505","19998","6791","3610","906","2","legacy","1024","2","48000","-16","task","5203711","odd","NA","39789","44299","41793","182938","4595","31389","24597","183440","136250","182935","183440","182852","44299","184348","37935","182352","4582","170950","Lexical Decision Task","76","54921","78","yes","1024"
"2.8162413","0","5","nusk","non-word","97.46835443037975","97.46835443037975","704.8354430379746","704.8354430379746","black","no","legacy","legacy","legacy","0","uniform","1","undefined","undefined","undefined","1","f","0","0","0","0","78","0","0","0","78","0","74","78","74","0","74","3","78","0","78","Thu Feb 18 13:36:43 2021","The main experiment item","yes","Lexical_Decision_Task.osexp","C:/Users/matth/OneDrive/Desktop/Assignment Documents/Cognitive/Year 2/Opensesame Files","no","Andale Mono","no","18","no","white","no","yes","576","legacy","74","74","3","C:/Users/matth/OneDrive/Desktop/Assignment Documents/Cognitive/Year 2/Opensesame Files/subject-5203711.csv Lexical Decision Task.csv","legacy","Lentiform Loewenfeld","3.3.7","yes","yes","600bd7cfb6416f0113b04181","602110864497cf011d9c0822","0","f","NA","j","j","j","j","f","761","NA","2505","19998","6791","3610","761","2","legacy","1024","2","48000","-16","task","5203711","odd","NA","39789","44299","41793","184975","4595","31389","24597","185478","136250","184973","185479","184894","44299","186242","37935","184393","4582","170950","Lexical Decision Task","77","55682","79","yes","1024"
"2.68604012","0","3","mulb","non-word","97.5","97.5","704.825","704.825","black","no","legacy","legacy","legacy","0","uniform","1","undefined","undefined","undefined","1","f","0","0","0","0","79","0","0","0","79","0","75","79","75","0","75","3","79","0","79","Thu Feb 18 13:36:43 2021","The main experiment item","yes","Lexical_Decision_Task.osexp","C:/Users/matth/OneDrive/Desktop/Assignment Documents/Cognitive/Year 2/Opensesame Files","no","Andale Mono","no","18","no","white","no","yes","576","legacy","75","75","3","C:/Users/matth/OneDrive/Desktop/Assignment Documents/Cognitive/Year 2/Opensesame Files/subject-5203711.csv Lexical Decision Task.csv","legacy","Lentiform Loewenfeld","3.3.7","yes","yes","600bd7cfb6416f0113b04181","602110864497cf011d9c0822","0","f","NA","j","j","j","j","f","704","NA","2505","19998","6791","3610","704","2","legacy","1024","2","48000","-16","task","5203711","odd","NA","39789","44299","41793","186836","4595","31389","24597","187339","136250","186832","187340","186747","44299","188046","37935","186247","4582","170950","Lexical Decision Task","78","56386","80","yes","1024"
"2.6599162","0","2","saff","non-word","97.53086419753086","97.53086419753086","705.283950617284","705.283950617284","black","no","legacy","legacy","legacy","0","uniform","1","undefined","undefined","undefined","1","f","0","0","0","0","80","0","0","0","80","0","76","80","76","0","76","3","80","0","80","Thu Feb 18 13:36:43 2021","The main experiment item","yes","Lexical_Decision_Task.osexp","C:/Users/matth/OneDrive/Desktop/Assignment Documents/Cognitive/Year 2/Opensesame Files","no","Andale Mono","no","18","no","white","no","yes","576","legacy","76","76","3","C:/Users/matth/OneDrive/Desktop/Assignment Documents/Cognitive/Year 2/Opensesame Files/subject-5203711.csv Lexical Decision Task.csv","legacy","Lentiform Loewenfeld","3.3.7","yes","yes","600bd7cfb6416f0113b04181","602110864497cf011d9c0822","0","f","NA","j","j","j","j","f","742","NA","2505","19998","6791","3610","742","2","legacy","1024","2","48000","-16","task","5203711","odd","NA","39789","44299","41793","188688","4595","31389","24597","189192","136250","188687","189192","188593","44299","189935","37935","188093","4582","170950","Lexical Decision Task","79","57128","81","yes","1024"
"3.363486562","6.93","9","lush","word","97.5609756097561","97.5609756097561","703.9878048780488","703.9878048780488","black","no","legacy","legacy","legacy","0","uniform","1","undefined","undefined","undefined","1","j","0","0","0","0","81","0","0","0","81","0","77","81","77","0","77","3","81","0","81","Thu Feb 18 13:36:43 2021","The main experiment item","yes","Lexical_Decision_Task.osexp","C:/Users/matth/OneDrive/Desktop/Assignment Documents/Cognitive/Year 2/Opensesame Files","no","Andale Mono","no","18","no","white","no","yes","576","legacy","77","77","3","C:/Users/matth/OneDrive/Desktop/Assignment Documents/Cognitive/Year 2/Opensesame Files/subject-5203711.csv Lexical Decision Task.csv","legacy","Lentiform Loewenfeld","3.3.7","yes","yes","600bd7cfb6416f0113b04181","602110864497cf011d9c0822","0","j","NA","j","j","j","j","j","599","NA","2505","19998","6791","3610","599","2","legacy","1024","2","48000","-16","task","5203711","odd","NA","39789","44299","41793","190616","4595","31389","24597","191120","136250","190612","191120","190481","44299","191721","37935","189980","4582","170950","Lexical Decision Task","80","57727","82","yes","1024"
"2.899092422","7.27","6","snag","word","97.59036144578313","97.59036144578313","703.7831325301205","703.7831325301205","black","no","legacy","legacy","legacy","0","uniform","1","undefined","undefined","undefined","1","j","0","0","0","0","82","0","0","0","82","0","78","82","78","0","78","3","82","0","82","Thu Feb 18 13:36:43 2021","The main experiment item","yes","Lexical_Decision_Task.osexp","C:/Users/matth/OneDrive/Desktop/Assignment Documents/Cognitive/Year 2/Opensesame Files","no","Andale Mono","no","18","no","white","no","yes","576","legacy","78","78","3","C:/Users/matth/OneDrive/Desktop/Assignment Documents/Cognitive/Year 2/Opensesame Files/subject-5203711.csv Lexical Decision Task.csv","legacy","Lentiform Loewenfeld","3.3.7","yes","yes","600bd7cfb6416f0113b04181","602110864497cf011d9c0822","0","j","NA","j","j","j","j","j","687","NA","2505","19998","6791","3610","687","2","legacy","1024","2","48000","-16","task","5203711","odd","NA","39789","44299","41793","192348","4595","31389","24597","192852","136250","192346","192852","192231","44299","193541","37935","191731","4582","170950","Lexical Decision Task","81","58414","83","yes","1024"
"2.664328519","0","4","plux","non-word","97.61904761904762","97.61904761904762","705.202380952381","705.202380952381","black","no","legacy","legacy","legacy","0","uniform","1","undefined","undefined","undefined","1","f","0","0","0","0","83","0","0","0","83","0","79","83","79","0","79","3","83","0","83","Thu Feb 18 13:36:43 2021","The main experiment item","yes","Lexical_Decision_Task.osexp","C:/Users/matth/OneDrive/Desktop/Assignment Documents/Cognitive/Year 2/Opensesame Files","no","Andale Mono","no","18","no","white","no","yes","576","legacy","79","79","3","C:/Users/matth/OneDrive/Desktop/Assignment Documents/Cognitive/Year 2/Opensesame Files/subject-5203711.csv Lexical Decision Task.csv","legacy","Lentiform Loewenfeld","3.3.7","yes","yes","600bd7cfb6416f0113b04181","602110864497cf011d9c0822","0","f","NA","j","j","j","j","f","823","NA","2505","19998","6791","3610","823","2","legacy","1024","2","48000","-16","task","5203711","odd","NA","39789","44299","41793","194171","4595","31389","24597","194675","136250","194168","194675","194085","44299","195499","37935","193585","4582","170950","Lexical Decision Task","82","59237","84","yes","1024"
"3.316948329","0","1","besc","non-word","97.6470588235294","97.6470588235294","706.4823529411765","706.4823529411765","black","no","legacy","legacy","legacy","0","uniform","1","undefined","undefined","undefined","1","f","0","0","0","0","84","0","0","0","84","0","80","84","80","0","80","3","84","0","84","Thu Feb 18 13:36:43 2021","The main experiment item","yes","Lexical_Decision_Task.osexp","C:/Users/matth/OneDrive/Desktop/Assignment Documents/Cognitive/Year 2/Opensesame Files","no","Andale Mono","no","18","no","white","no","yes","576","legacy","80","80","3","C:/Users/matth/OneDrive/Desktop/Assignment Documents/Cognitive/Year 2/Opensesame Files/subject-5203711.csv Lexical Decision Task.csv","legacy","Lentiform Loewenfeld","3.3.7","yes","yes","600bd7cfb6416f0113b04181","602110864497cf011d9c0822","0","f","NA","j","j","j","j","f","814","NA","2505","19998","6791","3610","814","2","legacy","1024","2","48000","-16","task","5203711","odd","NA","39789","44299","41793","196129","4595","31389","24597","196631","136250","196127","196631","196044","44299","197447","37935","195544","4582","170950","Lexical Decision Task","83","60051","85","yes","1024"
"3.705778213","0","6","stin","non-word","97.67441860465117","97.67441860465117","706.8139534883721","706.8139534883721","black","no","legacy","legacy","legacy","0","uniform","1","undefined","undefined","undefined","1","f","0","0","0","0","85","0","0","0","85","0","81","85","81","0","81","3","85","0","85","Thu Feb 18 13:36:43 2021","The main experiment item","yes","Lexical_Decision_Task.osexp","C:/Users/matth/OneDrive/Desktop/Assignment Documents/Cognitive/Year 2/Opensesame Files","no","Andale Mono","no","18","no","white","no","yes","576","legacy","81","81","3","C:/Users/matth/OneDrive/Desktop/Assignment Documents/Cognitive/Year 2/Opensesame Files/subject-5203711.csv Lexical Decision Task.csv","legacy","Lentiform Loewenfeld","3.3.7","yes","yes","600bd7cfb6416f0113b04181","602110864497cf011d9c0822","0","f","NA","j","j","j","j","f","735","NA","2505","19998","6791","3610","735","2","legacy","1024","2","48000","-16","task","5203711","odd","NA","39789","44299","41793","198079","4595","31389","24597","198583","136250","198077","198583","197993","44299","199320","37935","197493","4582","170950","Lexical Decision Task","84","60786","86","yes","1024"
"3.302475237","0","7","leel","non-word","97.70114942528735","97.70114942528735","706.7011494252873","706.7011494252873","black","no","legacy","legacy","legacy","0","uniform","1","undefined","undefined","undefined","1","f","0","0","0","0","86","0","0","0","86","0","82","86","82","0","82","3","86","0","86","Thu Feb 18 13:36:43 2021","The main experiment item","yes","Lexical_Decision_Task.osexp","C:/Users/matth/OneDrive/Desktop/Assignment Documents/Cognitive/Year 2/Opensesame Files","no","Andale Mono","no","18","no","white","no","yes","576","legacy","82","82","3","C:/Users/matth/OneDrive/Desktop/Assignment Documents/Cognitive/Year 2/Opensesame Files/subject-5203711.csv Lexical Decision Task.csv","legacy","Lentiform Loewenfeld","3.3.7","yes","yes","600bd7cfb6416f0113b04181","602110864497cf011d9c0822","0","f","NA","j","j","j","j","f","697","NA","2505","19998","6791","3610","697","2","legacy","1024","2","48000","-16","task","5203711","odd","NA","39789","44299","41793","199991","4595","31389","24597","200496","136250","199988","200496","199863","44299","201196","37935","199363","4582","170950","Lexical Decision Task","85","61483","87","yes","1024"
"2.893578687","8.69","3","surf","word","97.72727272727273","97.72727272727273","705.5568181818181","705.5568181818181","black","no","legacy","legacy","legacy","0","uniform","1","undefined","undefined","undefined","1","j","0","0","0","0","87","0","0","0","87","0","83","87","83","0","83","3","87","0","87","Thu Feb 18 13:36:43 2021","The main experiment item","yes","Lexical_Decision_Task.osexp","C:/Users/matth/OneDrive/Desktop/Assignment Documents/Cognitive/Year 2/Opensesame Files","no","Andale Mono","no","18","no","white","no","yes","576","legacy","83","83","3","C:/Users/matth/OneDrive/Desktop/Assignment Documents/Cognitive/Year 2/Opensesame Files/subject-5203711.csv Lexical Decision Task.csv","legacy","Lentiform Loewenfeld","3.3.7","yes","yes","600bd7cfb6416f0113b04181","602110864497cf011d9c0822","0","j","NA","j","j","j","j","j","606","NA","2505","19998","6791","3610","606","2","legacy","1024","2","48000","-16","task","5203711","odd","NA","39789","44299","41793","201797","4595","31389","24597","202299","136250","201795","202299","201703","44299","202907","37935","201203","4582","170950","Lexical Decision Task","86","62089","88","yes","1024"
"2.799799878","0","4","ciff","non-word","97.75280898876404","97.75280898876404","706.4157303370787","706.4157303370787","black","no","legacy","legacy","legacy","0","uniform","1","undefined","undefined","undefined","1","f","0","0","0","0","88","0","0","0","88","0","84","88","84","0","84","3","88","0","88","Thu Feb 18 13:36:43 2021","The main experiment item","yes","Lexical_Decision_Task.osexp","C:/Users/matth/OneDrive/Desktop/Assignment Documents/Cognitive/Year 2/Opensesame Files","no","Andale Mono","no","18","no","white","no","yes","576","legacy","84","84","3","C:/Users/matth/OneDrive/Desktop/Assignment Documents/Cognitive/Year 2/Opensesame Files/subject-5203711.csv Lexical Decision Task.csv","legacy","Lentiform Loewenfeld","3.3.7","yes","yes","600bd7cfb6416f0113b04181","602110864497cf011d9c0822","0","f","NA","j","j","j","j","f","782","NA","2505","19998","6791","3610","782","2","legacy","1024","2","48000","-16","task","5203711","odd","NA","39789","44299","41793","203550","4595","31389","24597","204052","136250","203548","204053","203451","44299","204837","37935","202951","4582","170950","Lexical Decision Task","87","62871","89","yes","1024"
