"Log_BG","Log_Freq_HAL","Ortho_N","Stimulus","Type","acc","accuracy","average_response_time","avg_rt","background","bidi","canvas_backend","clock_backend","color_backend","compensation","coordinates","correct","correct_Experimental_intro","correct_Introduction","correct_Practice_intro","correct_experimenter_kb","correct_response","count_End_Of_Experiment","count_End_Of_Practice","count_Experimental_Loop","count_Experimental_intro","count_Fixation","count_Introduction","count_Practice_Loop","count_Practice_intro","count_Stimulus","count_block_break_feedback","count_experimental_sequence","count_experimenter_kb","count_increment_trial_count","count_init_trial_count","count_logger","count_practice_sequence","count_right","count_task","count_wrong","datetime","description","disable_garbage_collection","experiment_file","experiment_path","font_bold","font_family","font_italic","font_size","font_underline","foreground","form_clicks","fullscreen","height","keyboard_backend","live_row","live_row_Experimental_Loop","live_row_Practice_Loop","logfile","mouse_backend","opensesame_codename","opensesame_version","osf_always_upload_data","osf_always_upload_experiment","osf_datanode_id","osf_id","repeat_cycle","response","response_End_Of_Experiment","response_Experimental_intro","response_Introduction","response_Practice_intro","response_block_break_feedback","response_experimenter_kb","response_time","response_time_End_Of_Experiment","response_time_Experimental_intro","response_time_Introduction","response_time_Practice_intro","response_time_block_break_feedback","response_time_experimenter_kb","round_decimals","sampler_backend","sound_buf_size","sound_channels","sound_freq","sound_sample_size","start","subject_nr","subject_parity","time_End_Of_Experiment","time_End_Of_Practice","time_Experimental_Loop","time_Experimental_intro","time_Fixation","time_Introduction","time_Practice_Loop","time_Practice_intro","time_Stimulus","time_block_break_feedback","time_experimental_sequence","time_experimenter_kb","time_increment_trial_count","time_init_trial_count","time_logger","time_practice_sequence","time_right","time_task","time_wrong","title","total_correct","total_response_time","total_responses","uniform_coordinates","width"
"2.892836167","10.01","5","soft","word","100","100","823.6","823.6","black","no","legacy","legacy","legacy","0","uniform","1","undefined","undefined","undefined","1","j","0","0","0","0","4","0","0","0","4","NA","0","4","0","0","0","3","4","0","4","Wed Feb 17 11:45:21 2021","The main experiment item","yes","Lexical_Decision_Task.osexp","/Users/nicky/Documents/University/Year Two/Semester Two/Cognition and language","no","Andale Mono","no","18","no","white","no","yes","576","legacy","0","0","3","/Users/nicky/Documents/University/Year Two/Semester Two/Cognition and language/subject-5203521.csv","legacy","Lentiform Loewenfeld","3.3.7","yes","yes","600bd7cfb6416f0113b04181","602110864497cf011d9c0822","0","j","NA","space","space","space","NA","j","753","NA","1694","30644","4552","NA","753","2","legacy","1024","2","48000","-16","task","5203521","odd","NA","50491","54191","52496","54215","7529","42757","38188","54719","NA","54213","54720","NA","54191","55474","48713","49960","7471","NA","Lexical Decision Task","5","4118","5","yes","1024"
"3.440331212","7.35","6","stew","word","100","100","778.6666666666666","778.6666666666666","black","no","legacy","legacy","legacy","0","uniform","1","undefined","undefined","undefined","1","j","0","0","0","0","5","0","0","0","5","NA","1","5","1","0","1","3","5","0","5","Wed Feb 17 11:45:21 2021","The main experiment item","yes","Lexical_Decision_Task.osexp","/Users/nicky/Documents/University/Year Two/Semester Two/Cognition and language","no","Andale Mono","no","18","no","white","no","yes","576","legacy","1","1","3","/Users/nicky/Documents/University/Year Two/Semester Two/Cognition and language/subject-5203521.csv","legacy","Lentiform Loewenfeld","3.3.7","yes","yes","600bd7cfb6416f0113b04181","602110864497cf011d9c0822","0","j","NA","space","space","space","NA","j","554","NA","1694","30644","4552","NA","554","2","legacy","1024","2","48000","-16","task","5203521","odd","NA","50491","54191","52496","56048","7529","42757","38188","56551","NA","56045","56551","55979","54191","57106","48713","55479","7471","NA","Lexical Decision Task","6","4672","6","yes","1024"
"3.1430148","7.92","8","bald","word","100","100","773.2857142857143","773.2857142857143","black","no","legacy","legacy","legacy","0","uniform","1","undefined","undefined","undefined","1","j","0","0","0","0","6","0","0","0","6","NA","2","6","2","0","2","3","6","0","6","Wed Feb 17 11:45:21 2021","The main experiment item","yes","Lexical_Decision_Task.osexp","/Users/nicky/Documents/University/Year Two/Semester Two/Cognition and language","no","Andale Mono","no","18","no","white","no","yes","576","legacy","2","2","3","/Users/nicky/Documents/University/Year Two/Semester Two/Cognition and language/subject-5203521.csv","legacy","Lentiform Loewenfeld","3.3.7","yes","yes","600bd7cfb6416f0113b04181","602110864497cf011d9c0822","0","j","NA","space","space","space","NA","j","741","NA","1694","30644","4552","NA","741","2","legacy","1024","2","48000","-16","task","5203521","odd","NA","50491","54191","52496","57678","7529","42757","38188","58181","NA","57676","58182","57612","54191","58924","48713","57112","7471","NA","Lexical Decision Task","7","5413","7","yes","1024"
"3.156347201","0","8","lasp","non-word","100","100","774.625","774.625","black","no","legacy","legacy","legacy","0","uniform","1","undefined","undefined","undefined","1","f","0","0","0","0","7","0","0","0","7","NA","3","7","3","0","3","3","7","0","7","Wed Feb 17 11:45:21 2021","The main experiment item","yes","Lexical_Decision_Task.osexp","/Users/nicky/Documents/University/Year Two/Semester Two/Cognition and language","no","Andale Mono","no","18","no","white","no","yes","576","legacy","3","3","3","/Users/nicky/Documents/University/Year Two/Semester Two/Cognition and language/subject-5203521.csv","legacy","Lentiform Loewenfeld","3.3.7","yes","yes","600bd7cfb6416f0113b04181","602110864497cf011d9c0822","0","f","NA","space","space","space","NA","f","784","NA","1694","30644","4552","NA","784","2","legacy","1024","2","48000","-16","task","5203521","odd","NA","50491","54191","52496","59493","7529","42757","38188","59996","NA","59490","59997","59427","54191","60781","48713","58927","7471","NA","Lexical Decision Task","8","6197","8","yes","1024"
"3.481012421","8.34","5","teen","word","100","100","755.4444444444445","755.4444444444445","black","no","legacy","legacy","legacy","0","uniform","1","undefined","undefined","undefined","1","j","0","0","0","0","8","0","0","0","8","NA","4","8","4","0","4","3","8","0","8","Wed Feb 17 11:45:21 2021","The main experiment item","yes","Lexical_Decision_Task.osexp","/Users/nicky/Documents/University/Year Two/Semester Two/Cognition and language","no","Andale Mono","no","18","no","white","no","yes","576","legacy","4","4","3","/Users/nicky/Documents/University/Year Two/Semester Two/Cognition and language/subject-5203521.csv","legacy","Lentiform Loewenfeld","3.3.7","yes","yes","600bd7cfb6416f0113b04181","602110864497cf011d9c0822","0","j","NA","space","space","space","NA","j","602","NA","1694","30644","4552","NA","602","2","legacy","1024","2","48000","-16","task","5203521","odd","NA","50491","54191","52496","61353","7529","42757","38188","61857","NA","61350","61857","61285","54191","62460","48713","60785","7471","NA","Lexical Decision Task","9","6799","9","yes","1024"
"2.937852093","0","7","bamp","non-word","100","100","751","751","black","no","legacy","legacy","legacy","0","uniform","1","undefined","undefined","undefined","1","f","0","0","0","0","9","0","0","0","9","NA","5","9","5","0","5","3","9","0","9","Wed Feb 17 11:45:21 2021","The main experiment item","yes","Lexical_Decision_Task.osexp","/Users/nicky/Documents/University/Year Two/Semester Two/Cognition and language","no","Andale Mono","no","18","no","white","no","yes","576","legacy","5","5","3","/Users/nicky/Documents/University/Year Two/Semester Two/Cognition and language/subject-5203521.csv","legacy","Lentiform Loewenfeld","3.3.7","yes","yes","600bd7cfb6416f0113b04181","602110864497cf011d9c0822","0","f","NA","space","space","space","NA","f","711","NA","1694","30644","4552","NA","711","2","legacy","1024","2","48000","-16","task","5203521","odd","NA","50491","54191","52496","63028","7529","42757","38188","63532","NA","63026","63532","62963","54191","64243","48713","62463","7471","NA","Lexical Decision Task","10","7510","10","yes","1024"
"2.858136002","0","4","phip","non-word","100","100","746.9090909090909","746.9090909090909","black","no","legacy","legacy","legacy","0","uniform","1","undefined","undefined","undefined","1","f","0","0","0","0","10","0","0","0","10","NA","6","10","6","0","6","3","10","0","10","Wed Feb 17 11:45:21 2021","The main experiment item","yes","Lexical_Decision_Task.osexp","/Users/nicky/Documents/University/Year Two/Semester Two/Cognition and language","no","Andale Mono","no","18","no","white","no","yes","576","legacy","6","6","3","/Users/nicky/Documents/University/Year Two/Semester Two/Cognition and language/subject-5203521.csv","legacy","Lentiform Loewenfeld","3.3.7","yes","yes","600bd7cfb6416f0113b04181","602110864497cf011d9c0822","0","f","NA","space","space","space","NA","f","706","NA","1694","30644","4552","NA","706","2","legacy","1024","2","48000","-16","task","5203521","odd","NA","50491","54191","52496","64813","7529","42757","38188","65317","NA","64810","65317","64746","54191","66023","48713","64246","7471","NA","Lexical Decision Task","11","8216","11","yes","1024"
"3.140404328","10.66","9","deep","word","100","100","727.0833333333334","727.0833333333334","black","no","legacy","legacy","legacy","0","uniform","1","undefined","undefined","undefined","1","j","0","0","0","0","11","0","0","0","11","NA","7","11","7","0","7","3","11","0","11","Wed Feb 17 11:45:21 2021","The main experiment item","yes","Lexical_Decision_Task.osexp","/Users/nicky/Documents/University/Year Two/Semester Two/Cognition and language","no","Andale Mono","no","18","no","white","no","yes","576","legacy","7","7","3","/Users/nicky/Documents/University/Year Two/Semester Two/Cognition and language/subject-5203521.csv","legacy","Lentiform Loewenfeld","3.3.7","yes","yes","600bd7cfb6416f0113b04181","602110864497cf011d9c0822","0","j","NA","space","space","space","NA","j","509","NA","1694","30644","4552","NA","509","2","legacy","1024","2","48000","-16","task","5203521","odd","NA","50491","54191","52496","66591","7529","42757","38188","67095","NA","66589","67095","66527","54191","67605","48713","66027","7471","NA","Lexical Decision Task","12","8725","12","yes","1024"
"2.664328519","0","4","plux","non-word","100","100","721.1538461538462","721.1538461538462","black","no","legacy","legacy","legacy","0","uniform","1","undefined","undefined","undefined","1","f","0","0","0","0","12","0","0","0","12","NA","8","12","8","0","8","3","12","0","12","Wed Feb 17 11:45:21 2021","The main experiment item","yes","Lexical_Decision_Task.osexp","/Users/nicky/Documents/University/Year Two/Semester Two/Cognition and language","no","Andale Mono","no","18","no","white","no","yes","576","legacy","8","8","3","/Users/nicky/Documents/University/Year Two/Semester Two/Cognition and language/subject-5203521.csv","legacy","Lentiform Loewenfeld","3.3.7","yes","yes","600bd7cfb6416f0113b04181","602110864497cf011d9c0822","0","f","NA","space","space","space","NA","f","650","NA","1694","30644","4552","NA","650","2","legacy","1024","2","48000","-16","task","5203521","odd","NA","50491","54191","52496","68175","7529","42757","38188","68678","NA","68172","68679","68109","54191","69330","48713","67608","7471","NA","Lexical Decision Task","13","9375","13","yes","1024"
"3.031408464","0","7","drow","non-word","100","100","727.7142857142857","727.7142857142857","black","no","legacy","legacy","legacy","0","uniform","1","undefined","undefined","undefined","1","f","0","0","0","0","13","0","0","0","13","NA","9","13","9","0","9","3","13","0","13","Wed Feb 17 11:45:21 2021","The main experiment item","yes","Lexical_Decision_Task.osexp","/Users/nicky/Documents/University/Year Two/Semester Two/Cognition and language","no","Andale Mono","no","18","no","white","no","yes","576","legacy","9","9","3","/Users/nicky/Documents/University/Year Two/Semester Two/Cognition and language/subject-5203521.csv","legacy","Lentiform Loewenfeld","3.3.7","yes","yes","600bd7cfb6416f0113b04181","602110864497cf011d9c0822","0","f","NA","space","space","space","NA","f","813","NA","1694","30644","4552","NA","813","2","legacy","1024","2","48000","-16","task","5203521","odd","NA","50491","54191","52496","69897","7529","42757","38188","70400","NA","69894","70401","69834","54191","71215","48713","69334","7471","NA","Lexical Decision Task","14","10188","14","yes","1024"
"2.875447132","0","9","jelt","non-word","100","100","720.3333333333334","720.3333333333334","black","no","legacy","legacy","legacy","0","uniform","1","undefined","undefined","undefined","1","f","0","0","0","0","14","0","0","0","14","NA","10","14","10","0","10","3","14","0","14","Wed Feb 17 11:45:21 2021","The main experiment item","yes","Lexical_Decision_Task.osexp","/Users/nicky/Documents/University/Year Two/Semester Two/Cognition and language","no","Andale Mono","no","18","no","white","no","yes","576","legacy","10","10","3","/Users/nicky/Documents/University/Year Two/Semester Two/Cognition and language/subject-5203521.csv","legacy","Lentiform Loewenfeld","3.3.7","yes","yes","600bd7cfb6416f0113b04181","602110864497cf011d9c0822","0","f","NA","space","space","space","NA","f","617","NA","1694","30644","4552","NA","617","2","legacy","1024","2","48000","-16","task","5203521","odd","NA","50491","54191","52496","71787","7529","42757","38188","72290","NA","71785","72290","71719","54191","72908","48713","71219","7471","NA","Lexical Decision Task","15","10805","15","yes","1024"
"2.899092422","7.27","6","snag","word","100","100","715","715","black","no","legacy","legacy","legacy","0","uniform","1","undefined","undefined","undefined","1","j","0","0","0","0","15","0","0","0","15","NA","11","15","11","0","11","3","15","0","15","Wed Feb 17 11:45:21 2021","The main experiment item","yes","Lexical_Decision_Task.osexp","/Users/nicky/Documents/University/Year Two/Semester Two/Cognition and language","no","Andale Mono","no","18","no","white","no","yes","576","legacy","11","11","3","/Users/nicky/Documents/University/Year Two/Semester Two/Cognition and language/subject-5203521.csv","legacy","Lentiform Loewenfeld","3.3.7","yes","yes","600bd7cfb6416f0113b04181","602110864497cf011d9c0822","0","j","NA","space","space","space","NA","j","635","NA","1694","30644","4552","NA","635","2","legacy","1024","2","48000","-16","task","5203521","odd","NA","50491","54191","52496","73477","7529","42757","38188","73981","NA","73474","73981","73411","54191","74617","48713","72911","7471","NA","Lexical Decision Task","16","11440","16","yes","1024"
"3.132473155","0","4","glim","non-word","94.11764705882354","94.11764705882354","714.4705882352941","714.4705882352941","black","no","legacy","legacy","legacy","0","uniform","0","undefined","undefined","undefined","0","f","0","0","0","0","16","0","0","0","16","NA","12","16","12","0","12","3","16","0","16","Wed Feb 17 11:45:21 2021","The main experiment item","yes","Lexical_Decision_Task.osexp","/Users/nicky/Documents/University/Year Two/Semester Two/Cognition and language","no","Andale Mono","no","18","no","white","no","yes","576","legacy","12","12","3","/Users/nicky/Documents/University/Year Two/Semester Two/Cognition and language/subject-5203521.csv","legacy","Lentiform Loewenfeld","3.3.7","yes","yes","600bd7cfb6416f0113b04181","602110864497cf011d9c0822","0","j","NA","space","space","space","NA","j","706","NA","1694","30644","4552","NA","706","2","legacy","1024","2","48000","-16","task","5203521","odd","NA","50491","54191","52496","75187","7529","42757","38188","75691","NA","75185","75691","75120","54191","76398","48713","74620","7471","NA","Lexical Decision Task","16","12146","17","yes","1024"
"2.6599162","0","6","flug","non-word","94.44444444444444","94.44444444444444","716","716","black","no","legacy","legacy","legacy","0","uniform","1","undefined","undefined","undefined","1","f","0","0","0","0","17","0","0","0","17","NA","13","17","13","0","13","3","17","0","17","Wed Feb 17 11:45:21 2021","The main experiment item","yes","Lexical_Decision_Task.osexp","/Users/nicky/Documents/University/Year Two/Semester Two/Cognition and language","no","Andale Mono","no","18","no","white","no","yes","576","legacy","13","13","3","/Users/nicky/Documents/University/Year Two/Semester Two/Cognition and language/subject-5203521.csv","legacy","Lentiform Loewenfeld","3.3.7","yes","yes","600bd7cfb6416f0113b04181","602110864497cf011d9c0822","0","f","NA","space","space","space","NA","f","742","NA","1694","30644","4552","NA","742","2","legacy","1024","2","48000","-16","task","5203521","odd","NA","50491","54191","52496","77963","7529","42757","38188","78465","NA","77961","78465","77901","54191","79208","48713","74620","7471","76401","Lexical Decision Task","17","12888","18","yes","1024"
"2.675164031","8.57","6","glue","word","94.73684210526316","94.73684210526316","721.8421052631579","721.8421052631579","black","no","legacy","legacy","legacy","0","uniform","1","undefined","undefined","undefined","1","j","0","0","0","0","18","0","0","0","18","NA","14","18","14","0","14","3","18","0","18","Wed Feb 17 11:45:21 2021","The main experiment item","yes","Lexical_Decision_Task.osexp","/Users/nicky/Documents/University/Year Two/Semester Two/Cognition and language","no","Andale Mono","no","18","no","white","no","yes","576","legacy","14","14","3","/Users/nicky/Documents/University/Year Two/Semester Two/Cognition and language/subject-5203521.csv","legacy","Lentiform Loewenfeld","3.3.7","yes","yes","600bd7cfb6416f0113b04181","602110864497cf011d9c0822","0","j","NA","space","space","space","NA","j","827","NA","1694","30644","4552","NA","827","2","legacy","1024","2","48000","-16","task","5203521","odd","NA","50491","54191","52496","79778","7529","42757","38188","80280","NA","79775","80281","79711","54191","81109","48713","79211","7471","76401","Lexical Decision Task","18","13715","19","yes","1024"
"2.68604012","0","4","pumb","non-word","95","95","727.15","727.15","black","no","legacy","legacy","legacy","0","uniform","1","undefined","undefined","undefined","1","f","0","0","0","0","19","0","0","0","19","NA","15","19","15","0","15","3","19","0","19","Wed Feb 17 11:45:21 2021","The main experiment item","yes","Lexical_Decision_Task.osexp","/Users/nicky/Documents/University/Year Two/Semester Two/Cognition and language","no","Andale Mono","no","18","no","white","no","yes","576","legacy","15","15","3","/Users/nicky/Documents/University/Year Two/Semester Two/Cognition and language/subject-5203521.csv","legacy","Lentiform Loewenfeld","3.3.7","yes","yes","600bd7cfb6416f0113b04181","602110864497cf011d9c0822","0","f","NA","space","space","space","NA","f","828","NA","1694","30644","4552","NA","828","2","legacy","1024","2","48000","-16","task","5203521","odd","NA","50491","54191","52496","81679","7529","42757","38188","82182","NA","81676","82182","81612","54191","83010","48713","81112","7471","76401","Lexical Decision Task","19","14543","20","yes","1024"
"3.274543461","7.46","7","scar","word","95.23809523809524","95.23809523809524","723.7142857142857","723.7142857142857","black","no","legacy","legacy","legacy","0","uniform","1","undefined","undefined","undefined","1","j","0","0","0","0","20","0","0","0","20","NA","16","20","16","0","16","3","20","0","20","Wed Feb 17 11:45:21 2021","The main experiment item","yes","Lexical_Decision_Task.osexp","/Users/nicky/Documents/University/Year Two/Semester Two/Cognition and language","no","Andale Mono","no","18","no","white","no","yes","576","legacy","16","16","3","/Users/nicky/Documents/University/Year Two/Semester Two/Cognition and language/subject-5203521.csv","legacy","Lentiform Loewenfeld","3.3.7","yes","yes","600bd7cfb6416f0113b04181","602110864497cf011d9c0822","0","j","NA","space","space","space","NA","j","655","NA","1694","30644","4552","NA","655","2","legacy","1024","2","48000","-16","task","5203521","odd","NA","50491","54191","52496","83581","7529","42757","38188","84085","NA","83578","84085","83513","54191","84741","48713","83013","7471","76401","Lexical Decision Task","20","15198","21","yes","1024"
"2.884795364","0","6","flob","non-word","95.45454545454545","95.45454545454545","719.6363636363636","719.6363636363636","black","no","legacy","legacy","legacy","0","uniform","1","undefined","undefined","undefined","1","f","0","0","0","0","21","0","0","0","21","NA","17","21","17","0","17","3","21","0","21","Wed Feb 17 11:45:21 2021","The main experiment item","yes","Lexical_Decision_Task.osexp","/Users/nicky/Documents/University/Year Two/Semester Two/Cognition and language","no","Andale Mono","no","18","no","white","no","yes","576","legacy","17","17","3","/Users/nicky/Documents/University/Year Two/Semester Two/Cognition and language/subject-5203521.csv","legacy","Lentiform Loewenfeld","3.3.7","yes","yes","600bd7cfb6416f0113b04181","602110864497cf011d9c0822","0","f","NA","space","space","space","NA","f","634","NA","1694","30644","4552","NA","634","2","legacy","1024","2","48000","-16","task","5203521","odd","NA","50491","54191","52496","85310","7529","42757","38188","85814","NA","85307","85814","85245","54191","86449","48713","84744","7471","76401","Lexical Decision Task","21","15832","22","yes","1024"
"2.767650507","0","6","yolt","non-word","95.65217391304348","95.65217391304348","723.5652173913044","723.5652173913044","black","no","legacy","legacy","legacy","0","uniform","1","undefined","undefined","undefined","1","f","0","0","0","0","22","0","0","0","22","NA","18","22","18","0","18","3","22","0","22","Wed Feb 17 11:45:21 2021","The main experiment item","yes","Lexical_Decision_Task.osexp","/Users/nicky/Documents/University/Year Two/Semester Two/Cognition and language","no","Andale Mono","no","18","no","white","no","yes","576","legacy","18","18","3","/Users/nicky/Documents/University/Year Two/Semester Two/Cognition and language/subject-5203521.csv","legacy","Lentiform Loewenfeld","3.3.7","yes","yes","600bd7cfb6416f0113b04181","602110864497cf011d9c0822","0","f","NA","space","space","space","NA","f","810","NA","1694","30644","4552","NA","810","2","legacy","1024","2","48000","-16","task","5203521","odd","NA","50491","54191","52496","87018","7529","42757","38188","87522","NA","87016","87522","86952","54191","88333","48713","86452","7471","76401","Lexical Decision Task","22","16642","23","yes","1024"
"2.819763221","0","2","durp","non-word","95.83333333333333","95.83333333333333","724.9166666666666","724.9166666666666","black","no","legacy","legacy","legacy","0","uniform","1","undefined","undefined","undefined","1","f","0","0","0","0","23","0","0","0","23","NA","19","23","19","0","19","3","23","0","23","Wed Feb 17 11:45:21 2021","The main experiment item","yes","Lexical_Decision_Task.osexp","/Users/nicky/Documents/University/Year Two/Semester Two/Cognition and language","no","Andale Mono","no","18","no","white","no","yes","576","legacy","19","19","3","/Users/nicky/Documents/University/Year Two/Semester Two/Cognition and language/subject-5203521.csv","legacy","Lentiform Loewenfeld","3.3.7","yes","yes","600bd7cfb6416f0113b04181","602110864497cf011d9c0822","0","f","NA","space","space","space","NA","f","756","NA","1694","30644","4552","NA","756","2","legacy","1024","2","48000","-16","task","5203521","odd","NA","50491","54191","52496","88898","7529","42757","38188","89401","NA","88896","89401","88836","54191","90158","48713","88336","7471","76401","Lexical Decision Task","23","17398","24","yes","1024"
"3.15462682","0","6","noal","non-word","96","96","721.68","721.68","black","no","legacy","legacy","legacy","0","uniform","1","undefined","undefined","undefined","1","f","0","0","0","0","24","0","0","0","24","NA","20","24","20","0","20","3","24","0","24","Wed Feb 17 11:45:21 2021","The main experiment item","yes","Lexical_Decision_Task.osexp","/Users/nicky/Documents/University/Year Two/Semester Two/Cognition and language","no","Andale Mono","no","18","no","white","no","yes","576","legacy","20","20","3","/Users/nicky/Documents/University/Year Two/Semester Two/Cognition and language/subject-5203521.csv","legacy","Lentiform Loewenfeld","3.3.7","yes","yes","600bd7cfb6416f0113b04181","602110864497cf011d9c0822","0","f","NA","space","space","space","NA","f","644","NA","1694","30644","4552","NA","644","2","legacy","1024","2","48000","-16","task","5203521","odd","NA","50491","54191","52496","90727","7529","42757","38188","91232","NA","90725","91232","90661","54191","91877","48713","90161","7471","76401","Lexical Decision Task","24","18042","25","yes","1024"
"2.664011697","8.19","4","hawk","word","96.15384615384616","96.15384615384616","726.0384615384615","726.0384615384615","black","no","legacy","legacy","legacy","0","uniform","1","undefined","undefined","undefined","1","j","0","0","0","0","25","0","0","0","25","NA","21","25","21","0","21","3","25","0","25","Wed Feb 17 11:45:21 2021","The main experiment item","yes","Lexical_Decision_Task.osexp","/Users/nicky/Documents/University/Year Two/Semester Two/Cognition and language","no","Andale Mono","no","18","no","white","no","yes","576","legacy","21","21","3","/Users/nicky/Documents/University/Year Two/Semester Two/Cognition and language/subject-5203521.csv","legacy","Lentiform Loewenfeld","3.3.7","yes","yes","600bd7cfb6416f0113b04181","602110864497cf011d9c0822","0","j","NA","space","space","space","NA","j","835","NA","1694","30644","4552","NA","835","2","legacy","1024","2","48000","-16","task","5203521","odd","NA","50491","54191","52496","92446","7529","42757","38188","92949","NA","92443","92950","92380","54191","93786","48713","91880","7471","76401","Lexical Decision Task","25","18877","26","yes","1024"
"2.755364069","7.72","2","hoax","word","96.29629629629629","96.29629629629629","724.1851851851852","724.1851851851852","black","no","legacy","legacy","legacy","0","uniform","1","undefined","undefined","undefined","1","j","0","0","0","0","26","0","0","0","26","NA","22","26","22","0","22","3","26","0","26","Wed Feb 17 11:45:21 2021","The main experiment item","yes","Lexical_Decision_Task.osexp","/Users/nicky/Documents/University/Year Two/Semester Two/Cognition and language","no","Andale Mono","no","18","no","white","no","yes","576","legacy","22","22","3","/Users/nicky/Documents/University/Year Two/Semester Two/Cognition and language/subject-5203521.csv","legacy","Lentiform Loewenfeld","3.3.7","yes","yes","600bd7cfb6416f0113b04181","602110864497cf011d9c0822","0","j","NA","space","space","space","NA","j","676","NA","1694","30644","4552","NA","676","2","legacy","1024","2","48000","-16","task","5203521","odd","NA","50491","54191","52496","94355","7529","42757","38188","94858","NA","94352","94859","94289","54191","95536","48713","93788","7471","76401","Lexical Decision Task","26","19553","27","yes","1024"
"3.274157849","0","8","leet","non-word","96.42857142857143","96.42857142857143","720.0714285714286","720.0714285714286","black","no","legacy","legacy","legacy","0","uniform","1","undefined","undefined","undefined","1","f","0","0","0","0","27","0","0","0","27","NA","23","27","23","0","23","3","27","0","27","Wed Feb 17 11:45:21 2021","The main experiment item","yes","Lexical_Decision_Task.osexp","/Users/nicky/Documents/University/Year Two/Semester Two/Cognition and language","no","Andale Mono","no","18","no","white","no","yes","576","legacy","23","23","3","/Users/nicky/Documents/University/Year Two/Semester Two/Cognition and language/subject-5203521.csv","legacy","Lentiform Loewenfeld","3.3.7","yes","yes","600bd7cfb6416f0113b04181","602110864497cf011d9c0822","0","f","NA","space","space","space","NA","f","609","NA","1694","30644","4552","NA","609","2","legacy","1024","2","48000","-16","task","5203521","odd","NA","50491","54191","52496","96104","7529","42757","38188","96608","NA","96101","96608","96039","54191","97217","48713","95539","7471","76401","Lexical Decision Task","27","20162","28","yes","1024"
"3.374198258","0","8","vist","non-word","96.55172413793103","96.55172413793103","733.3793103448276","733.3793103448276","black","no","legacy","legacy","legacy","0","uniform","1","undefined","undefined","undefined","1","f","0","0","0","0","28","0","0","0","28","NA","24","28","24","0","24","3","28","0","28","Wed Feb 17 11:45:21 2021","The main experiment item","yes","Lexical_Decision_Task.osexp","/Users/nicky/Documents/University/Year Two/Semester Two/Cognition and language","no","Andale Mono","no","18","no","white","no","yes","576","legacy","24","24","3","/Users/nicky/Documents/University/Year Two/Semester Two/Cognition and language/subject-5203521.csv","legacy","Lentiform Loewenfeld","3.3.7","yes","yes","600bd7cfb6416f0113b04181","602110864497cf011d9c0822","0","f","NA","space","space","space","NA","f","1106","NA","1694","30644","4552","NA","1106","2","legacy","1024","2","48000","-16","task","5203521","odd","NA","50491","54191","52496","97787","7529","42757","38188","98290","NA","97784","98291","97721","54191","99397","48713","97221","7471","76401","Lexical Decision Task","28","21268","29","yes","1024"
"3.149629599","0","2","cleb","non-word","96.66666666666667","96.66666666666667","730.2666666666667","730.2666666666667","black","no","legacy","legacy","legacy","0","uniform","1","undefined","undefined","undefined","1","f","0","0","0","0","29","0","0","0","29","NA","25","29","25","0","25","3","29","0","29","Wed Feb 17 11:45:21 2021","The main experiment item","yes","Lexical_Decision_Task.osexp","/Users/nicky/Documents/University/Year Two/Semester Two/Cognition and language","no","Andale Mono","no","18","no","white","no","yes","576","legacy","25","25","3","/Users/nicky/Documents/University/Year Two/Semester Two/Cognition and language/subject-5203521.csv","legacy","Lentiform Loewenfeld","3.3.7","yes","yes","600bd7cfb6416f0113b04181","602110864497cf011d9c0822","0","f","NA","space","space","space","NA","f","640","NA","1694","30644","4552","NA","640","2","legacy","1024","2","48000","-16","task","5203521","odd","NA","50491","54191","52496","99967","7529","42757","38188","100470","NA","99964","100471","99901","54191","101112","48713","99401","7471","76401","Lexical Decision Task","29","21908","30","yes","1024"
"3.088136089","8.32","9","worm","word","96.7741935483871","96.7741935483871","731.7741935483871","731.7741935483871","black","no","legacy","legacy","legacy","0","uniform","1","undefined","undefined","undefined","1","j","0","0","0","0","30","0","0","0","30","NA","26","30","26","0","26","3","30","0","30","Wed Feb 17 11:45:21 2021","The main experiment item","yes","Lexical_Decision_Task.osexp","/Users/nicky/Documents/University/Year Two/Semester Two/Cognition and language","no","Andale Mono","no","18","no","white","no","yes","576","legacy","26","26","3","/Users/nicky/Documents/University/Year Two/Semester Two/Cognition and language/subject-5203521.csv","legacy","Lentiform Loewenfeld","3.3.7","yes","yes","600bd7cfb6416f0113b04181","602110864497cf011d9c0822","0","j","NA","space","space","space","NA","j","777","NA","1694","30644","4552","NA","777","2","legacy","1024","2","48000","-16","task","5203521","odd","NA","50491","54191","52496","101681","7529","42757","38188","102185","NA","101678","102185","101616","54191","102963","48713","101115","7471","76401","Lexical Decision Task","30","22685","31","yes","1024"
"3.137775856","7.39","5","comb","word","96.875","96.875","729.25","729.25","black","no","legacy","legacy","legacy","0","uniform","1","undefined","undefined","undefined","1","j","0","0","0","0","31","0","0","0","31","NA","27","31","27","0","27","3","31","0","31","Wed Feb 17 11:45:21 2021","The main experiment item","yes","Lexical_Decision_Task.osexp","/Users/nicky/Documents/University/Year Two/Semester Two/Cognition and language","no","Andale Mono","no","18","no","white","no","yes","576","legacy","27","27","3","/Users/nicky/Documents/University/Year Two/Semester Two/Cognition and language/subject-5203521.csv","legacy","Lentiform Loewenfeld","3.3.7","yes","yes","600bd7cfb6416f0113b04181","602110864497cf011d9c0822","0","j","NA","space","space","space","NA","j","651","NA","1694","30644","4552","NA","651","2","legacy","1024","2","48000","-16","task","5203521","odd","NA","50491","54191","52496","103533","7529","42757","38188","104037","NA","103531","104037","103467","54191","104689","48713","102967","7471","76401","Lexical Decision Task","31","23336","32","yes","1024"
"2.838639236","0","4","furg","non-word","96.96969696969697","96.96969696969697","728.0909090909091","728.0909090909091","black","no","legacy","legacy","legacy","0","uniform","1","undefined","undefined","undefined","1","f","0","0","0","0","32","0","0","0","32","NA","28","32","28","0","28","3","32","0","32","Wed Feb 17 11:45:21 2021","The main experiment item","yes","Lexical_Decision_Task.osexp","/Users/nicky/Documents/University/Year Two/Semester Two/Cognition and language","no","Andale Mono","no","18","no","white","no","yes","576","legacy","28","28","3","/Users/nicky/Documents/University/Year Two/Semester Two/Cognition and language/subject-5203521.csv","legacy","Lentiform Loewenfeld","3.3.7","yes","yes","600bd7cfb6416f0113b04181","602110864497cf011d9c0822","0","f","NA","space","space","space","NA","f","691","NA","1694","30644","4552","NA","691","2","legacy","1024","2","48000","-16","task","5203521","odd","NA","50491","54191","52496","105258","7529","42757","38188","105761","NA","105255","105762","105192","54191","106454","48713","104692","7471","76401","Lexical Decision Task","32","24027","33","yes","1024"
"3.209246849","0","7","slem","non-word","97.05882352941177","97.05882352941177","726.7941176470588","726.7941176470588","black","no","legacy","legacy","legacy","0","uniform","1","undefined","undefined","undefined","1","f","0","0","0","0","33","0","0","0","33","NA","29","33","29","0","29","3","33","0","33","Wed Feb 17 11:45:21 2021","The main experiment item","yes","Lexical_Decision_Task.osexp","/Users/nicky/Documents/University/Year Two/Semester Two/Cognition and language","no","Andale Mono","no","18","no","white","no","yes","576","legacy","29","29","3","/Users/nicky/Documents/University/Year Two/Semester Two/Cognition and language/subject-5203521.csv","legacy","Lentiform Loewenfeld","3.3.7","yes","yes","600bd7cfb6416f0113b04181","602110864497cf011d9c0822","0","f","NA","space","space","space","NA","f","684","NA","1694","30644","4552","NA","684","2","legacy","1024","2","48000","-16","task","5203521","odd","NA","50491","54191","52496","107023","7529","42757","38188","107527","NA","107020","107527","106957","54191","108212","48713","106457","7471","76401","Lexical Decision Task","33","24711","34","yes","1024"
"3.028977705","0","7","frow","non-word","97.14285714285714","97.14285714285714","727.2","727.2","black","no","legacy","legacy","legacy","0","uniform","1","undefined","undefined","undefined","1","f","0","0","0","0","34","0","0","0","34","NA","30","34","30","0","30","3","34","0","34","Wed Feb 17 11:45:21 2021","The main experiment item","yes","Lexical_Decision_Task.osexp","/Users/nicky/Documents/University/Year Two/Semester Two/Cognition and language","no","Andale Mono","no","18","no","white","no","yes","576","legacy","30","30","3","/Users/nicky/Documents/University/Year Two/Semester Two/Cognition and language/subject-5203521.csv","legacy","Lentiform Loewenfeld","3.3.7","yes","yes","600bd7cfb6416f0113b04181","602110864497cf011d9c0822","0","f","NA","space","space","space","NA","f","741","NA","1694","30644","4552","NA","741","2","legacy","1024","2","48000","-16","task","5203521","odd","NA","50491","54191","52496","108780","7529","42757","38188","109283","NA","108777","109284","108715","54191","110026","48713","108215","7471","76401","Lexical Decision Task","34","25452","35","yes","1024"
"2.907588697","8.91","9","mood","word","97.22222222222223","97.22222222222223","723.25","723.25","black","no","legacy","legacy","legacy","0","uniform","1","undefined","undefined","undefined","1","j","0","0","0","0","35","0","0","0","35","NA","31","35","31","0","31","3","35","0","35","Wed Feb 17 11:45:21 2021","The main experiment item","yes","Lexical_Decision_Task.osexp","/Users/nicky/Documents/University/Year Two/Semester Two/Cognition and language","no","Andale Mono","no","18","no","white","no","yes","576","legacy","31","31","3","/Users/nicky/Documents/University/Year Two/Semester Two/Cognition and language/subject-5203521.csv","legacy","Lentiform Loewenfeld","3.3.7","yes","yes","600bd7cfb6416f0113b04181","602110864497cf011d9c0822","0","j","NA","space","space","space","NA","j","585","NA","1694","30644","4552","NA","585","2","legacy","1024","2","48000","-16","task","5203521","odd","NA","50491","54191","52496","110596","7529","42757","38188","111099","NA","110593","111099","110530","54191","111685","48713","110029","7471","76401","Lexical Decision Task","35","26037","36","yes","1024"
"2.703007489","8.37","3","pulp","word","97.29729729729729","97.29729729729729","723.027027027027","723.027027027027","black","no","legacy","legacy","legacy","0","uniform","1","undefined","undefined","undefined","1","j","0","0","0","0","36","0","0","0","36","NA","32","36","32","0","32","3","36","0","36","Wed Feb 17 11:45:21 2021","The main experiment item","yes","Lexical_Decision_Task.osexp","/Users/nicky/Documents/University/Year Two/Semester Two/Cognition and language","no","Andale Mono","no","18","no","white","no","yes","576","legacy","32","32","3","/Users/nicky/Documents/University/Year Two/Semester Two/Cognition and language/subject-5203521.csv","legacy","Lentiform Loewenfeld","3.3.7","yes","yes","600bd7cfb6416f0113b04181","602110864497cf011d9c0822","0","j","NA","space","space","space","NA","j","715","NA","1694","30644","4552","NA","715","2","legacy","1024","2","48000","-16","task","5203521","odd","NA","50491","54191","52496","112255","7529","42757","38188","112758","NA","112252","112759","112188","54191","113474","48713","111688","7471","76401","Lexical Decision Task","36","26752","37","yes","1024"
"3.120025233","0","2","nyst","non-word","97.36842105263158","97.36842105263158","718.4473684210526","718.4473684210526","black","no","legacy","legacy","legacy","0","uniform","1","undefined","undefined","undefined","1","f","0","0","0","0","37","0","0","0","37","NA","33","37","33","0","33","3","37","0","37","Wed Feb 17 11:45:21 2021","The main experiment item","yes","Lexical_Decision_Task.osexp","/Users/nicky/Documents/University/Year Two/Semester Two/Cognition and language","no","Andale Mono","no","18","no","white","no","yes","576","legacy","33","33","3","/Users/nicky/Documents/University/Year Two/Semester Two/Cognition and language/subject-5203521.csv","legacy","Lentiform Loewenfeld","3.3.7","yes","yes","600bd7cfb6416f0113b04181","602110864497cf011d9c0822","0","f","NA","space","space","space","NA","f","549","NA","1694","30644","4552","NA","549","2","legacy","1024","2","48000","-16","task","5203521","odd","NA","50491","54191","52496","114045","7529","42757","38188","114549","NA","114042","114549","113978","54191","115099","48713","113478","7471","76401","Lexical Decision Task","37","27301","38","yes","1024"
"2.799799878","0","4","ciff","non-word","97.43589743589743","97.43589743589743","724.4358974358975","724.4358974358975","black","no","legacy","legacy","legacy","0","uniform","1","undefined","undefined","undefined","1","f","0","0","0","0","38","0","0","0","38","NA","34","38","34","0","34","3","38","0","38","Wed Feb 17 11:45:21 2021","The main experiment item","yes","Lexical_Decision_Task.osexp","/Users/nicky/Documents/University/Year Two/Semester Two/Cognition and language","no","Andale Mono","no","18","no","white","no","yes","576","legacy","34","34","3","/Users/nicky/Documents/University/Year Two/Semester Two/Cognition and language/subject-5203521.csv","legacy","Lentiform Loewenfeld","3.3.7","yes","yes","600bd7cfb6416f0113b04181","602110864497cf011d9c0822","0","f","NA","space","space","space","NA","f","952","NA","1694","30644","4552","NA","952","2","legacy","1024","2","48000","-16","task","5203521","odd","NA","50491","54191","52496","115669","7529","42757","38188","116172","NA","115666","116173","115602","54191","117126","48713","115102","7471","76401","Lexical Decision Task","38","28253","39","yes","1024"
"2.8162413","0","5","nusk","non-word","97.5","97.5","720.55","720.55","black","no","legacy","legacy","legacy","0","uniform","1","undefined","undefined","undefined","1","f","0","0","0","0","39","0","0","0","39","NA","35","39","35","0","35","3","39","0","39","Wed Feb 17 11:45:21 2021","The main experiment item","yes","Lexical_Decision_Task.osexp","/Users/nicky/Documents/University/Year Two/Semester Two/Cognition and language","no","Andale Mono","no","18","no","white","no","yes","576","legacy","35","35","3","/Users/nicky/Documents/University/Year Two/Semester Two/Cognition and language/subject-5203521.csv","legacy","Lentiform Loewenfeld","3.3.7","yes","yes","600bd7cfb6416f0113b04181","602110864497cf011d9c0822","0","f","NA","space","space","space","NA","f","569","NA","1694","30644","4552","NA","569","2","legacy","1024","2","48000","-16","task","5203521","odd","NA","50491","54191","52496","117695","7529","42757","38188","118198","NA","117692","118198","117629","54191","118768","48713","117129","7471","76401","Lexical Decision Task","39","28822","40","yes","1024"
"3.133964479","0","8","graw","non-word","97.5609756097561","97.5609756097561","720.2682926829268","720.2682926829268","black","no","legacy","legacy","legacy","0","uniform","1","undefined","undefined","undefined","1","f","0","0","0","0","40","0","0","0","40","NA","36","40","36","0","36","3","40","0","40","Wed Feb 17 11:45:21 2021","The main experiment item","yes","Lexical_Decision_Task.osexp","/Users/nicky/Documents/University/Year Two/Semester Two/Cognition and language","no","Andale Mono","no","18","no","white","no","yes","576","legacy","36","36","3","/Users/nicky/Documents/University/Year Two/Semester Two/Cognition and language/subject-5203521.csv","legacy","Lentiform Loewenfeld","3.3.7","yes","yes","600bd7cfb6416f0113b04181","602110864497cf011d9c0822","0","f","NA","space","space","space","NA","f","709","NA","1694","30644","4552","NA","709","2","legacy","1024","2","48000","-16","task","5203521","odd","NA","50491","54191","52496","119336","7529","42757","38188","119839","NA","119333","119840","119271","54191","120549","48713","118771","7471","76401","Lexical Decision Task","40","29531","41","yes","1024"
"3.347850856","10.51","2","rich","word","97.61904761904762","97.61904761904762","715.9047619047619","715.9047619047619","black","no","legacy","legacy","legacy","0","uniform","1","undefined","undefined","undefined","1","j","0","0","0","0","41","0","0","0","41","NA","37","41","37","0","37","3","41","0","41","Wed Feb 17 11:45:21 2021","The main experiment item","yes","Lexical_Decision_Task.osexp","/Users/nicky/Documents/University/Year Two/Semester Two/Cognition and language","no","Andale Mono","no","18","no","white","no","yes","576","legacy","37","37","3","/Users/nicky/Documents/University/Year Two/Semester Two/Cognition and language/subject-5203521.csv","legacy","Lentiform Loewenfeld","3.3.7","yes","yes","600bd7cfb6416f0113b04181","602110864497cf011d9c0822","0","j","NA","space","space","space","NA","j","537","NA","1694","30644","4552","NA","537","2","legacy","1024","2","48000","-16","task","5203521","odd","NA","50491","54191","52496","121117","7529","42757","38188","121620","NA","121114","121621","121053","54191","122159","48713","120552","7471","76401","Lexical Decision Task","41","30068","42","yes","1024"
"2.980911938","7.15","7","hoop","word","97.67441860465117","97.67441860465117","714.5581395348837","714.5581395348837","black","no","legacy","legacy","legacy","0","uniform","1","undefined","undefined","undefined","1","j","0","0","0","0","42","0","0","0","42","NA","38","42","38","0","38","3","42","0","42","Wed Feb 17 11:45:21 2021","The main experiment item","yes","Lexical_Decision_Task.osexp","/Users/nicky/Documents/University/Year Two/Semester Two/Cognition and language","no","Andale Mono","no","18","no","white","no","yes","576","legacy","38","38","3","/Users/nicky/Documents/University/Year Two/Semester Two/Cognition and language/subject-5203521.csv","legacy","Lentiform Loewenfeld","3.3.7","yes","yes","600bd7cfb6416f0113b04181","602110864497cf011d9c0822","0","j","NA","space","space","space","NA","j","658","NA","1694","30644","4552","NA","658","2","legacy","1024","2","48000","-16","task","5203521","odd","NA","50491","54191","52496","122728","7529","42757","38188","123231","NA","122725","123232","122662","54191","123890","48713","122162","7471","76401","Lexical Decision Task","42","30726","43","yes","1024"
"3.067070856","9.39","3","loud","word","97.72727272727273","97.72727272727273","712.7045454545455","712.7045454545455","black","no","legacy","legacy","legacy","0","uniform","1","undefined","undefined","undefined","1","j","0","0","0","0","43","0","0","0","43","NA","39","43","39","0","39","3","43","0","43","Wed Feb 17 11:45:21 2021","The main experiment item","yes","Lexical_Decision_Task.osexp","/Users/nicky/Documents/University/Year Two/Semester Two/Cognition and language","no","Andale Mono","no","18","no","white","no","yes","576","legacy","39","39","3","/Users/nicky/Documents/University/Year Two/Semester Two/Cognition and language/subject-5203521.csv","legacy","Lentiform Loewenfeld","3.3.7","yes","yes","600bd7cfb6416f0113b04181","602110864497cf011d9c0822","0","j","NA","space","space","space","NA","j","633","NA","1694","30644","4552","NA","633","2","legacy","1024","2","48000","-16","task","5203521","odd","NA","50491","54191","52496","124459","7529","42757","38188","124962","NA","124456","124963","124394","54191","125597","48713","123894","7471","76401","Lexical Decision Task","43","31359","44","yes","1024"
"3.102203805","7.21","3","drip","word","97.77777777777777","97.77777777777777","711.9555555555555","711.9555555555555","black","no","legacy","legacy","legacy","0","uniform","1","undefined","undefined","undefined","1","j","0","0","0","0","44","0","0","0","44","NA","40","44","40","0","40","3","44","0","44","Wed Feb 17 11:45:21 2021","The main experiment item","yes","Lexical_Decision_Task.osexp","/Users/nicky/Documents/University/Year Two/Semester Two/Cognition and language","no","Andale Mono","no","18","no","white","no","yes","576","legacy","40","40","3","/Users/nicky/Documents/University/Year Two/Semester Two/Cognition and language/subject-5203521.csv","legacy","Lentiform Loewenfeld","3.3.7","yes","yes","600bd7cfb6416f0113b04181","602110864497cf011d9c0822","0","j","NA","space","space","space","NA","j","679","NA","1694","30644","4552","NA","679","2","legacy","1024","2","48000","-16","task","5203521","odd","NA","50491","54191","52496","126164","7529","42757","38188","126667","NA","126161","126668","126100","54191","127347","48713","125600","7471","76401","Lexical Decision Task","44","32038","45","yes","1024"
"2.845304797","0","6","buct","non-word","97.82608695652173","97.82608695652173","707.7826086956521","707.7826086956521","black","no","legacy","legacy","legacy","0","uniform","1","undefined","undefined","undefined","1","f","0","0","0","0","45","0","0","0","45","NA","41","45","41","0","41","3","45","0","45","Wed Feb 17 11:45:21 2021","The main experiment item","yes","Lexical_Decision_Task.osexp","/Users/nicky/Documents/University/Year Two/Semester Two/Cognition and language","no","Andale Mono","no","18","no","white","no","yes","576","legacy","41","41","3","/Users/nicky/Documents/University/Year Two/Semester Two/Cognition and language/subject-5203521.csv","legacy","Lentiform Loewenfeld","3.3.7","yes","yes","600bd7cfb6416f0113b04181","602110864497cf011d9c0822","0","f","NA","space","space","space","NA","f","520","NA","1694","30644","4552","NA","520","2","legacy","1024","2","48000","-16","task","5203521","odd","NA","50491","54191","52496","127914","7529","42757","38188","128418","NA","127912","128418","127851","54191","128939","48713","127351","7471","76401","Lexical Decision Task","45","32558","46","yes","1024"
"3.366547468","0","6","plat","non-word","97.87234042553192","97.87234042553192","711.9574468085107","711.9574468085107","black","no","legacy","legacy","legacy","0","uniform","1","undefined","undefined","undefined","1","f","0","0","0","0","46","0","0","0","46","NA","42","46","42","0","42","3","46","0","46","Wed Feb 17 11:45:21 2021","The main experiment item","yes","Lexical_Decision_Task.osexp","/Users/nicky/Documents/University/Year Two/Semester Two/Cognition and language","no","Andale Mono","no","18","no","white","no","yes","576","legacy","42","42","3","/Users/nicky/Documents/University/Year Two/Semester Two/Cognition and language/subject-5203521.csv","legacy","Lentiform Loewenfeld","3.3.7","yes","yes","600bd7cfb6416f0113b04181","602110864497cf011d9c0822","0","f","NA","space","space","space","NA","f","904","NA","1694","30644","4552","NA","904","2","legacy","1024","2","48000","-16","task","5203521","odd","NA","50491","54191","52496","129507","7529","42757","38188","130010","NA","129504","130010","129442","54191","130914","48713","128942","7471","76401","Lexical Decision Task","46","33462","47","yes","1024"
"3.208978517","10.33","4","fish","word","97.91666666666667","97.91666666666667","713.3958333333334","713.3958333333334","black","no","legacy","legacy","legacy","0","uniform","1","undefined","undefined","undefined","1","j","0","0","0","0","47","0","0","0","47","NA","43","47","43","0","43","3","47","0","47","Wed Feb 17 11:45:21 2021","The main experiment item","yes","Lexical_Decision_Task.osexp","/Users/nicky/Documents/University/Year Two/Semester Two/Cognition and language","no","Andale Mono","no","18","no","white","no","yes","576","legacy","43","43","3","/Users/nicky/Documents/University/Year Two/Semester Two/Cognition and language/subject-5203521.csv","legacy","Lentiform Loewenfeld","3.3.7","yes","yes","600bd7cfb6416f0113b04181","602110864497cf011d9c0822","0","j","NA","space","space","space","NA","j","781","NA","1694","30644","4552","NA","781","2","legacy","1024","2","48000","-16","task","5203521","odd","NA","50491","54191","52496","131482","7529","42757","38188","131986","NA","131479","131986","131418","54191","132768","48713","130918","7471","76401","Lexical Decision Task","47","34243","48","yes","1024"
"2.696356389","0","1","pizz","non-word","97.95918367346938","97.95918367346938","714.2244897959183","714.2244897959183","black","no","legacy","legacy","legacy","0","uniform","1","undefined","undefined","undefined","1","f","0","0","0","0","48","0","0","0","48","NA","44","48","44","0","44","3","48","0","48","Wed Feb 17 11:45:21 2021","The main experiment item","yes","Lexical_Decision_Task.osexp","/Users/nicky/Documents/University/Year Two/Semester Two/Cognition and language","no","Andale Mono","no","18","no","white","no","yes","576","legacy","44","44","3","/Users/nicky/Documents/University/Year Two/Semester Two/Cognition and language/subject-5203521.csv","legacy","Lentiform Loewenfeld","3.3.7","yes","yes","600bd7cfb6416f0113b04181","602110864497cf011d9c0822","0","f","NA","space","space","space","NA","f","754","NA","1694","30644","4552","NA","754","2","legacy","1024","2","48000","-16","task","5203521","odd","NA","50491","54191","52496","133338","7529","42757","38188","133841","NA","133335","133841","133272","54191","134596","48713","132772","7471","76401","Lexical Decision Task","48","34997","49","yes","1024"
"2.616654026","9.37","5","gift","word","98","98","712.32","712.32","black","no","legacy","legacy","legacy","0","uniform","1","undefined","undefined","undefined","1","j","0","0","0","0","49","0","0","0","49","NA","45","49","45","0","45","3","49","0","49","Wed Feb 17 11:45:21 2021","The main experiment item","yes","Lexical_Decision_Task.osexp","/Users/nicky/Documents/University/Year Two/Semester Two/Cognition and language","no","Andale Mono","no","18","no","white","no","yes","576","legacy","45","45","3","/Users/nicky/Documents/University/Year Two/Semester Two/Cognition and language/subject-5203521.csv","legacy","Lentiform Loewenfeld","3.3.7","yes","yes","600bd7cfb6416f0113b04181","602110864497cf011d9c0822","0","j","NA","space","space","space","NA","j","619","NA","1694","30644","4552","NA","619","2","legacy","1024","2","48000","-16","task","5203521","odd","NA","50491","54191","52496","135164","7529","42757","38188","135668","NA","135161","135668","135099","54191","136288","48713","134599","7471","76401","Lexical Decision Task","49","35616","50","yes","1024"
"2.895974732","6.65","5","sift","word","98.03921568627452","98.03921568627452","716.2549019607843","716.2549019607843","black","no","legacy","legacy","legacy","0","uniform","1","undefined","undefined","undefined","1","j","0","0","0","0","50","0","0","0","50","NA","46","50","46","0","46","3","50","0","50","Wed Feb 17 11:45:21 2021","The main experiment item","yes","Lexical_Decision_Task.osexp","/Users/nicky/Documents/University/Year Two/Semester Two/Cognition and language","no","Andale Mono","no","18","no","white","no","yes","576","legacy","46","46","3","/Users/nicky/Documents/University/Year Two/Semester Two/Cognition and language/subject-5203521.csv","legacy","Lentiform Loewenfeld","3.3.7","yes","yes","600bd7cfb6416f0113b04181","602110864497cf011d9c0822","0","j","NA","space","space","space","NA","j","913","NA","1694","30644","4552","NA","913","2","legacy","1024","2","48000","-16","task","5203521","odd","NA","50491","54191","52496","136859","7529","42757","38188","137363","NA","136856","137363","136791","54191","138277","48713","136291","7471","76401","Lexical Decision Task","50","36529","51","yes","1024"
"2.64476673","0","5","moft","non-word","98.07692307692308","98.07692307692308","716","716","black","no","legacy","legacy","legacy","0","uniform","1","undefined","undefined","undefined","1","f","0","0","0","0","51","0","0","0","51","NA","47","51","47","0","47","3","51","0","51","Wed Feb 17 11:45:21 2021","The main experiment item","yes","Lexical_Decision_Task.osexp","/Users/nicky/Documents/University/Year Two/Semester Two/Cognition and language","no","Andale Mono","no","18","no","white","no","yes","576","legacy","47","47","3","/Users/nicky/Documents/University/Year Two/Semester Two/Cognition and language/subject-5203521.csv","legacy","Lentiform Loewenfeld","3.3.7","yes","yes","600bd7cfb6416f0113b04181","602110864497cf011d9c0822","0","f","NA","space","space","space","NA","f","703","NA","1694","30644","4552","NA","703","2","legacy","1024","2","48000","-16","task","5203521","odd","NA","50491","54191","52496","138848","7529","42757","38188","139351","NA","138846","139351","138781","54191","140055","48713","138281","7471","76401","Lexical Decision Task","51","37232","52","yes","1024"
"2.714888338","0","3","brug","non-word","98.11320754716981","98.11320754716981","716.8301886792453","716.8301886792453","black","no","legacy","legacy","legacy","0","uniform","1","undefined","undefined","undefined","1","f","0","0","0","0","52","0","0","0","52","NA","48","52","48","0","48","3","52","0","52","Wed Feb 17 11:45:21 2021","The main experiment item","yes","Lexical_Decision_Task.osexp","/Users/nicky/Documents/University/Year Two/Semester Two/Cognition and language","no","Andale Mono","no","18","no","white","no","yes","576","legacy","48","48","3","/Users/nicky/Documents/University/Year Two/Semester Two/Cognition and language/subject-5203521.csv","legacy","Lentiform Loewenfeld","3.3.7","yes","yes","600bd7cfb6416f0113b04181","602110864497cf011d9c0822","0","f","NA","space","space","space","NA","f","760","NA","1694","30644","4552","NA","760","2","legacy","1024","2","48000","-16","task","5203521","odd","NA","50491","54191","52496","140623","7529","42757","38188","141126","NA","140620","141126","140558","54191","141887","48713","140058","7471","76401","Lexical Decision Task","52","37992","53","yes","1024"
"2.996511672","0","7","hoil","non-word","98.14814814814815","98.14814814814815","716.6296296296297","716.6296296296297","black","no","legacy","legacy","legacy","0","uniform","1","undefined","undefined","undefined","1","f","0","0","0","0","53","0","0","0","53","NA","49","53","49","0","49","3","53","0","53","Wed Feb 17 11:45:21 2021","The main experiment item","yes","Lexical_Decision_Task.osexp","/Users/nicky/Documents/University/Year Two/Semester Two/Cognition and language","no","Andale Mono","no","18","no","white","no","yes","576","legacy","49","49","3","/Users/nicky/Documents/University/Year Two/Semester Two/Cognition and language/subject-5203521.csv","legacy","Lentiform Loewenfeld","3.3.7","yes","yes","600bd7cfb6416f0113b04181","602110864497cf011d9c0822","0","f","NA","space","space","space","NA","f","706","NA","1694","30644","4552","NA","706","2","legacy","1024","2","48000","-16","task","5203521","odd","NA","50491","54191","52496","142458","7529","42757","38188","142963","NA","142456","142963","142390","54191","143669","48713","141890","7471","76401","Lexical Decision Task","53","38698","54","yes","1024"
"3.474361976","5.24","6","veer","word","98.18181818181819","98.18181818181819","721.0909090909091","721.0909090909091","black","no","legacy","legacy","legacy","0","uniform","1","undefined","undefined","undefined","1","j","0","0","0","0","54","0","0","0","54","0","50","54","50","0","50","3","54","0","54","Wed Feb 17 11:45:21 2021","The main experiment item","yes","Lexical_Decision_Task.osexp","/Users/nicky/Documents/University/Year Two/Semester Two/Cognition and language","no","Andale Mono","no","18","no","white","no","yes","576","legacy","50","50","3","/Users/nicky/Documents/University/Year Two/Semester Two/Cognition and language/subject-5203521.csv","legacy","Lentiform Loewenfeld","3.3.7","yes","yes","600bd7cfb6416f0113b04181","602110864497cf011d9c0822","0","j","NA","space","space","space","j","j","962","NA","1694","30644","4552","2471","962","2","legacy","1024","2","48000","-16","task","5203521","odd","NA","50491","54191","52496","146727","7529","42757","38188","147231","144210","146725","147232","144172","54191","148195","48713","143672","7471","76401","Lexical Decision Task","54","39660","55","yes","1024"
"3.257359335","8","6","brew","word","98.21428571428571","98.21428571428571","719.6071428571429","719.6071428571429","black","no","legacy","legacy","legacy","0","uniform","1","undefined","undefined","undefined","1","j","0","0","0","0","55","0","0","0","55","0","51","55","51","0","51","3","55","0","55","Wed Feb 17 11:45:21 2021","The main experiment item","yes","Lexical_Decision_Task.osexp","/Users/nicky/Documents/University/Year Two/Semester Two/Cognition and language","no","Andale Mono","no","18","no","white","no","yes","576","legacy","51","51","3","/Users/nicky/Documents/University/Year Two/Semester Two/Cognition and language/subject-5203521.csv","legacy","Lentiform Loewenfeld","3.3.7","yes","yes","600bd7cfb6416f0113b04181","602110864497cf011d9c0822","0","j","NA","space","space","space","j","j","638","NA","1694","30644","4552","2471","638","2","legacy","1024","2","48000","-16","task","5203521","odd","NA","50491","54191","52496","148763","7529","42757","38188","149267","144210","148760","149267","148698","54191","149906","48713","148197","7471","76401","Lexical Decision Task","55","40298","56","yes","1024"
"3.443783828","7.65","3","verb","word","98.24561403508773","98.24561403508773","717.140350877193","717.140350877193","black","no","legacy","legacy","legacy","0","uniform","1","undefined","undefined","undefined","1","j","0","0","0","0","56","0","0","0","56","0","52","56","52","0","52","3","56","0","56","Wed Feb 17 11:45:21 2021","The main experiment item","yes","Lexical_Decision_Task.osexp","/Users/nicky/Documents/University/Year Two/Semester Two/Cognition and language","no","Andale Mono","no","18","no","white","no","yes","576","legacy","52","52","3","/Users/nicky/Documents/University/Year Two/Semester Two/Cognition and language/subject-5203521.csv","legacy","Lentiform Loewenfeld","3.3.7","yes","yes","600bd7cfb6416f0113b04181","602110864497cf011d9c0822","0","j","NA","space","space","space","j","j","579","NA","1694","30644","4552","2471","579","2","legacy","1024","2","48000","-16","task","5203521","odd","NA","50491","54191","52496","150479","7529","42757","38188","150983","144210","150476","150983","150409","54191","151563","48713","149909","7471","76401","Lexical Decision Task","56","40877","57","yes","1024"
"2.95456409","0","4","taud","non-word","98.27586206896552","98.27586206896552","714.6551724137931","714.6551724137931","black","no","legacy","legacy","legacy","0","uniform","1","undefined","undefined","undefined","1","f","0","0","0","0","57","0","0","0","57","0","53","57","53","0","53","3","57","0","57","Wed Feb 17 11:45:21 2021","The main experiment item","yes","Lexical_Decision_Task.osexp","/Users/nicky/Documents/University/Year Two/Semester Two/Cognition and language","no","Andale Mono","no","18","no","white","no","yes","576","legacy","53","53","3","/Users/nicky/Documents/University/Year Two/Semester Two/Cognition and language/subject-5203521.csv","legacy","Lentiform Loewenfeld","3.3.7","yes","yes","600bd7cfb6416f0113b04181","602110864497cf011d9c0822","0","f","NA","space","space","space","j","f","573","NA","1694","30644","4552","2471","573","2","legacy","1024","2","48000","-16","task","5203521","odd","NA","50491","54191","52496","152132","7529","42757","38188","152635","144210","152129","152635","152066","54191","153209","48713","151566","7471","76401","Lexical Decision Task","57","41450","58","yes","1024"
"2.893578687","8.69","3","surf","word","98.30508474576271","98.30508474576271","713.7966101694915","713.7966101694915","black","no","legacy","legacy","legacy","0","uniform","1","undefined","undefined","undefined","1","j","0","0","0","0","58","0","0","0","58","0","54","58","54","0","54","3","58","0","58","Wed Feb 17 11:45:21 2021","The main experiment item","yes","Lexical_Decision_Task.osexp","/Users/nicky/Documents/University/Year Two/Semester Two/Cognition and language","no","Andale Mono","no","18","no","white","no","yes","576","legacy","54","54","3","/Users/nicky/Documents/University/Year Two/Semester Two/Cognition and language/subject-5203521.csv","legacy","Lentiform Loewenfeld","3.3.7","yes","yes","600bd7cfb6416f0113b04181","602110864497cf011d9c0822","0","j","NA","space","space","space","j","j","664","NA","1694","30644","4552","2471","664","2","legacy","1024","2","48000","-16","task","5203521","odd","NA","50491","54191","52496","153779","7529","42757","38188","154283","144210","153777","154283","153712","54191","154947","48713","153212","7471","76401","Lexical Decision Task","58","42114","59","yes","1024"
"2.698387659","6.66","7","skid","word","98.33333333333333","98.33333333333333","712.05","712.05","black","no","legacy","legacy","legacy","0","uniform","1","undefined","undefined","undefined","1","j","0","0","0","0","59","0","0","0","59","0","55","59","55","0","55","3","59","0","59","Wed Feb 17 11:45:21 2021","The main experiment item","yes","Lexical_Decision_Task.osexp","/Users/nicky/Documents/University/Year Two/Semester Two/Cognition and language","no","Andale Mono","no","18","no","white","no","yes","576","legacy","55","55","3","/Users/nicky/Documents/University/Year Two/Semester Two/Cognition and language/subject-5203521.csv","legacy","Lentiform Loewenfeld","3.3.7","yes","yes","600bd7cfb6416f0113b04181","602110864497cf011d9c0822","0","j","NA","space","space","space","j","j","609","NA","1694","30644","4552","2471","609","2","legacy","1024","2","48000","-16","task","5203521","odd","NA","50491","54191","52496","155518","7529","42757","38188","156021","144210","155515","156022","155451","54191","156631","48713","154951","7471","76401","Lexical Decision Task","59","42723","60","yes","1024"
"2.898725182","0","7","turl","non-word","98.36065573770492","98.36065573770492","710.4262295081967","710.4262295081967","black","no","legacy","legacy","legacy","0","uniform","1","undefined","undefined","undefined","1","f","0","0","0","0","60","0","0","0","60","0","56","60","56","0","56","3","60","0","60","Wed Feb 17 11:45:21 2021","The main experiment item","yes","Lexical_Decision_Task.osexp","/Users/nicky/Documents/University/Year Two/Semester Two/Cognition and language","no","Andale Mono","no","18","no","white","no","yes","576","legacy","56","56","3","/Users/nicky/Documents/University/Year Two/Semester Two/Cognition and language/subject-5203521.csv","legacy","Lentiform Loewenfeld","3.3.7","yes","yes","600bd7cfb6416f0113b04181","602110864497cf011d9c0822","0","f","NA","space","space","space","j","f","613","NA","1694","30644","4552","2471","613","2","legacy","1024","2","48000","-16","task","5203521","odd","NA","50491","54191","52496","157199","7529","42757","38188","157703","144210","157196","157703","157135","54191","158317","48713","156635","7471","76401","Lexical Decision Task","60","43336","61","yes","1024"
"2.695481676","0","7","goke","non-word","98.38709677419355","98.38709677419355","708.3870967741935","708.3870967741935","black","no","legacy","legacy","legacy","0","uniform","1","undefined","undefined","undefined","1","f","0","0","0","0","61","0","0","0","61","0","57","61","57","0","57","3","61","0","61","Wed Feb 17 11:45:21 2021","The main experiment item","yes","Lexical_Decision_Task.osexp","/Users/nicky/Documents/University/Year Two/Semester Two/Cognition and language","no","Andale Mono","no","18","no","white","no","yes","576","legacy","57","57","3","/Users/nicky/Documents/University/Year Two/Semester Two/Cognition and language/subject-5203521.csv","legacy","Lentiform Loewenfeld","3.3.7","yes","yes","600bd7cfb6416f0113b04181","602110864497cf011d9c0822","0","f","NA","space","space","space","j","f","584","NA","1694","30644","4552","2471","584","2","legacy","1024","2","48000","-16","task","5203521","odd","NA","50491","54191","52496","158883","7529","42757","38188","159388","144210","158880","159388","158820","54191","159973","48713","158320","7471","76401","Lexical Decision Task","61","43920","62","yes","1024"
"2.812467698","0","7","hafe","non-word","98.41269841269842","98.41269841269842","706.984126984127","706.984126984127","black","no","legacy","legacy","legacy","0","uniform","1","undefined","undefined","undefined","1","f","0","0","0","0","62","0","0","0","62","0","58","62","58","0","58","3","62","0","62","Wed Feb 17 11:45:21 2021","The main experiment item","yes","Lexical_Decision_Task.osexp","/Users/nicky/Documents/University/Year Two/Semester Two/Cognition and language","no","Andale Mono","no","18","no","white","no","yes","576","legacy","58","58","3","/Users/nicky/Documents/University/Year Two/Semester Two/Cognition and language/subject-5203521.csv","legacy","Lentiform Loewenfeld","3.3.7","yes","yes","600bd7cfb6416f0113b04181","602110864497cf011d9c0822","0","f","NA","space","space","space","j","f","620","NA","1694","30644","4552","2471","620","2","legacy","1024","2","48000","-16","task","5203521","odd","NA","50491","54191","52496","160542","7529","42757","38188","161046","144210","160539","161046","160477","54191","161667","48713","159977","7471","76401","Lexical Decision Task","62","44540","63","yes","1024"
"3.039414119","0","9","meep","non-word","98.4375","98.4375","707.28125","707.28125","black","no","legacy","legacy","legacy","0","uniform","1","undefined","undefined","undefined","1","f","0","0","0","0","63","0","0","0","63","0","59","63","59","0","59","3","63","0","63","Wed Feb 17 11:45:21 2021","The main experiment item","yes","Lexical_Decision_Task.osexp","/Users/nicky/Documents/University/Year Two/Semester Two/Cognition and language","no","Andale Mono","no","18","no","white","no","yes","576","legacy","59","59","3","/Users/nicky/Documents/University/Year Two/Semester Two/Cognition and language/subject-5203521.csv","legacy","Lentiform Loewenfeld","3.3.7","yes","yes","600bd7cfb6416f0113b04181","602110864497cf011d9c0822","0","f","NA","space","space","space","j","f","726","NA","1694","30644","4552","2471","726","2","legacy","1024","2","48000","-16","task","5203521","odd","NA","50491","54191","52496","162236","7529","42757","38188","162740","144210","162233","162740","162170","54191","163467","48713","161670","7471","76401","Lexical Decision Task","63","45266","64","yes","1024"
"3.066077331","0","7","vorn","non-word","98.46153846153847","98.46153846153847","706.8461538461538","706.8461538461538","black","no","legacy","legacy","legacy","0","uniform","1","undefined","undefined","undefined","1","f","0","0","0","0","64","0","0","0","64","0","60","64","60","0","60","3","64","0","64","Wed Feb 17 11:45:21 2021","The main experiment item","yes","Lexical_Decision_Task.osexp","/Users/nicky/Documents/University/Year Two/Semester Two/Cognition and language","no","Andale Mono","no","18","no","white","no","yes","576","legacy","60","60","3","/Users/nicky/Documents/University/Year Two/Semester Two/Cognition and language/subject-5203521.csv","legacy","Lentiform Loewenfeld","3.3.7","yes","yes","600bd7cfb6416f0113b04181","602110864497cf011d9c0822","0","f","NA","space","space","space","j","f","679","NA","1694","30644","4552","2471","679","2","legacy","1024","2","48000","-16","task","5203521","odd","NA","50491","54191","52496","164037","7529","42757","38188","164541","144210","164034","164541","163971","54191","165221","48713","163471","7471","76401","Lexical Decision Task","64","45945","65","yes","1024"
"3.168890155","0","6","thet","non-word","98.48484848484848","98.48484848484848","708.1363636363636","708.1363636363636","black","no","legacy","legacy","legacy","0","uniform","1","undefined","undefined","undefined","1","f","0","0","0","0","65","0","0","0","65","0","61","65","61","0","61","3","65","0","65","Wed Feb 17 11:45:21 2021","The main experiment item","yes","Lexical_Decision_Task.osexp","/Users/nicky/Documents/University/Year Two/Semester Two/Cognition and language","no","Andale Mono","no","18","no","white","no","yes","576","legacy","61","61","3","/Users/nicky/Documents/University/Year Two/Semester Two/Cognition and language/subject-5203521.csv","legacy","Lentiform Loewenfeld","3.3.7","yes","yes","600bd7cfb6416f0113b04181","602110864497cf011d9c0822","0","f","NA","space","space","space","j","f","792","NA","1694","30644","4552","2471","792","2","legacy","1024","2","48000","-16","task","5203521","odd","NA","50491","54191","52496","165789","7529","42757","38188","166293","144210","165786","166293","165724","54191","167086","48713","165224","7471","76401","Lexical Decision Task","65","46737","66","yes","1024"
"3.20871002","7.15","8","cram","word","98.50746268656717","98.50746268656717","709.1940298507462","709.1940298507462","black","no","legacy","legacy","legacy","0","uniform","1","undefined","undefined","undefined","1","j","0","0","0","0","66","0","0","0","66","0","62","66","62","0","62","3","66","0","66","Wed Feb 17 11:45:21 2021","The main experiment item","yes","Lexical_Decision_Task.osexp","/Users/nicky/Documents/University/Year Two/Semester Two/Cognition and language","no","Andale Mono","no","18","no","white","no","yes","576","legacy","62","62","3","/Users/nicky/Documents/University/Year Two/Semester Two/Cognition and language/subject-5203521.csv","legacy","Lentiform Loewenfeld","3.3.7","yes","yes","600bd7cfb6416f0113b04181","602110864497cf011d9c0822","0","j","NA","space","space","space","j","j","779","NA","1694","30644","4552","2471","779","2","legacy","1024","2","48000","-16","task","5203521","odd","NA","50491","54191","52496","167657","7529","42757","38188","168160","144210","167654","168161","167589","54191","168941","48713","167089","7471","76401","Lexical Decision Task","66","47516","67","yes","1024"
"2.706148589","0","4","hube","non-word","98.52941176470588","98.52941176470588","709","709","black","no","legacy","legacy","legacy","0","uniform","1","undefined","undefined","undefined","1","f","0","0","0","0","67","0","0","0","67","0","63","67","63","0","63","3","67","0","67","Wed Feb 17 11:45:21 2021","The main experiment item","yes","Lexical_Decision_Task.osexp","/Users/nicky/Documents/University/Year Two/Semester Two/Cognition and language","no","Andale Mono","no","18","no","white","no","yes","576","legacy","63","63","3","/Users/nicky/Documents/University/Year Two/Semester Two/Cognition and language/subject-5203521.csv","legacy","Lentiform Loewenfeld","3.3.7","yes","yes","600bd7cfb6416f0113b04181","602110864497cf011d9c0822","0","f","NA","space","space","space","j","f","696","NA","1694","30644","4552","2471","696","2","legacy","1024","2","48000","-16","task","5203521","odd","NA","50491","54191","52496","169511","7529","42757","38188","170015","144210","169508","170015","169444","54191","170712","48713","168944","7471","76401","Lexical Decision Task","67","48212","68","yes","1024"
"3.20996159","0","4","clee","non-word","98.55072463768116","98.55072463768116","706.8985507246376","706.8985507246376","black","no","legacy","legacy","legacy","0","uniform","1","undefined","undefined","undefined","1","f","0","0","0","0","68","0","0","0","68","0","64","68","64","0","64","3","68","0","68","Wed Feb 17 11:45:21 2021","The main experiment item","yes","Lexical_Decision_Task.osexp","/Users/nicky/Documents/University/Year Two/Semester Two/Cognition and language","no","Andale Mono","no","18","no","white","no","yes","576","legacy","64","64","3","/Users/nicky/Documents/University/Year Two/Semester Two/Cognition and language/subject-5203521.csv","legacy","Lentiform Loewenfeld","3.3.7","yes","yes","600bd7cfb6416f0113b04181","602110864497cf011d9c0822","0","f","NA","space","space","space","j","f","564","NA","1694","30644","4552","2471","564","2","legacy","1024","2","48000","-16","task","5203521","odd","NA","50491","54191","52496","171280","7529","42757","38188","171784","144210","171277","171784","171215","54191","172349","48713","170715","7471","76401","Lexical Decision Task","68","48776","69","yes","1024"
"3.303771854","0","9","dath","non-word","98.57142857142857","98.57142857142857","705.2571428571429","705.2571428571429","black","no","legacy","legacy","legacy","0","uniform","1","undefined","undefined","undefined","1","f","0","0","0","0","69","0","0","0","69","0","65","69","65","0","65","3","69","0","69","Wed Feb 17 11:45:21 2021","The main experiment item","yes","Lexical_Decision_Task.osexp","/Users/nicky/Documents/University/Year Two/Semester Two/Cognition and language","no","Andale Mono","no","18","no","white","no","yes","576","legacy","65","65","3","/Users/nicky/Documents/University/Year Two/Semester Two/Cognition and language/subject-5203521.csv","legacy","Lentiform Loewenfeld","3.3.7","yes","yes","600bd7cfb6416f0113b04181","602110864497cf011d9c0822","0","f","NA","space","space","space","j","f","592","NA","1694","30644","4552","2471","592","2","legacy","1024","2","48000","-16","task","5203521","odd","NA","50491","54191","52496","172914","7529","42757","38188","173417","144210","172911","173418","172852","54191","174011","48713","172352","7471","76401","Lexical Decision Task","69","49368","70","yes","1024"
"3.431095062","5.74","9","perk","word","97.1830985915493","97.1830985915493","704.7042253521126","704.7042253521126","black","no","legacy","legacy","legacy","0","uniform","0","undefined","undefined","undefined","0","j","0","0","0","0","70","0","0","0","70","0","66","70","66","0","66","3","70","0","70","Wed Feb 17 11:45:21 2021","The main experiment item","yes","Lexical_Decision_Task.osexp","/Users/nicky/Documents/University/Year Two/Semester Two/Cognition and language","no","Andale Mono","no","18","no","white","no","yes","576","legacy","66","66","3","/Users/nicky/Documents/University/Year Two/Semester Two/Cognition and language/subject-5203521.csv","legacy","Lentiform Loewenfeld","3.3.7","yes","yes","600bd7cfb6416f0113b04181","602110864497cf011d9c0822","0","f","NA","space","space","space","j","f","666","NA","1694","30644","4552","2471","666","2","legacy","1024","2","48000","-16","task","5203521","odd","NA","50491","54191","52496","174578","7529","42757","38188","175081","144210","174575","175082","174514","54191","175749","48713","174014","7471","76401","Lexical Decision Task","69","50034","71","yes","1024"
"3.488597715","0","9","nain","non-word","97.22222222222223","97.22222222222223","703.8333333333334","703.8333333333334","black","no","legacy","legacy","legacy","0","uniform","1","undefined","undefined","undefined","1","f","0","0","0","0","71","0","0","0","71","0","67","71","67","0","67","3","71","0","71","Wed Feb 17 11:45:21 2021","The main experiment item","yes","Lexical_Decision_Task.osexp","/Users/nicky/Documents/University/Year Two/Semester Two/Cognition and language","no","Andale Mono","no","18","no","white","no","yes","576","legacy","67","67","3","/Users/nicky/Documents/University/Year Two/Semester Two/Cognition and language/subject-5203521.csv","legacy","Lentiform Loewenfeld","3.3.7","yes","yes","600bd7cfb6416f0113b04181","602110864497cf011d9c0822","0","f","NA","space","space","space","j","f","642","NA","1694","30644","4552","2471","642","2","legacy","1024","2","48000","-16","task","5203521","odd","NA","50491","54191","52496","177321","7529","42757","38188","177825","144210","177317","177826","177252","54191","178469","48713","174014","7471","175752","Lexical Decision Task","70","50676","72","yes","1024"
"3.090140555","5.81","8","pout","word","97.26027397260275","97.26027397260275","704.7123287671233","704.7123287671233","black","no","legacy","legacy","legacy","0","uniform","1","undefined","undefined","undefined","1","j","0","0","0","0","72","0","0","0","72","0","68","72","68","0","68","3","72","0","72","Wed Feb 17 11:45:21 2021","The main experiment item","yes","Lexical_Decision_Task.osexp","/Users/nicky/Documents/University/Year Two/Semester Two/Cognition and language","no","Andale Mono","no","18","no","white","no","yes","576","legacy","68","68","3","/Users/nicky/Documents/University/Year Two/Semester Two/Cognition and language/subject-5203521.csv","legacy","Lentiform Loewenfeld","3.3.7","yes","yes","600bd7cfb6416f0113b04181","602110864497cf011d9c0822","0","j","NA","space","space","space","j","j","768","NA","1694","30644","4552","2471","768","2","legacy","1024","2","48000","-16","task","5203521","odd","NA","50491","54191","52496","179038","7529","42757","38188","179541","144210","179035","179542","178972","54191","180311","48713","178472","7471","175752","Lexical Decision Task","71","51444","73","yes","1024"
"3.299579929","0","2","flis","non-word","97.29729729729729","97.29729729729729","704.2702702702703","704.2702702702703","black","no","legacy","legacy","legacy","0","uniform","1","undefined","undefined","undefined","1","f","0","0","0","0","73","0","0","0","73","0","69","73","69","0","69","3","73","0","73","Wed Feb 17 11:45:21 2021","The main experiment item","yes","Lexical_Decision_Task.osexp","/Users/nicky/Documents/University/Year Two/Semester Two/Cognition and language","no","Andale Mono","no","18","no","white","no","yes","576","legacy","69","69","3","/Users/nicky/Documents/University/Year Two/Semester Two/Cognition and language/subject-5203521.csv","legacy","Lentiform Loewenfeld","3.3.7","yes","yes","600bd7cfb6416f0113b04181","602110864497cf011d9c0822","0","f","NA","space","space","space","j","f","672","NA","1694","30644","4552","2471","672","2","legacy","1024","2","48000","-16","task","5203521","odd","NA","50491","54191","52496","180880","7529","42757","38188","181385","144210","180878","181385","180814","54191","182058","48713","180314","7471","175752","Lexical Decision Task","72","52116","74","yes","1024"
"3.218535505","7.85","7","goat","word","97.33333333333333","97.33333333333333","702.4666666666667","702.4666666666667","black","no","legacy","legacy","legacy","0","uniform","1","undefined","undefined","undefined","1","j","0","0","0","0","74","0","0","0","74","0","70","74","70","0","70","3","74","0","74","Wed Feb 17 11:45:21 2021","The main experiment item","yes","Lexical_Decision_Task.osexp","/Users/nicky/Documents/University/Year Two/Semester Two/Cognition and language","no","Andale Mono","no","18","no","white","no","yes","576","legacy","70","70","3","/Users/nicky/Documents/University/Year Two/Semester Two/Cognition and language/subject-5203521.csv","legacy","Lentiform Loewenfeld","3.3.7","yes","yes","600bd7cfb6416f0113b04181","602110864497cf011d9c0822","0","j","NA","space","space","space","j","j","569","NA","1694","30644","4552","2471","569","2","legacy","1024","2","48000","-16","task","5203521","odd","NA","50491","54191","52496","182626","7529","42757","38188","183131","144210","182624","183131","182561","54191","183700","48713","182061","7471","175752","Lexical Decision Task","73","52685","75","yes","1024"
"2.67699827","0","6","hulf","non-word","97.36842105263158","97.36842105263158","702.1447368421053","702.1447368421053","black","no","legacy","legacy","legacy","0","uniform","1","undefined","undefined","undefined","1","f","0","0","0","0","75","0","0","0","75","0","71","75","71","0","71","3","75","0","75","Wed Feb 17 11:45:21 2021","The main experiment item","yes","Lexical_Decision_Task.osexp","/Users/nicky/Documents/University/Year Two/Semester Two/Cognition and language","no","Andale Mono","no","18","no","white","no","yes","576","legacy","71","71","3","/Users/nicky/Documents/University/Year Two/Semester Two/Cognition and language/subject-5203521.csv","legacy","Lentiform Loewenfeld","3.3.7","yes","yes","600bd7cfb6416f0113b04181","602110864497cf011d9c0822","0","f","NA","space","space","space","j","f","678","NA","1694","30644","4552","2471","678","2","legacy","1024","2","48000","-16","task","5203521","odd","NA","50491","54191","52496","184270","7529","42757","38188","184773","144210","184267","184774","184204","54191","185453","48713","183704","7471","175752","Lexical Decision Task","74","53363","76","yes","1024"
"3.225825991","0","7","talm","non-word","97.40259740259741","97.40259740259741","701.0909090909091","701.0909090909091","black","no","legacy","legacy","legacy","0","uniform","1","undefined","undefined","undefined","1","f","0","0","0","0","76","0","0","0","76","0","72","76","72","0","72","3","76","0","76","Wed Feb 17 11:45:21 2021","The main experiment item","yes","Lexical_Decision_Task.osexp","/Users/nicky/Documents/University/Year Two/Semester Two/Cognition and language","no","Andale Mono","no","18","no","white","no","yes","576","legacy","72","72","3","/Users/nicky/Documents/University/Year Two/Semester Two/Cognition and language/subject-5203521.csv","legacy","Lentiform Loewenfeld","3.3.7","yes","yes","600bd7cfb6416f0113b04181","602110864497cf011d9c0822","0","f","NA","space","space","space","j","f","621","NA","1694","30644","4552","2471","621","2","legacy","1024","2","48000","-16","task","5203521","odd","NA","50491","54191","52496","186021","7529","42757","38188","186525","144210","186018","186525","185956","54191","187147","48713","185456","7471","175752","Lexical Decision Task","75","53984","77","yes","1024"
"3.062080345","0","6","tomp","non-word","97.43589743589743","97.43589743589743","699.6538461538462","699.6538461538462","black","no","legacy","legacy","legacy","0","uniform","1","undefined","undefined","undefined","1","f","0","0","0","0","77","0","0","0","77","0","73","77","73","0","73","3","77","0","77","Wed Feb 17 11:45:21 2021","The main experiment item","yes","Lexical_Decision_Task.osexp","/Users/nicky/Documents/University/Year Two/Semester Two/Cognition and language","no","Andale Mono","no","18","no","white","no","yes","576","legacy","73","73","3","/Users/nicky/Documents/University/Year Two/Semester Two/Cognition and language/subject-5203521.csv","legacy","Lentiform Loewenfeld","3.3.7","yes","yes","600bd7cfb6416f0113b04181","602110864497cf011d9c0822","0","f","NA","space","space","space","j","f","589","NA","1694","30644","4552","2471","589","2","legacy","1024","2","48000","-16","task","5203521","odd","NA","50491","54191","52496","187715","7529","42757","38188","188218","144210","187713","188218","187650","54191","188808","48713","187150","7471","175752","Lexical Decision Task","76","54573","78","yes","1024"
"2.813801082","5.47","7","nook","word","97.46835443037975","97.46835443037975","700.5569620253165","700.5569620253165","black","no","legacy","legacy","legacy","0","uniform","1","undefined","undefined","undefined","1","j","0","0","0","0","78","0","0","0","78","0","74","78","74","0","74","3","78","0","78","Wed Feb 17 11:45:21 2021","The main experiment item","yes","Lexical_Decision_Task.osexp","/Users/nicky/Documents/University/Year Two/Semester Two/Cognition and language","no","Andale Mono","no","18","no","white","no","yes","576","legacy","74","74","3","/Users/nicky/Documents/University/Year Two/Semester Two/Cognition and language/subject-5203521.csv","legacy","Lentiform Loewenfeld","3.3.7","yes","yes","600bd7cfb6416f0113b04181","602110864497cf011d9c0822","0","j","NA","space","space","space","j","j","771","NA","1694","30644","4552","2471","771","2","legacy","1024","2","48000","-16","task","5203521","odd","NA","50491","54191","52496","189377","7529","42757","38188","189880","144210","189374","189881","189311","54191","190653","48713","188811","7471","175752","Lexical Decision Task","77","55344","79","yes","1024"
"2.880623071","0","9","curp","non-word","97.5","97.5","704.9375","704.9375","black","no","legacy","legacy","legacy","0","uniform","1","undefined","undefined","undefined","1","f","0","0","0","0","79","0","0","0","79","0","75","79","75","0","75","3","79","0","79","Wed Feb 17 11:45:21 2021","The main experiment item","yes","Lexical_Decision_Task.osexp","/Users/nicky/Documents/University/Year Two/Semester Two/Cognition and language","no","Andale Mono","no","18","no","white","no","yes","576","legacy","75","75","3","/Users/nicky/Documents/University/Year Two/Semester Two/Cognition and language/subject-5203521.csv","legacy","Lentiform Loewenfeld","3.3.7","yes","yes","600bd7cfb6416f0113b04181","602110864497cf011d9c0822","0","f","NA","space","space","space","j","f","1051","NA","1694","30644","4552","2471","1051","2","legacy","1024","2","48000","-16","task","5203521","odd","NA","50491","54191","52496","191221","7529","42757","38188","191725","144210","191218","191725","191157","54191","192777","48713","190657","7471","175752","Lexical Decision Task","78","56395","80","yes","1024"
"3.311895072","0","9","gung","non-word","97.53086419753086","97.53086419753086","704.5555555555555","704.5555555555555","black","no","legacy","legacy","legacy","0","uniform","1","undefined","undefined","undefined","1","f","0","0","0","0","80","0","0","0","80","0","76","80","76","0","76","3","80","0","80","Wed Feb 17 11:45:21 2021","The main experiment item","yes","Lexical_Decision_Task.osexp","/Users/nicky/Documents/University/Year Two/Semester Two/Cognition and language","no","Andale Mono","no","18","no","white","no","yes","576","legacy","76","76","3","/Users/nicky/Documents/University/Year Two/Semester Two/Cognition and language/subject-5203521.csv","legacy","Lentiform Loewenfeld","3.3.7","yes","yes","600bd7cfb6416f0113b04181","602110864497cf011d9c0822","0","f","NA","space","space","space","j","f","674","NA","1694","30644","4552","2471","674","2","legacy","1024","2","48000","-16","task","5203521","odd","NA","50491","54191","52496","193344","7529","42757","38188","193849","144210","193341","193849","193280","54191","194524","48713","192780","7471","175752","Lexical Decision Task","79","57069","81","yes","1024"
"3.067193647","6.73","6","raft","word","97.5609756097561","97.5609756097561","704.5731707317074","704.5731707317074","black","no","legacy","legacy","legacy","0","uniform","1","undefined","undefined","undefined","1","j","0","0","0","0","81","0","0","0","81","0","77","81","77","0","77","3","81","0","81","Wed Feb 17 11:45:21 2021","The main experiment item","yes","Lexical_Decision_Task.osexp","/Users/nicky/Documents/University/Year Two/Semester Two/Cognition and language","no","Andale Mono","no","18","no","white","no","yes","576","legacy","77","77","3","/Users/nicky/Documents/University/Year Two/Semester Two/Cognition and language/subject-5203521.csv","legacy","Lentiform Loewenfeld","3.3.7","yes","yes","600bd7cfb6416f0113b04181","602110864497cf011d9c0822","0","j","NA","space","space","space","j","j","706","NA","1694","30644","4552","2471","706","2","legacy","1024","2","48000","-16","task","5203521","odd","NA","50491","54191","52496","195093","7529","42757","38188","195596","144210","195090","195597","195027","54191","196305","48713","194527","7471","175752","Lexical Decision Task","80","57775","82","yes","1024"
"3.100255637","0","6","brax","non-word","97.59036144578313","97.59036144578313","704.9036144578313","704.9036144578313","black","no","legacy","legacy","legacy","0","uniform","1","undefined","undefined","undefined","1","f","0","0","0","0","82","0","0","0","82","0","78","82","78","0","78","3","82","0","82","Wed Feb 17 11:45:21 2021","The main experiment item","yes","Lexical_Decision_Task.osexp","/Users/nicky/Documents/University/Year Two/Semester Two/Cognition and language","no","Andale Mono","no","18","no","white","no","yes","576","legacy","78","78","3","/Users/nicky/Documents/University/Year Two/Semester Two/Cognition and language/subject-5203521.csv","legacy","Lentiform Loewenfeld","3.3.7","yes","yes","600bd7cfb6416f0113b04181","602110864497cf011d9c0822","0","f","NA","space","space","space","j","f","732","NA","1694","30644","4552","2471","732","2","legacy","1024","2","48000","-16","task","5203521","odd","NA","50491","54191","52496","196875","7529","42757","38188","197378","144210","196872","197378","196808","54191","198111","48713","196308","7471","175752","Lexical Decision Task","81","58507","83","yes","1024"
"3.068433376","8.09","2","bulb","word","97.61904761904762","97.61904761904762","704.6309523809524","704.6309523809524","black","no","legacy","legacy","legacy","0","uniform","1","undefined","undefined","undefined","1","j","0","0","0","0","83","0","0","0","83","0","79","83","79","0","79","3","83","0","83","Wed Feb 17 11:45:21 2021","The main experiment item","yes","Lexical_Decision_Task.osexp","/Users/nicky/Documents/University/Year Two/Semester Two/Cognition and language","no","Andale Mono","no","18","no","white","no","yes","576","legacy","79","79","3","/Users/nicky/Documents/University/Year Two/Semester Two/Cognition and language/subject-5203521.csv","legacy","Lentiform Loewenfeld","3.3.7","yes","yes","600bd7cfb6416f0113b04181","602110864497cf011d9c0822","0","j","NA","space","space","space","j","j","682","NA","1694","30644","4552","2471","682","2","legacy","1024","2","48000","-16","task","5203521","odd","NA","50491","54191","52496","198683","7529","42757","38188","199186","144210","198680","199187","198614","54191","199870","48713","198114","7471","175752","Lexical Decision Task","82","59189","84","yes","1024"
"3.168400243","9.12","6","horn","word","97.6470588235294","97.6470588235294","704.964705882353","704.964705882353","black","no","legacy","legacy","legacy","0","uniform","1","undefined","undefined","undefined","1","j","0","0","0","0","84","0","0","0","84","0","80","84","80","0","80","3","84","0","84","Wed Feb 17 11:45:21 2021","The main experiment item","yes","Lexical_Decision_Task.osexp","/Users/nicky/Documents/University/Year Two/Semester Two/Cognition and language","no","Andale Mono","no","18","no","white","no","yes","576","legacy","80","80","3","/Users/nicky/Documents/University/Year Two/Semester Two/Cognition and language/subject-5203521.csv","legacy","Lentiform Loewenfeld","3.3.7","yes","yes","600bd7cfb6416f0113b04181","602110864497cf011d9c0822","0","j","NA","space","space","space","j","j","733","NA","1694","30644","4552","2471","733","2","legacy","1024","2","48000","-16","task","5203521","odd","NA","50491","54191","52496","200439","7529","42757","38188","200942","144210","200437","200943","200374","54191","201677","48713","199874","7471","175752","Lexical Decision Task","83","59922","85","yes","1024"
"2.708989954","9.28","9","bowl","word","97.67441860465117","97.67441860465117","706.1395348837209","706.1395348837209","black","no","legacy","legacy","legacy","0","uniform","1","undefined","undefined","undefined","1","j","0","0","0","0","85","0","0","0","85","0","81","85","81","0","81","3","85","0","85","Wed Feb 17 11:45:21 2021","The main experiment item","yes","Lexical_Decision_Task.osexp","/Users/nicky/Documents/University/Year Two/Semester Two/Cognition and language","no","Andale Mono","no","18","no","white","no","yes","576","legacy","81","81","3","/Users/nicky/Documents/University/Year Two/Semester Two/Cognition and language/subject-5203521.csv","legacy","Lentiform Loewenfeld","3.3.7","yes","yes","600bd7cfb6416f0113b04181","602110864497cf011d9c0822","0","j","NA","space","space","space","j","j","806","NA","1694","30644","4552","2471","806","2","legacy","1024","2","48000","-16","task","5203521","odd","NA","50491","54191","52496","202247","7529","42757","38188","202751","144210","202244","202751","202180","54191","203558","48713","201680","7471","175752","Lexical Decision Task","84","60728","86","yes","1024"
"2.807758206","6.25","4","hurl","word","97.70114942528735","97.70114942528735","708.0229885057471","708.0229885057471","black","no","legacy","legacy","legacy","0","uniform","1","undefined","undefined","undefined","1","j","0","0","0","0","86","0","0","0","86","0","82","86","82","0","82","3","86","0","86","Wed Feb 17 11:45:21 2021","The main experiment item","yes","Lexical_Decision_Task.osexp","/Users/nicky/Documents/University/Year Two/Semester Two/Cognition and language","no","Andale Mono","no","18","no","white","no","yes","576","legacy","82","82","3","/Users/nicky/Documents/University/Year Two/Semester Two/Cognition and language/subject-5203521.csv","legacy","Lentiform Loewenfeld","3.3.7","yes","yes","600bd7cfb6416f0113b04181","602110864497cf011d9c0822","0","j","NA","space","space","space","j","j","870","NA","1694","30644","4552","2471","870","2","legacy","1024","2","48000","-16","task","5203521","odd","NA","50491","54191","52496","204128","7529","42757","38188","204632","144210","204126","204633","204062","54191","205504","48713","203562","7471","175752","Lexical Decision Task","85","61598","87","yes","1024"
"3.043885998","0","9","gome","non-word","97.72727272727273","97.72727272727273","709.1931818181819","709.1931818181819","black","no","legacy","legacy","legacy","0","uniform","1","undefined","undefined","undefined","1","f","0","0","0","0","87","0","0","0","87","0","83","87","83","0","83","3","87","0","87","Wed Feb 17 11:45:21 2021","The main experiment item","yes","Lexical_Decision_Task.osexp","/Users/nicky/Documents/University/Year Two/Semester Two/Cognition and language","no","Andale Mono","no","18","no","white","no","yes","576","legacy","83","83","3","/Users/nicky/Documents/University/Year Two/Semester Two/Cognition and language/subject-5203521.csv","legacy","Lentiform Loewenfeld","3.3.7","yes","yes","600bd7cfb6416f0113b04181","602110864497cf011d9c0822","0","f","NA","space","space","space","j","f","811","NA","1694","30644","4552","2471","811","2","legacy","1024","2","48000","-16","task","5203521","odd","NA","50491","54191","52496","206074","7529","42757","38188","206577","144210","206071","206578","206007","54191","207390","48713","205507","7471","175752","Lexical Decision Task","86","62409","88","yes","1024"
"2.980306438","0","7","slun","non-word","97.75280898876404","97.75280898876404","710.3932584269663","710.3932584269663","black","no","legacy","legacy","legacy","0","uniform","1","undefined","undefined","undefined","1","f","0","0","0","0","88","0","0","0","88","0","84","88","84","0","84","3","88","0","88","Wed Feb 17 11:45:21 2021","The main experiment item","yes","Lexical_Decision_Task.osexp","/Users/nicky/Documents/University/Year Two/Semester Two/Cognition and language","no","Andale Mono","no","18","no","white","no","yes","576","legacy","84","84","3","/Users/nicky/Documents/University/Year Two/Semester Two/Cognition and language/subject-5203521.csv","legacy","Lentiform Loewenfeld","3.3.7","yes","yes","600bd7cfb6416f0113b04181","602110864497cf011d9c0822","0","f","NA","space","space","space","j","f","816","NA","1694","30644","4552","2471","816","2","legacy","1024","2","48000","-16","task","5203521","odd","NA","50491","54191","52496","207959","7529","42757","38188","208462","144210","207956","208463","207893","54191","209280","48713","207393","7471","175752","Lexical Decision Task","87","63225","89","yes","1024"
"3.076883066","0","8","mout","non-word","96.66666666666667","96.66666666666667","713.2","713.2","black","no","legacy","legacy","legacy","0","uniform","0","undefined","undefined","undefined","0","f","0","0","0","0","89","0","0","0","89","0","85","89","85","0","85","3","89","0","89","Wed Feb 17 11:45:21 2021","The main experiment item","yes","Lexical_Decision_Task.osexp","/Users/nicky/Documents/University/Year Two/Semester Two/Cognition and language","no","Andale Mono","no","18","no","white","no","yes","576","legacy","85","85","3","/Users/nicky/Documents/University/Year Two/Semester Two/Cognition and language/subject-5203521.csv","legacy","Lentiform Loewenfeld","3.3.7","yes","yes","600bd7cfb6416f0113b04181","602110864497cf011d9c0822","0","j","NA","space","space","space","j","j","963","NA","1694","30644","4552","2471","963","2","legacy","1024","2","48000","-16","task","5203521","odd","NA","50491","54191","52496","209850","7529","42757","38188","210354","144210","209847","210354","209783","54191","211318","48713","209283","7471","175752","Lexical Decision Task","87","64188","90","yes","1024"
"3.368162872","0","4","ferk","non-word","96.7032967032967","96.7032967032967","716.1098901098901","716.1098901098901","black","no","legacy","legacy","legacy","0","uniform","1","undefined","undefined","undefined","1","f","0","0","0","0","90","0","0","0","90","0","86","90","86","0","86","3","90","0","90","Wed Feb 17 11:45:21 2021","The main experiment item","yes","Lexical_Decision_Task.osexp","/Users/nicky/Documents/University/Year Two/Semester Two/Cognition and language","no","Andale Mono","no","18","no","white","no","yes","576","legacy","86","86","3","/Users/nicky/Documents/University/Year Two/Semester Two/Cognition and language/subject-5203521.csv","legacy","Lentiform Loewenfeld","3.3.7","yes","yes","600bd7cfb6416f0113b04181","602110864497cf011d9c0822","0","f","NA","space","space","space","j","f","978","NA","1694","30644","4552","2471","978","2","legacy","1024","2","48000","-16","task","5203521","odd","NA","50491","54191","52496","212890","7529","42757","38188","213394","144210","212888","213395","212822","54191","214374","48713","209283","7471","211322","Lexical Decision Task","88","65166","91","yes","1024"
