"Log_BG","Log_Freq_HAL","Ortho_N","Stimulus","Type","acc","accuracy","average_response_time","avg_rt","background","bidi","canvas_backend","clock_backend","color_backend","compensation","coordinates","correct","correct_Experimental_intro","correct_Introduction","correct_Practice_intro","correct_experimenter_kb","correct_response","count_End_Of_Experiment","count_End_Of_Practice","count_Experimental_Loop","count_Experimental_intro","count_Fixation","count_Introduction","count_Practice_Loop","count_Practice_intro","count_Stimulus","count_block_break_feedback","count_experimental_sequence","count_experimenter_kb","count_increment_trial_count","count_init_trial_count","count_logger","count_practice_sequence","count_right","count_task","count_wrong","datetime","description","disable_garbage_collection","experiment_file","experiment_path","font_bold","font_family","font_italic","font_size","font_underline","foreground","form_clicks","fullscreen","height","keyboard_backend","live_row","live_row_Experimental_Loop","live_row_Practice_Loop","logfile","mouse_backend","opensesame_codename","opensesame_version","osf_always_upload_data","osf_always_upload_experiment","osf_datanode_id","osf_id","repeat_cycle","response","response_End_Of_Experiment","response_Experimental_intro","response_Introduction","response_Practice_intro","response_block_break_feedback","response_experimenter_kb","response_time","response_time_End_Of_Experiment","response_time_Experimental_intro","response_time_Introduction","response_time_Practice_intro","response_time_block_break_feedback","response_time_experimenter_kb","round_decimals","sampler_backend","sound_buf_size","sound_channels","sound_freq","sound_sample_size","start","subject_nr","subject_parity","time_End_Of_Experiment","time_End_Of_Practice","time_Experimental_Loop","time_Experimental_intro","time_Fixation","time_Introduction","time_Practice_Loop","time_Practice_intro","time_Stimulus","time_block_break_feedback","time_experimental_sequence","time_experimenter_kb","time_increment_trial_count","time_init_trial_count","time_logger","time_practice_sequence","time_right","time_task","time_wrong","title","total_correct","total_response_time","total_responses","uniform_coordinates","width"
"2.616654026","9.37","5","gift","word","100","100","777.4","777.4","black","no","legacy","legacy","legacy","0","uniform","1","undefined","undefined","undefined","1","j","0","0","0","0","4","0","0","0","4","NA","0","4","0","0","0","3","4","0","4","Fri Feb 19 11:40:42 2021","The main experiment item","yes","Lexical_Decision_Task.osexp","C:/Users/tessa","no","Andale Mono","no","18","no","white","no","yes","576","legacy","0","0","3","C:/Users/tessa/subject-5223282.csv","legacy","Lentiform Loewenfeld","3.3.7","yes","yes","600bd7cfb6416f0113b04181","602110864497cf011d9c0822","0","j","NA","space","space","space","NA","j","859","NA","43","6331","17748","NA","859","2","legacy","1024","2","48000","-16","task","5223282","even","NA","39198","41247","41202","41449","7122","31205","13457","41954","NA","41443","41954","NA","41247","42813","37523","38632","7106","NA","Lexical Decision Task","5","3887","5","yes","1024"
"3.15462682","0","6","noal","non-word","100","100","759.6666666666666","759.6666666666666","black","no","legacy","legacy","legacy","0","uniform","1","undefined","undefined","undefined","1","f","0","0","0","0","5","0","0","0","5","NA","1","5","1","0","1","3","5","0","5","Fri Feb 19 11:40:42 2021","The main experiment item","yes","Lexical_Decision_Task.osexp","C:/Users/tessa","no","Andale Mono","no","18","no","white","no","yes","576","legacy","1","1","3","C:/Users/tessa/subject-5223282.csv","legacy","Lentiform Loewenfeld","3.3.7","yes","yes","600bd7cfb6416f0113b04181","602110864497cf011d9c0822","0","f","NA","space","space","space","NA","f","671","NA","43","6331","17748","NA","671","2","legacy","1024","2","48000","-16","task","5223282","even","NA","39198","41247","41202","43605","7122","31205","13457","44109","NA","43599","44110","43344","41247","44782","37523","42844","7106","NA","Lexical Decision Task","6","4558","6","yes","1024"
"2.576725172","0","8","gowl","non-word","100","100","756.7142857142857","756.7142857142857","black","no","legacy","legacy","legacy","0","uniform","1","undefined","undefined","undefined","1","f","0","0","0","0","6","0","0","0","6","NA","2","6","2","0","2","3","6","0","6","Fri Feb 19 11:40:42 2021","The main experiment item","yes","Lexical_Decision_Task.osexp","C:/Users/tessa","no","Andale Mono","no","18","no","white","no","yes","576","legacy","2","2","3","C:/Users/tessa/subject-5223282.csv","legacy","Lentiform Loewenfeld","3.3.7","yes","yes","600bd7cfb6416f0113b04181","602110864497cf011d9c0822","0","f","NA","space","space","space","NA","f","739","NA","43","6331","17748","NA","739","2","legacy","1024","2","48000","-16","task","5223282","even","NA","39198","41247","41202","45465","7122","31205","13457","45970","NA","45463","45970","45291","41247","46710","37523","44791","7106","NA","Lexical Decision Task","7","5297","7","yes","1024"
"2.714888338","0","3","brug","non-word","100","100","768.125","768.125","black","no","legacy","legacy","legacy","0","uniform","1","undefined","undefined","undefined","1","f","0","0","0","0","7","0","0","0","7","NA","3","7","3","0","3","3","7","0","7","Fri Feb 19 11:40:42 2021","The main experiment item","yes","Lexical_Decision_Task.osexp","C:/Users/tessa","no","Andale Mono","no","18","no","white","no","yes","576","legacy","3","3","3","C:/Users/tessa/subject-5223282.csv","legacy","Lentiform Loewenfeld","3.3.7","yes","yes","600bd7cfb6416f0113b04181","602110864497cf011d9c0822","0","f","NA","space","space","space","NA","f","848","NA","43","6331","17748","NA","848","2","legacy","1024","2","48000","-16","task","5223282","even","NA","39198","41247","41202","47458","7122","31205","13457","47964","NA","47453","47965","47221","41247","48814","37523","46721","7106","NA","Lexical Decision Task","8","6145","8","yes","1024"
"2.971428938","9.86","7","spot","word","100","100","742.4444444444445","742.4444444444445","black","no","legacy","legacy","legacy","0","uniform","1","undefined","undefined","undefined","1","j","0","0","0","0","8","0","0","0","8","NA","4","8","4","0","4","3","8","0","8","Fri Feb 19 11:40:42 2021","The main experiment item","yes","Lexical_Decision_Task.osexp","C:/Users/tessa","no","Andale Mono","no","18","no","white","no","yes","576","legacy","4","4","3","C:/Users/tessa/subject-5223282.csv","legacy","Lentiform Loewenfeld","3.3.7","yes","yes","600bd7cfb6416f0113b04181","602110864497cf011d9c0822","0","j","NA","space","space","space","NA","j","537","NA","43","6331","17748","NA","537","2","legacy","1024","2","48000","-16","task","5223282","even","NA","39198","41247","41202","49571","7122","31205","13457","50075","NA","49564","50076","49331","41247","50615","37523","48830","7106","NA","Lexical Decision Task","9","6682","9","yes","1024"
"2.845304797","0","6","buct","non-word","100","100","734.1","734.1","black","no","legacy","legacy","legacy","0","uniform","1","undefined","undefined","undefined","1","f","0","0","0","0","9","0","0","0","9","NA","5","9","5","0","5","3","9","0","9","Fri Feb 19 11:40:42 2021","The main experiment item","yes","Lexical_Decision_Task.osexp","C:/Users/tessa","no","Andale Mono","no","18","no","white","no","yes","576","legacy","5","5","3","C:/Users/tessa/subject-5223282.csv","legacy","Lentiform Loewenfeld","3.3.7","yes","yes","600bd7cfb6416f0113b04181","602110864497cf011d9c0822","0","f","NA","space","space","space","NA","f","659","NA","43","6331","17748","NA","659","2","legacy","1024","2","48000","-16","task","5223282","even","NA","39198","41247","41202","51377","7122","31205","13457","51881","NA","51370","51882","51137","41247","52542","37523","50637","7106","NA","Lexical Decision Task","10","7341","10","yes","1024"
"2.86332286","6.71","2","feud","word","100","100","738.1818181818181","738.1818181818181","black","no","legacy","legacy","legacy","0","uniform","1","undefined","undefined","undefined","1","j","0","0","0","0","10","0","0","0","10","NA","6","10","6","0","6","3","10","0","10","Fri Feb 19 11:40:42 2021","The main experiment item","yes","Lexical_Decision_Task.osexp","C:/Users/tessa","no","Andale Mono","no","18","no","white","no","yes","576","legacy","6","6","3","C:/Users/tessa/subject-5223282.csv","legacy","Lentiform Loewenfeld","3.3.7","yes","yes","600bd7cfb6416f0113b04181","602110864497cf011d9c0822","0","j","NA","space","space","space","NA","j","779","NA","43","6331","17748","NA","779","2","legacy","1024","2","48000","-16","task","5223282","even","NA","39198","41247","41202","53184","7122","31205","13457","53690","NA","53181","53690","53058","41247","54470","37523","52558","7106","NA","Lexical Decision Task","11","8120","11","yes","1024"
"2.9737419","7.69","7","claw","word","100","100","735.6666666666666","735.6666666666666","black","no","legacy","legacy","legacy","0","uniform","1","undefined","undefined","undefined","1","j","0","0","0","0","11","0","0","0","11","NA","7","11","7","0","7","3","11","0","11","Fri Feb 19 11:40:42 2021","The main experiment item","yes","Lexical_Decision_Task.osexp","C:/Users/tessa","no","Andale Mono","no","18","no","white","no","yes","576","legacy","7","7","3","C:/Users/tessa/subject-5223282.csv","legacy","Lentiform Loewenfeld","3.3.7","yes","yes","600bd7cfb6416f0113b04181","602110864497cf011d9c0822","0","j","NA","space","space","space","NA","j","708","NA","43","6331","17748","NA","708","2","legacy","1024","2","48000","-16","task","5223282","even","NA","39198","41247","41202","55169","7122","31205","13457","55673","NA","55166","55673","54989","41247","56382","37523","54489","7106","NA","Lexical Decision Task","12","8828","12","yes","1024"
"2.996511672","0","7","hoil","non-word","100","100","738.2307692307693","738.2307692307693","black","no","legacy","legacy","legacy","0","uniform","1","undefined","undefined","undefined","1","f","0","0","0","0","12","0","0","0","12","NA","8","12","8","0","8","3","12","0","12","Fri Feb 19 11:40:42 2021","The main experiment item","yes","Lexical_Decision_Task.osexp","C:/Users/tessa","no","Andale Mono","no","18","no","white","no","yes","576","legacy","8","8","3","C:/Users/tessa/subject-5223282.csv","legacy","Lentiform Loewenfeld","3.3.7","yes","yes","600bd7cfb6416f0113b04181","602110864497cf011d9c0822","0","f","NA","space","space","space","NA","f","769","NA","43","6331","17748","NA","769","2","legacy","1024","2","48000","-16","task","5223282","even","NA","39198","41247","41202","57067","7122","31205","13457","57571","NA","57064","57572","56900","41247","58342","37523","56400","7106","NA","Lexical Decision Task","13","9597","13","yes","1024"
"3.137775856","7.39","5","comb","word","100","100","730.3571428571429","730.3571428571429","black","no","legacy","legacy","legacy","0","uniform","1","undefined","undefined","undefined","1","j","0","0","0","0","13","0","0","0","13","NA","9","13","9","0","9","3","13","0","13","Fri Feb 19 11:40:42 2021","The main experiment item","yes","Lexical_Decision_Task.osexp","C:/Users/tessa","no","Andale Mono","no","18","no","white","no","yes","576","legacy","9","9","3","C:/Users/tessa/subject-5223282.csv","legacy","Lentiform Loewenfeld","3.3.7","yes","yes","600bd7cfb6416f0113b04181","602110864497cf011d9c0822","0","j","NA","space","space","space","NA","j","628","NA","43","6331","17748","NA","628","2","legacy","1024","2","48000","-16","task","5223282","even","NA","39198","41247","41202","59089","7122","31205","13457","59593","NA","59086","59593","58853","41247","60223","37523","58353","7106","NA","Lexical Decision Task","14","10225","14","yes","1024"
"3.064581521","5.51","6","cask","word","100","100","742","742","black","no","legacy","legacy","legacy","0","uniform","1","undefined","undefined","undefined","1","j","0","0","0","0","14","0","0","0","14","NA","10","14","10","0","10","3","14","0","14","Fri Feb 19 11:40:42 2021","The main experiment item","yes","Lexical_Decision_Task.osexp","C:/Users/tessa","no","Andale Mono","no","18","no","white","no","yes","576","legacy","10","10","3","C:/Users/tessa/subject-5223282.csv","legacy","Lentiform Loewenfeld","3.3.7","yes","yes","600bd7cfb6416f0113b04181","602110864497cf011d9c0822","0","j","NA","space","space","space","NA","j","905","NA","43","6331","17748","NA","905","2","legacy","1024","2","48000","-16","task","5223282","even","NA","39198","41247","41202","60978","7122","31205","13457","61483","NA","60972","61483","60739","41247","62389","37523","60239","7106","NA","Lexical Decision Task","15","11130","15","yes","1024"
"2.986323777","10.85","8","ship","word","100","100","734.625","734.625","black","no","legacy","legacy","legacy","0","uniform","1","undefined","undefined","undefined","1","j","0","0","0","0","15","0","0","0","15","NA","11","15","11","0","11","3","15","0","15","Fri Feb 19 11:40:42 2021","The main experiment item","yes","Lexical_Decision_Task.osexp","C:/Users/tessa","no","Andale Mono","no","18","no","white","no","yes","576","legacy","11","11","3","C:/Users/tessa/subject-5223282.csv","legacy","Lentiform Loewenfeld","3.3.7","yes","yes","600bd7cfb6416f0113b04181","602110864497cf011d9c0822","0","j","NA","space","space","space","NA","j","624","NA","43","6331","17748","NA","624","2","legacy","1024","2","48000","-16","task","5223282","even","NA","39198","41247","41202","63108","7122","31205","13457","63613","NA","63105","63613","62907","41247","64238","37523","62407","7106","NA","Lexical Decision Task","16","11754","16","yes","1024"
"3.149629599","0","2","cleb","non-word","100","100","729.4705882352941","729.4705882352941","black","no","legacy","legacy","legacy","0","uniform","1","undefined","undefined","undefined","1","f","0","0","0","0","16","0","0","0","16","NA","12","16","12","0","12","3","16","0","16","Fri Feb 19 11:40:42 2021","The main experiment item","yes","Lexical_Decision_Task.osexp","C:/Users/tessa","no","Andale Mono","no","18","no","white","no","yes","576","legacy","12","12","3","C:/Users/tessa/subject-5223282.csv","legacy","Lentiform Loewenfeld","3.3.7","yes","yes","600bd7cfb6416f0113b04181","602110864497cf011d9c0822","0","f","NA","space","space","space","NA","f","647","NA","43","6331","17748","NA","647","2","legacy","1024","2","48000","-16","task","5223282","even","NA","39198","41247","41202","64997","7122","31205","13457","65501","NA","64992","65502","64755","41247","66150","37523","64255","7106","NA","Lexical Decision Task","17","12401","17","yes","1024"
"3.159867847","5.98","5","brim","word","100","100","734.6666666666666","734.6666666666666","black","no","legacy","legacy","legacy","0","uniform","1","undefined","undefined","undefined","1","j","0","0","0","0","17","0","0","0","17","NA","13","17","13","0","13","3","17","0","17","Fri Feb 19 11:40:42 2021","The main experiment item","yes","Lexical_Decision_Task.osexp","C:/Users/tessa","no","Andale Mono","no","18","no","white","no","yes","576","legacy","13","13","3","C:/Users/tessa/subject-5223282.csv","legacy","Lentiform Loewenfeld","3.3.7","yes","yes","600bd7cfb6416f0113b04181","602110864497cf011d9c0822","0","j","NA","space","space","space","NA","j","823","NA","43","6331","17748","NA","823","2","legacy","1024","2","48000","-16","task","5223282","even","NA","39198","41247","41202","66892","7122","31205","13457","67398","NA","66886","67398","66657","41247","68221","37523","66157","7106","NA","Lexical Decision Task","18","13224","18","yes","1024"
"3.094121596","0","8","fode","non-word","100","100","732.578947368421","732.578947368421","black","no","legacy","legacy","legacy","0","uniform","1","undefined","undefined","undefined","1","f","0","0","0","0","18","0","0","0","18","NA","14","18","14","0","14","3","18","0","18","Fri Feb 19 11:40:42 2021","The main experiment item","yes","Lexical_Decision_Task.osexp","C:/Users/tessa","no","Andale Mono","no","18","no","white","no","yes","576","legacy","14","14","3","C:/Users/tessa/subject-5223282.csv","legacy","Lentiform Loewenfeld","3.3.7","yes","yes","600bd7cfb6416f0113b04181","602110864497cf011d9c0822","0","f","NA","space","space","space","NA","f","695","NA","43","6331","17748","NA","695","2","legacy","1024","2","48000","-16","task","5223282","even","NA","39198","41247","41202","68973","7122","31205","13457","69477","NA","68967","69478","68739","41247","70175","37523","68239","7106","NA","Lexical Decision Task","19","13919","19","yes","1024"
"3.062080345","0","6","tomp","non-word","100","100","730.4","730.4","black","no","legacy","legacy","legacy","0","uniform","1","undefined","undefined","undefined","1","f","0","0","0","0","19","0","0","0","19","NA","15","19","15","0","15","3","19","0","19","Fri Feb 19 11:40:42 2021","The main experiment item","yes","Lexical_Decision_Task.osexp","C:/Users/tessa","no","Andale Mono","no","18","no","white","no","yes","576","legacy","15","15","3","C:/Users/tessa/subject-5223282.csv","legacy","Lentiform Loewenfeld","3.3.7","yes","yes","600bd7cfb6416f0113b04181","602110864497cf011d9c0822","0","f","NA","space","space","space","NA","f","689","NA","43","6331","17748","NA","689","2","legacy","1024","2","48000","-16","task","5223282","even","NA","39198","41247","41202","70851","7122","31205","13457","71355","NA","70847","71356","70688","41247","72046","37523","70188","7106","NA","Lexical Decision Task","20","14608","20","yes","1024"
"3.088136089","8.32","9","worm","word","100","100","724.952380952381","724.952380952381","black","no","legacy","legacy","legacy","0","uniform","1","undefined","undefined","undefined","1","j","0","0","0","0","20","0","0","0","20","NA","16","20","16","0","16","3","20","0","20","Fri Feb 19 11:40:42 2021","The main experiment item","yes","Lexical_Decision_Task.osexp","C:/Users/tessa","no","Andale Mono","no","18","no","white","no","yes","576","legacy","16","16","3","C:/Users/tessa/subject-5223282.csv","legacy","Lentiform Loewenfeld","3.3.7","yes","yes","600bd7cfb6416f0113b04181","602110864497cf011d9c0822","0","j","NA","space","space","space","NA","j","616","NA","43","6331","17748","NA","616","2","legacy","1024","2","48000","-16","task","5223282","even","NA","39198","41247","41202","72716","7122","31205","13457","73221","NA","72712","73221","72557","41247","73839","37523","72057","7106","NA","Lexical Decision Task","21","15224","21","yes","1024"
"2.8162413","0","5","nusk","non-word","100","100","720.5454545454545","720.5454545454545","black","no","legacy","legacy","legacy","0","uniform","1","undefined","undefined","undefined","1","f","0","0","0","0","21","0","0","0","21","NA","17","21","17","0","17","3","21","0","21","Fri Feb 19 11:40:42 2021","The main experiment item","yes","Lexical_Decision_Task.osexp","C:/Users/tessa","no","Andale Mono","no","18","no","white","no","yes","576","legacy","17","17","3","C:/Users/tessa/subject-5223282.csv","legacy","Lentiform Loewenfeld","3.3.7","yes","yes","600bd7cfb6416f0113b04181","602110864497cf011d9c0822","0","f","NA","space","space","space","NA","f","628","NA","43","6331","17748","NA","628","2","legacy","1024","2","48000","-16","task","5223282","even","NA","39198","41247","41202","74600","7122","31205","13457","75104","NA","74595","75104","74363","41247","75733","37523","73862","7106","NA","Lexical Decision Task","22","15852","22","yes","1024"
"3.440331212","7.35","6","stew","word","100","100","717.0434782608696","717.0434782608696","black","no","legacy","legacy","legacy","0","uniform","1","undefined","undefined","undefined","1","j","0","0","0","0","22","0","0","0","22","NA","18","22","18","0","18","3","22","0","22","Fri Feb 19 11:40:42 2021","The main experiment item","yes","Lexical_Decision_Task.osexp","C:/Users/tessa","no","Andale Mono","no","18","no","white","no","yes","576","legacy","18","18","3","C:/Users/tessa/subject-5223282.csv","legacy","Lentiform Loewenfeld","3.3.7","yes","yes","600bd7cfb6416f0113b04181","602110864497cf011d9c0822","0","j","NA","space","space","space","NA","j","640","NA","43","6331","17748","NA","640","2","legacy","1024","2","48000","-16","task","5223282","even","NA","39198","41247","41202","76500","7122","31205","13457","77004","NA","76497","77005","76252","41247","77646","37523","75752","7106","NA","Lexical Decision Task","23","16492","23","yes","1024"
"3.081107167","0","6","chot","non-word","100","100","716.7083333333334","716.7083333333334","black","no","legacy","legacy","legacy","0","uniform","1","undefined","undefined","undefined","1","f","0","0","0","0","23","0","0","0","23","NA","19","23","19","0","19","3","23","0","23","Fri Feb 19 11:40:42 2021","The main experiment item","yes","Lexical_Decision_Task.osexp","C:/Users/tessa","no","Andale Mono","no","18","no","white","no","yes","576","legacy","19","19","3","C:/Users/tessa/subject-5223282.csv","legacy","Lentiform Loewenfeld","3.3.7","yes","yes","600bd7cfb6416f0113b04181","602110864497cf011d9c0822","0","f","NA","space","space","space","NA","f","709","NA","43","6331","17748","NA","709","2","legacy","1024","2","48000","-16","task","5223282","even","NA","39198","41247","41202","78405","7122","31205","13457","78910","NA","78399","78911","78158","41247","79621","37523","77658","7106","NA","Lexical Decision Task","24","17201","24","yes","1024"
"2.6599162","0","2","saff","non-word","100","100","732.12","732.12","black","no","legacy","legacy","legacy","0","uniform","1","undefined","undefined","undefined","1","f","0","0","0","0","24","0","0","0","24","NA","20","24","20","0","20","3","24","0","24","Fri Feb 19 11:40:42 2021","The main experiment item","yes","Lexical_Decision_Task.osexp","C:/Users/tessa","no","Andale Mono","no","18","no","white","no","yes","576","legacy","20","20","3","C:/Users/tessa/subject-5223282.csv","legacy","Lentiform Loewenfeld","3.3.7","yes","yes","600bd7cfb6416f0113b04181","602110864497cf011d9c0822","0","f","NA","space","space","space","NA","f","1102","NA","43","6331","17748","NA","1102","2","legacy","1024","2","48000","-16","task","5223282","even","NA","39198","41247","41202","80334","7122","31205","13457","80838","NA","80331","80839","80139","41247","81941","37523","79639","7106","NA","Lexical Decision Task","25","18303","25","yes","1024"
"3.105055783","0","2","norp","non-word","100","100","730.1923076923077","730.1923076923077","black","no","legacy","legacy","legacy","0","uniform","1","undefined","undefined","undefined","1","f","0","0","0","0","25","0","0","0","25","NA","21","25","21","0","21","3","25","0","25","Fri Feb 19 11:40:42 2021","The main experiment item","yes","Lexical_Decision_Task.osexp","C:/Users/tessa","no","Andale Mono","no","18","no","white","no","yes","576","legacy","21","21","3","C:/Users/tessa/subject-5223282.csv","legacy","Lentiform Loewenfeld","3.3.7","yes","yes","600bd7cfb6416f0113b04181","602110864497cf011d9c0822","0","f","NA","space","space","space","NA","f","682","NA","43","6331","17748","NA","682","2","legacy","1024","2","48000","-16","task","5223282","even","NA","39198","41247","41202","82666","7122","31205","13457","83170","NA","82660","83171","82460","41247","83855","37523","81960","7106","NA","Lexical Decision Task","26","18985","26","yes","1024"
"2.746890964","9.67","3","plug","word","100","100","727.8518518518518","727.8518518518518","black","no","legacy","legacy","legacy","0","uniform","1","undefined","undefined","undefined","1","j","0","0","0","0","26","0","0","0","26","NA","22","26","22","0","22","3","26","0","26","Fri Feb 19 11:40:42 2021","The main experiment item","yes","Lexical_Decision_Task.osexp","C:/Users/tessa","no","Andale Mono","no","18","no","white","no","yes","576","legacy","22","22","3","C:/Users/tessa/subject-5223282.csv","legacy","Lentiform Loewenfeld","3.3.7","yes","yes","600bd7cfb6416f0113b04181","602110864497cf011d9c0822","0","j","NA","space","space","space","NA","j","667","NA","43","6331","17748","NA","667","2","legacy","1024","2","48000","-16","task","5223282","even","NA","39198","41247","41202","84585","7122","31205","13457","85089","NA","84581","85090","84375","41247","85759","37523","83875","7106","NA","Lexical Decision Task","27","19652","27","yes","1024"
"2.793790385","5.67","9","swab","word","100","100","729.4285714285714","729.4285714285714","black","no","legacy","legacy","legacy","0","uniform","1","undefined","undefined","undefined","1","j","0","0","0","0","27","0","0","0","27","NA","23","27","23","0","23","3","27","0","27","Fri Feb 19 11:40:42 2021","The main experiment item","yes","Lexical_Decision_Task.osexp","C:/Users/tessa","no","Andale Mono","no","18","no","white","no","yes","576","legacy","23","23","3","C:/Users/tessa/subject-5223282.csv","legacy","Lentiform Loewenfeld","3.3.7","yes","yes","600bd7cfb6416f0113b04181","602110864497cf011d9c0822","0","j","NA","space","space","space","NA","j","772","NA","43","6331","17748","NA","772","2","legacy","1024","2","48000","-16","task","5223282","even","NA","39198","41247","41202","86489","7122","31205","13457","86993","NA","86486","86993","86283","41247","87767","37523","85782","7106","NA","Lexical Decision Task","28","20424","28","yes","1024"
"3.529815197","0","3","lerm","non-word","100","100","725.5862068965517","725.5862068965517","black","no","legacy","legacy","legacy","0","uniform","1","undefined","undefined","undefined","1","f","0","0","0","0","28","0","0","0","28","NA","24","28","24","0","24","3","28","0","28","Fri Feb 19 11:40:42 2021","The main experiment item","yes","Lexical_Decision_Task.osexp","C:/Users/tessa","no","Andale Mono","no","18","no","white","no","yes","576","legacy","24","24","3","C:/Users/tessa/subject-5223282.csv","legacy","Lentiform Loewenfeld","3.3.7","yes","yes","600bd7cfb6416f0113b04181","602110864497cf011d9c0822","0","f","NA","space","space","space","NA","f","618","NA","43","6331","17748","NA","618","2","legacy","1024","2","48000","-16","task","5223282","even","NA","39198","41247","41202","88521","7122","31205","13457","89027","NA","88515","89027","88287","41247","89646","37523","87787","7106","NA","Lexical Decision Task","29","21042","29","yes","1024"
"2.695481676","0","7","goke","non-word","100","100","724.5666666666667","724.5666666666667","black","no","legacy","legacy","legacy","0","uniform","1","undefined","undefined","undefined","1","f","0","0","0","0","29","0","0","0","29","NA","25","29","25","0","25","3","29","0","29","Fri Feb 19 11:40:42 2021","The main experiment item","yes","Lexical_Decision_Task.osexp","C:/Users/tessa","no","Andale Mono","no","18","no","white","no","yes","576","legacy","25","25","3","C:/Users/tessa/subject-5223282.csv","legacy","Lentiform Loewenfeld","3.3.7","yes","yes","600bd7cfb6416f0113b04181","602110864497cf011d9c0822","0","f","NA","space","space","space","NA","f","695","NA","43","6331","17748","NA","695","2","legacy","1024","2","48000","-16","task","5223282","even","NA","39198","41247","41202","90357","7122","31205","13457","90862","NA","90354","90862","90168","41247","91558","37523","89668","7106","NA","Lexical Decision Task","30","21737","30","yes","1024"
"2.695770526","7.34","6","pawn","word","100","100","721.7741935483871","721.7741935483871","black","no","legacy","legacy","legacy","0","uniform","1","undefined","undefined","undefined","1","j","0","0","0","0","30","0","0","0","30","NA","26","30","26","0","26","3","30","0","30","Fri Feb 19 11:40:42 2021","The main experiment item","yes","Lexical_Decision_Task.osexp","C:/Users/tessa","no","Andale Mono","no","18","no","white","no","yes","576","legacy","26","26","3","C:/Users/tessa/subject-5223282.csv","legacy","Lentiform Loewenfeld","3.3.7","yes","yes","600bd7cfb6416f0113b04181","602110864497cf011d9c0822","0","j","NA","space","space","space","NA","j","638","NA","43","6331","17748","NA","638","2","legacy","1024","2","48000","-16","task","5223282","even","NA","39198","41247","41202","92302","7122","31205","13457","92806","NA","92297","92807","92076","41247","93446","37523","91576","7106","NA","Lexical Decision Task","31","22375","31","yes","1024"
"2.809559715","8.44","4","volt","word","100","100","723.5","723.5","black","no","legacy","legacy","legacy","0","uniform","1","undefined","undefined","undefined","1","j","0","0","0","0","31","0","0","0","31","NA","27","31","27","0","27","3","31","0","31","Fri Feb 19 11:40:42 2021","The main experiment item","yes","Lexical_Decision_Task.osexp","C:/Users/tessa","no","Andale Mono","no","18","no","white","no","yes","576","legacy","27","27","3","C:/Users/tessa/subject-5223282.csv","legacy","Lentiform Loewenfeld","3.3.7","yes","yes","600bd7cfb6416f0113b04181","602110864497cf011d9c0822","0","j","NA","space","space","space","NA","j","777","NA","43","6331","17748","NA","777","2","legacy","1024","2","48000","-16","task","5223282","even","NA","39198","41247","41202","94154","7122","31205","13457","94660","NA","94150","94660","93955","41247","95438","37523","93455","7106","NA","Lexical Decision Task","32","23152","32","yes","1024"
"2.767650507","0","6","yolt","non-word","96.96969696969697","96.96969696969697","723.939393939394","723.939393939394","black","no","legacy","legacy","legacy","0","uniform","0","undefined","undefined","undefined","0","f","0","0","0","0","32","0","0","0","32","NA","28","32","28","0","28","3","32","0","32","Fri Feb 19 11:40:42 2021","The main experiment item","yes","Lexical_Decision_Task.osexp","C:/Users/tessa","no","Andale Mono","no","18","no","white","no","yes","576","legacy","28","28","3","C:/Users/tessa/subject-5223282.csv","legacy","Lentiform Loewenfeld","3.3.7","yes","yes","600bd7cfb6416f0113b04181","602110864497cf011d9c0822","0","j","NA","space","space","space","NA","j","738","NA","43","6331","17748","NA","738","2","legacy","1024","2","48000","-16","task","5223282","even","NA","39198","41247","41202","96177","7122","31205","13457","96681","NA","96172","96682","95948","41247","97422","37523","95448","7106","NA","Lexical Decision Task","32","23890","33","yes","1024"
"3.194328374","9.42","6","harm","word","97.05882352941177","97.05882352941177","722.2058823529412","722.2058823529412","black","no","legacy","legacy","legacy","0","uniform","1","undefined","undefined","undefined","1","j","0","0","0","0","33","0","0","0","33","NA","29","33","29","0","29","3","33","0","33","Fri Feb 19 11:40:42 2021","The main experiment item","yes","Lexical_Decision_Task.osexp","C:/Users/tessa","no","Andale Mono","no","18","no","white","no","yes","576","legacy","29","29","3","C:/Users/tessa/subject-5223282.csv","legacy","Lentiform Loewenfeld","3.3.7","yes","yes","600bd7cfb6416f0113b04181","602110864497cf011d9c0822","0","j","NA","space","space","space","NA","j","665","NA","43","6331","17748","NA","665","2","legacy","1024","2","48000","-16","task","5223282","even","NA","39198","41247","41202","99163","7122","31205","13457","99667","NA","99157","99668","98928","41247","100334","37523","95448","7106","97428","Lexical Decision Task","33","24555","34","yes","1024"
"3.316948329","0","1","besc","non-word","97.14285714285714","97.14285714285714","719.9428571428572","719.9428571428572","black","no","legacy","legacy","legacy","0","uniform","1","undefined","undefined","undefined","1","f","0","0","0","0","34","0","0","0","34","NA","30","34","30","0","30","3","34","0","34","Fri Feb 19 11:40:42 2021","The main experiment item","yes","Lexical_Decision_Task.osexp","C:/Users/tessa","no","Andale Mono","no","18","no","white","no","yes","576","legacy","30","30","3","C:/Users/tessa/subject-5223282.csv","legacy","Lentiform Loewenfeld","3.3.7","yes","yes","600bd7cfb6416f0113b04181","602110864497cf011d9c0822","0","f","NA","space","space","space","NA","f","643","NA","43","6331","17748","NA","643","2","legacy","1024","2","48000","-16","task","5223282","even","NA","39198","41247","41202","101089","7122","31205","13457","101594","NA","101083","101594","100850","41247","102240","37523","100350","7106","97428","Lexical Decision Task","34","25198","35","yes","1024"
"3.043885998","0","9","gome","non-word","97.22222222222223","97.22222222222223","724.6666666666666","724.6666666666666","black","no","legacy","legacy","legacy","0","uniform","1","undefined","undefined","undefined","1","f","0","0","0","0","35","0","0","0","35","NA","31","35","31","0","31","3","35","0","35","Fri Feb 19 11:40:42 2021","The main experiment item","yes","Lexical_Decision_Task.osexp","C:/Users/tessa","no","Andale Mono","no","18","no","white","no","yes","576","legacy","31","31","3","C:/Users/tessa/subject-5223282.csv","legacy","Lentiform Loewenfeld","3.3.7","yes","yes","600bd7cfb6416f0113b04181","602110864497cf011d9c0822","0","f","NA","space","space","space","NA","f","890","NA","43","6331","17748","NA","890","2","legacy","1024","2","48000","-16","task","5223282","even","NA","39198","41247","41202","102929","7122","31205","13457","103434","NA","102925","103435","102763","41247","104326","37523","102262","7106","97428","Lexical Decision Task","35","26088","36","yes","1024"
"2.82129731","6.72","5","plum","word","97.29729729729729","97.29729729729729","722.4054054054054","722.4054054054054","black","no","legacy","legacy","legacy","0","uniform","1","undefined","undefined","undefined","1","j","0","0","0","0","36","0","0","0","36","NA","32","36","32","0","32","3","36","0","36","Fri Feb 19 11:40:42 2021","The main experiment item","yes","Lexical_Decision_Task.osexp","C:/Users/tessa","no","Andale Mono","no","18","no","white","no","yes","576","legacy","32","32","3","C:/Users/tessa/subject-5223282.csv","legacy","Lentiform Loewenfeld","3.3.7","yes","yes","600bd7cfb6416f0113b04181","602110864497cf011d9c0822","0","j","NA","space","space","space","NA","j","641","NA","43","6331","17748","NA","641","2","legacy","1024","2","48000","-16","task","5223282","even","NA","39198","41247","41202","104987","7122","31205","13457","105491","NA","104984","105492","104844","41247","106135","37523","104343","7106","97428","Lexical Decision Task","36","26729","37","yes","1024"
"2.68604012","0","3","mulb","non-word","97.36842105263158","97.36842105263158","720.8157894736842","720.8157894736842","black","no","legacy","legacy","legacy","0","uniform","1","undefined","undefined","undefined","1","f","0","0","0","0","37","0","0","0","37","NA","33","37","33","0","33","3","37","0","37","Fri Feb 19 11:40:42 2021","The main experiment item","yes","Lexical_Decision_Task.osexp","C:/Users/tessa","no","Andale Mono","no","18","no","white","no","yes","576","legacy","33","33","3","C:/Users/tessa/subject-5223282.csv","legacy","Lentiform Loewenfeld","3.3.7","yes","yes","600bd7cfb6416f0113b04181","602110864497cf011d9c0822","0","f","NA","space","space","space","NA","f","662","NA","43","6331","17748","NA","662","2","legacy","1024","2","48000","-16","task","5223282","even","NA","39198","41247","41202","106887","7122","31205","13457","107391","NA","106881","107391","106657","41247","108054","37523","106156","7106","97428","Lexical Decision Task","37","27391","38","yes","1024"
"2.813801082","5.47","7","nook","word","97.43589743589743","97.43589743589743","722.7948717948718","722.7948717948718","black","no","legacy","legacy","legacy","0","uniform","1","undefined","undefined","undefined","1","j","0","0","0","0","38","0","0","0","38","NA","34","38","34","0","34","3","38","0","38","Fri Feb 19 11:40:42 2021","The main experiment item","yes","Lexical_Decision_Task.osexp","C:/Users/tessa","no","Andale Mono","no","18","no","white","no","yes","576","legacy","34","34","3","C:/Users/tessa/subject-5223282.csv","legacy","Lentiform Loewenfeld","3.3.7","yes","yes","600bd7cfb6416f0113b04181","602110864497cf011d9c0822","0","j","NA","space","space","space","NA","j","798","NA","43","6331","17748","NA","798","2","legacy","1024","2","48000","-16","task","5223282","even","NA","39198","41247","41202","108799","7122","31205","13457","109303","NA","108794","109303","108574","41247","110101","37523","108074","7106","97428","Lexical Decision Task","38","28189","39","yes","1024"
"3.495914186","0","4","peng","non-word","97.5","97.5","722","722","black","no","legacy","legacy","legacy","0","uniform","1","undefined","undefined","undefined","1","f","0","0","0","0","39","0","0","0","39","NA","35","39","35","0","35","3","39","0","39","Fri Feb 19 11:40:42 2021","The main experiment item","yes","Lexical_Decision_Task.osexp","C:/Users/tessa","no","Andale Mono","no","18","no","white","no","yes","576","legacy","35","35","3","C:/Users/tessa/subject-5223282.csv","legacy","Lentiform Loewenfeld","3.3.7","yes","yes","600bd7cfb6416f0113b04181","602110864497cf011d9c0822","0","f","NA","space","space","space","NA","f","691","NA","43","6331","17748","NA","691","2","legacy","1024","2","48000","-16","task","5223282","even","NA","39198","41247","41202","110832","7122","31205","13457","111336","NA","110829","111337","110613","41247","112029","37523","110113","7106","97428","Lexical Decision Task","39","28880","40","yes","1024"
"3.460446784","0","5","dess","non-word","97.5609756097561","97.5609756097561","722.8536585365854","722.8536585365854","black","no","legacy","legacy","legacy","0","uniform","1","undefined","undefined","undefined","1","f","0","0","0","0","40","0","0","0","40","NA","36","40","36","0","36","3","40","0","40","Fri Feb 19 11:40:42 2021","The main experiment item","yes","Lexical_Decision_Task.osexp","C:/Users/tessa","no","Andale Mono","no","18","no","white","no","yes","576","legacy","36","36","3","C:/Users/tessa/subject-5223282.csv","legacy","Lentiform Loewenfeld","3.3.7","yes","yes","600bd7cfb6416f0113b04181","602110864497cf011d9c0822","0","f","NA","space","space","space","NA","f","757","NA","43","6331","17748","NA","757","2","legacy","1024","2","48000","-16","task","5223282","even","NA","39198","41247","41202","112717","7122","31205","13457","113223","NA","112714","113224","112547","41247","113983","37523","112047","7106","97428","Lexical Decision Task","40","29637","41","yes","1024"
"3.374198258","0","8","vist","non-word","95.23809523809524","95.23809523809524","722.8809523809524","722.8809523809524","black","no","legacy","legacy","legacy","0","uniform","0","undefined","undefined","undefined","0","f","0","0","0","0","41","0","0","0","41","NA","37","41","37","0","37","3","41","0","41","Fri Feb 19 11:40:42 2021","The main experiment item","yes","Lexical_Decision_Task.osexp","C:/Users/tessa","no","Andale Mono","no","18","no","white","no","yes","576","legacy","37","37","3","C:/Users/tessa/subject-5223282.csv","legacy","Lentiform Loewenfeld","3.3.7","yes","yes","600bd7cfb6416f0113b04181","602110864497cf011d9c0822","0","j","NA","space","space","space","NA","j","724","NA","43","6331","17748","NA","724","2","legacy","1024","2","48000","-16","task","5223282","even","NA","39198","41247","41202","114721","7122","31205","13457","115225","NA","114716","115225","114498","41247","115950","37523","113998","7106","97428","Lexical Decision Task","40","30361","42","yes","1024"
"2.868644438","10.52","4","town","word","95.34883720930233","95.34883720930233","726.8372093023256","726.8372093023256","black","no","legacy","legacy","legacy","0","uniform","1","undefined","undefined","undefined","1","j","0","0","0","0","42","0","0","0","42","NA","38","42","38","0","38","3","42","0","42","Fri Feb 19 11:40:42 2021","The main experiment item","yes","Lexical_Decision_Task.osexp","C:/Users/tessa","no","Andale Mono","no","18","no","white","no","yes","576","legacy","38","38","3","C:/Users/tessa/subject-5223282.csv","legacy","Lentiform Loewenfeld","3.3.7","yes","yes","600bd7cfb6416f0113b04181","602110864497cf011d9c0822","0","j","NA","space","space","space","NA","j","893","NA","43","6331","17748","NA","893","2","legacy","1024","2","48000","-16","task","5223282","even","NA","39198","41247","41202","117599","7122","31205","13457","118103","NA","117595","118103","117467","41247","118998","37523","113998","7106","115967","Lexical Decision Task","41","31254","43","yes","1024"
"3.378276681","6.39","8","bran","word","93.18181818181819","93.18181818181819","727.2272727272727","727.2272727272727","black","no","legacy","legacy","legacy","0","uniform","0","undefined","undefined","undefined","0","j","0","0","0","0","43","0","0","0","43","NA","39","43","39","0","39","3","43","0","43","Fri Feb 19 11:40:42 2021","The main experiment item","yes","Lexical_Decision_Task.osexp","C:/Users/tessa","no","Andale Mono","no","18","no","white","no","yes","576","legacy","39","39","3","C:/Users/tessa/subject-5223282.csv","legacy","Lentiform Loewenfeld","3.3.7","yes","yes","600bd7cfb6416f0113b04181","602110864497cf011d9c0822","0","f","NA","space","space","space","NA","f","744","NA","43","6331","17748","NA","744","2","legacy","1024","2","48000","-16","task","5223282","even","NA","39198","41247","41202","119715","7122","31205","13457","120220","NA","119712","120221","119518","41247","120965","37523","119018","7106","115967","Lexical Decision Task","41","31998","44","yes","1024"
"3.302475237","0","7","leel","non-word","93.33333333333333","93.33333333333333","726.5777777777778","726.5777777777778","black","no","legacy","legacy","legacy","0","uniform","1","undefined","undefined","undefined","1","f","0","0","0","0","44","0","0","0","44","NA","40","44","40","0","40","3","44","0","44","Fri Feb 19 11:40:42 2021","The main experiment item","yes","Lexical_Decision_Task.osexp","C:/Users/tessa","no","Andale Mono","no","18","no","white","no","yes","576","legacy","40","40","3","C:/Users/tessa/subject-5223282.csv","legacy","Lentiform Loewenfeld","3.3.7","yes","yes","600bd7cfb6416f0113b04181","602110864497cf011d9c0822","0","f","NA","space","space","space","NA","f","698","NA","43","6331","17748","NA","698","2","legacy","1024","2","48000","-16","task","5223282","even","NA","39198","41247","41202","122716","7122","31205","13457","123218","NA","122710","123218","122484","41247","123917","37523","119018","7106","120984","Lexical Decision Task","42","32696","45","yes","1024"
"3.066077331","0","7","vorn","non-word","93.47826086956522","93.47826086956522","729.7608695652174","729.7608695652174","black","no","legacy","legacy","legacy","0","uniform","1","undefined","undefined","undefined","1","f","0","0","0","0","45","0","0","0","45","NA","41","45","41","0","41","3","45","0","45","Fri Feb 19 11:40:42 2021","The main experiment item","yes","Lexical_Decision_Task.osexp","C:/Users/tessa","no","Andale Mono","no","18","no","white","no","yes","576","legacy","41","41","3","C:/Users/tessa/subject-5223282.csv","legacy","Lentiform Loewenfeld","3.3.7","yes","yes","600bd7cfb6416f0113b04181","602110864497cf011d9c0822","0","f","NA","space","space","space","NA","f","873","NA","43","6331","17748","NA","873","2","legacy","1024","2","48000","-16","task","5223282","even","NA","39198","41247","41202","124610","7122","31205","13457","125114","NA","124607","125115","124435","41247","125989","37523","123935","7106","120984","Lexical Decision Task","43","33569","46","yes","1024"
"2.6599162","0","6","flug","non-word","93.61702127659575","93.61702127659575","730.0212765957447","730.0212765957447","black","no","legacy","legacy","legacy","0","uniform","1","undefined","undefined","undefined","1","f","0","0","0","0","46","0","0","0","46","NA","42","46","42","0","42","3","46","0","46","Fri Feb 19 11:40:42 2021","The main experiment item","yes","Lexical_Decision_Task.osexp","C:/Users/tessa","no","Andale Mono","no","18","no","white","no","yes","576","legacy","42","42","3","C:/Users/tessa/subject-5223282.csv","legacy","Lentiform Loewenfeld","3.3.7","yes","yes","600bd7cfb6416f0113b04181","602110864497cf011d9c0822","0","f","NA","space","space","space","NA","f","742","NA","43","6331","17748","NA","742","2","legacy","1024","2","48000","-16","task","5223282","even","NA","39198","41247","41202","126734","7122","31205","13457","127239","NA","126729","127239","126506","41247","127983","37523","126006","7106","120984","Lexical Decision Task","44","34311","47","yes","1024"
"3.131833513","7.66","4","limb","word","93.75","93.75","730.3333333333334","730.3333333333334","black","no","legacy","legacy","legacy","0","uniform","1","undefined","undefined","undefined","1","j","0","0","0","0","47","0","0","0","47","NA","43","47","43","0","43","3","47","0","47","Fri Feb 19 11:40:42 2021","The main experiment item","yes","Lexical_Decision_Task.osexp","C:/Users/tessa","no","Andale Mono","no","18","no","white","no","yes","576","legacy","43","43","3","C:/Users/tessa/subject-5223282.csv","legacy","Lentiform Loewenfeld","3.3.7","yes","yes","600bd7cfb6416f0113b04181","602110864497cf011d9c0822","0","j","NA","space","space","space","NA","j","745","NA","43","6331","17748","NA","745","2","legacy","1024","2","48000","-16","task","5223282","even","NA","39198","41247","41202","128708","7122","31205","13457","129212","NA","128702","129212","128494","41247","129959","37523","127994","7106","120984","Lexical Decision Task","45","35056","48","yes","1024"
"3.153001286","8.7","5","palm","word","93.87755102040816","93.87755102040816","732.6734693877551","732.6734693877551","black","no","legacy","legacy","legacy","0","uniform","1","undefined","undefined","undefined","1","j","0","0","0","0","48","0","0","0","48","NA","44","48","44","0","44","3","48","0","48","Fri Feb 19 11:40:42 2021","The main experiment item","yes","Lexical_Decision_Task.osexp","C:/Users/tessa","no","Andale Mono","no","18","no","white","no","yes","576","legacy","44","44","3","C:/Users/tessa/subject-5223282.csv","legacy","Lentiform Loewenfeld","3.3.7","yes","yes","600bd7cfb6416f0113b04181","602110864497cf011d9c0822","0","j","NA","space","space","space","NA","j","845","NA","43","6331","17748","NA","845","2","legacy","1024","2","48000","-16","task","5223282","even","NA","39198","41247","41202","130695","7122","31205","13457","131200","NA","130689","131200","130473","41247","132046","37523","129973","7106","120984","Lexical Decision Task","46","35901","49","yes","1024"
"3.067193647","6.73","6","raft","word","94","94","731.62","731.62","black","no","legacy","legacy","legacy","0","uniform","1","undefined","undefined","undefined","1","j","0","0","0","0","49","0","0","0","49","NA","45","49","45","0","45","3","49","0","49","Fri Feb 19 11:40:42 2021","The main experiment item","yes","Lexical_Decision_Task.osexp","C:/Users/tessa","no","Andale Mono","no","18","no","white","no","yes","576","legacy","45","45","3","C:/Users/tessa/subject-5223282.csv","legacy","Lentiform Loewenfeld","3.3.7","yes","yes","600bd7cfb6416f0113b04181","602110864497cf011d9c0822","0","j","NA","space","space","space","NA","j","680","NA","43","6331","17748","NA","680","2","legacy","1024","2","48000","-16","task","5223282","even","NA","39198","41247","41202","132788","7122","31205","13457","133293","NA","132782","133293","132564","41247","133976","37523","132064","7106","120984","Lexical Decision Task","47","36581","50","yes","1024"
"3.120025233","0","2","nyst","non-word","94.11764705882354","94.11764705882354","732.8039215686274","732.8039215686274","black","no","legacy","legacy","legacy","0","uniform","1","undefined","undefined","undefined","1","f","0","0","0","0","50","0","0","0","50","NA","46","50","46","0","46","3","50","0","50","Fri Feb 19 11:40:42 2021","The main experiment item","yes","Lexical_Decision_Task.osexp","C:/Users/tessa","no","Andale Mono","no","18","no","white","no","yes","576","legacy","46","46","3","C:/Users/tessa/subject-5223282.csv","legacy","Lentiform Loewenfeld","3.3.7","yes","yes","600bd7cfb6416f0113b04181","602110864497cf011d9c0822","0","f","NA","space","space","space","NA","f","792","NA","43","6331","17748","NA","792","2","legacy","1024","2","48000","-16","task","5223282","even","NA","39198","41247","41202","134723","7122","31205","13457","135227","NA","134718","135228","134498","41247","136022","37523","133997","7106","120984","Lexical Decision Task","48","37373","51","yes","1024"
"3.257359335","8","6","brew","word","94.23076923076923","94.23076923076923","731.3846153846154","731.3846153846154","black","no","legacy","legacy","legacy","0","uniform","1","undefined","undefined","undefined","1","j","0","0","0","0","51","0","0","0","51","NA","47","51","47","0","47","3","51","0","51","Fri Feb 19 11:40:42 2021","The main experiment item","yes","Lexical_Decision_Task.osexp","C:/Users/tessa","no","Andale Mono","no","18","no","white","no","yes","576","legacy","47","47","3","C:/Users/tessa/subject-5223282.csv","legacy","Lentiform Loewenfeld","3.3.7","yes","yes","600bd7cfb6416f0113b04181","602110864497cf011d9c0822","0","j","NA","space","space","space","NA","j","659","NA","43","6331","17748","NA","659","2","legacy","1024","2","48000","-16","task","5223282","even","NA","39198","41247","41202","136762","7122","31205","13457","137266","NA","136757","137266","136542","41247","137926","37523","136040","7106","120984","Lexical Decision Task","49","38032","52","yes","1024"
"2.972357144","0","5","dasp","non-word","94.33962264150944","94.33962264150944","731.566037735849","731.566037735849","black","no","legacy","legacy","legacy","0","uniform","1","undefined","undefined","undefined","1","f","0","0","0","0","52","0","0","0","52","NA","48","52","48","0","48","3","52","0","52","Fri Feb 19 11:40:42 2021","The main experiment item","yes","Lexical_Decision_Task.osexp","C:/Users/tessa","no","Andale Mono","no","18","no","white","no","yes","576","legacy","48","48","3","C:/Users/tessa/subject-5223282.csv","legacy","Lentiform Loewenfeld","3.3.7","yes","yes","600bd7cfb6416f0113b04181","602110864497cf011d9c0822","0","f","NA","space","space","space","NA","f","741","NA","43","6331","17748","NA","741","2","legacy","1024","2","48000","-16","task","5223282","even","NA","39198","41247","41202","138685","7122","31205","13457","139191","NA","138679","139191","138444","41247","139935","37523","137944","7106","120984","Lexical Decision Task","50","38773","53","yes","1024"
"2.884795364","0","6","flob","non-word","94.44444444444444","94.44444444444444","730.7777777777778","730.7777777777778","black","no","legacy","legacy","legacy","0","uniform","1","undefined","undefined","undefined","1","f","0","0","0","0","53","0","0","0","53","NA","49","53","49","0","49","3","53","0","53","Fri Feb 19 11:40:42 2021","The main experiment item","yes","Lexical_Decision_Task.osexp","C:/Users/tessa","no","Andale Mono","no","18","no","white","no","yes","576","legacy","49","49","3","C:/Users/tessa/subject-5223282.csv","legacy","Lentiform Loewenfeld","3.3.7","yes","yes","600bd7cfb6416f0113b04181","602110864497cf011d9c0822","0","f","NA","space","space","space","NA","f","689","NA","43","6331","17748","NA","689","2","legacy","1024","2","48000","-16","task","5223282","even","NA","39198","41247","41202","140683","7122","31205","13457","141188","NA","140677","141188","140451","41247","141878","37523","139951","7106","120984","Lexical Decision Task","51","39462","54","yes","1024"
"2.983324025","9.56","2","debt","word","94.54545454545455","94.54545454545455","729.5454545454545","729.5454545454545","black","no","legacy","legacy","legacy","0","uniform","1","undefined","undefined","undefined","1","j","0","0","0","0","54","0","0","0","54","0","50","54","50","0","50","3","54","0","54","Fri Feb 19 11:40:42 2021","The main experiment item","yes","Lexical_Decision_Task.osexp","C:/Users/tessa","no","Andale Mono","no","18","no","white","no","yes","576","legacy","50","50","3","C:/Users/tessa/subject-5223282.csv","legacy","Lentiform Loewenfeld","3.3.7","yes","yes","600bd7cfb6416f0113b04181","602110864497cf011d9c0822","0","j","NA","space","space","space","space","j","663","NA","43","6331","17748","9668","663","2","legacy","1024","2","48000","-16","task","5223282","even","NA","39198","41247","41202","152299","7122","31205","13457","152804","142497","152297","152806","142396","41247","153470","37523","141895","7106","120984","Lexical Decision Task","52","40125","55","yes","1024"
"3.488597715","0","9","nain","non-word","94.64285714285714","94.64285714285714","727.7678571428571","727.7678571428571","black","no","legacy","legacy","legacy","0","uniform","1","undefined","undefined","undefined","1","f","0","0","0","0","55","0","0","0","55","0","51","55","51","0","51","3","55","0","55","Fri Feb 19 11:40:42 2021","The main experiment item","yes","Lexical_Decision_Task.osexp","C:/Users/tessa","no","Andale Mono","no","18","no","white","no","yes","576","legacy","51","51","3","C:/Users/tessa/subject-5223282.csv","legacy","Lentiform Loewenfeld","3.3.7","yes","yes","600bd7cfb6416f0113b04181","602110864497cf011d9c0822","0","f","NA","space","space","space","space","f","630","NA","43","6331","17748","9668","630","2","legacy","1024","2","48000","-16","task","5223282","even","NA","39198","41247","41202","154222","7122","31205","13457","154727","142497","154217","154727","153991","41247","155359","37523","153491","7106","120984","Lexical Decision Task","53","40755","56","yes","1024"
"2.675164031","8.57","6","glue","word","94.73684210526316","94.73684210526316","727.3859649122807","727.3859649122807","black","no","legacy","legacy","legacy","0","uniform","1","undefined","undefined","undefined","1","j","0","0","0","0","56","0","0","0","56","0","52","56","52","0","52","3","56","0","56","Fri Feb 19 11:40:42 2021","The main experiment item","yes","Lexical_Decision_Task.osexp","C:/Users/tessa","no","Andale Mono","no","18","no","white","no","yes","576","legacy","52","52","3","C:/Users/tessa/subject-5223282.csv","legacy","Lentiform Loewenfeld","3.3.7","yes","yes","600bd7cfb6416f0113b04181","602110864497cf011d9c0822","0","j","NA","space","space","space","space","j","706","NA","43","6331","17748","9668","706","2","legacy","1024","2","48000","-16","task","5223282","even","NA","39198","41247","41202","156121","7122","31205","13457","156625","142497","156114","156626","155876","41247","157333","37523","155376","7106","120984","Lexical Decision Task","54","41461","57","yes","1024"
"3.263399331","0","8","cour","non-word","94.82758620689656","94.82758620689656","726.0344827586207","726.0344827586207","black","no","legacy","legacy","legacy","0","uniform","1","undefined","undefined","undefined","1","f","0","0","0","0","57","0","0","0","57","0","53","57","53","0","53","3","57","0","57","Fri Feb 19 11:40:42 2021","The main experiment item","yes","Lexical_Decision_Task.osexp","C:/Users/tessa","no","Andale Mono","no","18","no","white","no","yes","576","legacy","53","53","3","C:/Users/tessa/subject-5223282.csv","legacy","Lentiform Loewenfeld","3.3.7","yes","yes","600bd7cfb6416f0113b04181","602110864497cf011d9c0822","0","f","NA","space","space","space","space","f","649","NA","43","6331","17748","9668","649","2","legacy","1024","2","48000","-16","task","5223282","even","NA","39198","41247","41202","158091","7122","31205","13457","158595","142497","158085","158596","157852","41247","159246","37523","157352","7106","120984","Lexical Decision Task","55","42110","58","yes","1024"
"2.594027722","9.08","8","skip","word","94.91525423728814","94.91525423728814","724.6101694915254","724.6101694915254","black","no","legacy","legacy","legacy","0","uniform","1","undefined","undefined","undefined","1","j","0","0","0","0","58","0","0","0","58","0","54","58","54","0","54","3","58","0","58","Fri Feb 19 11:40:42 2021","The main experiment item","yes","Lexical_Decision_Task.osexp","C:/Users/tessa","no","Andale Mono","no","18","no","white","no","yes","576","legacy","54","54","3","C:/Users/tessa/subject-5223282.csv","legacy","Lentiform Loewenfeld","3.3.7","yes","yes","600bd7cfb6416f0113b04181","602110864497cf011d9c0822","0","j","NA","space","space","space","space","j","642","NA","43","6331","17748","9668","642","2","legacy","1024","2","48000","-16","task","5223282","even","NA","39198","41247","41202","160002","7122","31205","13457","160506","142497","159995","160507","159758","41247","161152","37523","159258","7106","120984","Lexical Decision Task","56","42752","59","yes","1024"
"2.924968096","0","4","phim","non-word","95","95","721.8833333333333","721.8833333333333","black","no","legacy","legacy","legacy","0","uniform","1","undefined","undefined","undefined","1","f","0","0","0","0","59","0","0","0","59","0","55","59","55","0","55","3","59","0","59","Fri Feb 19 11:40:42 2021","The main experiment item","yes","Lexical_Decision_Task.osexp","C:/Users/tessa","no","Andale Mono","no","18","no","white","no","yes","576","legacy","55","55","3","C:/Users/tessa/subject-5223282.csv","legacy","Lentiform Loewenfeld","3.3.7","yes","yes","600bd7cfb6416f0113b04181","602110864497cf011d9c0822","0","f","NA","space","space","space","space","f","561","NA","43","6331","17748","9668","561","2","legacy","1024","2","48000","-16","task","5223282","even","NA","39198","41247","41202","161906","7122","31205","13457","162410","142497","161900","162411","161673","41247","162974","37523","161173","7106","120984","Lexical Decision Task","57","43313","60","yes","1024"
"3.197740804","6.74","3","ache","word","95.08196721311475","95.08196721311475","720.7049180327868","720.7049180327868","black","no","legacy","legacy","legacy","0","uniform","1","undefined","undefined","undefined","1","j","0","0","0","0","60","0","0","0","60","0","56","60","56","0","56","3","60","0","60","Fri Feb 19 11:40:42 2021","The main experiment item","yes","Lexical_Decision_Task.osexp","C:/Users/tessa","no","Andale Mono","no","18","no","white","no","yes","576","legacy","56","56","3","C:/Users/tessa/subject-5223282.csv","legacy","Lentiform Loewenfeld","3.3.7","yes","yes","600bd7cfb6416f0113b04181","602110864497cf011d9c0822","0","j","NA","space","space","space","space","j","650","NA","43","6331","17748","9668","650","2","legacy","1024","2","48000","-16","task","5223282","even","NA","39198","41247","41202","163738","7122","31205","13457","164242","142497","163731","164243","163491","41247","164895","37523","162991","7106","120984","Lexical Decision Task","58","43963","61","yes","1024"
"2.981215883","10.66","5","hair","word","95.16129032258064","95.16129032258064","717.3064516129032","717.3064516129032","black","no","legacy","legacy","legacy","0","uniform","1","undefined","undefined","undefined","1","j","0","0","0","0","61","0","0","0","61","0","57","61","57","0","57","3","61","0","61","Fri Feb 19 11:40:42 2021","The main experiment item","yes","Lexical_Decision_Task.osexp","C:/Users/tessa","no","Andale Mono","no","18","no","white","no","yes","576","legacy","57","57","3","C:/Users/tessa/subject-5223282.csv","legacy","Lentiform Loewenfeld","3.3.7","yes","yes","600bd7cfb6416f0113b04181","602110864497cf011d9c0822","0","j","NA","space","space","space","space","j","510","NA","43","6331","17748","9668","510","2","legacy","1024","2","48000","-16","task","5223282","even","NA","39198","41247","41202","165637","7122","31205","13457","166142","142497","165631","166143","165401","41247","166657","37523","164901","7106","120984","Lexical Decision Task","59","44473","62","yes","1024"
"2.966923697","5.4","2","fume","word","93.65079365079364","93.65079365079364","726.6825396825396","726.6825396825396","black","no","legacy","legacy","legacy","0","uniform","0","undefined","undefined","undefined","0","j","0","0","0","0","62","0","0","0","62","0","58","62","58","0","58","3","62","0","62","Fri Feb 19 11:40:42 2021","The main experiment item","yes","Lexical_Decision_Task.osexp","C:/Users/tessa","no","Andale Mono","no","18","no","white","no","yes","576","legacy","58","58","3","C:/Users/tessa/subject-5223282.csv","legacy","Lentiform Loewenfeld","3.3.7","yes","yes","600bd7cfb6416f0113b04181","602110864497cf011d9c0822","0","f","NA","space","space","space","space","f","1308","NA","43","6331","17748","9668","1308","2","legacy","1024","2","48000","-16","task","5223282","even","NA","39198","41247","41202","167430","7122","31205","13457","167936","142497","167424","167936","167178","41247","169246","37523","166678","7106","120984","Lexical Decision Task","59","45781","63","yes","1024"
"3.347850856","10.51","2","rich","word","93.75","93.75","726.84375","726.84375","black","no","legacy","legacy","legacy","0","uniform","1","undefined","undefined","undefined","1","j","0","0","0","0","63","0","0","0","63","0","59","63","59","0","59","3","63","0","63","Fri Feb 19 11:40:42 2021","The main experiment item","yes","Lexical_Decision_Task.osexp","C:/Users/tessa","no","Andale Mono","no","18","no","white","no","yes","576","legacy","59","59","3","C:/Users/tessa/subject-5223282.csv","legacy","Lentiform Loewenfeld","3.3.7","yes","yes","600bd7cfb6416f0113b04181","602110864497cf011d9c0822","0","j","NA","space","space","space","space","j","737","NA","43","6331","17748","9668","737","2","legacy","1024","2","48000","-16","task","5223282","even","NA","39198","41247","41202","170978","7122","31205","13457","171483","142497","170975","171484","170763","41247","172224","37523","166678","7106","169263","Lexical Decision Task","60","46518","64","yes","1024"
"2.7084209","0","8","vump","non-word","93.84615384615384","93.84615384615384","726.7846153846153","726.7846153846153","black","no","legacy","legacy","legacy","0","uniform","1","undefined","undefined","undefined","1","f","0","0","0","0","64","0","0","0","64","0","60","64","60","0","60","3","64","0","64","Fri Feb 19 11:40:42 2021","The main experiment item","yes","Lexical_Decision_Task.osexp","C:/Users/tessa","no","Andale Mono","no","18","no","white","no","yes","576","legacy","60","60","3","C:/Users/tessa/subject-5223282.csv","legacy","Lentiform Loewenfeld","3.3.7","yes","yes","600bd7cfb6416f0113b04181","602110864497cf011d9c0822","0","f","NA","space","space","space","space","f","723","NA","43","6331","17748","9668","723","2","legacy","1024","2","48000","-16","task","5223282","even","NA","39198","41247","41202","172953","7122","31205","13457","173458","142497","172950","173458","172739","41247","174182","37523","172239","7106","169263","Lexical Decision Task","61","47241","65","yes","1024"
"2.812467698","0","7","hafe","non-word","93.93939393939394","93.93939393939394","725.8030303030303","725.8030303030303","black","no","legacy","legacy","legacy","0","uniform","1","undefined","undefined","undefined","1","f","0","0","0","0","65","0","0","0","65","0","61","65","61","0","61","3","65","0","65","Fri Feb 19 11:40:42 2021","The main experiment item","yes","Lexical_Decision_Task.osexp","C:/Users/tessa","no","Andale Mono","no","18","no","white","no","yes","576","legacy","61","61","3","C:/Users/tessa/subject-5223282.csv","legacy","Lentiform Loewenfeld","3.3.7","yes","yes","600bd7cfb6416f0113b04181","602110864497cf011d9c0822","0","f","NA","space","space","space","space","f","662","NA","43","6331","17748","9668","662","2","legacy","1024","2","48000","-16","task","5223282","even","NA","39198","41247","41202","174932","7122","31205","13457","175437","142497","174927","175438","174700","41247","176101","37523","174199","7106","169263","Lexical Decision Task","62","47903","66","yes","1024"
"2.893578687","8.69","3","surf","word","94.02985074626865","94.02985074626865","724.8358208955224","724.8358208955224","black","no","legacy","legacy","legacy","0","uniform","1","undefined","undefined","undefined","1","j","0","0","0","0","66","0","0","0","66","0","62","66","62","0","62","3","66","0","66","Fri Feb 19 11:40:42 2021","The main experiment item","yes","Lexical_Decision_Task.osexp","C:/Users/tessa","no","Andale Mono","no","18","no","white","no","yes","576","legacy","62","62","3","C:/Users/tessa/subject-5223282.csv","legacy","Lentiform Loewenfeld","3.3.7","yes","yes","600bd7cfb6416f0113b04181","602110864497cf011d9c0822","0","j","NA","space","space","space","space","j","661","NA","43","6331","17748","9668","661","2","legacy","1024","2","48000","-16","task","5223282","even","NA","39198","41247","41202","176839","7122","31205","13457","177343","142497","176833","177344","176613","41247","178006","37523","176113","7106","169263","Lexical Decision Task","63","48564","67","yes","1024"
"3.145920145","8.51","8","flew","word","94.11764705882354","94.11764705882354","726.0294117647059","726.0294117647059","black","no","legacy","legacy","legacy","0","uniform","1","undefined","undefined","undefined","1","j","0","0","0","0","67","0","0","0","67","0","63","67","63","0","63","3","67","0","67","Fri Feb 19 11:40:42 2021","The main experiment item","yes","Lexical_Decision_Task.osexp","C:/Users/tessa","no","Andale Mono","no","18","no","white","no","yes","576","legacy","63","63","3","C:/Users/tessa/subject-5223282.csv","legacy","Lentiform Loewenfeld","3.3.7","yes","yes","600bd7cfb6416f0113b04181","602110864497cf011d9c0822","0","j","NA","space","space","space","space","j","806","NA","43","6331","17748","9668","806","2","legacy","1024","2","48000","-16","task","5223282","even","NA","39198","41247","41202","178709","7122","31205","13457","179214","142497","178707","179214","178524","41247","180021","37523","178024","7106","169263","Lexical Decision Task","64","49370","68","yes","1024"
"3.121778632","0","9","sark","non-word","94.20289855072464","94.20289855072464","727.4782608695652","727.4782608695652","black","no","legacy","legacy","legacy","0","uniform","1","undefined","undefined","undefined","1","f","0","0","0","0","68","0","0","0","68","0","64","68","64","0","64","3","68","0","68","Fri Feb 19 11:40:42 2021","The main experiment item","yes","Lexical_Decision_Task.osexp","C:/Users/tessa","no","Andale Mono","no","18","no","white","no","yes","576","legacy","64","64","3","C:/Users/tessa/subject-5223282.csv","legacy","Lentiform Loewenfeld","3.3.7","yes","yes","600bd7cfb6416f0113b04181","602110864497cf011d9c0822","0","f","NA","space","space","space","space","f","826","NA","43","6331","17748","9668","826","2","legacy","1024","2","48000","-16","task","5223282","even","NA","39198","41247","41202","180754","7122","31205","13457","181259","142497","180750","181259","180532","41247","182086","37523","180032","7106","169263","Lexical Decision Task","65","50196","69","yes","1024"
"2.858136002","0","4","phip","non-word","94.28571428571429","94.28571428571429","729.3428571428572","729.3428571428572","black","no","legacy","legacy","legacy","0","uniform","1","undefined","undefined","undefined","1","f","0","0","0","0","69","0","0","0","69","0","65","69","65","0","65","3","69","0","69","Fri Feb 19 11:40:42 2021","The main experiment item","yes","Lexical_Decision_Task.osexp","C:/Users/tessa","no","Andale Mono","no","18","no","white","no","yes","576","legacy","65","65","3","C:/Users/tessa/subject-5223282.csv","legacy","Lentiform Loewenfeld","3.3.7","yes","yes","600bd7cfb6416f0113b04181","602110864497cf011d9c0822","0","f","NA","space","space","space","space","f","858","NA","43","6331","17748","9668","858","2","legacy","1024","2","48000","-16","task","5223282","even","NA","39198","41247","41202","182753","7122","31205","13457","183257","142497","182750","183258","182603","41247","184118","37523","182103","7106","169263","Lexical Decision Task","66","51054","70","yes","1024"
"3.374137706","10.21","4","tree","word","94.36619718309859","94.36619718309859","727.0422535211268","727.0422535211268","black","no","legacy","legacy","legacy","0","uniform","1","undefined","undefined","undefined","1","j","0","0","0","0","70","0","0","0","70","0","66","70","66","0","66","3","70","0","70","Fri Feb 19 11:40:42 2021","The main experiment item","yes","Lexical_Decision_Task.osexp","C:/Users/tessa","no","Andale Mono","no","18","no","white","no","yes","576","legacy","66","66","3","C:/Users/tessa/subject-5223282.csv","legacy","Lentiform Loewenfeld","3.3.7","yes","yes","600bd7cfb6416f0113b04181","602110864497cf011d9c0822","0","j","NA","space","space","space","space","j","566","NA","43","6331","17748","9668","566","2","legacy","1024","2","48000","-16","task","5223282","even","NA","39198","41247","41202","184821","7122","31205","13457","185325","142497","184817","185326","184624","41247","185895","37523","184123","7106","169263","Lexical Decision Task","67","51620","71","yes","1024"
"3.039414119","0","9","meep","non-word","94.44444444444444","94.44444444444444","725.6527777777778","725.6527777777778","black","no","legacy","legacy","legacy","0","uniform","1","undefined","undefined","undefined","1","f","0","0","0","0","71","0","0","0","71","0","67","71","67","0","67","3","71","0","71","Fri Feb 19 11:40:42 2021","The main experiment item","yes","Lexical_Decision_Task.osexp","C:/Users/tessa","no","Andale Mono","no","18","no","white","no","yes","576","legacy","67","67","3","C:/Users/tessa/subject-5223282.csv","legacy","Lentiform Loewenfeld","3.3.7","yes","yes","600bd7cfb6416f0113b04181","602110864497cf011d9c0822","0","f","NA","space","space","space","space","f","627","NA","43","6331","17748","9668","627","2","legacy","1024","2","48000","-16","task","5223282","even","NA","39198","41247","41202","186600","7122","31205","13457","187105","142497","186596","187106","186414","41247","187735","37523","185914","7106","169263","Lexical Decision Task","68","52247","72","yes","1024"
"2.892836167","10.01","5","soft","word","94.52054794520548","94.52054794520548","723.6712328767123","723.6712328767123","black","no","legacy","legacy","legacy","0","uniform","1","undefined","undefined","undefined","1","j","0","0","0","0","72","0","0","0","72","0","68","72","68","0","68","3","72","0","72","Fri Feb 19 11:40:42 2021","The main experiment item","yes","Lexical_Decision_Task.osexp","C:/Users/tessa","no","Andale Mono","no","18","no","white","no","yes","576","legacy","68","68","3","C:/Users/tessa/subject-5223282.csv","legacy","Lentiform Loewenfeld","3.3.7","yes","yes","600bd7cfb6416f0113b04181","602110864497cf011d9c0822","0","j","NA","space","space","space","space","j","581","NA","43","6331","17748","9668","581","2","legacy","1024","2","48000","-16","task","5223282","even","NA","39198","41247","41202","188486","7122","31205","13457","188990","142497","188480","188991","188257","41247","189576","37523","187756","7106","169263","Lexical Decision Task","69","52828","73","yes","1024"
"3.382617311","0","4","pret","non-word","94.5945945945946","94.5945945945946","732.1486486486486","732.1486486486486","black","no","legacy","legacy","legacy","0","uniform","1","undefined","undefined","undefined","1","f","0","0","0","0","73","0","0","0","73","0","69","73","69","0","69","3","73","0","73","Fri Feb 19 11:40:42 2021","The main experiment item","yes","Lexical_Decision_Task.osexp","C:/Users/tessa","no","Andale Mono","no","18","no","white","no","yes","576","legacy","69","69","3","C:/Users/tessa/subject-5223282.csv","legacy","Lentiform Loewenfeld","3.3.7","yes","yes","600bd7cfb6416f0113b04181","602110864497cf011d9c0822","0","f","NA","space","space","space","space","f","1351","NA","43","6331","17748","9668","1351","2","legacy","1024","2","48000","-16","task","5223282","even","NA","39198","41247","41202","190292","7122","31205","13457","190796","142497","190290","190797","190090","41247","192150","37523","189589","7106","169263","Lexical Decision Task","70","54179","74","yes","1024"
"2.842815106","7.86","8","lump","word","94.66666666666667","94.66666666666667","733.76","733.76","black","no","legacy","legacy","legacy","0","uniform","1","undefined","undefined","undefined","1","j","0","0","0","0","74","0","0","0","74","0","70","74","70","0","70","3","74","0","74","Fri Feb 19 11:40:42 2021","The main experiment item","yes","Lexical_Decision_Task.osexp","C:/Users/tessa","no","Andale Mono","no","18","no","white","no","yes","576","legacy","70","70","3","C:/Users/tessa/subject-5223282.csv","legacy","Lentiform Loewenfeld","3.3.7","yes","yes","600bd7cfb6416f0113b04181","602110864497cf011d9c0822","0","j","NA","space","space","space","space","j","853","NA","43","6331","17748","9668","853","2","legacy","1024","2","48000","-16","task","5223282","even","NA","39198","41247","41202","192878","7122","31205","13457","193383","142497","192873","193383","192660","41247","194238","37523","192160","7106","169263","Lexical Decision Task","71","55032","75","yes","1024"
"2.719886232","7.98","2","quiz","word","94.73684210526316","94.73684210526316","733.9736842105264","733.9736842105264","black","no","legacy","legacy","legacy","0","uniform","1","undefined","undefined","undefined","1","j","0","0","0","0","75","0","0","0","75","0","71","75","71","0","71","3","75","0","75","Fri Feb 19 11:40:42 2021","The main experiment item","yes","Lexical_Decision_Task.osexp","C:/Users/tessa","no","Andale Mono","no","18","no","white","no","yes","576","legacy","71","71","3","C:/Users/tessa/subject-5223282.csv","legacy","Lentiform Loewenfeld","3.3.7","yes","yes","600bd7cfb6416f0113b04181","602110864497cf011d9c0822","0","j","NA","space","space","space","space","j","750","NA","43","6331","17748","9668","750","2","legacy","1024","2","48000","-16","task","5223282","even","NA","39198","41247","41202","195007","7122","31205","13457","195511","142497","195003","195511","194755","41247","196264","37523","194255","7106","169263","Lexical Decision Task","72","55782","76","yes","1024"
"3.2757719","0","5","slea","non-word","94.8051948051948","94.8051948051948","733.3766233766233","733.3766233766233","black","no","legacy","legacy","legacy","0","uniform","1","undefined","undefined","undefined","1","f","0","0","0","0","76","0","0","0","76","0","72","76","72","0","72","3","76","0","76","Fri Feb 19 11:40:42 2021","The main experiment item","yes","Lexical_Decision_Task.osexp","C:/Users/tessa","no","Andale Mono","no","18","no","white","no","yes","576","legacy","72","72","3","C:/Users/tessa/subject-5223282.csv","legacy","Lentiform Loewenfeld","3.3.7","yes","yes","600bd7cfb6416f0113b04181","602110864497cf011d9c0822","0","f","NA","space","space","space","space","f","688","NA","43","6331","17748","9668","688","2","legacy","1024","2","48000","-16","task","5223282","even","NA","39198","41247","41202","196988","7122","31205","13457","197492","142497","196985","197492","196786","41247","198182","37523","196286","7106","169263","Lexical Decision Task","73","56470","77","yes","1024"
"3.230789326","5.38","5","prim","word","94.87179487179488","94.87179487179488","734.5641025641025","734.5641025641025","black","no","legacy","legacy","legacy","0","uniform","1","undefined","undefined","undefined","1","j","0","0","0","0","77","0","0","0","77","0","73","77","73","0","73","3","77","0","77","Fri Feb 19 11:40:42 2021","The main experiment item","yes","Lexical_Decision_Task.osexp","C:/Users/tessa","no","Andale Mono","no","18","no","white","no","yes","576","legacy","73","73","3","C:/Users/tessa/subject-5223282.csv","legacy","Lentiform Loewenfeld","3.3.7","yes","yes","600bd7cfb6416f0113b04181","602110864497cf011d9c0822","0","j","NA","space","space","space","space","j","826","NA","43","6331","17748","9668","826","2","legacy","1024","2","48000","-16","task","5223282","even","NA","39198","41247","41202","198913","7122","31205","13457","199418","142497","198909","199418","198699","41247","200248","37523","198199","7106","169263","Lexical Decision Task","74","57296","78","yes","1024"
"3.307211407","6.07","7","honk","word","94.9367088607595","94.9367088607595","733.9113924050633","733.9113924050633","black","no","legacy","legacy","legacy","0","uniform","1","undefined","undefined","undefined","1","j","0","0","0","0","78","0","0","0","78","0","74","78","74","0","74","3","78","0","78","Fri Feb 19 11:40:42 2021","The main experiment item","yes","Lexical_Decision_Task.osexp","C:/Users/tessa","no","Andale Mono","no","18","no","white","no","yes","576","legacy","74","74","3","C:/Users/tessa/subject-5223282.csv","legacy","Lentiform Loewenfeld","3.3.7","yes","yes","600bd7cfb6416f0113b04181","602110864497cf011d9c0822","0","j","NA","space","space","space","space","j","683","NA","43","6331","17748","9668","683","2","legacy","1024","2","48000","-16","task","5223282","even","NA","39198","41247","41202","200992","7122","31205","13457","201497","142497","200986","201497","200764","41247","202182","37523","200263","7106","169263","Lexical Decision Task","75","57979","79","yes","1024"
"2.703007489","8.37","3","pulp","word","95","95","732.45","732.45","black","no","legacy","legacy","legacy","0","uniform","1","undefined","undefined","undefined","1","j","0","0","0","0","79","0","0","0","79","0","75","79","75","0","75","3","79","0","79","Fri Feb 19 11:40:42 2021","The main experiment item","yes","Lexical_Decision_Task.osexp","C:/Users/tessa","no","Andale Mono","no","18","no","white","no","yes","576","legacy","75","75","3","C:/Users/tessa/subject-5223282.csv","legacy","Lentiform Loewenfeld","3.3.7","yes","yes","600bd7cfb6416f0113b04181","602110864497cf011d9c0822","0","j","NA","space","space","space","space","j","617","NA","43","6331","17748","9668","617","2","legacy","1024","2","48000","-16","task","5223282","even","NA","39198","41247","41202","202842","7122","31205","13457","203347","142497","202839","203347","202694","41247","203967","37523","202194","7106","169263","Lexical Decision Task","76","58596","80","yes","1024"
"2.799799878","0","4","ciff","non-word","95.06172839506173","95.06172839506173","737.1358024691358","737.1358024691358","black","no","legacy","legacy","legacy","0","uniform","1","undefined","undefined","undefined","1","f","0","0","0","0","80","0","0","0","80","0","76","80","76","0","76","3","80","0","80","Fri Feb 19 11:40:42 2021","The main experiment item","yes","Lexical_Decision_Task.osexp","C:/Users/tessa","no","Andale Mono","no","18","no","white","no","yes","576","legacy","76","76","3","C:/Users/tessa/subject-5223282.csv","legacy","Lentiform Loewenfeld","3.3.7","yes","yes","600bd7cfb6416f0113b04181","602110864497cf011d9c0822","0","f","NA","space","space","space","space","f","1112","NA","43","6331","17748","9668","1112","2","legacy","1024","2","48000","-16","task","5223282","even","NA","39198","41247","41202","204723","7122","31205","13457","205227","142497","204717","205229","204490","41247","206343","37523","203989","7106","169263","Lexical Decision Task","77","59708","81","yes","1024"
"3.090140555","5.81","8","pout","word","95.1219512195122","95.1219512195122","737.3658536585366","737.3658536585366","black","no","legacy","legacy","legacy","0","uniform","1","undefined","undefined","undefined","1","j","0","0","0","0","81","0","0","0","81","0","77","81","77","0","77","3","81","0","81","Fri Feb 19 11:40:42 2021","The main experiment item","yes","Lexical_Decision_Task.osexp","C:/Users/tessa","no","Andale Mono","no","18","no","white","no","yes","576","legacy","77","77","3","C:/Users/tessa/subject-5223282.csv","legacy","Lentiform Loewenfeld","3.3.7","yes","yes","600bd7cfb6416f0113b04181","602110864497cf011d9c0822","0","j","NA","space","space","space","space","j","756","NA","43","6331","17748","9668","756","2","legacy","1024","2","48000","-16","task","5223282","even","NA","39198","41247","41202","207103","7122","31205","13457","207608","142497","207098","207608","206867","41247","208366","37523","206365","7106","169263","Lexical Decision Task","78","60464","82","yes","1024"
"2.807758206","6.25","4","hurl","word","95.18072289156626","95.18072289156626","737.433734939759","737.433734939759","black","no","legacy","legacy","legacy","0","uniform","1","undefined","undefined","undefined","1","j","0","0","0","0","82","0","0","0","82","0","78","82","78","0","78","3","82","0","82","Fri Feb 19 11:40:42 2021","The main experiment item","yes","Lexical_Decision_Task.osexp","C:/Users/tessa","no","Andale Mono","no","18","no","white","no","yes","576","legacy","78","78","3","C:/Users/tessa/subject-5223282.csv","legacy","Lentiform Loewenfeld","3.3.7","yes","yes","600bd7cfb6416f0113b04181","602110864497cf011d9c0822","0","j","NA","space","space","space","space","j","743","NA","43","6331","17748","9668","743","2","legacy","1024","2","48000","-16","task","5223282","even","NA","39198","41247","41202","209108","7122","31205","13457","209612","142497","209102","209613","208877","41247","210358","37523","208376","7106","169263","Lexical Decision Task","79","61207","83","yes","1024"
"3.077974404","10.41","8","tool","word","95.23809523809524","95.23809523809524","735.75","735.75","black","no","legacy","legacy","legacy","0","uniform","1","undefined","undefined","undefined","1","j","0","0","0","0","83","0","0","0","83","0","79","83","79","0","79","3","83","0","83","Fri Feb 19 11:40:42 2021","The main experiment item","yes","Lexical_Decision_Task.osexp","C:/Users/tessa","no","Andale Mono","no","18","no","white","no","yes","576","legacy","79","79","3","C:/Users/tessa/subject-5223282.csv","legacy","Lentiform Loewenfeld","3.3.7","yes","yes","600bd7cfb6416f0113b04181","602110864497cf011d9c0822","0","j","NA","space","space","space","space","j","596","NA","43","6331","17748","9668","596","2","legacy","1024","2","48000","-16","task","5223282","even","NA","39198","41247","41202","211103","7122","31205","13457","211608","142497","211097","211608","210868","41247","212207","37523","210368","7106","169263","Lexical Decision Task","80","61803","84","yes","1024"
"2.937852093","0","7","bamp","non-word","95.29411764705883","95.29411764705883","735.3764705882353","735.3764705882353","black","no","legacy","legacy","legacy","0","uniform","1","undefined","undefined","undefined","1","f","0","0","0","0","84","0","0","0","84","0","80","84","80","0","80","3","84","0","84","Fri Feb 19 11:40:42 2021","The main experiment item","yes","Lexical_Decision_Task.osexp","C:/Users/tessa","no","Andale Mono","no","18","no","white","no","yes","576","legacy","80","80","3","C:/Users/tessa/subject-5223282.csv","legacy","Lentiform Loewenfeld","3.3.7","yes","yes","600bd7cfb6416f0113b04181","602110864497cf011d9c0822","0","f","NA","space","space","space","space","f","704","NA","43","6331","17748","9668","704","2","legacy","1024","2","48000","-16","task","5223282","even","NA","39198","41247","41202","212892","7122","31205","13457","213397","142497","212889","213397","212725","41247","214103","37523","212225","7106","169263","Lexical Decision Task","81","62507","85","yes","1024"
"2.68604012","0","4","pumb","non-word","95.34883720930233","95.34883720930233","738.546511627907","738.546511627907","black","no","legacy","legacy","legacy","0","uniform","1","undefined","undefined","undefined","1","f","0","0","0","0","85","0","0","0","85","0","81","85","81","0","81","3","85","0","85","Fri Feb 19 11:40:42 2021","The main experiment item","yes","Lexical_Decision_Task.osexp","C:/Users/tessa","no","Andale Mono","no","18","no","white","no","yes","576","legacy","81","81","3","C:/Users/tessa/subject-5223282.csv","legacy","Lentiform Loewenfeld","3.3.7","yes","yes","600bd7cfb6416f0113b04181","602110864497cf011d9c0822","0","f","NA","space","space","space","space","f","1008","NA","43","6331","17748","9668","1008","2","legacy","1024","2","48000","-16","task","5223282","even","NA","39198","41247","41202","214843","7122","31205","13457","215348","142497","214838","215348","214620","41247","216358","37523","214120","7106","169263","Lexical Decision Task","82","63515","86","yes","1024"
"3.20871002","7.15","8","cram","word","95.40229885057471","95.40229885057471","740.4022988505748","740.4022988505748","black","no","legacy","legacy","legacy","0","uniform","1","undefined","undefined","undefined","1","j","0","0","0","0","86","0","0","0","86","0","82","86","82","0","82","3","86","0","86","Fri Feb 19 11:40:42 2021","The main experiment item","yes","Lexical_Decision_Task.osexp","C:/Users/tessa","no","Andale Mono","no","18","no","white","no","yes","576","legacy","82","82","3","C:/Users/tessa/subject-5223282.csv","legacy","Lentiform Loewenfeld","3.3.7","yes","yes","600bd7cfb6416f0113b04181","602110864497cf011d9c0822","0","j","NA","space","space","space","space","j","900","NA","43","6331","17748","9668","900","2","legacy","1024","2","48000","-16","task","5223282","even","NA","39198","41247","41202","217112","7122","31205","13457","217617","142497","217107","217617","216876","41247","218518","37523","216376","7106","169263","Lexical Decision Task","83","64415","87","yes","1024"
"2.698387659","6.66","7","skid","word","95.45454545454545","95.45454545454545","740.8295454545455","740.8295454545455","black","no","legacy","legacy","legacy","0","uniform","1","undefined","undefined","undefined","1","j","0","0","0","0","87","0","0","0","87","0","83","87","83","0","83","3","87","0","87","Fri Feb 19 11:40:42 2021","The main experiment item","yes","Lexical_Decision_Task.osexp","C:/Users/tessa","no","Andale Mono","no","18","no","white","no","yes","576","legacy","83","83","3","C:/Users/tessa/subject-5223282.csv","legacy","Lentiform Loewenfeld","3.3.7","yes","yes","600bd7cfb6416f0113b04181","602110864497cf011d9c0822","0","j","NA","space","space","space","space","j","778","NA","43","6331","17748","9668","778","2","legacy","1024","2","48000","-16","task","5223282","even","NA","39198","41247","41202","219280","7122","31205","13457","219785","142497","219275","219786","219038","41247","220566","37523","218537","7106","169263","Lexical Decision Task","84","65193","88","yes","1024"
"2.843025032","0","9","pusk","non-word","95.50561797752809","95.50561797752809","742.6629213483146","742.6629213483146","black","no","legacy","legacy","legacy","0","uniform","1","undefined","undefined","undefined","1","f","0","0","0","0","88","0","0","0","88","0","84","88","84","0","84","3","88","0","88","Fri Feb 19 11:40:42 2021","The main experiment item","yes","Lexical_Decision_Task.osexp","C:/Users/tessa","no","Andale Mono","no","18","no","white","no","yes","576","legacy","84","84","3","C:/Users/tessa/subject-5223282.csv","legacy","Lentiform Loewenfeld","3.3.7","yes","yes","600bd7cfb6416f0113b04181","602110864497cf011d9c0822","0","f","NA","space","space","space","space","f","904","NA","43","6331","17748","9668","904","2","legacy","1024","2","48000","-16","task","5223282","even","NA","39198","41247","41202","221284","7122","31205","13457","221789","142497","221279","221789","221077","41247","222695","37523","220577","7106","169263","Lexical Decision Task","85","66097","89","yes","1024"
"2.696644658","5.78","2","yolk","word","95.55555555555556","95.55555555555556","741.6222222222223","741.6222222222223","black","no","legacy","legacy","legacy","0","uniform","1","undefined","undefined","undefined","1","j","0","0","0","0","89","0","0","0","89","0","85","89","85","0","85","3","89","0","89","Fri Feb 19 11:40:42 2021","The main experiment item","yes","Lexical_Decision_Task.osexp","C:/Users/tessa","no","Andale Mono","no","18","no","white","no","yes","576","legacy","85","85","3","C:/Users/tessa/subject-5223282.csv","legacy","Lentiform Loewenfeld","3.3.7","yes","yes","600bd7cfb6416f0113b04181","602110864497cf011d9c0822","0","j","NA","space","space","space","space","j","649","NA","43","6331","17748","9668","649","2","legacy","1024","2","48000","-16","task","5223282","even","NA","39198","41247","41202","223412","7122","31205","13457","223916","142497","223408","223916","223213","41247","224566","37523","222713","7106","169263","Lexical Decision Task","86","66746","90","yes","1024"
"3.531734309","0","6","lerd","non-word","95.6043956043956","95.6043956043956","741.0439560439561","741.0439560439561","black","no","legacy","legacy","legacy","0","uniform","1","undefined","undefined","undefined","1","f","0","0","0","0","90","0","0","0","90","0","86","90","86","0","86","3","90","0","90","Fri Feb 19 11:40:42 2021","The main experiment item","yes","Lexical_Decision_Task.osexp","C:/Users/tessa","no","Andale Mono","no","18","no","white","no","yes","576","legacy","86","86","3","C:/Users/tessa/subject-5223282.csv","legacy","Lentiform Loewenfeld","3.3.7","yes","yes","600bd7cfb6416f0113b04181","602110864497cf011d9c0822","0","f","NA","space","space","space","space","f","689","NA","43","6331","17748","9668","689","2","legacy","1024","2","48000","-16","task","5223282","even","NA","39198","41247","41202","225308","7122","31205","13457","225812","142497","225303","225812","225076","41247","226503","37523","224576","7106","169263","Lexical Decision Task","87","67435","91","yes","1024"
"2.972819734","0","4","scew","non-word","95.65217391304348","95.65217391304348","742.5652173913044","742.5652173913044","black","no","legacy","legacy","legacy","0","uniform","1","undefined","undefined","undefined","1","f","0","0","0","0","91","0","0","0","91","0","87","91","87","0","87","3","91","0","91","Fri Feb 19 11:40:42 2021","The main experiment item","yes","Lexical_Decision_Task.osexp","C:/Users/tessa","no","Andale Mono","no","18","no","white","no","yes","576","legacy","87","87","3","C:/Users/tessa/subject-5223282.csv","legacy","Lentiform Loewenfeld","3.3.7","yes","yes","600bd7cfb6416f0113b04181","602110864497cf011d9c0822","0","f","NA","space","space","space","space","f","881","NA","43","6331","17748","9668","881","2","legacy","1024","2","48000","-16","task","5223282","even","NA","39198","41247","41202","227251","7122","31205","13457","227755","142497","227245","227756","227013","41247","228640","37523","226513","7106","169263","Lexical Decision Task","88","68316","92","yes","1024"
"3.165936429","0","7","leps","non-word","95.6989247311828","95.6989247311828","747.6451612903226","747.6451612903226","black","no","legacy","legacy","legacy","0","uniform","1","undefined","undefined","undefined","1","f","0","0","0","0","92","0","0","0","92","0","88","92","88","0","88","3","92","0","92","Fri Feb 19 11:40:42 2021","The main experiment item","yes","Lexical_Decision_Task.osexp","C:/Users/tessa","no","Andale Mono","no","18","no","white","no","yes","576","legacy","88","88","3","C:/Users/tessa/subject-5223282.csv","legacy","Lentiform Loewenfeld","3.3.7","yes","yes","600bd7cfb6416f0113b04181","602110864497cf011d9c0822","0","f","NA","space","space","space","space","f","1215","NA","43","6331","17748","9668","1215","2","legacy","1024","2","48000","-16","task","5223282","even","NA","39198","41247","41202","229397","7122","31205","13457","229901","142497","229390","229902","229161","41247","231120","37523","228661","7106","169263","Lexical Decision Task","89","69531","93","yes","1024"
"3.431095062","5.74","9","perk","word","95.74468085106383","95.74468085106383","746.9893617021277","746.9893617021277","black","no","legacy","legacy","legacy","0","uniform","1","undefined","undefined","undefined","1","j","0","0","0","0","93","0","0","0","93","0","89","93","89","0","89","3","93","0","93","Fri Feb 19 11:40:42 2021","The main experiment item","yes","Lexical_Decision_Task.osexp","C:/Users/tessa","no","Andale Mono","no","18","no","white","no","yes","576","legacy","89","89","3","C:/Users/tessa/subject-5223282.csv","legacy","Lentiform Loewenfeld","3.3.7","yes","yes","600bd7cfb6416f0113b04181","602110864497cf011d9c0822","0","j","NA","space","space","space","space","j","686","NA","43","6331","17748","9668","686","2","legacy","1024","2","48000","-16","task","5223282","even","NA","39198","41247","41202","231767","7122","31205","13457","232270","142497","231763","232270","231641","41247","232959","37523","231140","7106","169263","Lexical Decision Task","90","70217","94","yes","1024"
"3.303771854","0","9","dath","non-word","95.78947368421052","95.78947368421052","745.6421052631579","745.6421052631579","black","no","legacy","legacy","legacy","0","uniform","1","undefined","undefined","undefined","1","f","0","0","0","0","94","0","0","0","94","0","90","94","90","0","90","3","94","0","94","Fri Feb 19 11:40:42 2021","The main experiment item","yes","Lexical_Decision_Task.osexp","C:/Users/tessa","no","Andale Mono","no","18","no","white","no","yes","576","legacy","90","90","3","C:/Users/tessa/subject-5223282.csv","legacy","Lentiform Loewenfeld","3.3.7","yes","yes","600bd7cfb6416f0113b04181","602110864497cf011d9c0822","0","f","NA","space","space","space","space","f","619","NA","43","6331","17748","9668","619","2","legacy","1024","2","48000","-16","task","5223282","even","NA","39198","41247","41202","233710","7122","31205","13457","234216","142497","233704","234217","233478","41247","234839","37523","232978","7106","169263","Lexical Decision Task","91","70836","95","yes","1024"
"3.492014979","0","9","yine","non-word","95.83333333333333","95.83333333333333","744.2083333333334","744.2083333333334","black","no","legacy","legacy","legacy","0","uniform","1","undefined","undefined","undefined","1","f","0","0","0","0","95","0","0","0","95","0","91","95","91","0","91","3","95","0","95","Fri Feb 19 11:40:42 2021","The main experiment item","yes","Lexical_Decision_Task.osexp","C:/Users/tessa","no","Andale Mono","no","18","no","white","no","yes","576","legacy","91","91","3","C:/Users/tessa/subject-5223282.csv","legacy","Lentiform Loewenfeld","3.3.7","yes","yes","600bd7cfb6416f0113b04181","602110864497cf011d9c0822","0","f","NA","space","space","space","space","f","608","NA","43","6331","17748","9668","608","2","legacy","1024","2","48000","-16","task","5223282","even","NA","39198","41247","41202","235595","7122","31205","13457","236100","142497","235589","236100","235358","41247","236709","37523","234858","7106","169263","Lexical Decision Task","92","71444","96","yes","1024"
"3.368162872","0","4","ferk","non-word","95.87628865979381","95.87628865979381","742.4020618556701","742.4020618556701","black","no","legacy","legacy","legacy","0","uniform","1","undefined","undefined","undefined","1","f","0","0","0","0","96","0","0","0","96","0","92","96","92","0","92","3","96","0","96","Fri Feb 19 11:40:42 2021","The main experiment item","yes","Lexical_Decision_Task.osexp","C:/Users/tessa","no","Andale Mono","no","18","no","white","no","yes","576","legacy","92","92","3","C:/Users/tessa/subject-5223282.csv","legacy","Lentiform Loewenfeld","3.3.7","yes","yes","600bd7cfb6416f0113b04181","602110864497cf011d9c0822","0","f","NA","space","space","space","space","f","569","NA","43","6331","17748","9668","569","2","legacy","1024","2","48000","-16","task","5223282","even","NA","39198","41247","41202","237419","7122","31205","13457","237923","142497","237415","237923","237218","41247","238493","37523","236717","7106","169263","Lexical Decision Task","93","72013","97","yes","1024"
"2.668385917","5.48","4","twig","word","95.91836734693878","95.91836734693878","741.4897959183673","741.4897959183673","black","no","legacy","legacy","legacy","0","uniform","1","undefined","undefined","undefined","1","j","0","0","0","0","97","0","0","0","97","0","93","97","93","0","93","3","97","0","97","Fri Feb 19 11:40:42 2021","The main experiment item","yes","Lexical_Decision_Task.osexp","C:/Users/tessa","no","Andale Mono","no","18","no","white","no","yes","576","legacy","93","93","3","C:/Users/tessa/subject-5223282.csv","legacy","Lentiform Loewenfeld","3.3.7","yes","yes","600bd7cfb6416f0113b04181","602110864497cf011d9c0822","0","j","NA","space","space","space","space","j","653","NA","43","6331","17748","9668","653","2","legacy","1024","2","48000","-16","task","5223282","even","NA","39198","41247","41202","239262","7122","31205","13457","239766","142497","239256","239767","239011","41247","240425","37523","238511","7106","169263","Lexical Decision Task","94","72666","98","yes","1024"
"2.920123326","7.43","4","duel","word","95.95959595959596","95.95959595959596","740.7878787878788","740.7878787878788","black","no","legacy","legacy","legacy","0","uniform","1","undefined","undefined","undefined","1","j","0","0","0","0","98","0","0","0","98","0","94","98","94","0","94","3","98","0","98","Fri Feb 19 11:40:42 2021","The main experiment item","yes","Lexical_Decision_Task.osexp","C:/Users/tessa","no","Andale Mono","no","18","no","white","no","yes","576","legacy","94","94","3","C:/Users/tessa/subject-5223282.csv","legacy","Lentiform Loewenfeld","3.3.7","yes","yes","600bd7cfb6416f0113b04181","602110864497cf011d9c0822","0","j","NA","space","space","space","space","j","672","NA","43","6331","17748","9668","672","2","legacy","1024","2","48000","-16","task","5223282","even","NA","39198","41247","41202","241132","7122","31205","13457","241636","142497","241129","241637","240942","41247","242312","37523","240441","7106","169263","Lexical Decision Task","95","73338","99","yes","1024"
"3.14849993","10.75","7","hour","word","96","96","740.42","740.42","black","no","legacy","legacy","legacy","0","uniform","1","undefined","undefined","undefined","1","j","0","0","0","0","99","0","0","0","99","0","95","99","95","0","95","3","99","0","99","Fri Feb 19 11:40:42 2021","The main experiment item","yes","Lexical_Decision_Task.osexp","C:/Users/tessa","no","Andale Mono","no","18","no","white","no","yes","576","legacy","95","95","3","C:/Users/tessa/subject-5223282.csv","legacy","Lentiform Loewenfeld","3.3.7","yes","yes","600bd7cfb6416f0113b04181","602110864497cf011d9c0822","0","j","NA","space","space","space","space","j","704","NA","43","6331","17748","9668","704","2","legacy","1024","2","48000","-16","task","5223282","even","NA","39198","41247","41202","243060","7122","31205","13457","243564","142497","243053","243564","242826","41247","244271","37523","242326","7106","169263","Lexical Decision Task","96","74042","100","yes","1024"
"2.814027728","8.2","4","foam","word","96.03960396039604","96.03960396039604","739.1089108910891","739.1089108910891","black","no","legacy","legacy","legacy","0","uniform","1","undefined","undefined","undefined","1","j","0","0","0","0","100","0","0","0","100","0","96","100","96","0","96","3","100","0","100","Fri Feb 19 11:40:42 2021","The main experiment item","yes","Lexical_Decision_Task.osexp","C:/Users/tessa","no","Andale Mono","no","18","no","white","no","yes","576","legacy","96","96","3","C:/Users/tessa/subject-5223282.csv","legacy","Lentiform Loewenfeld","3.3.7","yes","yes","600bd7cfb6416f0113b04181","602110864497cf011d9c0822","0","j","NA","space","space","space","space","j","608","NA","43","6331","17748","9668","608","2","legacy","1024","2","48000","-16","task","5223282","even","NA","39198","41247","41202","245026","7122","31205","13457","245531","142497","245020","245532","244788","41247","246142","37523","244288","7106","169263","Lexical Decision Task","97","74650","101","yes","1024"
"3.274157849","0","8","leet","non-word","96.07843137254902","96.07843137254902","738.0588235294117","738.0588235294117","black","no","legacy","legacy","legacy","0","uniform","1","undefined","undefined","undefined","1","f","0","0","0","0","101","0","0","0","101","0","97","101","97","0","97","3","101","0","101","Fri Feb 19 11:40:42 2021","The main experiment item","yes","Lexical_Decision_Task.osexp","C:/Users/tessa","no","Andale Mono","no","18","no","white","no","yes","576","legacy","97","97","3","C:/Users/tessa/subject-5223282.csv","legacy","Lentiform Loewenfeld","3.3.7","yes","yes","600bd7cfb6416f0113b04181","602110864497cf011d9c0822","0","f","NA","space","space","space","space","f","632","NA","43","6331","17748","9668","632","2","legacy","1024","2","48000","-16","task","5223282","even","NA","39198","41247","41202","246890","7122","31205","13457","247396","142497","246885","247396","246660","41247","248033","37523","246159","7106","169263","Lexical Decision Task","98","75282","102","yes","1024"
"3.132473155","0","4","glim","non-word","96.11650485436893","96.11650485436893","739.3106796116505","739.3106796116505","black","no","legacy","legacy","legacy","0","uniform","1","undefined","undefined","undefined","1","f","0","0","0","0","102","0","0","0","102","0","98","102","98","0","98","3","102","0","102","Fri Feb 19 11:40:42 2021","The main experiment item","yes","Lexical_Decision_Task.osexp","C:/Users/tessa","no","Andale Mono","no","18","no","white","no","yes","576","legacy","98","98","3","C:/Users/tessa/subject-5223282.csv","legacy","Lentiform Loewenfeld","3.3.7","yes","yes","600bd7cfb6416f0113b04181","602110864497cf011d9c0822","0","f","NA","space","space","space","space","f","867","NA","43","6331","17748","9668","867","2","legacy","1024","2","48000","-16","task","5223282","even","NA","39198","41247","41202","248745","7122","31205","13457","249249","142497","248741","249249","248555","41247","250119","37523","248055","7106","169263","Lexical Decision Task","99","76149","103","yes","1024"
