"Log_BG","Log_Freq_HAL","Ortho_N","Stimulus","Type","acc","accuracy","average_response_time","avg_rt","background","bidi","canvas_backend","clock_backend","color_backend","compensation","coordinates","correct","correct_Experimental_intro","correct_Introduction","correct_Practice_intro","correct_experimenter_kb","correct_response","count_End_Of_Experiment","count_End_Of_Practice","count_Experimental_Loop","count_Experimental_intro","count_Fixation","count_Introduction","count_Practice_Loop","count_Practice_intro","count_Stimulus","count_block_break_feedback","count_experimental_sequence","count_experimenter_kb","count_increment_trial_count","count_init_trial_count","count_logger","count_practice_sequence","count_right","count_task","count_wrong","datetime","description","disable_garbage_collection","experiment_file","experiment_path","font_bold","font_family","font_italic","font_size","font_underline","foreground","form_clicks","fullscreen","height","keyboard_backend","live_row","live_row_Experimental_Loop","live_row_Practice_Loop","logfile","mouse_backend","opensesame_codename","opensesame_version","osf_always_upload_data","osf_always_upload_experiment","osf_datanode_id","osf_id","repeat_cycle","response","response_End_Of_Experiment","response_Experimental_intro","response_Introduction","response_Practice_intro","response_block_break_feedback","response_experimenter_kb","response_time","response_time_End_Of_Experiment","response_time_Experimental_intro","response_time_Introduction","response_time_Practice_intro","response_time_block_break_feedback","response_time_experimenter_kb","round_decimals","sampler_backend","sound_buf_size","sound_channels","sound_freq","sound_sample_size","start","subject_nr","subject_parity","time_End_Of_Experiment","time_End_Of_Practice","time_Experimental_Loop","time_Experimental_intro","time_Fixation","time_Introduction","time_Practice_Loop","time_Practice_intro","time_Stimulus","time_block_break_feedback","time_experimental_sequence","time_experimenter_kb","time_increment_trial_count","time_init_trial_count","time_logger","time_practice_sequence","time_right","time_task","time_wrong","title","total_correct","total_response_time","total_responses","uniform_coordinates","width"
"2.744553742","0","2","nawk","non-word","100","100","894.8","894.8","black","no","legacy","legacy","legacy","0","uniform","1","undefined","undefined","undefined","1","f","0","0","0","0","4","0","0","0","4","NA","0","4","0","0","0","3","4","0","4","Thu Feb 18 13:32:45 2021","The main experiment item","yes","Lexical_Decision_Task.osexp","/Users/sancholoreto/Desktop/University/1. Second Year/Semenar Two/1. Units/1. Cognition and Language/3. Seminar/S2. ASS The Lexical Decision Task","no","Andale Mono","no","18","no","white","no","yes","576","legacy","0","0","3","/Users/sancholoreto/Desktop/University/1. Second Year/Semenar Two/1. Units/1. Cognition and Language/3. Seminar/S2. ASS The Lexical Decision Task/subject-5215752.csv","legacy","Lentiform Loewenfeld","3.3.7","yes","yes","600bd7cfb6416f0113b04181","602110864497cf011d9c0822","0","f","NA","space","space","space","NA","f","1027","NA","8893","44364","11618","NA","1027","2","legacy","1024","2","48000","-16","task","5215752","even","NA","72727","83623","74729","83644","9081","65076","53453","84147","NA","83643","84147","NA","83623","85175","70783","72204","9018","NA","Lexical Decision Task","5","4474","5","yes","1024"
"2.821076612","0","4","lult","non-word","100","100","862.3333333333334","862.3333333333334","black","no","legacy","legacy","legacy","0","uniform","1","undefined","undefined","undefined","1","f","0","0","0","0","5","0","0","0","5","NA","1","5","1","0","1","3","5","0","5","Thu Feb 18 13:32:45 2021","The main experiment item","yes","Lexical_Decision_Task.osexp","/Users/sancholoreto/Desktop/University/1. Second Year/Semenar Two/1. Units/1. Cognition and Language/3. Seminar/S2. ASS The Lexical Decision Task","no","Andale Mono","no","18","no","white","no","yes","576","legacy","1","1","3","/Users/sancholoreto/Desktop/University/1. Second Year/Semenar Two/1. Units/1. Cognition and Language/3. Seminar/S2. ASS The Lexical Decision Task/subject-5215752.csv","legacy","Lentiform Loewenfeld","3.3.7","yes","yes","600bd7cfb6416f0113b04181","602110864497cf011d9c0822","0","f","NA","space","space","space","NA","f","700","NA","8893","44364","11618","NA","700","2","legacy","1024","2","48000","-16","task","5215752","even","NA","72727","83623","74729","85727","9081","65076","53453","86229","NA","85724","86229","85679","83623","86930","70783","85179","9018","NA","Lexical Decision Task","6","5174","6","yes","1024"
"3.120025233","0","2","nyst","non-word","100","100","827.4285714285714","827.4285714285714","black","no","legacy","legacy","legacy","0","uniform","1","undefined","undefined","undefined","1","f","0","0","0","0","6","0","0","0","6","NA","2","6","2","0","2","3","6","0","6","Thu Feb 18 13:32:45 2021","The main experiment item","yes","Lexical_Decision_Task.osexp","/Users/sancholoreto/Desktop/University/1. Second Year/Semenar Two/1. Units/1. Cognition and Language/3. Seminar/S2. ASS The Lexical Decision Task","no","Andale Mono","no","18","no","white","no","yes","576","legacy","2","2","3","/Users/sancholoreto/Desktop/University/1. Second Year/Semenar Two/1. Units/1. Cognition and Language/3. Seminar/S2. ASS The Lexical Decision Task/subject-5215752.csv","legacy","Lentiform Loewenfeld","3.3.7","yes","yes","600bd7cfb6416f0113b04181","602110864497cf011d9c0822","0","f","NA","space","space","space","NA","f","618","NA","8893","44364","11618","NA","618","2","legacy","1024","2","48000","-16","task","5215752","even","NA","72727","83623","74729","87477","9081","65076","53453","87980","NA","87475","87980","87433","83623","88599","70783","86933","9018","NA","Lexical Decision Task","7","5792","7","yes","1024"
"2.971428938","9.86","7","spot","word","100","100","780.375","780.375","black","no","legacy","legacy","legacy","0","uniform","1","undefined","undefined","undefined","1","j","0","0","0","0","7","0","0","0","7","NA","3","7","3","0","3","3","7","0","7","Thu Feb 18 13:32:45 2021","The main experiment item","yes","Lexical_Decision_Task.osexp","/Users/sancholoreto/Desktop/University/1. Second Year/Semenar Two/1. Units/1. Cognition and Language/3. Seminar/S2. ASS The Lexical Decision Task","no","Andale Mono","no","18","no","white","no","yes","576","legacy","3","3","3","/Users/sancholoreto/Desktop/University/1. Second Year/Semenar Two/1. Units/1. Cognition and Language/3. Seminar/S2. ASS The Lexical Decision Task/subject-5215752.csv","legacy","Lentiform Loewenfeld","3.3.7","yes","yes","600bd7cfb6416f0113b04181","602110864497cf011d9c0822","0","j","NA","space","space","space","NA","j","451","NA","8893","44364","11618","NA","451","2","legacy","1024","2","48000","-16","task","5215752","even","NA","72727","83623","74729","89145","9081","65076","53453","89647","NA","89143","89647","89101","83623","90099","70783","88601","9018","NA","Lexical Decision Task","8","6243","8","yes","1024"
"3.299579929","0","2","flis","non-word","100","100","755.3333333333334","755.3333333333334","black","no","legacy","legacy","legacy","0","uniform","1","undefined","undefined","undefined","1","f","0","0","0","0","8","0","0","0","8","NA","4","8","4","0","4","3","8","0","8","Thu Feb 18 13:32:45 2021","The main experiment item","yes","Lexical_Decision_Task.osexp","/Users/sancholoreto/Desktop/University/1. Second Year/Semenar Two/1. Units/1. Cognition and Language/3. Seminar/S2. ASS The Lexical Decision Task","no","Andale Mono","no","18","no","white","no","yes","576","legacy","4","4","3","/Users/sancholoreto/Desktop/University/1. Second Year/Semenar Two/1. Units/1. Cognition and Language/3. Seminar/S2. ASS The Lexical Decision Task/subject-5215752.csv","legacy","Lentiform Loewenfeld","3.3.7","yes","yes","600bd7cfb6416f0113b04181","602110864497cf011d9c0822","0","f","NA","space","space","space","NA","f","555","NA","8893","44364","11618","NA","555","2","legacy","1024","2","48000","-16","task","5215752","even","NA","72727","83623","74729","90646","9081","65076","53453","91148","NA","90644","91149","90602","83623","91705","70783","90102","9018","NA","Lexical Decision Task","9","6798","9","yes","1024"
"3.132473155","0","4","glim","non-word","90","90","747.8","747.8","black","no","legacy","legacy","legacy","0","uniform","0","undefined","undefined","undefined","0","f","0","0","0","0","9","0","0","0","9","NA","5","9","5","0","5","3","9","0","9","Thu Feb 18 13:32:45 2021","The main experiment item","yes","Lexical_Decision_Task.osexp","/Users/sancholoreto/Desktop/University/1. Second Year/Semenar Two/1. Units/1. Cognition and Language/3. Seminar/S2. ASS The Lexical Decision Task","no","Andale Mono","no","18","no","white","no","yes","576","legacy","5","5","3","/Users/sancholoreto/Desktop/University/1. Second Year/Semenar Two/1. Units/1. Cognition and Language/3. Seminar/S2. ASS The Lexical Decision Task/subject-5215752.csv","legacy","Lentiform Loewenfeld","3.3.7","yes","yes","600bd7cfb6416f0113b04181","602110864497cf011d9c0822","0","j","NA","space","space","space","NA","j","680","NA","8893","44364","11618","NA","680","2","legacy","1024","2","48000","-16","task","5215752","even","NA","72727","83623","74729","92251","9081","65076","53453","92753","NA","92249","92753","92207","83623","93434","70783","91707","9018","NA","Lexical Decision Task","9","7478","10","yes","1024"
"2.842815106","7.86","8","lump","word","90.9090909090909","90.9090909090909","748.9090909090909","748.9090909090909","black","no","legacy","legacy","legacy","0","uniform","1","undefined","undefined","undefined","1","j","0","0","0","0","10","0","0","0","10","NA","6","10","6","0","6","3","10","0","10","Thu Feb 18 13:32:45 2021","The main experiment item","yes","Lexical_Decision_Task.osexp","/Users/sancholoreto/Desktop/University/1. Second Year/Semenar Two/1. Units/1. Cognition and Language/3. Seminar/S2. ASS The Lexical Decision Task","no","Andale Mono","no","18","no","white","no","yes","576","legacy","6","6","3","/Users/sancholoreto/Desktop/University/1. Second Year/Semenar Two/1. Units/1. Cognition and Language/3. Seminar/S2. ASS The Lexical Decision Task/subject-5215752.csv","legacy","Lentiform Loewenfeld","3.3.7","yes","yes","600bd7cfb6416f0113b04181","602110864497cf011d9c0822","0","j","NA","space","space","space","NA","j","760","NA","8893","44364","11618","NA","760","2","legacy","1024","2","48000","-16","task","5215752","even","NA","72727","83623","74729","94983","9081","65076","53453","95485","NA","94981","95486","94936","83623","96246","70783","91707","9018","93436","Lexical Decision Task","10","8238","11","yes","1024"
"3.481012421","8.34","5","teen","word","91.66666666666667","91.66666666666667","740.1666666666666","740.1666666666666","black","no","legacy","legacy","legacy","0","uniform","1","undefined","undefined","undefined","1","j","0","0","0","0","11","0","0","0","11","NA","7","11","7","0","7","3","11","0","11","Thu Feb 18 13:32:45 2021","The main experiment item","yes","Lexical_Decision_Task.osexp","/Users/sancholoreto/Desktop/University/1. Second Year/Semenar Two/1. Units/1. Cognition and Language/3. Seminar/S2. ASS The Lexical Decision Task","no","Andale Mono","no","18","no","white","no","yes","576","legacy","7","7","3","/Users/sancholoreto/Desktop/University/1. Second Year/Semenar Two/1. Units/1. Cognition and Language/3. Seminar/S2. ASS The Lexical Decision Task/subject-5215752.csv","legacy","Lentiform Loewenfeld","3.3.7","yes","yes","600bd7cfb6416f0113b04181","602110864497cf011d9c0822","0","j","NA","space","space","space","NA","j","644","NA","8893","44364","11618","NA","644","2","legacy","1024","2","48000","-16","task","5215752","even","NA","72727","83623","74729","96795","9081","65076","53453","97296","NA","96792","97296","96750","83623","97941","70783","96249","9018","93436","Lexical Decision Task","11","8882","12","yes","1024"
"3.067070856","9.39","3","loud","word","92.3076923076923","92.3076923076923","735.3846153846154","735.3846153846154","black","no","legacy","legacy","legacy","0","uniform","1","undefined","undefined","undefined","1","j","0","0","0","0","12","0","0","0","12","NA","8","12","8","0","8","3","12","0","12","Thu Feb 18 13:32:45 2021","The main experiment item","yes","Lexical_Decision_Task.osexp","/Users/sancholoreto/Desktop/University/1. Second Year/Semenar Two/1. Units/1. Cognition and Language/3. Seminar/S2. ASS The Lexical Decision Task","no","Andale Mono","no","18","no","white","no","yes","576","legacy","8","8","3","/Users/sancholoreto/Desktop/University/1. Second Year/Semenar Two/1. Units/1. Cognition and Language/3. Seminar/S2. ASS The Lexical Decision Task/subject-5215752.csv","legacy","Lentiform Loewenfeld","3.3.7","yes","yes","600bd7cfb6416f0113b04181","602110864497cf011d9c0822","0","j","NA","space","space","space","NA","j","678","NA","8893","44364","11618","NA","678","2","legacy","1024","2","48000","-16","task","5215752","even","NA","72727","83623","74729","98486","9081","65076","53453","98988","NA","98484","98988","98443","83623","99667","70783","97943","9018","93436","Lexical Decision Task","12","9560","13","yes","1024"
"2.664328519","0","4","plux","non-word","92.85714285714286","92.85714285714286","792.1428571428571","792.1428571428571","black","no","legacy","legacy","legacy","0","uniform","1","undefined","undefined","undefined","1","f","0","0","0","0","13","0","0","0","13","NA","9","13","9","0","9","3","13","0","13","Thu Feb 18 13:32:45 2021","The main experiment item","yes","Lexical_Decision_Task.osexp","/Users/sancholoreto/Desktop/University/1. Second Year/Semenar Two/1. Units/1. Cognition and Language/3. Seminar/S2. ASS The Lexical Decision Task","no","Andale Mono","no","18","no","white","no","yes","576","legacy","9","9","3","/Users/sancholoreto/Desktop/University/1. Second Year/Semenar Two/1. Units/1. Cognition and Language/3. Seminar/S2. ASS The Lexical Decision Task/subject-5215752.csv","legacy","Lentiform Loewenfeld","3.3.7","yes","yes","600bd7cfb6416f0113b04181","602110864497cf011d9c0822","0","f","NA","space","space","space","NA","f","1530","NA","8893","44364","11618","NA","1530","2","legacy","1024","2","48000","-16","task","5215752","even","NA","72727","83623","74729","100214","9081","65076","53453","100716","NA","100212","100716","100169","83623","102247","70783","99669","9018","93436","Lexical Decision Task","13","11090","14","yes","1024"
"3.276537627","9.15","5","trap","word","93.33333333333333","93.33333333333333","782.7333333333333","782.7333333333333","black","no","legacy","legacy","legacy","0","uniform","1","undefined","undefined","undefined","1","j","0","0","0","0","14","0","0","0","14","NA","10","14","10","0","10","3","14","0","14","Thu Feb 18 13:32:45 2021","The main experiment item","yes","Lexical_Decision_Task.osexp","/Users/sancholoreto/Desktop/University/1. Second Year/Semenar Two/1. Units/1. Cognition and Language/3. Seminar/S2. ASS The Lexical Decision Task","no","Andale Mono","no","18","no","white","no","yes","576","legacy","10","10","3","/Users/sancholoreto/Desktop/University/1. Second Year/Semenar Two/1. Units/1. Cognition and Language/3. Seminar/S2. ASS The Lexical Decision Task/subject-5215752.csv","legacy","Lentiform Loewenfeld","3.3.7","yes","yes","600bd7cfb6416f0113b04181","602110864497cf011d9c0822","0","j","NA","space","space","space","NA","j","651","NA","8893","44364","11618","NA","651","2","legacy","1024","2","48000","-16","task","5215752","even","NA","72727","83623","74729","102793","9081","65076","53453","103295","NA","102791","103296","102749","83623","103948","70783","102249","9018","93436","Lexical Decision Task","14","11741","15","yes","1024"
"2.807758206","6.25","4","hurl","word","93.75","93.75","786.625","786.625","black","no","legacy","legacy","legacy","0","uniform","1","undefined","undefined","undefined","1","j","0","0","0","0","15","0","0","0","15","NA","11","15","11","0","11","3","15","0","15","Thu Feb 18 13:32:45 2021","The main experiment item","yes","Lexical_Decision_Task.osexp","/Users/sancholoreto/Desktop/University/1. Second Year/Semenar Two/1. Units/1. Cognition and Language/3. Seminar/S2. ASS The Lexical Decision Task","no","Andale Mono","no","18","no","white","no","yes","576","legacy","11","11","3","/Users/sancholoreto/Desktop/University/1. Second Year/Semenar Two/1. Units/1. Cognition and Language/3. Seminar/S2. ASS The Lexical Decision Task/subject-5215752.csv","legacy","Lentiform Loewenfeld","3.3.7","yes","yes","600bd7cfb6416f0113b04181","602110864497cf011d9c0822","0","j","NA","space","space","space","NA","j","845","NA","8893","44364","11618","NA","845","2","legacy","1024","2","48000","-16","task","5215752","even","NA","72727","83623","74729","104495","9081","65076","53453","104997","NA","104493","104998","104450","83623","105844","70783","103950","9018","93436","Lexical Decision Task","15","12586","16","yes","1024"
"2.594027722","9.08","8","skip","word","94.11764705882354","94.11764705882354","773.2941176470588","773.2941176470588","black","no","legacy","legacy","legacy","0","uniform","1","undefined","undefined","undefined","1","j","0","0","0","0","16","0","0","0","16","NA","12","16","12","0","12","3","16","0","16","Thu Feb 18 13:32:45 2021","The main experiment item","yes","Lexical_Decision_Task.osexp","/Users/sancholoreto/Desktop/University/1. Second Year/Semenar Two/1. Units/1. Cognition and Language/3. Seminar/S2. ASS The Lexical Decision Task","no","Andale Mono","no","18","no","white","no","yes","576","legacy","12","12","3","/Users/sancholoreto/Desktop/University/1. Second Year/Semenar Two/1. Units/1. Cognition and Language/3. Seminar/S2. ASS The Lexical Decision Task/subject-5215752.csv","legacy","Lentiform Loewenfeld","3.3.7","yes","yes","600bd7cfb6416f0113b04181","602110864497cf011d9c0822","0","j","NA","space","space","space","NA","j","560","NA","8893","44364","11618","NA","560","2","legacy","1024","2","48000","-16","task","5215752","even","NA","72727","83623","74729","106391","9081","65076","53453","106893","NA","106389","106894","106347","83623","107455","70783","105846","9018","93436","Lexical Decision Task","16","13146","17","yes","1024"
"2.80048796","0","8","pife","non-word","94.44444444444444","94.44444444444444","777.2222222222222","777.2222222222222","black","no","legacy","legacy","legacy","0","uniform","1","undefined","undefined","undefined","1","f","0","0","0","0","17","0","0","0","17","NA","13","17","13","0","13","3","17","0","17","Thu Feb 18 13:32:45 2021","The main experiment item","yes","Lexical_Decision_Task.osexp","/Users/sancholoreto/Desktop/University/1. Second Year/Semenar Two/1. Units/1. Cognition and Language/3. Seminar/S2. ASS The Lexical Decision Task","no","Andale Mono","no","18","no","white","no","yes","576","legacy","13","13","3","/Users/sancholoreto/Desktop/University/1. Second Year/Semenar Two/1. Units/1. Cognition and Language/3. Seminar/S2. ASS The Lexical Decision Task/subject-5215752.csv","legacy","Lentiform Loewenfeld","3.3.7","yes","yes","600bd7cfb6416f0113b04181","602110864497cf011d9c0822","0","f","NA","space","space","space","NA","f","844","NA","8893","44364","11618","NA","844","2","legacy","1024","2","48000","-16","task","5215752","even","NA","72727","83623","74729","108000","9081","65076","53453","108502","NA","107998","108502","107957","83623","109347","70783","107457","9018","93436","Lexical Decision Task","17","13990","18","yes","1024"
"2.996511672","0","7","hoil","non-word","94.73684210526316","94.73684210526316","774.9473684210526","774.9473684210526","black","no","legacy","legacy","legacy","0","uniform","1","undefined","undefined","undefined","1","f","0","0","0","0","18","0","0","0","18","NA","14","18","14","0","14","3","18","0","18","Thu Feb 18 13:32:45 2021","The main experiment item","yes","Lexical_Decision_Task.osexp","/Users/sancholoreto/Desktop/University/1. Second Year/Semenar Two/1. Units/1. Cognition and Language/3. Seminar/S2. ASS The Lexical Decision Task","no","Andale Mono","no","18","no","white","no","yes","576","legacy","14","14","3","/Users/sancholoreto/Desktop/University/1. Second Year/Semenar Two/1. Units/1. Cognition and Language/3. Seminar/S2. ASS The Lexical Decision Task/subject-5215752.csv","legacy","Lentiform Loewenfeld","3.3.7","yes","yes","600bd7cfb6416f0113b04181","602110864497cf011d9c0822","0","f","NA","space","space","space","NA","f","734","NA","8893","44364","11618","NA","734","2","legacy","1024","2","48000","-16","task","5215752","even","NA","72727","83623","74729","109892","9081","65076","53453","110395","NA","109890","110395","109849","83623","111130","70783","109349","9018","93436","Lexical Decision Task","18","14724","19","yes","1024"
"3.194328374","9.42","6","harm","word","95","95","764.35","764.35","black","no","legacy","legacy","legacy","0","uniform","1","undefined","undefined","undefined","1","j","0","0","0","0","19","0","0","0","19","NA","15","19","15","0","15","3","19","0","19","Thu Feb 18 13:32:45 2021","The main experiment item","yes","Lexical_Decision_Task.osexp","/Users/sancholoreto/Desktop/University/1. Second Year/Semenar Two/1. Units/1. Cognition and Language/3. Seminar/S2. ASS The Lexical Decision Task","no","Andale Mono","no","18","no","white","no","yes","576","legacy","15","15","3","/Users/sancholoreto/Desktop/University/1. Second Year/Semenar Two/1. Units/1. Cognition and Language/3. Seminar/S2. ASS The Lexical Decision Task/subject-5215752.csv","legacy","Lentiform Loewenfeld","3.3.7","yes","yes","600bd7cfb6416f0113b04181","602110864497cf011d9c0822","0","j","NA","space","space","space","NA","j","563","NA","8893","44364","11618","NA","563","2","legacy","1024","2","48000","-16","task","5215752","even","NA","72727","83623","74729","111677","9081","65076","53453","112179","NA","111675","112180","111632","83623","112744","70783","111132","9018","93436","Lexical Decision Task","19","15287","20","yes","1024"
"2.868644438","10.52","4","town","word","95.23809523809524","95.23809523809524","753.3809523809524","753.3809523809524","black","no","legacy","legacy","legacy","0","uniform","1","undefined","undefined","undefined","1","j","0","0","0","0","20","0","0","0","20","NA","16","20","16","0","16","3","20","0","20","Thu Feb 18 13:32:45 2021","The main experiment item","yes","Lexical_Decision_Task.osexp","/Users/sancholoreto/Desktop/University/1. Second Year/Semenar Two/1. Units/1. Cognition and Language/3. Seminar/S2. ASS The Lexical Decision Task","no","Andale Mono","no","18","no","white","no","yes","576","legacy","16","16","3","/Users/sancholoreto/Desktop/University/1. Second Year/Semenar Two/1. Units/1. Cognition and Language/3. Seminar/S2. ASS The Lexical Decision Task/subject-5215752.csv","legacy","Lentiform Loewenfeld","3.3.7","yes","yes","600bd7cfb6416f0113b04181","602110864497cf011d9c0822","0","j","NA","space","space","space","NA","j","534","NA","8893","44364","11618","NA","534","2","legacy","1024","2","48000","-16","task","5215752","even","NA","72727","83623","74729","113291","9081","65076","53453","113792","NA","113289","113792","113247","83623","114327","70783","112746","9018","93436","Lexical Decision Task","20","15821","21","yes","1024"
"2.708989954","9.28","9","bowl","word","95.45454545454545","95.45454545454545","747.2272727272727","747.2272727272727","black","no","legacy","legacy","legacy","0","uniform","1","undefined","undefined","undefined","1","j","0","0","0","0","21","0","0","0","21","NA","17","21","17","0","17","3","21","0","21","Thu Feb 18 13:32:45 2021","The main experiment item","yes","Lexical_Decision_Task.osexp","/Users/sancholoreto/Desktop/University/1. Second Year/Semenar Two/1. Units/1. Cognition and Language/3. Seminar/S2. ASS The Lexical Decision Task","no","Andale Mono","no","18","no","white","no","yes","576","legacy","17","17","3","/Users/sancholoreto/Desktop/University/1. Second Year/Semenar Two/1. Units/1. Cognition and Language/3. Seminar/S2. ASS The Lexical Decision Task/subject-5215752.csv","legacy","Lentiform Loewenfeld","3.3.7","yes","yes","600bd7cfb6416f0113b04181","602110864497cf011d9c0822","0","j","NA","space","space","space","NA","j","618","NA","8893","44364","11618","NA","618","2","legacy","1024","2","48000","-16","task","5215752","even","NA","72727","83623","74729","114873","9081","65076","53453","115375","NA","114871","115375","114829","83623","115994","70783","114329","9018","93436","Lexical Decision Task","21","16439","22","yes","1024"
"3.20996159","0","4","clee","non-word","95.65217391304348","95.65217391304348","745.2173913043479","745.2173913043479","black","no","legacy","legacy","legacy","0","uniform","1","undefined","undefined","undefined","1","f","0","0","0","0","22","0","0","0","22","NA","18","22","18","0","18","3","22","0","22","Thu Feb 18 13:32:45 2021","The main experiment item","yes","Lexical_Decision_Task.osexp","/Users/sancholoreto/Desktop/University/1. Second Year/Semenar Two/1. Units/1. Cognition and Language/3. Seminar/S2. ASS The Lexical Decision Task","no","Andale Mono","no","18","no","white","no","yes","576","legacy","18","18","3","/Users/sancholoreto/Desktop/University/1. Second Year/Semenar Two/1. Units/1. Cognition and Language/3. Seminar/S2. ASS The Lexical Decision Task/subject-5215752.csv","legacy","Lentiform Loewenfeld","3.3.7","yes","yes","600bd7cfb6416f0113b04181","602110864497cf011d9c0822","0","f","NA","space","space","space","NA","f","701","NA","8893","44364","11618","NA","701","2","legacy","1024","2","48000","-16","task","5215752","even","NA","72727","83623","74729","116540","9081","65076","53453","117042","NA","116538","117042","116496","83623","117744","70783","115996","9018","93436","Lexical Decision Task","22","17140","23","yes","1024"
"2.576725172","0","8","gowl","non-word","91.66666666666667","91.66666666666667","741.3333333333334","741.3333333333334","black","no","legacy","legacy","legacy","0","uniform","0","undefined","undefined","undefined","0","f","0","0","0","0","23","0","0","0","23","NA","19","23","19","0","19","3","23","0","23","Thu Feb 18 13:32:45 2021","The main experiment item","yes","Lexical_Decision_Task.osexp","/Users/sancholoreto/Desktop/University/1. Second Year/Semenar Two/1. Units/1. Cognition and Language/3. Seminar/S2. ASS The Lexical Decision Task","no","Andale Mono","no","18","no","white","no","yes","576","legacy","19","19","3","/Users/sancholoreto/Desktop/University/1. Second Year/Semenar Two/1. Units/1. Cognition and Language/3. Seminar/S2. ASS The Lexical Decision Task/subject-5215752.csv","legacy","Lentiform Loewenfeld","3.3.7","yes","yes","600bd7cfb6416f0113b04181","602110864497cf011d9c0822","0","j","NA","space","space","space","NA","j","652","NA","8893","44364","11618","NA","652","2","legacy","1024","2","48000","-16","task","5215752","even","NA","72727","83623","74729","118289","9081","65076","53453","118791","NA","118287","118791","118246","83623","119444","70783","117746","9018","93436","Lexical Decision Task","22","17792","24","yes","1024"
"2.812467698","0","7","hafe","non-word","92","92","734.96","734.96","black","no","legacy","legacy","legacy","0","uniform","1","undefined","undefined","undefined","1","f","0","0","0","0","24","0","0","0","24","NA","20","24","20","0","20","3","24","0","24","Thu Feb 18 13:32:45 2021","The main experiment item","yes","Lexical_Decision_Task.osexp","/Users/sancholoreto/Desktop/University/1. Second Year/Semenar Two/1. Units/1. Cognition and Language/3. Seminar/S2. ASS The Lexical Decision Task","no","Andale Mono","no","18","no","white","no","yes","576","legacy","20","20","3","/Users/sancholoreto/Desktop/University/1. Second Year/Semenar Two/1. Units/1. Cognition and Language/3. Seminar/S2. ASS The Lexical Decision Task/subject-5215752.csv","legacy","Lentiform Loewenfeld","3.3.7","yes","yes","600bd7cfb6416f0113b04181","602110864497cf011d9c0822","0","f","NA","space","space","space","NA","f","582","NA","8893","44364","11618","NA","582","2","legacy","1024","2","48000","-16","task","5215752","even","NA","72727","83623","74729","120996","9081","65076","53453","121498","NA","120994","121499","120946","83623","122082","70783","117746","9018","119446","Lexical Decision Task","23","18374","25","yes","1024"
"2.873320602","0","4","lurg","non-word","92.3076923076923","92.3076923076923","736","736","black","no","legacy","legacy","legacy","0","uniform","1","undefined","undefined","undefined","1","f","0","0","0","0","25","0","0","0","25","NA","21","25","21","0","21","3","25","0","25","Thu Feb 18 13:32:45 2021","The main experiment item","yes","Lexical_Decision_Task.osexp","/Users/sancholoreto/Desktop/University/1. Second Year/Semenar Two/1. Units/1. Cognition and Language/3. Seminar/S2. ASS The Lexical Decision Task","no","Andale Mono","no","18","no","white","no","yes","576","legacy","21","21","3","/Users/sancholoreto/Desktop/University/1. Second Year/Semenar Two/1. Units/1. Cognition and Language/3. Seminar/S2. ASS The Lexical Decision Task/subject-5215752.csv","legacy","Lentiform Loewenfeld","3.3.7","yes","yes","600bd7cfb6416f0113b04181","602110864497cf011d9c0822","0","f","NA","space","space","space","NA","f","762","NA","8893","44364","11618","NA","762","2","legacy","1024","2","48000","-16","task","5215752","even","NA","72727","83623","74729","122627","9081","65076","53453","123129","NA","122625","123130","122584","83623","123893","70783","122084","9018","119446","Lexical Decision Task","24","19136","26","yes","1024"
"3.168400243","9.12","6","horn","word","92.5925925925926","92.5925925925926","737.1111111111111","737.1111111111111","black","no","legacy","legacy","legacy","0","uniform","1","undefined","undefined","undefined","1","j","0","0","0","0","26","0","0","0","26","NA","22","26","22","0","22","3","26","0","26","Thu Feb 18 13:32:45 2021","The main experiment item","yes","Lexical_Decision_Task.osexp","/Users/sancholoreto/Desktop/University/1. Second Year/Semenar Two/1. Units/1. Cognition and Language/3. Seminar/S2. ASS The Lexical Decision Task","no","Andale Mono","no","18","no","white","no","yes","576","legacy","22","22","3","/Users/sancholoreto/Desktop/University/1. Second Year/Semenar Two/1. Units/1. Cognition and Language/3. Seminar/S2. ASS The Lexical Decision Task/subject-5215752.csv","legacy","Lentiform Loewenfeld","3.3.7","yes","yes","600bd7cfb6416f0113b04181","602110864497cf011d9c0822","0","j","NA","space","space","space","NA","j","766","NA","8893","44364","11618","NA","766","2","legacy","1024","2","48000","-16","task","5215752","even","NA","72727","83623","74729","124439","9081","65076","53453","124941","NA","124437","124942","124395","83623","125709","70783","123895","9018","119446","Lexical Decision Task","25","19902","27","yes","1024"
"3.067193647","6.73","6","raft","word","92.85714285714286","92.85714285714286","744.1071428571429","744.1071428571429","black","no","legacy","legacy","legacy","0","uniform","1","undefined","undefined","undefined","1","j","0","0","0","0","27","0","0","0","27","NA","23","27","23","0","23","3","27","0","27","Thu Feb 18 13:32:45 2021","The main experiment item","yes","Lexical_Decision_Task.osexp","/Users/sancholoreto/Desktop/University/1. Second Year/Semenar Two/1. Units/1. Cognition and Language/3. Seminar/S2. ASS The Lexical Decision Task","no","Andale Mono","no","18","no","white","no","yes","576","legacy","23","23","3","/Users/sancholoreto/Desktop/University/1. Second Year/Semenar Two/1. Units/1. Cognition and Language/3. Seminar/S2. ASS The Lexical Decision Task/subject-5215752.csv","legacy","Lentiform Loewenfeld","3.3.7","yes","yes","600bd7cfb6416f0113b04181","602110864497cf011d9c0822","0","j","NA","space","space","space","NA","j","933","NA","8893","44364","11618","NA","933","2","legacy","1024","2","48000","-16","task","5215752","even","NA","72727","83623","74729","126254","9081","65076","53453","126756","NA","126253","126757","126211","83623","127691","70783","125711","9018","119446","Lexical Decision Task","26","20835","28","yes","1024"
"2.6599162","0","2","saff","non-word","93.10344827586206","93.10344827586206","741.551724137931","741.551724137931","black","no","legacy","legacy","legacy","0","uniform","1","undefined","undefined","undefined","1","f","0","0","0","0","28","0","0","0","28","NA","24","28","24","0","24","3","28","0","28","Thu Feb 18 13:32:45 2021","The main experiment item","yes","Lexical_Decision_Task.osexp","/Users/sancholoreto/Desktop/University/1. Second Year/Semenar Two/1. Units/1. Cognition and Language/3. Seminar/S2. ASS The Lexical Decision Task","no","Andale Mono","no","18","no","white","no","yes","576","legacy","24","24","3","/Users/sancholoreto/Desktop/University/1. Second Year/Semenar Two/1. Units/1. Cognition and Language/3. Seminar/S2. ASS The Lexical Decision Task/subject-5215752.csv","legacy","Lentiform Loewenfeld","3.3.7","yes","yes","600bd7cfb6416f0113b04181","602110864497cf011d9c0822","0","f","NA","space","space","space","NA","f","670","NA","8893","44364","11618","NA","670","2","legacy","1024","2","48000","-16","task","5215752","even","NA","72727","83623","74729","128238","9081","65076","53453","128740","NA","128236","128741","128194","83623","129412","70783","127693","9018","119446","Lexical Decision Task","27","21505","29","yes","1024"
"3.081107167","0","6","chot","non-word","93.33333333333333","93.33333333333333","738.4333333333333","738.4333333333333","black","no","legacy","legacy","legacy","0","uniform","1","undefined","undefined","undefined","1","f","0","0","0","0","29","0","0","0","29","NA","25","29","25","0","25","3","29","0","29","Thu Feb 18 13:32:45 2021","The main experiment item","yes","Lexical_Decision_Task.osexp","/Users/sancholoreto/Desktop/University/1. Second Year/Semenar Two/1. Units/1. Cognition and Language/3. Seminar/S2. ASS The Lexical Decision Task","no","Andale Mono","no","18","no","white","no","yes","576","legacy","25","25","3","/Users/sancholoreto/Desktop/University/1. Second Year/Semenar Two/1. Units/1. Cognition and Language/3. Seminar/S2. ASS The Lexical Decision Task/subject-5215752.csv","legacy","Lentiform Loewenfeld","3.3.7","yes","yes","600bd7cfb6416f0113b04181","602110864497cf011d9c0822","0","f","NA","space","space","space","NA","f","648","NA","8893","44364","11618","NA","648","2","legacy","1024","2","48000","-16","task","5215752","even","NA","72727","83623","74729","129957","9081","65076","53453","130459","NA","129955","130459","129915","83623","131108","70783","129415","9018","119446","Lexical Decision Task","28","22153","30","yes","1024"
"3.257359335","8","6","brew","word","93.54838709677419","93.54838709677419","731.9354838709677","731.9354838709677","black","no","legacy","legacy","legacy","0","uniform","1","undefined","undefined","undefined","1","j","0","0","0","0","30","0","0","0","30","NA","26","30","26","0","26","3","30","0","30","Thu Feb 18 13:32:45 2021","The main experiment item","yes","Lexical_Decision_Task.osexp","/Users/sancholoreto/Desktop/University/1. Second Year/Semenar Two/1. Units/1. Cognition and Language/3. Seminar/S2. ASS The Lexical Decision Task","no","Andale Mono","no","18","no","white","no","yes","576","legacy","26","26","3","/Users/sancholoreto/Desktop/University/1. Second Year/Semenar Two/1. Units/1. Cognition and Language/3. Seminar/S2. ASS The Lexical Decision Task/subject-5215752.csv","legacy","Lentiform Loewenfeld","3.3.7","yes","yes","600bd7cfb6416f0113b04181","602110864497cf011d9c0822","0","j","NA","space","space","space","NA","j","537","NA","8893","44364","11618","NA","537","2","legacy","1024","2","48000","-16","task","5215752","even","NA","72727","83623","74729","131653","9081","65076","53453","132155","NA","131651","132156","131611","83623","132694","70783","131111","9018","119446","Lexical Decision Task","29","22690","31","yes","1024"
"2.698100546","0","9","mulk","non-word","93.75","93.75","732.6875","732.6875","black","no","legacy","legacy","legacy","0","uniform","1","undefined","undefined","undefined","1","f","0","0","0","0","31","0","0","0","31","NA","27","31","27","0","27","3","31","0","31","Thu Feb 18 13:32:45 2021","The main experiment item","yes","Lexical_Decision_Task.osexp","/Users/sancholoreto/Desktop/University/1. Second Year/Semenar Two/1. Units/1. Cognition and Language/3. Seminar/S2. ASS The Lexical Decision Task","no","Andale Mono","no","18","no","white","no","yes","576","legacy","27","27","3","/Users/sancholoreto/Desktop/University/1. Second Year/Semenar Two/1. Units/1. Cognition and Language/3. Seminar/S2. ASS The Lexical Decision Task/subject-5215752.csv","legacy","Lentiform Loewenfeld","3.3.7","yes","yes","600bd7cfb6416f0113b04181","602110864497cf011d9c0822","0","f","NA","space","space","space","NA","f","756","NA","8893","44364","11618","NA","756","2","legacy","1024","2","48000","-16","task","5215752","even","NA","72727","83623","74729","133241","9081","65076","53453","133743","NA","133239","133744","133197","83623","134501","70783","132697","9018","119446","Lexical Decision Task","30","23446","32","yes","1024"
"3.031812271","6.52","3","gulp","word","90.9090909090909","90.9090909090909","735.3333333333334","735.3333333333334","black","no","legacy","legacy","legacy","0","uniform","0","undefined","undefined","undefined","0","j","0","0","0","0","32","0","0","0","32","NA","28","32","28","0","28","3","32","0","32","Thu Feb 18 13:32:45 2021","The main experiment item","yes","Lexical_Decision_Task.osexp","/Users/sancholoreto/Desktop/University/1. Second Year/Semenar Two/1. Units/1. Cognition and Language/3. Seminar/S2. ASS The Lexical Decision Task","no","Andale Mono","no","18","no","white","no","yes","576","legacy","28","28","3","/Users/sancholoreto/Desktop/University/1. Second Year/Semenar Two/1. Units/1. Cognition and Language/3. Seminar/S2. ASS The Lexical Decision Task/subject-5215752.csv","legacy","Lentiform Loewenfeld","3.3.7","yes","yes","600bd7cfb6416f0113b04181","602110864497cf011d9c0822","0","f","NA","space","space","space","NA","f","820","NA","8893","44364","11618","NA","820","2","legacy","1024","2","48000","-16","task","5215752","even","NA","72727","83623","74729","135047","9081","65076","53453","135549","NA","135045","135549","135003","83623","136370","70783","134503","9018","119446","Lexical Decision Task","30","24266","33","yes","1024"
"3.037294994","8.64","7","roof","word","91.17647058823529","91.17647058823529","732.7352941176471","732.7352941176471","black","no","legacy","legacy","legacy","0","uniform","1","undefined","undefined","undefined","1","j","0","0","0","0","33","0","0","0","33","NA","29","33","29","0","29","3","33","0","33","Thu Feb 18 13:32:45 2021","The main experiment item","yes","Lexical_Decision_Task.osexp","/Users/sancholoreto/Desktop/University/1. Second Year/Semenar Two/1. Units/1. Cognition and Language/3. Seminar/S2. ASS The Lexical Decision Task","no","Andale Mono","no","18","no","white","no","yes","576","legacy","29","29","3","/Users/sancholoreto/Desktop/University/1. Second Year/Semenar Two/1. Units/1. Cognition and Language/3. Seminar/S2. ASS The Lexical Decision Task/subject-5215752.csv","legacy","Lentiform Loewenfeld","3.3.7","yes","yes","600bd7cfb6416f0113b04181","602110864497cf011d9c0822","0","j","NA","space","space","space","NA","j","647","NA","8893","44364","11618","NA","647","2","legacy","1024","2","48000","-16","task","5215752","even","NA","72727","83623","74729","137919","9081","65076","53453","138421","NA","137917","138422","137872","83623","139070","70783","134503","9018","136372","Lexical Decision Task","31","24913","34","yes","1024"
"2.884795364","0","6","flob","non-word","91.42857142857143","91.42857142857143","739.9714285714285","739.9714285714285","black","no","legacy","legacy","legacy","0","uniform","1","undefined","undefined","undefined","1","f","0","0","0","0","34","0","0","0","34","NA","30","34","30","0","30","3","34","0","34","Thu Feb 18 13:32:45 2021","The main experiment item","yes","Lexical_Decision_Task.osexp","/Users/sancholoreto/Desktop/University/1. Second Year/Semenar Two/1. Units/1. Cognition and Language/3. Seminar/S2. ASS The Lexical Decision Task","no","Andale Mono","no","18","no","white","no","yes","576","legacy","30","30","3","/Users/sancholoreto/Desktop/University/1. Second Year/Semenar Two/1. Units/1. Cognition and Language/3. Seminar/S2. ASS The Lexical Decision Task/subject-5215752.csv","legacy","Lentiform Loewenfeld","3.3.7","yes","yes","600bd7cfb6416f0113b04181","602110864497cf011d9c0822","0","f","NA","space","space","space","NA","f","986","NA","8893","44364","11618","NA","986","2","legacy","1024","2","48000","-16","task","5215752","even","NA","72727","83623","74729","139616","9081","65076","53453","140118","NA","139614","140118","139572","83623","141105","70783","139072","9018","136372","Lexical Decision Task","32","25899","35","yes","1024"
"2.698387659","6.66","7","skid","word","91.66666666666667","91.66666666666667","749.3888888888889","749.3888888888889","black","no","legacy","legacy","legacy","0","uniform","1","undefined","undefined","undefined","1","j","0","0","0","0","35","0","0","0","35","NA","31","35","31","0","31","3","35","0","35","Thu Feb 18 13:32:45 2021","The main experiment item","yes","Lexical_Decision_Task.osexp","/Users/sancholoreto/Desktop/University/1. Second Year/Semenar Two/1. Units/1. Cognition and Language/3. Seminar/S2. ASS The Lexical Decision Task","no","Andale Mono","no","18","no","white","no","yes","576","legacy","31","31","3","/Users/sancholoreto/Desktop/University/1. Second Year/Semenar Two/1. Units/1. Cognition and Language/3. Seminar/S2. ASS The Lexical Decision Task/subject-5215752.csv","legacy","Lentiform Loewenfeld","3.3.7","yes","yes","600bd7cfb6416f0113b04181","602110864497cf011d9c0822","0","j","NA","space","space","space","NA","j","1079","NA","8893","44364","11618","NA","1079","2","legacy","1024","2","48000","-16","task","5215752","even","NA","72727","83623","74729","141651","9081","65076","53453","142153","NA","141649","142154","141607","83623","143234","70783","141107","9018","136372","Lexical Decision Task","33","26978","36","yes","1024"
"3.039414119","0","9","meep","non-word","91.89189189189189","91.89189189189189","749.6486486486486","749.6486486486486","black","no","legacy","legacy","legacy","0","uniform","1","undefined","undefined","undefined","1","f","0","0","0","0","36","0","0","0","36","NA","32","36","32","0","32","3","36","0","36","Thu Feb 18 13:32:45 2021","The main experiment item","yes","Lexical_Decision_Task.osexp","/Users/sancholoreto/Desktop/University/1. Second Year/Semenar Two/1. Units/1. Cognition and Language/3. Seminar/S2. ASS The Lexical Decision Task","no","Andale Mono","no","18","no","white","no","yes","576","legacy","32","32","3","/Users/sancholoreto/Desktop/University/1. Second Year/Semenar Two/1. Units/1. Cognition and Language/3. Seminar/S2. ASS The Lexical Decision Task/subject-5215752.csv","legacy","Lentiform Loewenfeld","3.3.7","yes","yes","600bd7cfb6416f0113b04181","602110864497cf011d9c0822","0","f","NA","space","space","space","NA","f","759","NA","8893","44364","11618","NA","759","2","legacy","1024","2","48000","-16","task","5215752","even","NA","72727","83623","74729","143778","9081","65076","53453","144280","NA","143776","144280","143736","83623","145040","70783","143236","9018","136372","Lexical Decision Task","34","27737","37","yes","1024"
"3.140404328","10.66","9","deep","word","92.10526315789474","92.10526315789474","744.0526315789474","744.0526315789474","black","no","legacy","legacy","legacy","0","uniform","1","undefined","undefined","undefined","1","j","0","0","0","0","37","0","0","0","37","NA","33","37","33","0","33","3","37","0","37","Thu Feb 18 13:32:45 2021","The main experiment item","yes","Lexical_Decision_Task.osexp","/Users/sancholoreto/Desktop/University/1. Second Year/Semenar Two/1. Units/1. Cognition and Language/3. Seminar/S2. ASS The Lexical Decision Task","no","Andale Mono","no","18","no","white","no","yes","576","legacy","33","33","3","/Users/sancholoreto/Desktop/University/1. Second Year/Semenar Two/1. Units/1. Cognition and Language/3. Seminar/S2. ASS The Lexical Decision Task/subject-5215752.csv","legacy","Lentiform Loewenfeld","3.3.7","yes","yes","600bd7cfb6416f0113b04181","602110864497cf011d9c0822","0","j","NA","space","space","space","NA","j","537","NA","8893","44364","11618","NA","537","2","legacy","1024","2","48000","-16","task","5215752","even","NA","72727","83623","74729","145586","9081","65076","53453","146088","NA","145584","146088","145542","83623","146626","70783","145042","9018","136372","Lexical Decision Task","35","28274","38","yes","1024"
"2.703007489","8.37","3","pulp","word","92.3076923076923","92.3076923076923","742.3076923076923","742.3076923076923","black","no","legacy","legacy","legacy","0","uniform","1","undefined","undefined","undefined","1","j","0","0","0","0","38","0","0","0","38","NA","34","38","34","0","34","3","38","0","38","Thu Feb 18 13:32:45 2021","The main experiment item","yes","Lexical_Decision_Task.osexp","/Users/sancholoreto/Desktop/University/1. Second Year/Semenar Two/1. Units/1. Cognition and Language/3. Seminar/S2. ASS The Lexical Decision Task","no","Andale Mono","no","18","no","white","no","yes","576","legacy","34","34","3","/Users/sancholoreto/Desktop/University/1. Second Year/Semenar Two/1. Units/1. Cognition and Language/3. Seminar/S2. ASS The Lexical Decision Task/subject-5215752.csv","legacy","Lentiform Loewenfeld","3.3.7","yes","yes","600bd7cfb6416f0113b04181","602110864497cf011d9c0822","0","j","NA","space","space","space","NA","j","676","NA","8893","44364","11618","NA","676","2","legacy","1024","2","48000","-16","task","5215752","even","NA","72727","83623","74729","147172","9081","65076","53453","147674","NA","147170","147675","147128","83623","148352","70783","146628","9018","136372","Lexical Decision Task","36","28950","39","yes","1024"
"3.460446784","0","5","dess","non-word","92.5","92.5","739.15","739.15","black","no","legacy","legacy","legacy","0","uniform","1","undefined","undefined","undefined","1","f","0","0","0","0","39","0","0","0","39","NA","35","39","35","0","35","3","39","0","39","Thu Feb 18 13:32:45 2021","The main experiment item","yes","Lexical_Decision_Task.osexp","/Users/sancholoreto/Desktop/University/1. Second Year/Semenar Two/1. Units/1. Cognition and Language/3. Seminar/S2. ASS The Lexical Decision Task","no","Andale Mono","no","18","no","white","no","yes","576","legacy","35","35","3","/Users/sancholoreto/Desktop/University/1. Second Year/Semenar Two/1. Units/1. Cognition and Language/3. Seminar/S2. ASS The Lexical Decision Task/subject-5215752.csv","legacy","Lentiform Loewenfeld","3.3.7","yes","yes","600bd7cfb6416f0113b04181","602110864497cf011d9c0822","0","f","NA","space","space","space","NA","f","616","NA","8893","44364","11618","NA","616","2","legacy","1024","2","48000","-16","task","5215752","even","NA","72727","83623","74729","148898","9081","65076","53453","149400","NA","148896","149400","148854","83623","150017","70783","148354","9018","136372","Lexical Decision Task","37","29566","40","yes","1024"
"3.121778632","0","9","sark","non-word","92.6829268292683","92.6829268292683","745.3414634146342","745.3414634146342","black","no","legacy","legacy","legacy","0","uniform","1","undefined","undefined","undefined","1","f","0","0","0","0","40","0","0","0","40","NA","36","40","36","0","36","3","40","0","40","Thu Feb 18 13:32:45 2021","The main experiment item","yes","Lexical_Decision_Task.osexp","/Users/sancholoreto/Desktop/University/1. Second Year/Semenar Two/1. Units/1. Cognition and Language/3. Seminar/S2. ASS The Lexical Decision Task","no","Andale Mono","no","18","no","white","no","yes","576","legacy","36","36","3","/Users/sancholoreto/Desktop/University/1. Second Year/Semenar Two/1. Units/1. Cognition and Language/3. Seminar/S2. ASS The Lexical Decision Task/subject-5215752.csv","legacy","Lentiform Loewenfeld","3.3.7","yes","yes","600bd7cfb6416f0113b04181","602110864497cf011d9c0822","0","f","NA","space","space","space","NA","f","993","NA","8893","44364","11618","NA","993","2","legacy","1024","2","48000","-16","task","5215752","even","NA","72727","83623","74729","150562","9081","65076","53453","151064","NA","150561","151064","150519","83623","152058","70783","150019","9018","136372","Lexical Decision Task","38","30559","41","yes","1024"
"3.263399331","0","8","cour","non-word","92.85714285714286","92.85714285714286","743.0238095238095","743.0238095238095","black","no","legacy","legacy","legacy","0","uniform","1","undefined","undefined","undefined","1","f","0","0","0","0","41","0","0","0","41","NA","37","41","37","0","37","3","41","0","41","Thu Feb 18 13:32:45 2021","The main experiment item","yes","Lexical_Decision_Task.osexp","/Users/sancholoreto/Desktop/University/1. Second Year/Semenar Two/1. Units/1. Cognition and Language/3. Seminar/S2. ASS The Lexical Decision Task","no","Andale Mono","no","18","no","white","no","yes","576","legacy","37","37","3","/Users/sancholoreto/Desktop/University/1. Second Year/Semenar Two/1. Units/1. Cognition and Language/3. Seminar/S2. ASS The Lexical Decision Task/subject-5215752.csv","legacy","Lentiform Loewenfeld","3.3.7","yes","yes","600bd7cfb6416f0113b04181","602110864497cf011d9c0822","0","f","NA","space","space","space","NA","f","648","NA","8893","44364","11618","NA","648","2","legacy","1024","2","48000","-16","task","5215752","even","NA","72727","83623","74729","152603","9081","65076","53453","153105","NA","152601","153105","152560","83623","153754","70783","152060","9018","136372","Lexical Decision Task","39","31207","42","yes","1024"
"2.899092422","7.27","6","snag","word","90.69767441860465","90.69767441860465","745.9302325581396","745.9302325581396","black","no","legacy","legacy","legacy","0","uniform","0","undefined","undefined","undefined","0","j","0","0","0","0","42","0","0","0","42","NA","38","42","38","0","38","3","42","0","42","Thu Feb 18 13:32:45 2021","The main experiment item","yes","Lexical_Decision_Task.osexp","/Users/sancholoreto/Desktop/University/1. Second Year/Semenar Two/1. Units/1. Cognition and Language/3. Seminar/S2. ASS The Lexical Decision Task","no","Andale Mono","no","18","no","white","no","yes","576","legacy","38","38","3","/Users/sancholoreto/Desktop/University/1. Second Year/Semenar Two/1. Units/1. Cognition and Language/3. Seminar/S2. ASS The Lexical Decision Task/subject-5215752.csv","legacy","Lentiform Loewenfeld","3.3.7","yes","yes","600bd7cfb6416f0113b04181","602110864497cf011d9c0822","0","f","NA","space","space","space","NA","f","868","NA","8893","44364","11618","NA","868","2","legacy","1024","2","48000","-16","task","5215752","even","NA","72727","83623","74729","154310","9081","65076","53453","154811","NA","154308","154811","154256","83623","155680","70783","153756","9018","136372","Lexical Decision Task","39","32075","43","yes","1024"
"3.082307743","9.68","8","camp","word","90.9090909090909","90.9090909090909","742.0681818181819","742.0681818181819","black","no","legacy","legacy","legacy","0","uniform","1","undefined","undefined","undefined","1","j","0","0","0","0","43","0","0","0","43","NA","39","43","39","0","39","3","43","0","43","Thu Feb 18 13:32:45 2021","The main experiment item","yes","Lexical_Decision_Task.osexp","/Users/sancholoreto/Desktop/University/1. Second Year/Semenar Two/1. Units/1. Cognition and Language/3. Seminar/S2. ASS The Lexical Decision Task","no","Andale Mono","no","18","no","white","no","yes","576","legacy","39","39","3","/Users/sancholoreto/Desktop/University/1. Second Year/Semenar Two/1. Units/1. Cognition and Language/3. Seminar/S2. ASS The Lexical Decision Task/subject-5215752.csv","legacy","Lentiform Loewenfeld","3.3.7","yes","yes","600bd7cfb6416f0113b04181","602110864497cf011d9c0822","0","j","NA","space","space","space","NA","j","576","NA","8893","44364","11618","NA","576","2","legacy","1024","2","48000","-16","task","5215752","even","NA","72727","83623","74729","157219","9081","65076","53453","157720","NA","157217","157720","157182","83623","158297","70783","153756","9018","155682","Lexical Decision Task","40","32651","44","yes","1024"
"2.664011697","8.19","4","hawk","word","91.11111111111111","91.11111111111111","743.8","743.8","black","no","legacy","legacy","legacy","0","uniform","1","undefined","undefined","undefined","1","j","0","0","0","0","44","0","0","0","44","NA","40","44","40","0","40","3","44","0","44","Thu Feb 18 13:32:45 2021","The main experiment item","yes","Lexical_Decision_Task.osexp","/Users/sancholoreto/Desktop/University/1. Second Year/Semenar Two/1. Units/1. Cognition and Language/3. Seminar/S2. ASS The Lexical Decision Task","no","Andale Mono","no","18","no","white","no","yes","576","legacy","40","40","3","/Users/sancholoreto/Desktop/University/1. Second Year/Semenar Two/1. Units/1. Cognition and Language/3. Seminar/S2. ASS The Lexical Decision Task/subject-5215752.csv","legacy","Lentiform Loewenfeld","3.3.7","yes","yes","600bd7cfb6416f0113b04181","602110864497cf011d9c0822","0","j","NA","space","space","space","NA","j","820","NA","8893","44364","11618","NA","820","2","legacy","1024","2","48000","-16","task","5215752","even","NA","72727","83623","74729","158843","9081","65076","53453","159345","NA","158841","159345","158801","83623","160166","70783","158301","9018","155682","Lexical Decision Task","41","33471","45","yes","1024"
"2.952953801","0","8","clax","non-word","91.30434782608695","91.30434782608695","748.4347826086956","748.4347826086956","black","no","legacy","legacy","legacy","0","uniform","1","undefined","undefined","undefined","1","f","0","0","0","0","45","0","0","0","45","NA","41","45","41","0","41","3","45","0","45","Thu Feb 18 13:32:45 2021","The main experiment item","yes","Lexical_Decision_Task.osexp","/Users/sancholoreto/Desktop/University/1. Second Year/Semenar Two/1. Units/1. Cognition and Language/3. Seminar/S2. ASS The Lexical Decision Task","no","Andale Mono","no","18","no","white","no","yes","576","legacy","41","41","3","/Users/sancholoreto/Desktop/University/1. Second Year/Semenar Two/1. Units/1. Cognition and Language/3. Seminar/S2. ASS The Lexical Decision Task/subject-5215752.csv","legacy","Lentiform Loewenfeld","3.3.7","yes","yes","600bd7cfb6416f0113b04181","602110864497cf011d9c0822","0","f","NA","space","space","space","NA","f","957","NA","8893","44364","11618","NA","957","2","legacy","1024","2","48000","-16","task","5215752","even","NA","72727","83623","74729","160713","9081","65076","53453","161215","NA","160711","161216","160669","83623","162174","70783","160169","9018","155682","Lexical Decision Task","42","34428","46","yes","1024"
"2.898725182","0","7","turl","non-word","91.48936170212765","91.48936170212765","758.4893617021277","758.4893617021277","black","no","legacy","legacy","legacy","0","uniform","1","undefined","undefined","undefined","1","f","0","0","0","0","46","0","0","0","46","NA","42","46","42","0","42","3","46","0","46","Thu Feb 18 13:32:45 2021","The main experiment item","yes","Lexical_Decision_Task.osexp","/Users/sancholoreto/Desktop/University/1. Second Year/Semenar Two/1. Units/1. Cognition and Language/3. Seminar/S2. ASS The Lexical Decision Task","no","Andale Mono","no","18","no","white","no","yes","576","legacy","42","42","3","/Users/sancholoreto/Desktop/University/1. Second Year/Semenar Two/1. Units/1. Cognition and Language/3. Seminar/S2. ASS The Lexical Decision Task/subject-5215752.csv","legacy","Lentiform Loewenfeld","3.3.7","yes","yes","600bd7cfb6416f0113b04181","602110864497cf011d9c0822","0","f","NA","space","space","space","NA","f","1221","NA","8893","44364","11618","NA","1221","2","legacy","1024","2","48000","-16","task","5215752","even","NA","72727","83623","74729","162720","9081","65076","53453","163222","NA","162718","163222","162676","83623","164444","70783","162176","9018","155682","Lexical Decision Task","43","35649","47","yes","1024"
"3.443783828","7.65","3","verb","word","91.66666666666667","91.66666666666667","754.4791666666666","754.4791666666666","black","no","legacy","legacy","legacy","0","uniform","1","undefined","undefined","undefined","1","j","0","0","0","0","47","0","0","0","47","NA","43","47","43","0","43","3","47","0","47","Thu Feb 18 13:32:45 2021","The main experiment item","yes","Lexical_Decision_Task.osexp","/Users/sancholoreto/Desktop/University/1. Second Year/Semenar Two/1. Units/1. Cognition and Language/3. Seminar/S2. ASS The Lexical Decision Task","no","Andale Mono","no","18","no","white","no","yes","576","legacy","43","43","3","/Users/sancholoreto/Desktop/University/1. Second Year/Semenar Two/1. Units/1. Cognition and Language/3. Seminar/S2. ASS The Lexical Decision Task/subject-5215752.csv","legacy","Lentiform Loewenfeld","3.3.7","yes","yes","600bd7cfb6416f0113b04181","602110864497cf011d9c0822","0","j","NA","space","space","space","NA","j","566","NA","8893","44364","11618","NA","566","2","legacy","1024","2","48000","-16","task","5215752","even","NA","72727","83623","74729","164990","9081","65076","53453","165492","NA","164988","165493","164947","83623","166060","70783","164447","9018","155682","Lexical Decision Task","44","36215","48","yes","1024"
"2.858136002","0","4","phip","non-word","89.79591836734694","89.79591836734694","752.9183673469388","752.9183673469388","black","no","legacy","legacy","legacy","0","uniform","0","undefined","undefined","undefined","0","f","0","0","0","0","48","0","0","0","48","NA","44","48","44","0","44","3","48","0","48","Thu Feb 18 13:32:45 2021","The main experiment item","yes","Lexical_Decision_Task.osexp","/Users/sancholoreto/Desktop/University/1. Second Year/Semenar Two/1. Units/1. Cognition and Language/3. Seminar/S2. ASS The Lexical Decision Task","no","Andale Mono","no","18","no","white","no","yes","576","legacy","44","44","3","/Users/sancholoreto/Desktop/University/1. Second Year/Semenar Two/1. Units/1. Cognition and Language/3. Seminar/S2. ASS The Lexical Decision Task/subject-5215752.csv","legacy","Lentiform Loewenfeld","3.3.7","yes","yes","600bd7cfb6416f0113b04181","602110864497cf011d9c0822","0","j","NA","space","space","space","NA","j","678","NA","8893","44364","11618","NA","678","2","legacy","1024","2","48000","-16","task","5215752","even","NA","72727","83623","74729","166605","9081","65076","53453","167107","NA","166603","167107","166562","83623","167786","70783","166062","9018","155682","Lexical Decision Task","44","36893","49","yes","1024"
"3.372543801","9.24","8","coat","word","90","90","750.2","750.2","black","no","legacy","legacy","legacy","0","uniform","1","undefined","undefined","undefined","1","j","0","0","0","0","49","0","0","0","49","NA","45","49","45","0","45","3","49","0","49","Thu Feb 18 13:32:45 2021","The main experiment item","yes","Lexical_Decision_Task.osexp","/Users/sancholoreto/Desktop/University/1. Second Year/Semenar Two/1. Units/1. Cognition and Language/3. Seminar/S2. ASS The Lexical Decision Task","no","Andale Mono","no","18","no","white","no","yes","576","legacy","45","45","3","/Users/sancholoreto/Desktop/University/1. Second Year/Semenar Two/1. Units/1. Cognition and Language/3. Seminar/S2. ASS The Lexical Decision Task/subject-5215752.csv","legacy","Lentiform Loewenfeld","3.3.7","yes","yes","600bd7cfb6416f0113b04181","602110864497cf011d9c0822","0","j","NA","space","space","space","NA","j","617","NA","8893","44364","11618","NA","617","2","legacy","1024","2","48000","-16","task","5215752","even","NA","72727","83623","74729","169335","9081","65076","53453","169837","NA","169333","169838","169288","83623","170456","70783","166062","9018","167788","Lexical Decision Task","45","37510","50","yes","1024"
"2.82129731","6.72","5","plum","word","88.23529411764706","88.23529411764706","750.8627450980392","750.8627450980392","black","no","legacy","legacy","legacy","0","uniform","0","undefined","undefined","undefined","0","j","0","0","0","0","50","0","0","0","50","NA","46","50","46","0","46","3","50","0","50","Thu Feb 18 13:32:45 2021","The main experiment item","yes","Lexical_Decision_Task.osexp","/Users/sancholoreto/Desktop/University/1. Second Year/Semenar Two/1. Units/1. Cognition and Language/3. Seminar/S2. ASS The Lexical Decision Task","no","Andale Mono","no","18","no","white","no","yes","576","legacy","46","46","3","/Users/sancholoreto/Desktop/University/1. Second Year/Semenar Two/1. Units/1. Cognition and Language/3. Seminar/S2. ASS The Lexical Decision Task/subject-5215752.csv","legacy","Lentiform Loewenfeld","3.3.7","yes","yes","600bd7cfb6416f0113b04181","602110864497cf011d9c0822","0","f","NA","space","space","space","NA","f","784","NA","8893","44364","11618","NA","784","2","legacy","1024","2","48000","-16","task","5215752","even","NA","72727","83623","74729","171002","9081","65076","53453","171504","NA","171000","171505","170958","83623","172290","70783","170458","9018","167788","Lexical Decision Task","45","38294","51","yes","1024"
"3.062080345","0","6","tomp","non-word","88.46153846153847","88.46153846153847","748.8269230769231","748.8269230769231","black","no","legacy","legacy","legacy","0","uniform","1","undefined","undefined","undefined","1","f","0","0","0","0","51","0","0","0","51","NA","47","51","47","0","47","3","51","0","51","Thu Feb 18 13:32:45 2021","The main experiment item","yes","Lexical_Decision_Task.osexp","/Users/sancholoreto/Desktop/University/1. Second Year/Semenar Two/1. Units/1. Cognition and Language/3. Seminar/S2. ASS The Lexical Decision Task","no","Andale Mono","no","18","no","white","no","yes","576","legacy","47","47","3","/Users/sancholoreto/Desktop/University/1. Second Year/Semenar Two/1. Units/1. Cognition and Language/3. Seminar/S2. ASS The Lexical Decision Task/subject-5215752.csv","legacy","Lentiform Loewenfeld","3.3.7","yes","yes","600bd7cfb6416f0113b04181","602110864497cf011d9c0822","0","f","NA","space","space","space","NA","f","645","NA","8893","44364","11618","NA","645","2","legacy","1024","2","48000","-16","task","5215752","even","NA","72727","83623","74729","173838","9081","65076","53453","174340","NA","173836","174341","173792","83623","174987","70783","170458","9018","172292","Lexical Decision Task","46","38939","52","yes","1024"
"2.937852093","0","7","bamp","non-word","86.79245283018868","86.79245283018868","750.2264150943396","750.2264150943396","black","no","legacy","legacy","legacy","0","uniform","0","undefined","undefined","undefined","0","f","0","0","0","0","52","0","0","0","52","NA","48","52","48","0","48","3","52","0","52","Thu Feb 18 13:32:45 2021","The main experiment item","yes","Lexical_Decision_Task.osexp","/Users/sancholoreto/Desktop/University/1. Second Year/Semenar Two/1. Units/1. Cognition and Language/3. Seminar/S2. ASS The Lexical Decision Task","no","Andale Mono","no","18","no","white","no","yes","576","legacy","48","48","3","/Users/sancholoreto/Desktop/University/1. Second Year/Semenar Two/1. Units/1. Cognition and Language/3. Seminar/S2. ASS The Lexical Decision Task/subject-5215752.csv","legacy","Lentiform Loewenfeld","3.3.7","yes","yes","600bd7cfb6416f0113b04181","602110864497cf011d9c0822","0","j","NA","space","space","space","NA","j","823","NA","8893","44364","11618","NA","823","2","legacy","1024","2","48000","-16","task","5215752","even","NA","72727","83623","74729","175534","9081","65076","53453","176036","NA","175532","176036","175489","83623","176860","70783","174989","9018","172292","Lexical Decision Task","46","39762","53","yes","1024"
"3.20871002","7.15","8","cram","word","85.18518518518519","85.18518518518519","747.1296296296297","747.1296296296297","black","no","legacy","legacy","legacy","0","uniform","0","undefined","undefined","undefined","0","j","0","0","0","0","53","0","0","0","53","NA","49","53","49","0","49","3","53","0","53","Thu Feb 18 13:32:45 2021","The main experiment item","yes","Lexical_Decision_Task.osexp","/Users/sancholoreto/Desktop/University/1. Second Year/Semenar Two/1. Units/1. Cognition and Language/3. Seminar/S2. ASS The Lexical Decision Task","no","Andale Mono","no","18","no","white","no","yes","576","legacy","49","49","3","/Users/sancholoreto/Desktop/University/1. Second Year/Semenar Two/1. Units/1. Cognition and Language/3. Seminar/S2. ASS The Lexical Decision Task/subject-5215752.csv","legacy","Lentiform Loewenfeld","3.3.7","yes","yes","600bd7cfb6416f0113b04181","602110864497cf011d9c0822","0","f","NA","space","space","space","NA","f","583","NA","8893","44364","11618","NA","583","2","legacy","1024","2","48000","-16","task","5215752","even","NA","72727","83623","74729","178410","9081","65076","53453","178912","NA","178408","178913","178362","83623","179497","70783","174989","9018","176862","Lexical Decision Task","46","40345","54","yes","1024"
"2.696644658","5.78","2","yolk","word","83.63636363636364","83.63636363636364","752.9454545454546","752.9454545454546","black","no","legacy","legacy","legacy","0","uniform","0","undefined","undefined","undefined","0","j","0","0","0","0","54","0","0","0","54","0","50","54","50","0","50","3","54","0","54","Thu Feb 18 13:32:45 2021","The main experiment item","yes","Lexical_Decision_Task.osexp","/Users/sancholoreto/Desktop/University/1. Second Year/Semenar Two/1. Units/1. Cognition and Language/3. Seminar/S2. ASS The Lexical Decision Task","no","Andale Mono","no","18","no","white","no","yes","576","legacy","50","50","3","/Users/sancholoreto/Desktop/University/1. Second Year/Semenar Two/1. Units/1. Cognition and Language/3. Seminar/S2. ASS The Lexical Decision Task/subject-5215752.csv","legacy","Lentiform Loewenfeld","3.3.7","yes","yes","600bd7cfb6416f0113b04181","602110864497cf011d9c0822","0","f","NA","space","space","space","space","f","1067","NA","8893","44364","11618","34255","1067","2","legacy","1024","2","48000","-16","task","5215752","even","NA","72727","83623","74729","215323","9081","65076","53453","215826","181030","215321","215826","180999","83623","216894","70783","174989","9018","179499","Lexical Decision Task","46","41412","55","yes","1024"
"2.983324025","9.56","2","debt","word","83.92857142857143","83.92857142857143","749.5892857142857","749.5892857142857","black","no","legacy","legacy","legacy","0","uniform","1","undefined","undefined","undefined","1","j","0","0","0","0","55","0","0","0","55","0","51","55","51","0","51","3","55","0","55","Thu Feb 18 13:32:45 2021","The main experiment item","yes","Lexical_Decision_Task.osexp","/Users/sancholoreto/Desktop/University/1. Second Year/Semenar Two/1. Units/1. Cognition and Language/3. Seminar/S2. ASS The Lexical Decision Task","no","Andale Mono","no","18","no","white","no","yes","576","legacy","51","51","3","/Users/sancholoreto/Desktop/University/1. Second Year/Semenar Two/1. Units/1. Cognition and Language/3. Seminar/S2. ASS The Lexical Decision Task/subject-5215752.csv","legacy","Lentiform Loewenfeld","3.3.7","yes","yes","600bd7cfb6416f0113b04181","602110864497cf011d9c0822","0","j","NA","space","space","space","space","j","565","NA","8893","44364","11618","34255","565","2","legacy","1024","2","48000","-16","task","5215752","even","NA","72727","83623","74729","218441","9081","65076","53453","218944","181030","218439","218944","218397","83623","219510","70783","174989","9018","216897","Lexical Decision Task","47","41977","56","yes","1024"
"2.755364069","7.72","2","hoax","word","84.21052631578948","84.21052631578948","750.8245614035088","750.8245614035088","black","no","legacy","legacy","legacy","0","uniform","1","undefined","undefined","undefined","1","j","0","0","0","0","56","0","0","0","56","0","52","56","52","0","52","3","56","0","56","Thu Feb 18 13:32:45 2021","The main experiment item","yes","Lexical_Decision_Task.osexp","/Users/sancholoreto/Desktop/University/1. Second Year/Semenar Two/1. Units/1. Cognition and Language/3. Seminar/S2. ASS The Lexical Decision Task","no","Andale Mono","no","18","no","white","no","yes","576","legacy","52","52","3","/Users/sancholoreto/Desktop/University/1. Second Year/Semenar Two/1. Units/1. Cognition and Language/3. Seminar/S2. ASS The Lexical Decision Task/subject-5215752.csv","legacy","Lentiform Loewenfeld","3.3.7","yes","yes","600bd7cfb6416f0113b04181","602110864497cf011d9c0822","0","j","NA","space","space","space","space","j","820","NA","8893","44364","11618","34255","820","2","legacy","1024","2","48000","-16","task","5215752","even","NA","72727","83623","74729","220056","9081","65076","53453","220559","181030","220054","220559","220012","83623","221380","70783","219512","9018","216897","Lexical Decision Task","48","42797","57","yes","1024"
"3.302475237","0","7","leel","non-word","84.48275862068965","84.48275862068965","748.9655172413793","748.9655172413793","black","no","legacy","legacy","legacy","0","uniform","1","undefined","undefined","undefined","1","f","0","0","0","0","57","0","0","0","57","0","53","57","53","0","53","3","57","0","57","Thu Feb 18 13:32:45 2021","The main experiment item","yes","Lexical_Decision_Task.osexp","/Users/sancholoreto/Desktop/University/1. Second Year/Semenar Two/1. Units/1. Cognition and Language/3. Seminar/S2. ASS The Lexical Decision Task","no","Andale Mono","no","18","no","white","no","yes","576","legacy","53","53","3","/Users/sancholoreto/Desktop/University/1. Second Year/Semenar Two/1. Units/1. Cognition and Language/3. Seminar/S2. ASS The Lexical Decision Task/subject-5215752.csv","legacy","Lentiform Loewenfeld","3.3.7","yes","yes","600bd7cfb6416f0113b04181","602110864497cf011d9c0822","0","f","NA","space","space","space","space","f","643","NA","8893","44364","11618","34255","643","2","legacy","1024","2","48000","-16","task","5215752","even","NA","72727","83623","74729","221925","9081","65076","53453","222427","181030","221923","222428","221882","83623","223072","70783","221382","9018","216897","Lexical Decision Task","49","43440","58","yes","1024"
"3.397302518","7.01","2","knit","word","83.05084745762711","83.05084745762711","749.6610169491526","749.6610169491526","black","no","legacy","legacy","legacy","0","uniform","0","undefined","undefined","undefined","0","j","0","0","0","0","58","0","0","0","58","0","54","58","54","0","54","3","58","0","58","Thu Feb 18 13:32:45 2021","The main experiment item","yes","Lexical_Decision_Task.osexp","/Users/sancholoreto/Desktop/University/1. Second Year/Semenar Two/1. Units/1. Cognition and Language/3. Seminar/S2. ASS The Lexical Decision Task","no","Andale Mono","no","18","no","white","no","yes","576","legacy","54","54","3","/Users/sancholoreto/Desktop/University/1. Second Year/Semenar Two/1. Units/1. Cognition and Language/3. Seminar/S2. ASS The Lexical Decision Task/subject-5215752.csv","legacy","Lentiform Loewenfeld","3.3.7","yes","yes","600bd7cfb6416f0113b04181","602110864497cf011d9c0822","0","f","NA","space","space","space","space","f","790","NA","8893","44364","11618","34255","790","2","legacy","1024","2","48000","-16","task","5215752","even","NA","72727","83623","74729","223619","9081","65076","53453","224121","181030","223617","224121","223575","83623","224912","70783","223075","9018","216897","Lexical Decision Task","49","44230","59","yes","1024"
"2.696356389","0","1","pizz","non-word","81.66666666666667","81.66666666666667","745.5666666666667","745.5666666666667","black","no","legacy","legacy","legacy","0","uniform","0","undefined","undefined","undefined","0","f","0","0","0","0","59","0","0","0","59","0","55","59","55","0","55","3","59","0","59","Thu Feb 18 13:32:45 2021","The main experiment item","yes","Lexical_Decision_Task.osexp","/Users/sancholoreto/Desktop/University/1. Second Year/Semenar Two/1. Units/1. Cognition and Language/3. Seminar/S2. ASS The Lexical Decision Task","no","Andale Mono","no","18","no","white","no","yes","576","legacy","55","55","3","/Users/sancholoreto/Desktop/University/1. Second Year/Semenar Two/1. Units/1. Cognition and Language/3. Seminar/S2. ASS The Lexical Decision Task/subject-5215752.csv","legacy","Lentiform Loewenfeld","3.3.7","yes","yes","600bd7cfb6416f0113b04181","602110864497cf011d9c0822","0","j","NA","space","space","space","space","j","504","NA","8893","44364","11618","34255","504","2","legacy","1024","2","48000","-16","task","5215752","even","NA","72727","83623","74729","226463","9081","65076","53453","226965","181030","226460","226965","226415","83623","227470","70783","223075","9018","224915","Lexical Decision Task","49","44734","60","yes","1024"
"2.907588697","8.91","9","mood","word","81.9672131147541","81.9672131147541","743.4098360655738","743.4098360655738","black","no","legacy","legacy","legacy","0","uniform","1","undefined","undefined","undefined","1","j","0","0","0","0","60","0","0","0","60","0","56","60","56","0","56","3","60","0","60","Thu Feb 18 13:32:45 2021","The main experiment item","yes","Lexical_Decision_Task.osexp","/Users/sancholoreto/Desktop/University/1. Second Year/Semenar Two/1. Units/1. Cognition and Language/3. Seminar/S2. ASS The Lexical Decision Task","no","Andale Mono","no","18","no","white","no","yes","576","legacy","56","56","3","/Users/sancholoreto/Desktop/University/1. Second Year/Semenar Two/1. Units/1. Cognition and Language/3. Seminar/S2. ASS The Lexical Decision Task/subject-5215752.csv","legacy","Lentiform Loewenfeld","3.3.7","yes","yes","600bd7cfb6416f0113b04181","602110864497cf011d9c0822","0","j","NA","space","space","space","space","j","614","NA","8893","44364","11618","34255","614","2","legacy","1024","2","48000","-16","task","5215752","even","NA","72727","83623","74729","229021","9081","65076","53453","229523","181030","229019","229524","228972","83623","230139","70783","223075","9018","227472","Lexical Decision Task","50","45348","61","yes","1024"
"2.980306438","0","7","slun","non-word","82.25806451612904","82.25806451612904","742.6935483870968","742.6935483870968","black","no","legacy","legacy","legacy","0","uniform","1","undefined","undefined","undefined","1","f","0","0","0","0","61","0","0","0","61","0","57","61","57","0","57","3","61","0","61","Thu Feb 18 13:32:45 2021","The main experiment item","yes","Lexical_Decision_Task.osexp","/Users/sancholoreto/Desktop/University/1. Second Year/Semenar Two/1. Units/1. Cognition and Language/3. Seminar/S2. ASS The Lexical Decision Task","no","Andale Mono","no","18","no","white","no","yes","576","legacy","57","57","3","/Users/sancholoreto/Desktop/University/1. Second Year/Semenar Two/1. Units/1. Cognition and Language/3. Seminar/S2. ASS The Lexical Decision Task/subject-5215752.csv","legacy","Lentiform Loewenfeld","3.3.7","yes","yes","600bd7cfb6416f0113b04181","602110864497cf011d9c0822","0","f","NA","space","space","space","space","f","699","NA","8893","44364","11618","34255","699","2","legacy","1024","2","48000","-16","task","5215752","even","NA","72727","83623","74729","230685","9081","65076","53453","231187","181030","230683","231188","230641","83623","231888","70783","230141","9018","227472","Lexical Decision Task","51","46047","62","yes","1024"
"2.920123326","7.43","4","duel","word","82.53968253968254","82.53968253968254","746.6825396825396","746.6825396825396","black","no","legacy","legacy","legacy","0","uniform","1","undefined","undefined","undefined","1","j","0","0","0","0","62","0","0","0","62","0","58","62","58","0","58","3","62","0","62","Thu Feb 18 13:32:45 2021","The main experiment item","yes","Lexical_Decision_Task.osexp","/Users/sancholoreto/Desktop/University/1. Second Year/Semenar Two/1. Units/1. Cognition and Language/3. Seminar/S2. ASS The Lexical Decision Task","no","Andale Mono","no","18","no","white","no","yes","576","legacy","58","58","3","/Users/sancholoreto/Desktop/University/1. Second Year/Semenar Two/1. Units/1. Cognition and Language/3. Seminar/S2. ASS The Lexical Decision Task/subject-5215752.csv","legacy","Lentiform Loewenfeld","3.3.7","yes","yes","600bd7cfb6416f0113b04181","602110864497cf011d9c0822","0","j","NA","space","space","space","space","j","994","NA","8893","44364","11618","34255","994","2","legacy","1024","2","48000","-16","task","5215752","even","NA","72727","83623","74729","232434","9081","65076","53453","232936","181030","232432","232937","232391","83623","233932","70783","231890","9018","227472","Lexical Decision Task","52","47041","63","yes","1024"
"3.145920145","8.51","8","flew","word","82.8125","82.8125","745.5625","745.5625","black","no","legacy","legacy","legacy","0","uniform","1","undefined","undefined","undefined","1","j","0","0","0","0","63","0","0","0","63","0","59","63","59","0","59","3","63","0","63","Thu Feb 18 13:32:45 2021","The main experiment item","yes","Lexical_Decision_Task.osexp","/Users/sancholoreto/Desktop/University/1. Second Year/Semenar Two/1. Units/1. Cognition and Language/3. Seminar/S2. ASS The Lexical Decision Task","no","Andale Mono","no","18","no","white","no","yes","576","legacy","59","59","3","/Users/sancholoreto/Desktop/University/1. Second Year/Semenar Two/1. Units/1. Cognition and Language/3. Seminar/S2. ASS The Lexical Decision Task/subject-5215752.csv","legacy","Lentiform Loewenfeld","3.3.7","yes","yes","600bd7cfb6416f0113b04181","602110864497cf011d9c0822","0","j","NA","space","space","space","space","j","675","NA","8893","44364","11618","34255","675","2","legacy","1024","2","48000","-16","task","5215752","even","NA","72727","83623","74729","234479","9081","65076","53453","234981","181030","234477","234982","234434","83623","235658","70783","233934","9018","227472","Lexical Decision Task","53","47716","64","yes","1024"
"3.159867847","5.98","5","brim","word","81.53846153846153","81.53846153846153","743.5384615384615","743.5384615384615","black","no","legacy","legacy","legacy","0","uniform","0","undefined","undefined","undefined","0","j","0","0","0","0","64","0","0","0","64","0","60","64","60","0","60","3","64","0","64","Thu Feb 18 13:32:45 2021","The main experiment item","yes","Lexical_Decision_Task.osexp","/Users/sancholoreto/Desktop/University/1. Second Year/Semenar Two/1. Units/1. Cognition and Language/3. Seminar/S2. ASS The Lexical Decision Task","no","Andale Mono","no","18","no","white","no","yes","576","legacy","60","60","3","/Users/sancholoreto/Desktop/University/1. Second Year/Semenar Two/1. Units/1. Cognition and Language/3. Seminar/S2. ASS The Lexical Decision Task/subject-5215752.csv","legacy","Lentiform Loewenfeld","3.3.7","yes","yes","600bd7cfb6416f0113b04181","602110864497cf011d9c0822","0","f","NA","space","space","space","space","f","614","NA","8893","44364","11618","34255","614","2","legacy","1024","2","48000","-16","task","5215752","even","NA","72727","83623","74729","236204","9081","65076","53453","236706","181030","236202","236707","236160","83623","237322","70783","235660","9018","227472","Lexical Decision Task","53","48330","65","yes","1024"
"3.378276681","6.39","8","bran","word","80.3030303030303","80.3030303030303","749.8181818181819","749.8181818181819","black","no","legacy","legacy","legacy","0","uniform","0","undefined","undefined","undefined","0","j","0","0","0","0","65","0","0","0","65","0","61","65","61","0","61","3","65","0","65","Thu Feb 18 13:32:45 2021","The main experiment item","yes","Lexical_Decision_Task.osexp","/Users/sancholoreto/Desktop/University/1. Second Year/Semenar Two/1. Units/1. Cognition and Language/3. Seminar/S2. ASS The Lexical Decision Task","no","Andale Mono","no","18","no","white","no","yes","576","legacy","61","61","3","/Users/sancholoreto/Desktop/University/1. Second Year/Semenar Two/1. Units/1. Cognition and Language/3. Seminar/S2. ASS The Lexical Decision Task/subject-5215752.csv","legacy","Lentiform Loewenfeld","3.3.7","yes","yes","600bd7cfb6416f0113b04181","602110864497cf011d9c0822","0","f","NA","space","space","space","space","f","1158","NA","8893","44364","11618","34255","1158","2","legacy","1024","2","48000","-16","task","5215752","even","NA","72727","83623","74729","238873","9081","65076","53453","239375","181030","238870","239375","238824","83623","240534","70783","235660","9018","237324","Lexical Decision Task","53","49488","66","yes","1024"
"3.316948329","0","1","besc","non-word","80.59701492537313","80.59701492537313","749.1044776119403","749.1044776119403","black","no","legacy","legacy","legacy","0","uniform","1","undefined","undefined","undefined","1","f","0","0","0","0","66","0","0","0","66","0","62","66","62","0","62","3","66","0","66","Thu Feb 18 13:32:45 2021","The main experiment item","yes","Lexical_Decision_Task.osexp","/Users/sancholoreto/Desktop/University/1. Second Year/Semenar Two/1. Units/1. Cognition and Language/3. Seminar/S2. ASS The Lexical Decision Task","no","Andale Mono","no","18","no","white","no","yes","576","legacy","62","62","3","/Users/sancholoreto/Desktop/University/1. Second Year/Semenar Two/1. Units/1. Cognition and Language/3. Seminar/S2. ASS The Lexical Decision Task/subject-5215752.csv","legacy","Lentiform Loewenfeld","3.3.7","yes","yes","600bd7cfb6416f0113b04181","602110864497cf011d9c0822","0","f","NA","space","space","space","space","f","702","NA","8893","44364","11618","34255","702","2","legacy","1024","2","48000","-16","task","5215752","even","NA","72727","83623","74729","242083","9081","65076","53453","242585","181030","242081","242586","242036","83623","243289","70783","235660","9018","240536","Lexical Decision Task","54","50190","67","yes","1024"
"3.131833513","7.66","4","limb","word","80.88235294117646","80.88235294117646","746.8676470588235","746.8676470588235","black","no","legacy","legacy","legacy","0","uniform","1","undefined","undefined","undefined","1","j","0","0","0","0","67","0","0","0","67","0","63","67","63","0","63","3","67","0","67","Thu Feb 18 13:32:45 2021","The main experiment item","yes","Lexical_Decision_Task.osexp","/Users/sancholoreto/Desktop/University/1. Second Year/Semenar Two/1. Units/1. Cognition and Language/3. Seminar/S2. ASS The Lexical Decision Task","no","Andale Mono","no","18","no","white","no","yes","576","legacy","63","63","3","/Users/sancholoreto/Desktop/University/1. Second Year/Semenar Two/1. Units/1. Cognition and Language/3. Seminar/S2. ASS The Lexical Decision Task/subject-5215752.csv","legacy","Lentiform Loewenfeld","3.3.7","yes","yes","600bd7cfb6416f0113b04181","602110864497cf011d9c0822","0","j","NA","space","space","space","space","j","597","NA","8893","44364","11618","34255","597","2","legacy","1024","2","48000","-16","task","5215752","even","NA","72727","83623","74729","243834","9081","65076","53453","244335","181030","243832","244335","243791","83623","244933","70783","243291","9018","240536","Lexical Decision Task","55","50787","68","yes","1024"
"3.366547468","0","6","plat","non-word","81.15942028985508","81.15942028985508","749.927536231884","749.927536231884","black","no","legacy","legacy","legacy","0","uniform","1","undefined","undefined","undefined","1","f","0","0","0","0","68","0","0","0","68","0","64","68","64","0","64","3","68","0","68","Thu Feb 18 13:32:45 2021","The main experiment item","yes","Lexical_Decision_Task.osexp","/Users/sancholoreto/Desktop/University/1. Second Year/Semenar Two/1. Units/1. Cognition and Language/3. Seminar/S2. ASS The Lexical Decision Task","no","Andale Mono","no","18","no","white","no","yes","576","legacy","64","64","3","/Users/sancholoreto/Desktop/University/1. Second Year/Semenar Two/1. Units/1. Cognition and Language/3. Seminar/S2. ASS The Lexical Decision Task/subject-5215752.csv","legacy","Lentiform Loewenfeld","3.3.7","yes","yes","600bd7cfb6416f0113b04181","602110864497cf011d9c0822","0","f","NA","space","space","space","space","f","958","NA","8893","44364","11618","34255","958","2","legacy","1024","2","48000","-16","task","5215752","even","NA","72727","83623","74729","245479","9081","65076","53453","245981","181030","245477","245981","245436","83623","246940","70783","244936","9018","240536","Lexical Decision Task","56","51745","69","yes","1024"
"3.153001286","8.7","5","palm","word","81.42857142857143","81.42857142857143","749.3285714285714","749.3285714285714","black","no","legacy","legacy","legacy","0","uniform","1","undefined","undefined","undefined","1","j","0","0","0","0","69","0","0","0","69","0","65","69","65","0","65","3","69","0","69","Thu Feb 18 13:32:45 2021","The main experiment item","yes","Lexical_Decision_Task.osexp","/Users/sancholoreto/Desktop/University/1. Second Year/Semenar Two/1. Units/1. Cognition and Language/3. Seminar/S2. ASS The Lexical Decision Task","no","Andale Mono","no","18","no","white","no","yes","576","legacy","65","65","3","/Users/sancholoreto/Desktop/University/1. Second Year/Semenar Two/1. Units/1. Cognition and Language/3. Seminar/S2. ASS The Lexical Decision Task/subject-5215752.csv","legacy","Lentiform Loewenfeld","3.3.7","yes","yes","600bd7cfb6416f0113b04181","602110864497cf011d9c0822","0","j","NA","space","space","space","space","j","708","NA","8893","44364","11618","34255","708","2","legacy","1024","2","48000","-16","task","5215752","even","NA","72727","83623","74729","247486","9081","65076","53453","247988","181030","247484","247989","247443","83623","248698","70783","246942","9018","240536","Lexical Decision Task","57","52453","70","yes","1024"
"3.088136089","8.32","9","worm","word","81.69014084507042","81.69014084507042","748.7042253521126","748.7042253521126","black","no","legacy","legacy","legacy","0","uniform","1","undefined","undefined","undefined","1","j","0","0","0","0","70","0","0","0","70","0","66","70","66","0","66","3","70","0","70","Thu Feb 18 13:32:45 2021","The main experiment item","yes","Lexical_Decision_Task.osexp","/Users/sancholoreto/Desktop/University/1. Second Year/Semenar Two/1. Units/1. Cognition and Language/3. Seminar/S2. ASS The Lexical Decision Task","no","Andale Mono","no","18","no","white","no","yes","576","legacy","66","66","3","/Users/sancholoreto/Desktop/University/1. Second Year/Semenar Two/1. Units/1. Cognition and Language/3. Seminar/S2. ASS The Lexical Decision Task/subject-5215752.csv","legacy","Lentiform Loewenfeld","3.3.7","yes","yes","600bd7cfb6416f0113b04181","602110864497cf011d9c0822","0","j","NA","space","space","space","space","j","705","NA","8893","44364","11618","34255","705","2","legacy","1024","2","48000","-16","task","5215752","even","NA","72727","83623","74729","249244","9081","65076","53453","249746","181030","249242","249746","249201","83623","250452","70783","248701","9018","240536","Lexical Decision Task","58","53158","71","yes","1024"
"3.495914186","0","4","peng","non-word","81.94444444444444","81.94444444444444","747.875","747.875","black","no","legacy","legacy","legacy","0","uniform","1","undefined","undefined","undefined","1","f","0","0","0","0","71","0","0","0","71","0","67","71","67","0","67","3","71","0","71","Thu Feb 18 13:32:45 2021","The main experiment item","yes","Lexical_Decision_Task.osexp","/Users/sancholoreto/Desktop/University/1. Second Year/Semenar Two/1. Units/1. Cognition and Language/3. Seminar/S2. ASS The Lexical Decision Task","no","Andale Mono","no","18","no","white","no","yes","576","legacy","67","67","3","/Users/sancholoreto/Desktop/University/1. Second Year/Semenar Two/1. Units/1. Cognition and Language/3. Seminar/S2. ASS The Lexical Decision Task/subject-5215752.csv","legacy","Lentiform Loewenfeld","3.3.7","yes","yes","600bd7cfb6416f0113b04181","602110864497cf011d9c0822","0","f","NA","space","space","space","space","f","689","NA","8893","44364","11618","34255","689","2","legacy","1024","2","48000","-16","task","5215752","even","NA","72727","83623","74729","251010","9081","65076","53453","251512","181030","251007","251512","250955","83623","252202","70783","250455","9018","240536","Lexical Decision Task","59","53847","72","yes","1024"
"3.120135028","0","3","vals","non-word","82.1917808219178","82.1917808219178","747.7534246575342","747.7534246575342","black","no","legacy","legacy","legacy","0","uniform","1","undefined","undefined","undefined","1","f","0","0","0","0","72","0","0","0","72","0","68","72","68","0","68","3","72","0","72","Thu Feb 18 13:32:45 2021","The main experiment item","yes","Lexical_Decision_Task.osexp","/Users/sancholoreto/Desktop/University/1. Second Year/Semenar Two/1. Units/1. Cognition and Language/3. Seminar/S2. ASS The Lexical Decision Task","no","Andale Mono","no","18","no","white","no","yes","576","legacy","68","68","3","/Users/sancholoreto/Desktop/University/1. Second Year/Semenar Two/1. Units/1. Cognition and Language/3. Seminar/S2. ASS The Lexical Decision Task/subject-5215752.csv","legacy","Lentiform Loewenfeld","3.3.7","yes","yes","600bd7cfb6416f0113b04181","602110864497cf011d9c0822","0","f","NA","space","space","space","space","f","739","NA","8893","44364","11618","34255","739","2","legacy","1024","2","48000","-16","task","5215752","even","NA","72727","83623","74729","252742","9081","65076","53453","253244","181030","252740","253244","252704","83623","253984","70783","252204","9018","240536","Lexical Decision Task","60","54586","73","yes","1024"
"2.972357144","0","5","dasp","non-word","82.43243243243244","82.43243243243244","750.2432432432432","750.2432432432432","black","no","legacy","legacy","legacy","0","uniform","1","undefined","undefined","undefined","1","f","0","0","0","0","73","0","0","0","73","0","69","73","69","0","69","3","73","0","73","Thu Feb 18 13:32:45 2021","The main experiment item","yes","Lexical_Decision_Task.osexp","/Users/sancholoreto/Desktop/University/1. Second Year/Semenar Two/1. Units/1. Cognition and Language/3. Seminar/S2. ASS The Lexical Decision Task","no","Andale Mono","no","18","no","white","no","yes","576","legacy","69","69","3","/Users/sancholoreto/Desktop/University/1. Second Year/Semenar Two/1. Units/1. Cognition and Language/3. Seminar/S2. ASS The Lexical Decision Task/subject-5215752.csv","legacy","Lentiform Loewenfeld","3.3.7","yes","yes","600bd7cfb6416f0113b04181","602110864497cf011d9c0822","0","f","NA","space","space","space","space","f","932","NA","8893","44364","11618","34255","932","2","legacy","1024","2","48000","-16","task","5215752","even","NA","72727","83623","74729","254530","9081","65076","53453","255032","181030","254528","255033","254486","83623","255966","70783","253986","9018","240536","Lexical Decision Task","61","55518","74","yes","1024"
"3.119255889","6.63","2","itch","word","82.66666666666667","82.66666666666667","748.92","748.92","black","no","legacy","legacy","legacy","0","uniform","1","undefined","undefined","undefined","1","j","0","0","0","0","74","0","0","0","74","0","70","74","70","0","70","3","74","0","74","Thu Feb 18 13:32:45 2021","The main experiment item","yes","Lexical_Decision_Task.osexp","/Users/sancholoreto/Desktop/University/1. Second Year/Semenar Two/1. Units/1. Cognition and Language/3. Seminar/S2. ASS The Lexical Decision Task","no","Andale Mono","no","18","no","white","no","yes","576","legacy","70","70","3","/Users/sancholoreto/Desktop/University/1. Second Year/Semenar Two/1. Units/1. Cognition and Language/3. Seminar/S2. ASS The Lexical Decision Task/subject-5215752.csv","legacy","Lentiform Loewenfeld","3.3.7","yes","yes","600bd7cfb6416f0113b04181","602110864497cf011d9c0822","0","j","NA","space","space","space","space","j","651","NA","8893","44364","11618","34255","651","2","legacy","1024","2","48000","-16","task","5215752","even","NA","72727","83623","74729","256513","9081","65076","53453","257015","181030","256511","257015","256469","83623","257667","70783","255969","9018","240536","Lexical Decision Task","62","56169","75","yes","1024"
"2.981215883","10.66","5","hair","word","82.89473684210526","82.89473684210526","746.828947368421","746.828947368421","black","no","legacy","legacy","legacy","0","uniform","1","undefined","undefined","undefined","1","j","0","0","0","0","75","0","0","0","75","0","71","75","71","0","71","3","75","0","75","Thu Feb 18 13:32:45 2021","The main experiment item","yes","Lexical_Decision_Task.osexp","/Users/sancholoreto/Desktop/University/1. Second Year/Semenar Two/1. Units/1. Cognition and Language/3. Seminar/S2. ASS The Lexical Decision Task","no","Andale Mono","no","18","no","white","no","yes","576","legacy","71","71","3","/Users/sancholoreto/Desktop/University/1. Second Year/Semenar Two/1. Units/1. Cognition and Language/3. Seminar/S2. ASS The Lexical Decision Task/subject-5215752.csv","legacy","Lentiform Loewenfeld","3.3.7","yes","yes","600bd7cfb6416f0113b04181","602110864497cf011d9c0822","0","j","NA","space","space","space","space","j","590","NA","8893","44364","11618","34255","590","2","legacy","1024","2","48000","-16","task","5215752","even","NA","72727","83623","74729","258212","9081","65076","53453","258715","181030","258210","258715","258170","83623","259306","70783","257670","9018","240536","Lexical Decision Task","63","56759","76","yes","1024"
"2.819763221","0","2","durp","non-word","83.11688311688312","83.11688311688312","749.2077922077922","749.2077922077922","black","no","legacy","legacy","legacy","0","uniform","1","undefined","undefined","undefined","1","f","0","0","0","0","76","0","0","0","76","0","72","76","72","0","72","3","76","0","76","Thu Feb 18 13:32:45 2021","The main experiment item","yes","Lexical_Decision_Task.osexp","/Users/sancholoreto/Desktop/University/1. Second Year/Semenar Two/1. Units/1. Cognition and Language/3. Seminar/S2. ASS The Lexical Decision Task","no","Andale Mono","no","18","no","white","no","yes","576","legacy","72","72","3","/Users/sancholoreto/Desktop/University/1. Second Year/Semenar Two/1. Units/1. Cognition and Language/3. Seminar/S2. ASS The Lexical Decision Task/subject-5215752.csv","legacy","Lentiform Loewenfeld","3.3.7","yes","yes","600bd7cfb6416f0113b04181","602110864497cf011d9c0822","0","f","NA","space","space","space","space","f","930","NA","8893","44364","11618","34255","930","2","legacy","1024","2","48000","-16","task","5215752","even","NA","72727","83623","74729","259852","9081","65076","53453","260354","181030","259850","260354","259809","83623","261286","70783","259309","9018","240536","Lexical Decision Task","64","57689","77","yes","1024"
"3.133964479","0","8","graw","non-word","82.05128205128206","82.05128205128206","746.8461538461538","746.8461538461538","black","no","legacy","legacy","legacy","0","uniform","0","undefined","undefined","undefined","0","f","0","0","0","0","77","0","0","0","77","0","73","77","73","0","73","3","77","0","77","Thu Feb 18 13:32:45 2021","The main experiment item","yes","Lexical_Decision_Task.osexp","/Users/sancholoreto/Desktop/University/1. Second Year/Semenar Two/1. Units/1. Cognition and Language/3. Seminar/S2. ASS The Lexical Decision Task","no","Andale Mono","no","18","no","white","no","yes","576","legacy","73","73","3","/Users/sancholoreto/Desktop/University/1. Second Year/Semenar Two/1. Units/1. Cognition and Language/3. Seminar/S2. ASS The Lexical Decision Task/subject-5215752.csv","legacy","Lentiform Loewenfeld","3.3.7","yes","yes","600bd7cfb6416f0113b04181","602110864497cf011d9c0822","0","j","NA","space","space","space","space","j","565","NA","8893","44364","11618","34255","565","2","legacy","1024","2","48000","-16","task","5215752","even","NA","72727","83623","74729","261831","9081","65076","53453","262333","181030","261829","262334","261789","83623","262900","70783","261289","9018","240536","Lexical Decision Task","64","58254","78","yes","1024"
"2.675164031","8.57","6","glue","word","82.27848101265823","82.27848101265823","743.9240506329114","743.9240506329114","black","no","legacy","legacy","legacy","0","uniform","1","undefined","undefined","undefined","1","j","0","0","0","0","78","0","0","0","78","0","74","78","74","0","74","3","78","0","78","Thu Feb 18 13:32:45 2021","The main experiment item","yes","Lexical_Decision_Task.osexp","/Users/sancholoreto/Desktop/University/1. Second Year/Semenar Two/1. Units/1. Cognition and Language/3. Seminar/S2. ASS The Lexical Decision Task","no","Andale Mono","no","18","no","white","no","yes","576","legacy","74","74","3","/Users/sancholoreto/Desktop/University/1. Second Year/Semenar Two/1. Units/1. Cognition and Language/3. Seminar/S2. ASS The Lexical Decision Task/subject-5215752.csv","legacy","Lentiform Loewenfeld","3.3.7","yes","yes","600bd7cfb6416f0113b04181","602110864497cf011d9c0822","0","j","NA","space","space","space","space","j","516","NA","8893","44364","11618","34255","516","2","legacy","1024","2","48000","-16","task","5215752","even","NA","72727","83623","74729","264439","9081","65076","53453","264941","181030","264437","264942","264403","83623","265459","70783","261289","9018","262903","Lexical Decision Task","65","58770","79","yes","1024"
"2.782472624","10.55","2","huge","word","82.5","82.5","742.6875","742.6875","black","no","legacy","legacy","legacy","0","uniform","1","undefined","undefined","undefined","1","j","0","0","0","0","79","0","0","0","79","0","75","79","75","0","75","3","79","0","79","Thu Feb 18 13:32:45 2021","The main experiment item","yes","Lexical_Decision_Task.osexp","/Users/sancholoreto/Desktop/University/1. Second Year/Semenar Two/1. Units/1. Cognition and Language/3. Seminar/S2. ASS The Lexical Decision Task","no","Andale Mono","no","18","no","white","no","yes","576","legacy","75","75","3","/Users/sancholoreto/Desktop/University/1. Second Year/Semenar Two/1. Units/1. Cognition and Language/3. Seminar/S2. ASS The Lexical Decision Task/subject-5215752.csv","legacy","Lentiform Loewenfeld","3.3.7","yes","yes","600bd7cfb6416f0113b04181","602110864497cf011d9c0822","0","j","NA","space","space","space","space","j","645","NA","8893","44364","11618","34255","645","2","legacy","1024","2","48000","-16","task","5215752","even","NA","72727","83623","74729","266006","9081","65076","53453","266508","181030","266004","266509","265961","83623","267155","70783","265461","9018","262903","Lexical Decision Task","66","59415","80","yes","1024"
"3.003891166","8.05","2","frog","word","82.71604938271605","82.71604938271605","740.4197530864197","740.4197530864197","black","no","legacy","legacy","legacy","0","uniform","1","undefined","undefined","undefined","1","j","0","0","0","0","80","0","0","0","80","0","76","80","76","0","76","3","80","0","80","Thu Feb 18 13:32:45 2021","The main experiment item","yes","Lexical_Decision_Task.osexp","/Users/sancholoreto/Desktop/University/1. Second Year/Semenar Two/1. Units/1. Cognition and Language/3. Seminar/S2. ASS The Lexical Decision Task","no","Andale Mono","no","18","no","white","no","yes","576","legacy","76","76","3","/Users/sancholoreto/Desktop/University/1. Second Year/Semenar Two/1. Units/1. Cognition and Language/3. Seminar/S2. ASS The Lexical Decision Task/subject-5215752.csv","legacy","Lentiform Loewenfeld","3.3.7","yes","yes","600bd7cfb6416f0113b04181","602110864497cf011d9c0822","0","j","NA","space","space","space","space","j","559","NA","8893","44364","11618","34255","559","2","legacy","1024","2","48000","-16","task","5215752","even","NA","72727","83623","74729","267701","9081","65076","53453","268203","181030","267699","268204","267658","83623","268764","70783","267158","9018","262903","Lexical Decision Task","67","59974","81","yes","1024"
"2.713490543","0","3","feps","non-word","82.92682926829268","82.92682926829268","738.1585365853658","738.1585365853658","black","no","legacy","legacy","legacy","0","uniform","1","undefined","undefined","undefined","1","f","0","0","0","0","81","0","0","0","81","0","77","81","77","0","77","3","81","0","81","Thu Feb 18 13:32:45 2021","The main experiment item","yes","Lexical_Decision_Task.osexp","/Users/sancholoreto/Desktop/University/1. Second Year/Semenar Two/1. Units/1. Cognition and Language/3. Seminar/S2. ASS The Lexical Decision Task","no","Andale Mono","no","18","no","white","no","yes","576","legacy","77","77","3","/Users/sancholoreto/Desktop/University/1. Second Year/Semenar Two/1. Units/1. Cognition and Language/3. Seminar/S2. ASS The Lexical Decision Task/subject-5215752.csv","legacy","Lentiform Loewenfeld","3.3.7","yes","yes","600bd7cfb6416f0113b04181","602110864497cf011d9c0822","0","f","NA","space","space","space","space","f","555","NA","8893","44364","11618","34255","555","2","legacy","1024","2","48000","-16","task","5215752","even","NA","72727","83623","74729","269312","9081","65076","53453","269814","181030","269310","269815","269267","83623","270371","70783","268767","9018","262903","Lexical Decision Task","68","60529","82","yes","1024"
