"Log_BG","Log_Freq_HAL","Ortho_N","Stimulus","Type","acc","accuracy","average_response_time","avg_rt","background","bidi","canvas_backend","clock_backend","color_backend","compensation","coordinates","correct","correct_Experimental_intro","correct_Introduction","correct_Practice_intro","correct_experimenter_kb","correct_response","count_End_Of_Experiment","count_End_Of_Practice","count_Experimental_Loop","count_Experimental_intro","count_Fixation","count_Introduction","count_Practice_Loop","count_Practice_intro","count_Stimulus","count_block_break_feedback","count_experimental_sequence","count_experimenter_kb","count_increment_trial_count","count_init_trial_count","count_logger","count_practice_sequence","count_right","count_task","count_wrong","datetime","description","disable_garbage_collection","experiment_file","experiment_path","font_bold","font_family","font_italic","font_size","font_underline","foreground","form_clicks","fullscreen","height","keyboard_backend","live_row","live_row_Experimental_Loop","live_row_Practice_Loop","logfile","mouse_backend","opensesame_codename","opensesame_version","osf_always_upload_data","osf_always_upload_experiment","osf_datanode_id","osf_id","repeat_cycle","response","response_End_Of_Experiment","response_Experimental_intro","response_Introduction","response_Practice_intro","response_block_break_feedback","response_experimenter_kb","response_time","response_time_End_Of_Experiment","response_time_Experimental_intro","response_time_Introduction","response_time_Practice_intro","response_time_block_break_feedback","response_time_experimenter_kb","round_decimals","sampler_backend","sound_buf_size","sound_channels","sound_freq","sound_sample_size","start","subject_nr","subject_parity","time_End_Of_Experiment","time_End_Of_Practice","time_Experimental_Loop","time_Experimental_intro","time_Fixation","time_Introduction","time_Practice_Loop","time_Practice_intro","time_Stimulus","time_block_break_feedback","time_experimental_sequence","time_experimenter_kb","time_increment_trial_count","time_init_trial_count","time_logger","time_practice_sequence","time_right","time_task","time_wrong","title","total_correct","total_response_time","total_responses","uniform_coordinates","width"
"3.368162872","0","4","ferk","non-word","100","100","1133.2","1133.2","black","no","legacy","legacy","legacy","0","uniform","1","undefined","undefined","undefined","1","f","0","0","0","0","4","0","0","0","4","NA","0","4","0","0","0","3","4","0","4","Thu Feb 18 13:55:54 2021","The main experiment item","yes","Lexical_Decision_Task.osexp","C:/Users/Miss Rooker","no","Andale Mono","no","18","no","white","no","yes","576","legacy","0","0","3","C:/Users/Miss Rooker/subject-5221027.csv","legacy","Lentiform Loewenfeld","3.3.7","yes","yes","600bd7cfb6416f0113b04181","602110864497cf011d9c0822","0","f","NA","j","space","space","NA","f","1199","NA","2612","1602","1167","NA","1199","2","legacy","1024","2","48000","-16","task","5221027","odd","NA","13744","18359","15746","18410","2180","4954","3785","18911","NA","18409","18911","NA","18359","20111","11882","13221","2174","NA","Lexical Decision Task","5","5666","5","yes","1024"
"3.031812271","6.52","3","gulp","word","83.33333333333333","83.33333333333333","1047.1666666666667","1047.1666666666667","black","no","legacy","legacy","legacy","0","uniform","0","undefined","undefined","undefined","0","j","0","0","0","0","5","0","0","0","5","NA","1","5","1","0","1","3","5","0","5","Thu Feb 18 13:55:54 2021","The main experiment item","yes","Lexical_Decision_Task.osexp","C:/Users/Miss Rooker","no","Andale Mono","no","18","no","white","no","yes","576","legacy","1","1","3","C:/Users/Miss Rooker/subject-5221027.csv","legacy","Lentiform Loewenfeld","3.3.7","yes","yes","600bd7cfb6416f0113b04181","602110864497cf011d9c0822","0","f","NA","j","space","space","NA","f","617","NA","2612","1602","1167","NA","617","2","legacy","1024","2","48000","-16","task","5221027","odd","NA","13744","18359","15746","20696","2180","4954","3785","21197","NA","20694","21197","20621","18359","21814","11882","20121","2174","NA","Lexical Decision Task","5","6283","6","yes","1024"
"3.488597715","0","9","nain","non-word","71.42857142857143","71.42857142857143","984.4285714285714","984.4285714285714","black","no","legacy","legacy","legacy","0","uniform","0","undefined","undefined","undefined","0","f","0","0","0","0","6","0","0","0","6","NA","2","6","2","0","2","3","6","0","6","Thu Feb 18 13:55:54 2021","The main experiment item","yes","Lexical_Decision_Task.osexp","C:/Users/Miss Rooker","no","Andale Mono","no","18","no","white","no","yes","576","legacy","2","2","3","C:/Users/Miss Rooker/subject-5221027.csv","legacy","Lentiform Loewenfeld","3.3.7","yes","yes","600bd7cfb6416f0113b04181","602110864497cf011d9c0822","0","j","NA","j","space","space","NA","j","608","NA","2612","1602","1167","NA","608","2","legacy","1024","2","48000","-16","task","5221027","odd","NA","13744","18359","15746","23402","2180","4954","3785","23903","NA","23400","23903","23325","18359","24511","11882","20121","2174","21825","Lexical Decision Task","5","6891","7","yes","1024"
"3.495914186","0","4","peng","non-word","62.5","62.5","1236.375","1236.375","black","no","legacy","legacy","legacy","0","uniform","0","undefined","undefined","undefined","0","f","0","0","0","0","7","0","0","0","7","NA","3","7","3","0","3","3","7","0","7","Thu Feb 18 13:55:54 2021","The main experiment item","yes","Lexical_Decision_Task.osexp","C:/Users/Miss Rooker","no","Andale Mono","no","18","no","white","no","yes","576","legacy","3","3","3","C:/Users/Miss Rooker/subject-5221027.csv","legacy","Lentiform Loewenfeld","3.3.7","yes","yes","600bd7cfb6416f0113b04181","602110864497cf011d9c0822","0","None","NA","j","space","space","NA","None","3000","NA","2612","1602","1167","NA","3000","2","legacy","1024","2","48000","-16","task","5221027","odd","NA","13744","18359","15746","26187","2180","4954","3785","26689","NA","26185","26690","26118","18359","29690","11882","20121","2174","24617","Lexical Decision Task","5","9891","8","yes","1024"
"3.153104174","10.89","6","door","word","66.66666666666667","66.66666666666667","1230.5555555555557","1230.5555555555557","black","no","legacy","legacy","legacy","0","uniform","1","undefined","undefined","undefined","1","j","0","0","0","0","8","0","0","0","8","NA","4","8","4","0","4","3","8","0","8","Thu Feb 18 13:55:54 2021","The main experiment item","yes","Lexical_Decision_Task.osexp","C:/Users/Miss Rooker","no","Andale Mono","no","18","no","white","no","yes","576","legacy","4","4","3","C:/Users/Miss Rooker/subject-5221027.csv","legacy","Lentiform Loewenfeld","3.3.7","yes","yes","600bd7cfb6416f0113b04181","602110864497cf011d9c0822","0","j","NA","j","space","space","NA","j","1184","NA","2612","1602","1167","NA","1184","2","legacy","1024","2","48000","-16","task","5221027","odd","NA","13744","18359","15746","31271","2180","4954","3785","31774","NA","31269","31774","31200","18359","32959","11882","20121","2174","29700","Lexical Decision Task","6","11075","9","yes","1024"
"2.814027728","8.2","4","foam","word","70","70","1161.2","1161.2","black","no","legacy","legacy","legacy","0","uniform","1","undefined","undefined","undefined","1","j","0","0","0","0","9","0","0","0","9","NA","5","9","5","0","5","3","9","0","9","Thu Feb 18 13:55:54 2021","The main experiment item","yes","Lexical_Decision_Task.osexp","C:/Users/Miss Rooker","no","Andale Mono","no","18","no","white","no","yes","576","legacy","5","5","3","C:/Users/Miss Rooker/subject-5221027.csv","legacy","Lentiform Loewenfeld","3.3.7","yes","yes","600bd7cfb6416f0113b04181","602110864497cf011d9c0822","0","j","NA","j","space","space","NA","j","537","NA","2612","1602","1167","NA","537","2","legacy","1024","2","48000","-16","task","5221027","odd","NA","13744","18359","15746","33541","2180","4954","3785","34042","NA","33539","34042","33473","18359","34579","11882","32973","2174","29700","Lexical Decision Task","7","11612","10","yes","1024"
"2.793790385","5.67","9","swab","word","72.72727272727273","72.72727272727273","1107.7272727272727","1107.7272727272727","black","no","legacy","legacy","legacy","0","uniform","1","undefined","undefined","undefined","1","j","0","0","0","0","10","0","0","0","10","NA","6","10","6","0","6","3","10","0","10","Thu Feb 18 13:55:54 2021","The main experiment item","yes","Lexical_Decision_Task.osexp","C:/Users/Miss Rooker","no","Andale Mono","no","18","no","white","no","yes","576","legacy","6","6","3","C:/Users/Miss Rooker/subject-5221027.csv","legacy","Lentiform Loewenfeld","3.3.7","yes","yes","600bd7cfb6416f0113b04181","602110864497cf011d9c0822","0","j","NA","j","space","space","NA","j","573","NA","2612","1602","1167","NA","573","2","legacy","1024","2","48000","-16","task","5221027","odd","NA","13744","18359","15746","35162","2180","4954","3785","35663","NA","35160","35663","35092","18359","36237","11882","34591","2174","29700","Lexical Decision Task","8","12185","11","yes","1024"
"3.077974404","10.41","8","tool","word","75","75","1058","1058","black","no","legacy","legacy","legacy","0","uniform","1","undefined","undefined","undefined","1","j","0","0","0","0","11","0","0","0","11","NA","7","11","7","0","7","3","11","0","11","Thu Feb 18 13:55:54 2021","The main experiment item","yes","Lexical_Decision_Task.osexp","C:/Users/Miss Rooker","no","Andale Mono","no","18","no","white","no","yes","576","legacy","7","7","3","C:/Users/Miss Rooker/subject-5221027.csv","legacy","Lentiform Loewenfeld","3.3.7","yes","yes","600bd7cfb6416f0113b04181","602110864497cf011d9c0822","0","j","NA","j","space","space","NA","j","511","NA","2612","1602","1167","NA","511","2","legacy","1024","2","48000","-16","task","5221027","odd","NA","13744","18359","15746","36817","2180","4954","3785","37318","NA","36816","37318","36750","18359","37830","11882","36250","2174","29700","Lexical Decision Task","9","12696","12","yes","1024"
"2.983324025","9.56","2","debt","word","76.92307692307692","76.92307692307692","1012.6153846153846","1012.6153846153846","black","no","legacy","legacy","legacy","0","uniform","1","undefined","undefined","undefined","1","j","0","0","0","0","12","0","0","0","12","NA","8","12","8","0","8","3","12","0","12","Thu Feb 18 13:55:54 2021","The main experiment item","yes","Lexical_Decision_Task.osexp","C:/Users/Miss Rooker","no","Andale Mono","no","18","no","white","no","yes","576","legacy","8","8","3","C:/Users/Miss Rooker/subject-5221027.csv","legacy","Lentiform Loewenfeld","3.3.7","yes","yes","600bd7cfb6416f0113b04181","602110864497cf011d9c0822","0","j","NA","j","space","space","NA","j","468","NA","2612","1602","1167","NA","468","2","legacy","1024","2","48000","-16","task","5221027","odd","NA","13744","18359","15746","38409","2180","4954","3785","38912","NA","38407","38912","38341","18359","39381","11882","37841","2174","29700","Lexical Decision Task","10","13164","13","yes","1024"
"2.924968096","0","4","phim","non-word","78.57142857142857","78.57142857142857","988.9285714285714","988.9285714285714","black","no","legacy","legacy","legacy","0","uniform","1","undefined","undefined","undefined","1","f","0","0","0","0","13","0","0","0","13","NA","9","13","9","0","9","3","13","0","13","Thu Feb 18 13:55:54 2021","The main experiment item","yes","Lexical_Decision_Task.osexp","C:/Users/Miss Rooker","no","Andale Mono","no","18","no","white","no","yes","576","legacy","9","9","3","C:/Users/Miss Rooker/subject-5221027.csv","legacy","Lentiform Loewenfeld","3.3.7","yes","yes","600bd7cfb6416f0113b04181","602110864497cf011d9c0822","0","f","NA","j","space","space","NA","f","681","NA","2612","1602","1167","NA","681","2","legacy","1024","2","48000","-16","task","5221027","odd","NA","13744","18359","15746","39960","2180","4954","3785","40463","NA","39958","40464","39891","18359","41145","11882","39391","2174","29700","Lexical Decision Task","11","13845","14","yes","1024"
"2.693726949","5.08","3","swig","word","80","80","966.4","966.4","black","no","legacy","legacy","legacy","0","uniform","1","undefined","undefined","undefined","1","j","0","0","0","0","14","0","0","0","14","NA","10","14","10","0","10","3","14","0","14","Thu Feb 18 13:55:54 2021","The main experiment item","yes","Lexical_Decision_Task.osexp","C:/Users/Miss Rooker","no","Andale Mono","no","18","no","white","no","yes","576","legacy","10","10","3","C:/Users/Miss Rooker/subject-5221027.csv","legacy","Lentiform Loewenfeld","3.3.7","yes","yes","600bd7cfb6416f0113b04181","602110864497cf011d9c0822","0","j","NA","j","space","space","NA","j","651","NA","2612","1602","1167","NA","651","2","legacy","1024","2","48000","-16","task","5221027","odd","NA","13744","18359","15746","41726","2180","4954","3785","42227","NA","41724","42227","41657","18359","42878","11882","41157","2174","29700","Lexical Decision Task","12","14496","15","yes","1024"
"2.893578687","8.69","3","surf","word","81.25","81.25","974.25","974.25","black","no","legacy","legacy","legacy","0","uniform","1","undefined","undefined","undefined","1","j","0","0","0","0","15","0","0","0","15","NA","11","15","11","0","11","3","15","0","15","Thu Feb 18 13:55:54 2021","The main experiment item","yes","Lexical_Decision_Task.osexp","C:/Users/Miss Rooker","no","Andale Mono","no","18","no","white","no","yes","576","legacy","11","11","3","C:/Users/Miss Rooker/subject-5221027.csv","legacy","Lentiform Loewenfeld","3.3.7","yes","yes","600bd7cfb6416f0113b04181","602110864497cf011d9c0822","0","j","NA","j","space","space","NA","j","1092","NA","2612","1602","1167","NA","1092","2","legacy","1024","2","48000","-16","task","5221027","odd","NA","13744","18359","15746","43461","2180","4954","3785","43962","NA","43459","43962","43390","18359","45054","11882","42890","2174","29700","Lexical Decision Task","13","15588","16","yes","1024"
"2.990042563","6.64","9","plow","word","82.3529411764706","82.3529411764706","952.4117647058823","952.4117647058823","black","no","legacy","legacy","legacy","0","uniform","1","undefined","undefined","undefined","1","j","0","0","0","0","16","0","0","0","16","NA","12","16","12","0","12","3","16","0","16","Thu Feb 18 13:55:54 2021","The main experiment item","yes","Lexical_Decision_Task.osexp","C:/Users/Miss Rooker","no","Andale Mono","no","18","no","white","no","yes","576","legacy","12","12","3","C:/Users/Miss Rooker/subject-5221027.csv","legacy","Lentiform Loewenfeld","3.3.7","yes","yes","600bd7cfb6416f0113b04181","602110864497cf011d9c0822","0","j","NA","j","space","space","NA","j","603","NA","2612","1602","1167","NA","603","2","legacy","1024","2","48000","-16","task","5221027","odd","NA","13744","18359","15746","45640","2180","4954","3785","46143","NA","45639","46143","45565","18359","46747","11882","45065","2174","29700","Lexical Decision Task","14","16191","17","yes","1024"
"2.819763221","0","2","durp","non-word","83.33333333333333","83.33333333333333","940.6111111111111","940.6111111111111","black","no","legacy","legacy","legacy","0","uniform","1","undefined","undefined","undefined","1","f","0","0","0","0","17","0","0","0","17","NA","13","17","13","0","13","3","17","0","17","Thu Feb 18 13:55:54 2021","The main experiment item","yes","Lexical_Decision_Task.osexp","C:/Users/Miss Rooker","no","Andale Mono","no","18","no","white","no","yes","576","legacy","13","13","3","C:/Users/Miss Rooker/subject-5221027.csv","legacy","Lentiform Loewenfeld","3.3.7","yes","yes","600bd7cfb6416f0113b04181","602110864497cf011d9c0822","0","f","NA","j","space","space","NA","f","740","NA","2612","1602","1167","NA","740","2","legacy","1024","2","48000","-16","task","5221027","odd","NA","13744","18359","15746","47327","2180","4954","3785","47828","NA","47325","47828","47259","18359","48568","11882","46759","2174","29700","Lexical Decision Task","15","16931","18","yes","1024"
"2.981215883","10.66","5","hair","word","84.21052631578948","84.21052631578948","928.2631578947369","928.2631578947369","black","no","legacy","legacy","legacy","0","uniform","1","undefined","undefined","undefined","1","j","0","0","0","0","18","0","0","0","18","NA","14","18","14","0","14","3","18","0","18","Thu Feb 18 13:55:54 2021","The main experiment item","yes","Lexical_Decision_Task.osexp","C:/Users/Miss Rooker","no","Andale Mono","no","18","no","white","no","yes","576","legacy","14","14","3","C:/Users/Miss Rooker/subject-5221027.csv","legacy","Lentiform Loewenfeld","3.3.7","yes","yes","600bd7cfb6416f0113b04181","602110864497cf011d9c0822","0","j","NA","j","space","space","NA","j","706","NA","2612","1602","1167","NA","706","2","legacy","1024","2","48000","-16","task","5221027","odd","NA","13744","18359","15746","49148","2180","4954","3785","49649","NA","49146","49649","49080","18359","50356","11882","48580","2174","29700","Lexical Decision Task","16","17637","19","yes","1024"
"2.68604012","0","3","mulb","non-word","85","85","950.5","950.5","black","no","legacy","legacy","legacy","0","uniform","1","undefined","undefined","undefined","1","f","0","0","0","0","19","0","0","0","19","NA","15","19","15","0","15","3","19","0","19","Thu Feb 18 13:55:54 2021","The main experiment item","yes","Lexical_Decision_Task.osexp","C:/Users/Miss Rooker","no","Andale Mono","no","18","no","white","no","yes","576","legacy","15","15","3","C:/Users/Miss Rooker/subject-5221027.csv","legacy","Lentiform Loewenfeld","3.3.7","yes","yes","600bd7cfb6416f0113b04181","602110864497cf011d9c0822","0","f","NA","j","space","space","NA","f","1373","NA","2612","1602","1167","NA","1373","2","legacy","1024","2","48000","-16","task","5221027","odd","NA","13744","18359","15746","50938","2180","4954","3785","51439","NA","50936","51439","50868","18359","52812","11882","50368","2174","29700","Lexical Decision Task","17","19010","20","yes","1024"
"2.695770526","7.34","6","pawn","word","85.71428571428571","85.71428571428571","935.0952380952381","935.0952380952381","black","no","legacy","legacy","legacy","0","uniform","1","undefined","undefined","undefined","1","j","0","0","0","0","20","0","0","0","20","NA","16","20","16","0","16","3","20","0","20","Thu Feb 18 13:55:54 2021","The main experiment item","yes","Lexical_Decision_Task.osexp","C:/Users/Miss Rooker","no","Andale Mono","no","18","no","white","no","yes","576","legacy","16","16","3","C:/Users/Miss Rooker/subject-5221027.csv","legacy","Lentiform Loewenfeld","3.3.7","yes","yes","600bd7cfb6416f0113b04181","602110864497cf011d9c0822","0","j","NA","j","space","space","NA","j","627","NA","2612","1602","1167","NA","627","2","legacy","1024","2","48000","-16","task","5221027","odd","NA","13744","18359","15746","53393","2180","4954","3785","53894","NA","53391","53894","53324","18359","54521","11882","52824","2174","29700","Lexical Decision Task","18","19637","21","yes","1024"
"3.031408464","0","7","drow","non-word","86.36363636363636","86.36363636363636","928.1363636363636","928.1363636363636","black","no","legacy","legacy","legacy","0","uniform","1","undefined","undefined","undefined","1","f","0","0","0","0","21","0","0","0","21","NA","17","21","17","0","17","3","21","0","21","Thu Feb 18 13:55:54 2021","The main experiment item","yes","Lexical_Decision_Task.osexp","C:/Users/Miss Rooker","no","Andale Mono","no","18","no","white","no","yes","576","legacy","17","17","3","C:/Users/Miss Rooker/subject-5221027.csv","legacy","Lentiform Loewenfeld","3.3.7","yes","yes","600bd7cfb6416f0113b04181","602110864497cf011d9c0822","0","f","NA","j","space","space","NA","f","782","NA","2612","1602","1167","NA","782","2","legacy","1024","2","48000","-16","task","5221027","odd","NA","13744","18359","15746","55103","2180","4954","3785","55605","NA","55101","55605","55034","18359","56388","11882","54534","2174","29700","Lexical Decision Task","19","20419","22","yes","1024"
"2.744553742","0","2","nawk","non-word","86.95652173913044","86.95652173913044","917.3913043478261","917.3913043478261","black","no","legacy","legacy","legacy","0","uniform","1","undefined","undefined","undefined","1","f","0","0","0","0","22","0","0","0","22","NA","18","22","18","0","18","3","22","0","22","Thu Feb 18 13:55:54 2021","The main experiment item","yes","Lexical_Decision_Task.osexp","C:/Users/Miss Rooker","no","Andale Mono","no","18","no","white","no","yes","576","legacy","18","18","3","C:/Users/Miss Rooker/subject-5221027.csv","legacy","Lentiform Loewenfeld","3.3.7","yes","yes","600bd7cfb6416f0113b04181","602110864497cf011d9c0822","0","f","NA","j","space","space","NA","f","681","NA","2612","1602","1167","NA","681","2","legacy","1024","2","48000","-16","task","5221027","odd","NA","13744","18359","15746","56967","2180","4954","3785","57468","NA","56965","57468","56899","18359","58150","11882","56399","2174","29700","Lexical Decision Task","20","21100","23","yes","1024"
"3.263399331","0","8","cour","non-word","87.5","87.5","920.625","920.625","black","no","legacy","legacy","legacy","0","uniform","1","undefined","undefined","undefined","1","f","0","0","0","0","23","0","0","0","23","NA","19","23","19","0","19","3","23","0","23","Thu Feb 18 13:55:54 2021","The main experiment item","yes","Lexical_Decision_Task.osexp","C:/Users/Miss Rooker","no","Andale Mono","no","18","no","white","no","yes","576","legacy","19","19","3","C:/Users/Miss Rooker/subject-5221027.csv","legacy","Lentiform Loewenfeld","3.3.7","yes","yes","600bd7cfb6416f0113b04181","602110864497cf011d9c0822","0","f","NA","j","space","space","NA","f","995","NA","2612","1602","1167","NA","995","2","legacy","1024","2","48000","-16","task","5221027","odd","NA","13744","18359","15746","58737","2180","4954","3785","59239","NA","58736","59239","58662","18359","60234","11882","58162","2174","29700","Lexical Decision Task","21","22095","24","yes","1024"
"2.64476673","0","5","moft","non-word","88","88","923.84","923.84","black","no","legacy","legacy","legacy","0","uniform","1","undefined","undefined","undefined","1","f","0","0","0","0","24","0","0","0","24","NA","20","24","20","0","20","3","24","0","24","Thu Feb 18 13:55:54 2021","The main experiment item","yes","Lexical_Decision_Task.osexp","C:/Users/Miss Rooker","no","Andale Mono","no","18","no","white","no","yes","576","legacy","20","20","3","C:/Users/Miss Rooker/subject-5221027.csv","legacy","Lentiform Loewenfeld","3.3.7","yes","yes","600bd7cfb6416f0113b04181","602110864497cf011d9c0822","0","f","NA","j","space","space","NA","f","1001","NA","2612","1602","1167","NA","1001","2","legacy","1024","2","48000","-16","task","5221027","odd","NA","13744","18359","15746","60826","2180","4954","3785","61327","NA","60825","61327","60754","18359","62329","11882","60254","2174","29700","Lexical Decision Task","22","23096","25","yes","1024"
"3.257359335","8","6","brew","word","88.46153846153847","88.46153846153847","912.6923076923077","912.6923076923077","black","no","legacy","legacy","legacy","0","uniform","1","undefined","undefined","undefined","1","j","0","0","0","0","25","0","0","0","25","NA","21","25","21","0","21","3","25","0","25","Thu Feb 18 13:55:54 2021","The main experiment item","yes","Lexical_Decision_Task.osexp","C:/Users/Miss Rooker","no","Andale Mono","no","18","no","white","no","yes","576","legacy","21","21","3","C:/Users/Miss Rooker/subject-5221027.csv","legacy","Lentiform Loewenfeld","3.3.7","yes","yes","600bd7cfb6416f0113b04181","602110864497cf011d9c0822","0","j","NA","j","space","space","NA","j","634","NA","2612","1602","1167","NA","634","2","legacy","1024","2","48000","-16","task","5221027","odd","NA","13744","18359","15746","62908","2180","4954","3785","63409","NA","62906","63409","62840","18359","64044","11882","62340","2174","29700","Lexical Decision Task","23","23730","26","yes","1024"
"3.168890155","0","6","thet","non-word","88.88888888888889","88.88888888888889","903.7407407407408","903.7407407407408","black","no","legacy","legacy","legacy","0","uniform","1","undefined","undefined","undefined","1","f","0","0","0","0","26","0","0","0","26","NA","22","26","22","0","22","3","26","0","26","Thu Feb 18 13:55:54 2021","The main experiment item","yes","Lexical_Decision_Task.osexp","C:/Users/Miss Rooker","no","Andale Mono","no","18","no","white","no","yes","576","legacy","22","22","3","C:/Users/Miss Rooker/subject-5221027.csv","legacy","Lentiform Loewenfeld","3.3.7","yes","yes","600bd7cfb6416f0113b04181","602110864497cf011d9c0822","0","f","NA","j","space","space","NA","f","671","NA","2612","1602","1167","NA","671","2","legacy","1024","2","48000","-16","task","5221027","odd","NA","13744","18359","15746","64625","2180","4954","3785","65126","NA","64623","65126","64556","18359","65798","11882","64056","2174","29700","Lexical Decision Task","24","24401","27","yes","1024"
"2.980911938","7.15","7","hoop","word","89.28571428571429","89.28571428571429","912.75","912.75","black","no","legacy","legacy","legacy","0","uniform","1","undefined","undefined","undefined","1","j","0","0","0","0","27","0","0","0","27","NA","23","27","23","0","23","3","27","0","27","Thu Feb 18 13:55:54 2021","The main experiment item","yes","Lexical_Decision_Task.osexp","C:/Users/Miss Rooker","no","Andale Mono","no","18","no","white","no","yes","576","legacy","23","23","3","C:/Users/Miss Rooker/subject-5221027.csv","legacy","Lentiform Loewenfeld","3.3.7","yes","yes","600bd7cfb6416f0113b04181","602110864497cf011d9c0822","0","j","NA","j","space","space","NA","j","1156","NA","2612","1602","1167","NA","1156","2","legacy","1024","2","48000","-16","task","5221027","odd","NA","13744","18359","15746","66379","2180","4954","3785","66880","NA","66377","66881","66310","18359","68038","11882","65810","2174","29700","Lexical Decision Task","25","25557","28","yes","1024"
"3.208978517","10.33","4","fish","word","89.65517241379311","89.65517241379311","898.8620689655172","898.8620689655172","black","no","legacy","legacy","legacy","0","uniform","1","undefined","undefined","undefined","1","j","0","0","0","0","28","0","0","0","28","NA","24","28","24","0","24","3","28","0","28","Thu Feb 18 13:55:54 2021","The main experiment item","yes","Lexical_Decision_Task.osexp","C:/Users/Miss Rooker","no","Andale Mono","no","18","no","white","no","yes","576","legacy","24","24","3","C:/Users/Miss Rooker/subject-5221027.csv","legacy","Lentiform Loewenfeld","3.3.7","yes","yes","600bd7cfb6416f0113b04181","602110864497cf011d9c0822","0","j","NA","j","space","space","NA","j","510","NA","2612","1602","1167","NA","510","2","legacy","1024","2","48000","-16","task","5221027","odd","NA","13744","18359","15746","68618","2180","4954","3785","69119","NA","68616","69119","68549","18359","69629","11882","68049","2174","29700","Lexical Decision Task","26","26067","29","yes","1024"
"3.492014979","0","9","yine","non-word","90","90","890.5333333333333","890.5333333333333","black","no","legacy","legacy","legacy","0","uniform","1","undefined","undefined","undefined","1","f","0","0","0","0","29","0","0","0","29","NA","25","29","25","0","25","3","29","0","29","Thu Feb 18 13:55:54 2021","The main experiment item","yes","Lexical_Decision_Task.osexp","C:/Users/Miss Rooker","no","Andale Mono","no","18","no","white","no","yes","576","legacy","25","25","3","C:/Users/Miss Rooker/subject-5221027.csv","legacy","Lentiform Loewenfeld","3.3.7","yes","yes","600bd7cfb6416f0113b04181","602110864497cf011d9c0822","0","f","NA","j","space","space","NA","f","649","NA","2612","1602","1167","NA","649","2","legacy","1024","2","48000","-16","task","5221027","odd","NA","13744","18359","15746","70211","2180","4954","3785","70712","NA","70210","70712","70141","18359","71362","11882","69641","2174","29700","Lexical Decision Task","27","26716","30","yes","1024"
"3.102203805","7.21","3","drip","word","90.3225806451613","90.3225806451613","882.0645161290323","882.0645161290323","black","no","legacy","legacy","legacy","0","uniform","1","undefined","undefined","undefined","1","j","0","0","0","0","30","0","0","0","30","NA","26","30","26","0","26","3","30","0","30","Thu Feb 18 13:55:54 2021","The main experiment item","yes","Lexical_Decision_Task.osexp","C:/Users/Miss Rooker","no","Andale Mono","no","18","no","white","no","yes","576","legacy","26","26","3","C:/Users/Miss Rooker/subject-5221027.csv","legacy","Lentiform Loewenfeld","3.3.7","yes","yes","600bd7cfb6416f0113b04181","602110864497cf011d9c0822","0","j","NA","j","space","space","NA","j","628","NA","2612","1602","1167","NA","628","2","legacy","1024","2","48000","-16","task","5221027","odd","NA","13744","18359","15746","71943","2180","4954","3785","72444","NA","71941","72445","71874","18359","73074","11882","71373","2174","29700","Lexical Decision Task","28","27344","31","yes","1024"
"3.003891166","8.05","2","frog","word","87.5","87.5","872.96875","872.96875","black","no","legacy","legacy","legacy","0","uniform","0","undefined","undefined","undefined","0","j","0","0","0","0","31","0","0","0","31","NA","27","31","27","0","27","3","31","0","31","Thu Feb 18 13:55:54 2021","The main experiment item","yes","Lexical_Decision_Task.osexp","C:/Users/Miss Rooker","no","Andale Mono","no","18","no","white","no","yes","576","legacy","27","27","3","C:/Users/Miss Rooker/subject-5221027.csv","legacy","Lentiform Loewenfeld","3.3.7","yes","yes","600bd7cfb6416f0113b04181","602110864497cf011d9c0822","0","f","NA","j","space","space","NA","f","591","NA","2612","1602","1167","NA","591","2","legacy","1024","2","48000","-16","task","5221027","odd","NA","13744","18359","15746","73660","2180","4954","3785","74161","NA","73658","74161","73586","18359","74753","11882","73086","2174","29700","Lexical Decision Task","28","27935","32","yes","1024"
"2.809559715","8.44","4","volt","word","87.87878787878788","87.87878787878788","864.060606060606","864.060606060606","black","no","legacy","legacy","legacy","0","uniform","1","undefined","undefined","undefined","1","j","0","0","0","0","32","0","0","0","32","NA","28","32","28","0","28","3","32","0","32","Thu Feb 18 13:55:54 2021","The main experiment item","yes","Lexical_Decision_Task.osexp","C:/Users/Miss Rooker","no","Andale Mono","no","18","no","white","no","yes","576","legacy","28","28","3","C:/Users/Miss Rooker/subject-5221027.csv","legacy","Lentiform Loewenfeld","3.3.7","yes","yes","600bd7cfb6416f0113b04181","602110864497cf011d9c0822","0","j","NA","j","space","space","NA","j","579","NA","2612","1602","1167","NA","579","2","legacy","1024","2","48000","-16","task","5221027","odd","NA","13744","18359","15746","76333","2180","4954","3785","76834","NA","76331","76834","76264","18359","77414","11882","73086","2174","74764","Lexical Decision Task","29","28514","33","yes","1024"
"3.134602053","0","8","jart","non-word","88.23529411764706","88.23529411764706","857.1470588235294","857.1470588235294","black","no","legacy","legacy","legacy","0","uniform","1","undefined","undefined","undefined","1","f","0","0","0","0","33","0","0","0","33","NA","29","33","29","0","29","3","33","0","33","Thu Feb 18 13:55:54 2021","The main experiment item","yes","Lexical_Decision_Task.osexp","C:/Users/Miss Rooker","no","Andale Mono","no","18","no","white","no","yes","576","legacy","29","29","3","C:/Users/Miss Rooker/subject-5221027.csv","legacy","Lentiform Loewenfeld","3.3.7","yes","yes","600bd7cfb6416f0113b04181","602110864497cf011d9c0822","0","f","NA","j","space","space","NA","f","629","NA","2612","1602","1167","NA","629","2","legacy","1024","2","48000","-16","task","5221027","odd","NA","13744","18359","15746","77989","2180","4954","3785","78490","NA","77987","78491","77919","18359","79121","11882","77419","2174","74764","Lexical Decision Task","30","29143","34","yes","1024"
"2.858136002","0","4","phip","non-word","88.57142857142857","88.57142857142857","865.9142857142857","865.9142857142857","black","no","legacy","legacy","legacy","0","uniform","1","undefined","undefined","undefined","1","f","0","0","0","0","34","0","0","0","34","NA","30","34","30","0","30","3","34","0","34","Thu Feb 18 13:55:54 2021","The main experiment item","yes","Lexical_Decision_Task.osexp","C:/Users/Miss Rooker","no","Andale Mono","no","18","no","white","no","yes","576","legacy","30","30","3","C:/Users/Miss Rooker/subject-5221027.csv","legacy","Lentiform Loewenfeld","3.3.7","yes","yes","600bd7cfb6416f0113b04181","602110864497cf011d9c0822","0","f","NA","j","space","space","NA","f","1164","NA","2612","1602","1167","NA","1164","2","legacy","1024","2","48000","-16","task","5221027","odd","NA","13744","18359","15746","79700","2180","4954","3785","80201","NA","79698","80201","79633","18359","81366","11882","79133","2174","74764","Lexical Decision Task","31","30307","35","yes","1024"
"2.821076612","0","4","lult","non-word","88.88888888888889","88.88888888888889","859.6666666666666","859.6666666666666","black","no","legacy","legacy","legacy","0","uniform","1","undefined","undefined","undefined","1","f","0","0","0","0","35","0","0","0","35","NA","31","35","31","0","31","3","35","0","35","Thu Feb 18 13:55:54 2021","The main experiment item","yes","Lexical_Decision_Task.osexp","C:/Users/Miss Rooker","no","Andale Mono","no","18","no","white","no","yes","576","legacy","31","31","3","C:/Users/Miss Rooker/subject-5221027.csv","legacy","Lentiform Loewenfeld","3.3.7","yes","yes","600bd7cfb6416f0113b04181","602110864497cf011d9c0822","0","f","NA","j","space","space","NA","f","641","NA","2612","1602","1167","NA","641","2","legacy","1024","2","48000","-16","task","5221027","odd","NA","13744","18359","15746","81938","2180","4954","3785","82440","NA","81937","82440","81871","18359","83082","11882","81370","2174","74764","Lexical Decision Task","32","30948","36","yes","1024"
"2.86332286","6.71","2","feud","word","89.1891891891892","89.1891891891892","853.7027027027027","853.7027027027027","black","no","legacy","legacy","legacy","0","uniform","1","undefined","undefined","undefined","1","j","0","0","0","0","36","0","0","0","36","NA","32","36","32","0","32","3","36","0","36","Thu Feb 18 13:55:54 2021","The main experiment item","yes","Lexical_Decision_Task.osexp","C:/Users/Miss Rooker","no","Andale Mono","no","18","no","white","no","yes","576","legacy","32","32","3","C:/Users/Miss Rooker/subject-5221027.csv","legacy","Lentiform Loewenfeld","3.3.7","yes","yes","600bd7cfb6416f0113b04181","602110864497cf011d9c0822","0","j","NA","j","space","space","NA","j","639","NA","2612","1602","1167","NA","639","2","legacy","1024","2","48000","-16","task","5221027","odd","NA","13744","18359","15746","83663","2180","4954","3785","84164","NA","83661","84164","83595","18359","84804","11882","83095","2174","74764","Lexical Decision Task","33","31587","37","yes","1024"
"2.664328519","0","4","plux","non-word","89.47368421052632","89.47368421052632","846.8157894736842","846.8157894736842","black","no","legacy","legacy","legacy","0","uniform","1","undefined","undefined","undefined","1","f","0","0","0","0","37","0","0","0","37","NA","33","37","33","0","33","3","37","0","37","Thu Feb 18 13:55:54 2021","The main experiment item","yes","Lexical_Decision_Task.osexp","C:/Users/Miss Rooker","no","Andale Mono","no","18","no","white","no","yes","576","legacy","33","33","3","C:/Users/Miss Rooker/subject-5221027.csv","legacy","Lentiform Loewenfeld","3.3.7","yes","yes","600bd7cfb6416f0113b04181","602110864497cf011d9c0822","0","f","NA","j","space","space","NA","f","592","NA","2612","1602","1167","NA","592","2","legacy","1024","2","48000","-16","task","5221027","odd","NA","13744","18359","15746","85389","2180","4954","3785","85890","NA","85387","85890","85317","18359","86483","11882","84817","2174","74764","Lexical Decision Task","34","32179","38","yes","1024"
"3.133964479","0","8","graw","non-word","87.17948717948718","87.17948717948718","852.2564102564103","852.2564102564103","black","no","legacy","legacy","legacy","0","uniform","0","undefined","undefined","undefined","0","f","0","0","0","0","38","0","0","0","38","NA","34","38","34","0","34","3","38","0","38","Thu Feb 18 13:55:54 2021","The main experiment item","yes","Lexical_Decision_Task.osexp","C:/Users/Miss Rooker","no","Andale Mono","no","18","no","white","no","yes","576","legacy","34","34","3","C:/Users/Miss Rooker/subject-5221027.csv","legacy","Lentiform Loewenfeld","3.3.7","yes","yes","600bd7cfb6416f0113b04181","602110864497cf011d9c0822","0","j","NA","j","space","space","NA","j","1059","NA","2612","1602","1167","NA","1059","2","legacy","1024","2","48000","-16","task","5221027","odd","NA","13744","18359","15746","87069","2180","4954","3785","87571","NA","87067","87571","86996","18359","88631","11882","86496","2174","74764","Lexical Decision Task","34","33238","39","yes","1024"
"2.616654026","9.37","5","gift","word","87.5","87.5","847.1","847.1","black","no","legacy","legacy","legacy","0","uniform","1","undefined","undefined","undefined","1","j","0","0","0","0","39","0","0","0","39","NA","35","39","35","0","35","3","39","0","39","Thu Feb 18 13:55:54 2021","The main experiment item","yes","Lexical_Decision_Task.osexp","C:/Users/Miss Rooker","no","Andale Mono","no","18","no","white","no","yes","576","legacy","35","35","3","C:/Users/Miss Rooker/subject-5221027.csv","legacy","Lentiform Loewenfeld","3.3.7","yes","yes","600bd7cfb6416f0113b04181","602110864497cf011d9c0822","0","j","NA","j","space","space","NA","j","646","NA","2612","1602","1167","NA","646","2","legacy","1024","2","48000","-16","task","5221027","odd","NA","13744","18359","15746","90232","2180","4954","3785","90733","NA","90231","90733","90156","18359","91380","11882","86496","2174","88656","Lexical Decision Task","35","33884","40","yes","1024"
"2.82129731","6.72","5","plum","word","87.8048780487805","87.8048780487805","840.780487804878","840.780487804878","black","no","legacy","legacy","legacy","0","uniform","1","undefined","undefined","undefined","1","j","0","0","0","0","40","0","0","0","40","NA","36","40","36","0","36","3","40","0","40","Thu Feb 18 13:55:54 2021","The main experiment item","yes","Lexical_Decision_Task.osexp","C:/Users/Miss Rooker","no","Andale Mono","no","18","no","white","no","yes","576","legacy","36","36","3","C:/Users/Miss Rooker/subject-5221027.csv","legacy","Lentiform Loewenfeld","3.3.7","yes","yes","600bd7cfb6416f0113b04181","602110864497cf011d9c0822","0","j","NA","j","space","space","NA","j","588","NA","2612","1602","1167","NA","588","2","legacy","1024","2","48000","-16","task","5221027","odd","NA","13744","18359","15746","91960","2180","4954","3785","92461","NA","91958","92461","91892","18359","93050","11882","91392","2174","88656","Lexical Decision Task","36","34472","41","yes","1024"
"2.714888338","0","3","brug","non-word","88.0952380952381","88.0952380952381","839.7380952380952","839.7380952380952","black","no","legacy","legacy","legacy","0","uniform","1","undefined","undefined","undefined","1","f","0","0","0","0","41","0","0","0","41","NA","37","41","37","0","37","3","41","0","41","Thu Feb 18 13:55:54 2021","The main experiment item","yes","Lexical_Decision_Task.osexp","C:/Users/Miss Rooker","no","Andale Mono","no","18","no","white","no","yes","576","legacy","37","37","3","C:/Users/Miss Rooker/subject-5221027.csv","legacy","Lentiform Loewenfeld","3.3.7","yes","yes","600bd7cfb6416f0113b04181","602110864497cf011d9c0822","0","f","NA","j","space","space","NA","f","797","NA","2612","1602","1167","NA","797","2","legacy","1024","2","48000","-16","task","5221027","odd","NA","13744","18359","15746","93631","2180","4954","3785","94132","NA","93629","94132","93563","18359","94929","11882","93063","2174","88656","Lexical Decision Task","37","35269","42","yes","1024"
"3.062080345","0","6","tomp","non-word","88.37209302325581","88.37209302325581","838","838","black","no","legacy","legacy","legacy","0","uniform","1","undefined","undefined","undefined","1","f","0","0","0","0","42","0","0","0","42","NA","38","42","38","0","38","3","42","0","42","Thu Feb 18 13:55:54 2021","The main experiment item","yes","Lexical_Decision_Task.osexp","C:/Users/Miss Rooker","no","Andale Mono","no","18","no","white","no","yes","576","legacy","38","38","3","C:/Users/Miss Rooker/subject-5221027.csv","legacy","Lentiform Loewenfeld","3.3.7","yes","yes","600bd7cfb6416f0113b04181","602110864497cf011d9c0822","0","f","NA","j","space","space","NA","f","765","NA","2612","1602","1167","NA","765","2","legacy","1024","2","48000","-16","task","5221027","odd","NA","13744","18359","15746","95511","2180","4954","3785","96012","NA","95509","96012","95442","18359","96777","11882","94942","2174","88656","Lexical Decision Task","38","36034","43","yes","1024"
"2.708989954","9.28","9","bowl","word","88.63636363636364","88.63636363636364","834.6363636363636","834.6363636363636","black","no","legacy","legacy","legacy","0","uniform","1","undefined","undefined","undefined","1","j","0","0","0","0","43","0","0","0","43","NA","39","43","39","0","39","3","43","0","43","Thu Feb 18 13:55:54 2021","The main experiment item","yes","Lexical_Decision_Task.osexp","C:/Users/Miss Rooker","no","Andale Mono","no","18","no","white","no","yes","576","legacy","39","39","3","C:/Users/Miss Rooker/subject-5221027.csv","legacy","Lentiform Loewenfeld","3.3.7","yes","yes","600bd7cfb6416f0113b04181","602110864497cf011d9c0822","0","j","NA","j","space","space","NA","j","690","NA","2612","1602","1167","NA","690","2","legacy","1024","2","48000","-16","task","5221027","odd","NA","13744","18359","15746","97357","2180","4954","3785","97858","NA","97355","97858","97289","18359","98549","11882","96789","2174","88656","Lexical Decision Task","39","36724","44","yes","1024"
"2.843025032","0","9","pusk","non-word","88.88888888888889","88.88888888888889","832.1333333333333","832.1333333333333","black","no","legacy","legacy","legacy","0","uniform","1","undefined","undefined","undefined","1","f","0","0","0","0","44","0","0","0","44","NA","40","44","40","0","40","3","44","0","44","Thu Feb 18 13:55:54 2021","The main experiment item","yes","Lexical_Decision_Task.osexp","C:/Users/Miss Rooker","no","Andale Mono","no","18","no","white","no","yes","576","legacy","40","40","3","C:/Users/Miss Rooker/subject-5221027.csv","legacy","Lentiform Loewenfeld","3.3.7","yes","yes","600bd7cfb6416f0113b04181","602110864497cf011d9c0822","0","f","NA","j","space","space","NA","f","722","NA","2612","1602","1167","NA","722","2","legacy","1024","2","48000","-16","task","5221027","odd","NA","13744","18359","15746","99128","2180","4954","3785","99629","NA","99126","99629","99061","18359","100352","11882","98561","2174","88656","Lexical Decision Task","40","37446","45","yes","1024"
"2.80048796","0","8","pife","non-word","89.1304347826087","89.1304347826087","839.4130434782609","839.4130434782609","black","no","legacy","legacy","legacy","0","uniform","1","undefined","undefined","undefined","1","f","0","0","0","0","45","0","0","0","45","NA","41","45","41","0","41","3","45","0","45","Thu Feb 18 13:55:54 2021","The main experiment item","yes","Lexical_Decision_Task.osexp","C:/Users/Miss Rooker","no","Andale Mono","no","18","no","white","no","yes","576","legacy","41","41","3","C:/Users/Miss Rooker/subject-5221027.csv","legacy","Lentiform Loewenfeld","3.3.7","yes","yes","600bd7cfb6416f0113b04181","602110864497cf011d9c0822","0","f","NA","j","space","space","NA","f","1167","NA","2612","1602","1167","NA","1167","2","legacy","1024","2","48000","-16","task","5221027","odd","NA","13744","18359","15746","100927","2180","4954","3785","101428","NA","100925","101428","100857","18359","102596","11882","100357","2174","88656","Lexical Decision Task","41","38613","46","yes","1024"
"2.95456409","0","4","taud","non-word","89.36170212765957","89.36170212765957","835.4042553191489","835.4042553191489","black","no","legacy","legacy","legacy","0","uniform","1","undefined","undefined","undefined","1","f","0","0","0","0","46","0","0","0","46","NA","42","46","42","0","42","3","46","0","46","Thu Feb 18 13:55:54 2021","The main experiment item","yes","Lexical_Decision_Task.osexp","C:/Users/Miss Rooker","no","Andale Mono","no","18","no","white","no","yes","576","legacy","42","42","3","C:/Users/Miss Rooker/subject-5221027.csv","legacy","Lentiform Loewenfeld","3.3.7","yes","yes","600bd7cfb6416f0113b04181","602110864497cf011d9c0822","0","f","NA","j","space","space","NA","f","651","NA","2612","1602","1167","NA","651","2","legacy","1024","2","48000","-16","task","5221027","odd","NA","13744","18359","15746","103179","2180","4954","3785","103680","NA","103177","103680","103109","18359","104331","11882","102609","2174","88656","Lexical Decision Task","42","39264","47","yes","1024"
"2.7084209","0","8","vump","non-word","89.58333333333333","89.58333333333333","833","833","black","no","legacy","legacy","legacy","0","uniform","1","undefined","undefined","undefined","1","f","0","0","0","0","47","0","0","0","47","NA","43","47","43","0","43","3","47","0","47","Thu Feb 18 13:55:54 2021","The main experiment item","yes","Lexical_Decision_Task.osexp","C:/Users/Miss Rooker","no","Andale Mono","no","18","no","white","no","yes","576","legacy","43","43","3","C:/Users/Miss Rooker/subject-5221027.csv","legacy","Lentiform Loewenfeld","3.3.7","yes","yes","600bd7cfb6416f0113b04181","602110864497cf011d9c0822","0","f","NA","j","space","space","NA","f","720","NA","2612","1602","1167","NA","720","2","legacy","1024","2","48000","-16","task","5221027","odd","NA","13744","18359","15746","104918","2180","4954","3785","105420","NA","104916","105420","104844","18359","106141","11882","104344","2174","88656","Lexical Decision Task","43","39984","48","yes","1024"
"2.880623071","0","9","curp","non-word","89.79591836734694","89.79591836734694","828.0816326530612","828.0816326530612","black","no","legacy","legacy","legacy","0","uniform","1","undefined","undefined","undefined","1","f","0","0","0","0","48","0","0","0","48","NA","44","48","44","0","44","3","48","0","48","Thu Feb 18 13:55:54 2021","The main experiment item","yes","Lexical_Decision_Task.osexp","C:/Users/Miss Rooker","no","Andale Mono","no","18","no","white","no","yes","576","legacy","44","44","3","C:/Users/Miss Rooker/subject-5221027.csv","legacy","Lentiform Loewenfeld","3.3.7","yes","yes","600bd7cfb6416f0113b04181","602110864497cf011d9c0822","0","f","NA","j","space","space","NA","f","592","NA","2612","1602","1167","NA","592","2","legacy","1024","2","48000","-16","task","5221027","odd","NA","13744","18359","15746","106722","2180","4954","3785","107223","NA","106720","107223","106652","18359","107816","11882","106152","2174","88656","Lexical Decision Task","44","40576","49","yes","1024"
"3.311895072","0","9","gung","non-word","90","90","822.58","822.58","black","no","legacy","legacy","legacy","0","uniform","1","undefined","undefined","undefined","1","f","0","0","0","0","49","0","0","0","49","NA","45","49","45","0","45","3","49","0","49","Thu Feb 18 13:55:54 2021","The main experiment item","yes","Lexical_Decision_Task.osexp","C:/Users/Miss Rooker","no","Andale Mono","no","18","no","white","no","yes","576","legacy","45","45","3","C:/Users/Miss Rooker/subject-5221027.csv","legacy","Lentiform Loewenfeld","3.3.7","yes","yes","600bd7cfb6416f0113b04181","602110864497cf011d9c0822","0","f","NA","j","space","space","NA","f","553","NA","2612","1602","1167","NA","553","2","legacy","1024","2","48000","-16","task","5221027","odd","NA","13744","18359","15746","108395","2180","4954","3785","108896","NA","108393","108896","108328","18359","109450","11882","107828","2174","88656","Lexical Decision Task","45","41129","50","yes","1024"
"3.384413096","10.15","3","glad","word","90.19607843137256","90.19607843137256","816.1176470588235","816.1176470588235","black","no","legacy","legacy","legacy","0","uniform","1","undefined","undefined","undefined","1","j","0","0","0","0","50","0","0","0","50","NA","46","50","46","0","46","3","50","0","50","Thu Feb 18 13:55:54 2021","The main experiment item","yes","Lexical_Decision_Task.osexp","C:/Users/Miss Rooker","no","Andale Mono","no","18","no","white","no","yes","576","legacy","46","46","3","C:/Users/Miss Rooker/subject-5221027.csv","legacy","Lentiform Loewenfeld","3.3.7","yes","yes","600bd7cfb6416f0113b04181","602110864497cf011d9c0822","0","j","NA","j","space","space","NA","j","493","NA","2612","1602","1167","NA","493","2","legacy","1024","2","48000","-16","task","5221027","odd","NA","13744","18359","15746","110032","2180","4954","3785","110533","NA","110030","110533","109964","18359","111028","11882","109463","2174","88656","Lexical Decision Task","46","41622","51","yes","1024"
"3.153001286","8.7","5","palm","word","90.38461538461539","90.38461538461539","810.9423076923077","810.9423076923077","black","no","legacy","legacy","legacy","0","uniform","1","undefined","undefined","undefined","1","j","0","0","0","0","51","0","0","0","51","NA","47","51","47","0","47","3","51","0","51","Thu Feb 18 13:55:54 2021","The main experiment item","yes","Lexical_Decision_Task.osexp","C:/Users/Miss Rooker","no","Andale Mono","no","18","no","white","no","yes","576","legacy","47","47","3","C:/Users/Miss Rooker/subject-5221027.csv","legacy","Lentiform Loewenfeld","3.3.7","yes","yes","600bd7cfb6416f0113b04181","602110864497cf011d9c0822","0","j","NA","j","space","space","NA","j","547","NA","2612","1602","1167","NA","547","2","legacy","1024","2","48000","-16","task","5221027","odd","NA","13744","18359","15746","111626","2180","4954","3785","112127","NA","111624","112127","111549","18359","112675","11882","111049","2174","88656","Lexical Decision Task","47","42169","52","yes","1024"
"3.068433376","8.09","2","bulb","word","90.56603773584905","90.56603773584905","805.7547169811321","805.7547169811321","black","no","legacy","legacy","legacy","0","uniform","1","undefined","undefined","undefined","1","j","0","0","0","0","52","0","0","0","52","NA","48","52","48","0","48","3","52","0","52","Thu Feb 18 13:55:54 2021","The main experiment item","yes","Lexical_Decision_Task.osexp","C:/Users/Miss Rooker","no","Andale Mono","no","18","no","white","no","yes","576","legacy","48","48","3","C:/Users/Miss Rooker/subject-5221027.csv","legacy","Lentiform Loewenfeld","3.3.7","yes","yes","600bd7cfb6416f0113b04181","602110864497cf011d9c0822","0","j","NA","j","space","space","NA","j","536","NA","2612","1602","1167","NA","536","2","legacy","1024","2","48000","-16","task","5221027","odd","NA","13744","18359","15746","113251","2180","4954","3785","113752","NA","113249","113752","113179","18359","114289","11882","112679","2174","88656","Lexical Decision Task","48","42705","53","yes","1024"
"3.366547468","0","6","plat","non-word","90.74074074074075","90.74074074074075","806.7777777777778","806.7777777777778","black","no","legacy","legacy","legacy","0","uniform","1","undefined","undefined","undefined","1","f","0","0","0","0","53","0","0","0","53","NA","49","53","49","0","49","3","53","0","53","Thu Feb 18 13:55:54 2021","The main experiment item","yes","Lexical_Decision_Task.osexp","C:/Users/Miss Rooker","no","Andale Mono","no","18","no","white","no","yes","576","legacy","49","49","3","C:/Users/Miss Rooker/subject-5221027.csv","legacy","Lentiform Loewenfeld","3.3.7","yes","yes","600bd7cfb6416f0113b04181","602110864497cf011d9c0822","0","f","NA","j","space","space","NA","f","861","NA","2612","1602","1167","NA","861","2","legacy","1024","2","48000","-16","task","5221027","odd","NA","13744","18359","15746","114870","2180","4954","3785","115371","NA","114868","115371","114801","18359","116233","11882","114301","2174","88656","Lexical Decision Task","49","43566","54","yes","1024"
"2.898725182","0","7","turl","non-word","90.9090909090909","90.9090909090909","813.0909090909091","813.0909090909091","black","no","legacy","legacy","legacy","0","uniform","1","undefined","undefined","undefined","1","f","0","0","0","0","54","0","0","0","54","0","50","54","50","0","50","3","54","0","54","Thu Feb 18 13:55:54 2021","The main experiment item","yes","Lexical_Decision_Task.osexp","C:/Users/Miss Rooker","no","Andale Mono","no","18","no","white","no","yes","576","legacy","50","50","3","C:/Users/Miss Rooker/subject-5221027.csv","legacy","Lentiform Loewenfeld","3.3.7","yes","yes","600bd7cfb6416f0113b04181","602110864497cf011d9c0822","0","f","NA","j","space","space","space","f","1154","NA","2612","1602","1167","1296","1154","2","legacy","1024","2","48000","-16","task","5221027","odd","NA","13744","18359","15746","118163","2180","4954","3785","118664","116796","118161","118665","116745","18359","119820","11882","116244","2174","88656","Lexical Decision Task","50","44720","55","yes","1024"
"2.899092422","7.27","6","snag","word","91.07142857142857","91.07142857142857","818.6785714285714","818.6785714285714","black","no","legacy","legacy","legacy","0","uniform","1","undefined","undefined","undefined","1","j","0","0","0","0","55","0","0","0","55","0","51","55","51","0","51","3","55","0","55","Thu Feb 18 13:55:54 2021","The main experiment item","yes","Lexical_Decision_Task.osexp","C:/Users/Miss Rooker","no","Andale Mono","no","18","no","white","no","yes","576","legacy","51","51","3","C:/Users/Miss Rooker/subject-5221027.csv","legacy","Lentiform Loewenfeld","3.3.7","yes","yes","600bd7cfb6416f0113b04181","602110864497cf011d9c0822","0","j","NA","j","space","space","space","j","1126","NA","2612","1602","1167","1296","1126","2","legacy","1024","2","48000","-16","task","5221027","odd","NA","13744","18359","15746","120408","2180","4954","3785","120909","116796","120405","120909","120333","18359","122036","11882","119833","2174","88656","Lexical Decision Task","51","45846","56","yes","1024"
"3.194328374","9.42","6","harm","word","91.2280701754386","91.2280701754386","814.4912280701755","814.4912280701755","black","no","legacy","legacy","legacy","0","uniform","1","undefined","undefined","undefined","1","j","0","0","0","0","56","0","0","0","56","0","52","56","52","0","52","3","56","0","56","Thu Feb 18 13:55:54 2021","The main experiment item","yes","Lexical_Decision_Task.osexp","C:/Users/Miss Rooker","no","Andale Mono","no","18","no","white","no","yes","576","legacy","52","52","3","C:/Users/Miss Rooker/subject-5221027.csv","legacy","Lentiform Loewenfeld","3.3.7","yes","yes","600bd7cfb6416f0113b04181","602110864497cf011d9c0822","0","j","NA","j","space","space","space","j","580","NA","2612","1602","1167","1296","580","2","legacy","1024","2","48000","-16","task","5221027","odd","NA","13744","18359","15746","122624","2180","4954","3785","123125","116796","122623","123125","122547","18359","123706","11882","122047","2174","88656","Lexical Decision Task","52","46426","57","yes","1024"
"2.799799878","0","4","ciff","non-word","91.37931034482759","91.37931034482759","813.7586206896551","813.7586206896551","black","no","legacy","legacy","legacy","0","uniform","1","undefined","undefined","undefined","1","f","0","0","0","0","57","0","0","0","57","0","53","57","53","0","53","3","57","0","57","Thu Feb 18 13:55:54 2021","The main experiment item","yes","Lexical_Decision_Task.osexp","C:/Users/Miss Rooker","no","Andale Mono","no","18","no","white","no","yes","576","legacy","53","53","3","C:/Users/Miss Rooker/subject-5221027.csv","legacy","Lentiform Loewenfeld","3.3.7","yes","yes","600bd7cfb6416f0113b04181","602110864497cf011d9c0822","0","f","NA","j","space","space","space","f","772","NA","2612","1602","1167","1296","772","2","legacy","1024","2","48000","-16","task","5221027","odd","NA","13744","18359","15746","124289","2180","4954","3785","124791","116796","124287","124791","124212","18359","125563","11882","123712","2174","88656","Lexical Decision Task","53","47198","58","yes","1024"
"3.261341392","5.08","8","reek","word","91.52542372881356","91.52542372881356","811.7796610169491","811.7796610169491","black","no","legacy","legacy","legacy","0","uniform","1","undefined","undefined","undefined","1","j","0","0","0","0","58","0","0","0","58","0","54","58","54","0","54","3","58","0","58","Thu Feb 18 13:55:54 2021","The main experiment item","yes","Lexical_Decision_Task.osexp","C:/Users/Miss Rooker","no","Andale Mono","no","18","no","white","no","yes","576","legacy","54","54","3","C:/Users/Miss Rooker/subject-5221027.csv","legacy","Lentiform Loewenfeld","3.3.7","yes","yes","600bd7cfb6416f0113b04181","602110864497cf011d9c0822","0","j","NA","j","space","space","space","j","697","NA","2612","1602","1167","1296","697","2","legacy","1024","2","48000","-16","task","5221027","odd","NA","13744","18359","15746","126144","2180","4954","3785","126645","116796","126142","126645","126075","18359","127343","11882","125575","2174","88656","Lexical Decision Task","54","47895","59","yes","1024"
"2.664011697","8.19","4","hawk","word","91.66666666666667","91.66666666666667","810.2","810.2","black","no","legacy","legacy","legacy","0","uniform","1","undefined","undefined","undefined","1","j","0","0","0","0","59","0","0","0","59","0","55","59","55","0","55","3","59","0","59","Thu Feb 18 13:55:54 2021","The main experiment item","yes","Lexical_Decision_Task.osexp","C:/Users/Miss Rooker","no","Andale Mono","no","18","no","white","no","yes","576","legacy","55","55","3","C:/Users/Miss Rooker/subject-5221027.csv","legacy","Lentiform Loewenfeld","3.3.7","yes","yes","600bd7cfb6416f0113b04181","602110864497cf011d9c0822","0","j","NA","j","space","space","space","j","717","NA","2612","1602","1167","1296","717","2","legacy","1024","2","48000","-16","task","5221027","odd","NA","13744","18359","15746","127927","2180","4954","3785","128428","116796","127925","128428","127855","18359","129146","11882","127355","2174","88656","Lexical Decision Task","55","48612","60","yes","1024"
"3.120025233","0","2","nyst","non-word","91.80327868852459","91.80327868852459","808.1639344262295","808.1639344262295","black","no","legacy","legacy","legacy","0","uniform","1","undefined","undefined","undefined","1","f","0","0","0","0","60","0","0","0","60","0","56","60","56","0","56","3","60","0","60","Thu Feb 18 13:55:54 2021","The main experiment item","yes","Lexical_Decision_Task.osexp","C:/Users/Miss Rooker","no","Andale Mono","no","18","no","white","no","yes","576","legacy","56","56","3","C:/Users/Miss Rooker/subject-5221027.csv","legacy","Lentiform Loewenfeld","3.3.7","yes","yes","600bd7cfb6416f0113b04181","602110864497cf011d9c0822","0","f","NA","j","space","space","space","f","686","NA","2612","1602","1167","1296","686","2","legacy","1024","2","48000","-16","task","5221027","odd","NA","13744","18359","15746","129728","2180","4954","3785","130229","116796","129726","130229","129658","18359","130916","11882","129158","2174","88656","Lexical Decision Task","56","49298","61","yes","1024"
"3.197740804","6.74","3","ache","word","91.93548387096774","91.93548387096774","804.4516129032259","804.4516129032259","black","no","legacy","legacy","legacy","0","uniform","1","undefined","undefined","undefined","1","j","0","0","0","0","61","0","0","0","61","0","57","61","57","0","57","3","61","0","61","Thu Feb 18 13:55:54 2021","The main experiment item","yes","Lexical_Decision_Task.osexp","C:/Users/Miss Rooker","no","Andale Mono","no","18","no","white","no","yes","576","legacy","57","57","3","C:/Users/Miss Rooker/subject-5221027.csv","legacy","Lentiform Loewenfeld","3.3.7","yes","yes","600bd7cfb6416f0113b04181","602110864497cf011d9c0822","0","j","NA","j","space","space","space","j","578","NA","2612","1602","1167","1296","578","2","legacy","1024","2","48000","-16","task","5221027","odd","NA","13744","18359","15746","131499","2180","4954","3785","132000","116796","131497","132000","131426","18359","132579","11882","130926","2174","88656","Lexical Decision Task","57","49876","62","yes","1024"
"3.156347201","0","8","lasp","non-word","92.06349206349206","92.06349206349206","801.6031746031746","801.6031746031746","black","no","legacy","legacy","legacy","0","uniform","1","undefined","undefined","undefined","1","f","0","0","0","0","62","0","0","0","62","0","58","62","58","0","58","3","62","0","62","Thu Feb 18 13:55:54 2021","The main experiment item","yes","Lexical_Decision_Task.osexp","C:/Users/Miss Rooker","no","Andale Mono","no","18","no","white","no","yes","576","legacy","58","58","3","C:/Users/Miss Rooker/subject-5221027.csv","legacy","Lentiform Loewenfeld","3.3.7","yes","yes","600bd7cfb6416f0113b04181","602110864497cf011d9c0822","0","f","NA","j","space","space","space","f","625","NA","2612","1602","1167","1296","625","2","legacy","1024","2","48000","-16","task","5221027","odd","NA","13744","18359","15746","133161","2180","4954","3785","133662","116796","133159","133663","133090","18359","134291","11882","132590","2174","88656","Lexical Decision Task","58","50501","63","yes","1024"
"2.813801082","5.47","7","nook","word","92.1875","92.1875","804.4375","804.4375","black","no","legacy","legacy","legacy","0","uniform","1","undefined","undefined","undefined","1","j","0","0","0","0","63","0","0","0","63","0","59","63","59","0","59","3","63","0","63","Thu Feb 18 13:55:54 2021","The main experiment item","yes","Lexical_Decision_Task.osexp","C:/Users/Miss Rooker","no","Andale Mono","no","18","no","white","no","yes","576","legacy","59","59","3","C:/Users/Miss Rooker/subject-5221027.csv","legacy","Lentiform Loewenfeld","3.3.7","yes","yes","600bd7cfb6416f0113b04181","602110864497cf011d9c0822","0","j","NA","j","space","space","space","j","983","NA","2612","1602","1167","1296","983","2","legacy","1024","2","48000","-16","task","5221027","odd","NA","13744","18359","15746","134876","2180","4954","3785","135377","116796","134874","135378","134801","18359","136362","11882","134301","2174","88656","Lexical Decision Task","59","51484","64","yes","1024"
"2.698387659","6.66","7","skid","word","92.3076923076923","92.3076923076923","811.5384615384615","811.5384615384615","black","no","legacy","legacy","legacy","0","uniform","1","undefined","undefined","undefined","1","j","0","0","0","0","64","0","0","0","64","0","60","64","60","0","60","3","64","0","64","Thu Feb 18 13:55:54 2021","The main experiment item","yes","Lexical_Decision_Task.osexp","C:/Users/Miss Rooker","no","Andale Mono","no","18","no","white","no","yes","576","legacy","60","60","3","C:/Users/Miss Rooker/subject-5221027.csv","legacy","Lentiform Loewenfeld","3.3.7","yes","yes","600bd7cfb6416f0113b04181","602110864497cf011d9c0822","0","j","NA","j","space","space","space","j","1266","NA","2612","1602","1167","1296","1266","2","legacy","1024","2","48000","-16","task","5221027","odd","NA","13744","18359","15746","136945","2180","4954","3785","137446","116796","136943","137447","136875","18359","138714","11882","136375","2174","88656","Lexical Decision Task","60","52750","65","yes","1024"
"2.971428938","9.86","7","spot","word","92.42424242424242","92.42424242424242","808.6212121212121","808.6212121212121","black","no","legacy","legacy","legacy","0","uniform","1","undefined","undefined","undefined","1","j","0","0","0","0","65","0","0","0","65","0","61","65","61","0","61","3","65","0","65","Thu Feb 18 13:55:54 2021","The main experiment item","yes","Lexical_Decision_Task.osexp","C:/Users/Miss Rooker","no","Andale Mono","no","18","no","white","no","yes","576","legacy","61","61","3","C:/Users/Miss Rooker/subject-5221027.csv","legacy","Lentiform Loewenfeld","3.3.7","yes","yes","600bd7cfb6416f0113b04181","602110864497cf011d9c0822","0","j","NA","j","space","space","space","j","619","NA","2612","1602","1167","1296","619","2","legacy","1024","2","48000","-16","task","5221027","odd","NA","13744","18359","15746","139296","2180","4954","3785","139797","116796","139294","139797","139225","18359","140417","11882","138725","2174","88656","Lexical Decision Task","61","53369","66","yes","1024"
"3.347850856","10.51","2","rich","word","92.53731343283582","92.53731343283582","804.1044776119403","804.1044776119403","black","no","legacy","legacy","legacy","0","uniform","1","undefined","undefined","undefined","1","j","0","0","0","0","66","0","0","0","66","0","62","66","62","0","62","3","66","0","66","Thu Feb 18 13:55:54 2021","The main experiment item","yes","Lexical_Decision_Task.osexp","C:/Users/Miss Rooker","no","Andale Mono","no","18","no","white","no","yes","576","legacy","62","62","3","C:/Users/Miss Rooker/subject-5221027.csv","legacy","Lentiform Loewenfeld","3.3.7","yes","yes","600bd7cfb6416f0113b04181","602110864497cf011d9c0822","0","j","NA","j","space","space","space","j","506","NA","2612","1602","1167","1296","506","2","legacy","1024","2","48000","-16","task","5221027","odd","NA","13744","18359","15746","140992","2180","4954","3785","141493","116796","140990","141493","140922","18359","142000","11882","140422","2174","88656","Lexical Decision Task","62","53875","67","yes","1024"
"3.039414119","0","9","meep","non-word","92.6470588235294","92.6470588235294","803.0441176470588","803.0441176470588","black","no","legacy","legacy","legacy","0","uniform","1","undefined","undefined","undefined","1","f","0","0","0","0","67","0","0","0","67","0","63","67","63","0","63","3","67","0","67","Thu Feb 18 13:55:54 2021","The main experiment item","yes","Lexical_Decision_Task.osexp","C:/Users/Miss Rooker","no","Andale Mono","no","18","no","white","no","yes","576","legacy","63","63","3","C:/Users/Miss Rooker/subject-5221027.csv","legacy","Lentiform Loewenfeld","3.3.7","yes","yes","600bd7cfb6416f0113b04181","602110864497cf011d9c0822","0","f","NA","j","space","space","space","f","732","NA","2612","1602","1167","1296","732","2","legacy","1024","2","48000","-16","task","5221027","odd","NA","13744","18359","15746","142590","2180","4954","3785","143091","116796","142588","143091","142513","18359","143824","11882","142012","2174","88656","Lexical Decision Task","63","54607","68","yes","1024"
"2.784379519","0","2","snaf","non-word","92.7536231884058","92.7536231884058","799.4347826086956","799.4347826086956","black","no","legacy","legacy","legacy","0","uniform","1","undefined","undefined","undefined","1","f","0","0","0","0","68","0","0","0","68","0","64","68","64","0","64","3","68","0","68","Thu Feb 18 13:55:54 2021","The main experiment item","yes","Lexical_Decision_Task.osexp","C:/Users/Miss Rooker","no","Andale Mono","no","18","no","white","no","yes","576","legacy","64","64","3","C:/Users/Miss Rooker/subject-5221027.csv","legacy","Lentiform Loewenfeld","3.3.7","yes","yes","600bd7cfb6416f0113b04181","602110864497cf011d9c0822","0","f","NA","j","space","space","space","f","554","NA","2612","1602","1167","1296","554","2","legacy","1024","2","48000","-16","task","5221027","odd","NA","13744","18359","15746","144410","2180","4954","3785","144912","116796","144409","144912","144336","18359","145467","11882","143836","2174","88656","Lexical Decision Task","64","55161","69","yes","1024"
"2.807758206","6.25","4","hurl","word","91.42857142857143","91.42857142857143","795.7","795.7","black","no","legacy","legacy","legacy","0","uniform","0","undefined","undefined","undefined","0","j","0","0","0","0","69","0","0","0","69","0","65","69","65","0","65","3","69","0","69","Thu Feb 18 13:55:54 2021","The main experiment item","yes","Lexical_Decision_Task.osexp","C:/Users/Miss Rooker","no","Andale Mono","no","18","no","white","no","yes","576","legacy","65","65","3","C:/Users/Miss Rooker/subject-5221027.csv","legacy","Lentiform Loewenfeld","3.3.7","yes","yes","600bd7cfb6416f0113b04181","602110864497cf011d9c0822","0","f","NA","j","space","space","space","f","538","NA","2612","1602","1167","1296","538","2","legacy","1024","2","48000","-16","task","5221027","odd","NA","13744","18359","15746","146040","2180","4954","3785","146541","116796","146038","146541","145972","18359","147080","11882","145472","2174","88656","Lexical Decision Task","64","55699","70","yes","1024"
"2.705007959","6.01","4","wept","word","91.54929577464789","91.54929577464789","812","812","black","no","legacy","legacy","legacy","0","uniform","1","undefined","undefined","undefined","1","j","0","0","0","0","70","0","0","0","70","0","66","70","66","0","66","3","70","0","70","Thu Feb 18 13:55:54 2021","The main experiment item","yes","Lexical_Decision_Task.osexp","C:/Users/Miss Rooker","no","Andale Mono","no","18","no","white","no","yes","576","legacy","66","66","3","C:/Users/Miss Rooker/subject-5221027.csv","legacy","Lentiform Loewenfeld","3.3.7","yes","yes","600bd7cfb6416f0113b04181","602110864497cf011d9c0822","0","j","NA","j","space","space","space","j","1953","NA","2612","1602","1167","1296","1953","2","legacy","1024","2","48000","-16","task","5221027","odd","NA","13744","18359","15746","148664","2180","4954","3785","149165","116796","148662","149165","148593","18359","151119","11882","145472","2174","147093","Lexical Decision Task","65","57652","71","yes","1024"
"3.20996159","0","4","clee","non-word","91.66666666666667","91.66666666666667","812.3055555555555","812.3055555555555","black","no","legacy","legacy","legacy","0","uniform","1","undefined","undefined","undefined","1","f","0","0","0","0","71","0","0","0","71","0","67","71","67","0","67","3","71","0","71","Thu Feb 18 13:55:54 2021","The main experiment item","yes","Lexical_Decision_Task.osexp","C:/Users/Miss Rooker","no","Andale Mono","no","18","no","white","no","yes","576","legacy","67","67","3","C:/Users/Miss Rooker/subject-5221027.csv","legacy","Lentiform Loewenfeld","3.3.7","yes","yes","600bd7cfb6416f0113b04181","602110864497cf011d9c0822","0","f","NA","j","space","space","space","f","834","NA","2612","1602","1167","1296","834","2","legacy","1024","2","48000","-16","task","5221027","odd","NA","13744","18359","15746","151704","2180","4954","3785","152205","116796","151703","152205","151632","18359","153040","11882","151132","2174","147093","Lexical Decision Task","66","58486","72","yes","1024"
"3.209246849","0","7","slem","non-word","91.78082191780823","91.78082191780823","811.1369863013699","811.1369863013699","black","no","legacy","legacy","legacy","0","uniform","1","undefined","undefined","undefined","1","f","0","0","0","0","72","0","0","0","72","0","68","72","68","0","68","3","72","0","72","Thu Feb 18 13:55:54 2021","The main experiment item","yes","Lexical_Decision_Task.osexp","C:/Users/Miss Rooker","no","Andale Mono","no","18","no","white","no","yes","576","legacy","68","68","3","C:/Users/Miss Rooker/subject-5221027.csv","legacy","Lentiform Loewenfeld","3.3.7","yes","yes","600bd7cfb6416f0113b04181","602110864497cf011d9c0822","0","f","NA","j","space","space","space","f","727","NA","2612","1602","1167","1296","727","2","legacy","1024","2","48000","-16","task","5221027","odd","NA","13744","18359","15746","153621","2180","4954","3785","154123","116796","153620","154123","153552","18359","154851","11882","153052","2174","147093","Lexical Decision Task","67","59213","73","yes","1024"
"2.794720352","0","9","koot","non-word","90.54054054054055","90.54054054054055","809.9324324324324","809.9324324324324","black","no","legacy","legacy","legacy","0","uniform","0","undefined","undefined","undefined","0","f","0","0","0","0","73","0","0","0","73","0","69","73","69","0","69","3","73","0","73","Thu Feb 18 13:55:54 2021","The main experiment item","yes","Lexical_Decision_Task.osexp","C:/Users/Miss Rooker","no","Andale Mono","no","18","no","white","no","yes","576","legacy","69","69","3","C:/Users/Miss Rooker/subject-5221027.csv","legacy","Lentiform Loewenfeld","3.3.7","yes","yes","600bd7cfb6416f0113b04181","602110864497cf011d9c0822","0","j","NA","j","space","space","space","j","722","NA","2612","1602","1167","1296","722","2","legacy","1024","2","48000","-16","task","5221027","odd","NA","13744","18359","15746","155435","2180","4954","3785","155936","116796","155433","155936","155363","18359","156659","11882","154863","2174","147093","Lexical Decision Task","67","59935","74","yes","1024"
"3.218535505","7.85","7","goat","word","90.66666666666667","90.66666666666667","806.9866666666667","806.9866666666667","black","no","legacy","legacy","legacy","0","uniform","1","undefined","undefined","undefined","1","j","0","0","0","0","74","0","0","0","74","0","70","74","70","0","70","3","74","0","74","Thu Feb 18 13:55:54 2021","The main experiment item","yes","Lexical_Decision_Task.osexp","C:/Users/Miss Rooker","no","Andale Mono","no","18","no","white","no","yes","576","legacy","70","70","3","C:/Users/Miss Rooker/subject-5221027.csv","legacy","Lentiform Loewenfeld","3.3.7","yes","yes","600bd7cfb6416f0113b04181","602110864497cf011d9c0822","0","j","NA","j","space","space","space","j","589","NA","2612","1602","1167","1296","589","2","legacy","1024","2","48000","-16","task","5221027","odd","NA","13744","18359","15746","158242","2180","4954","3785","158743","116796","158240","158743","158172","18359","159333","11882","154863","2174","156672","Lexical Decision Task","68","60524","75","yes","1024"
"3.705778213","0","6","stin","non-word","90.78947368421052","90.78947368421052","808.3815789473684","808.3815789473684","black","no","legacy","legacy","legacy","0","uniform","1","undefined","undefined","undefined","1","f","0","0","0","0","75","0","0","0","75","0","71","75","71","0","71","3","75","0","75","Thu Feb 18 13:55:54 2021","The main experiment item","yes","Lexical_Decision_Task.osexp","C:/Users/Miss Rooker","no","Andale Mono","no","18","no","white","no","yes","576","legacy","71","71","3","C:/Users/Miss Rooker/subject-5221027.csv","legacy","Lentiform Loewenfeld","3.3.7","yes","yes","600bd7cfb6416f0113b04181","602110864497cf011d9c0822","0","f","NA","j","space","space","space","f","913","NA","2612","1602","1167","1296","913","2","legacy","1024","2","48000","-16","task","5221027","odd","NA","13744","18359","15746","159905","2180","4954","3785","160406","116796","159903","160406","159836","18359","161320","11882","159336","2174","156672","Lexical Decision Task","69","61437","76","yes","1024"
"3.037294994","8.64","7","roof","word","90.9090909090909","90.9090909090909","809.8571428571429","809.8571428571429","black","no","legacy","legacy","legacy","0","uniform","1","undefined","undefined","undefined","1","j","0","0","0","0","76","0","0","0","76","0","72","76","72","0","72","3","76","0","76","Thu Feb 18 13:55:54 2021","The main experiment item","yes","Lexical_Decision_Task.osexp","C:/Users/Miss Rooker","no","Andale Mono","no","18","no","white","no","yes","576","legacy","72","72","3","C:/Users/Miss Rooker/subject-5221027.csv","legacy","Lentiform Loewenfeld","3.3.7","yes","yes","600bd7cfb6416f0113b04181","602110864497cf011d9c0822","0","j","NA","j","space","space","space","j","922","NA","2612","1602","1167","1296","922","2","legacy","1024","2","48000","-16","task","5221027","odd","NA","13744","18359","15746","161908","2180","4954","3785","162410","116796","161907","162410","161833","18359","163334","11882","161333","2174","156672","Lexical Decision Task","70","62359","77","yes","1024"
"3.440331212","7.35","6","stew","word","91.02564102564102","91.02564102564102","807.7564102564103","807.7564102564103","black","no","legacy","legacy","legacy","0","uniform","1","undefined","undefined","undefined","1","j","0","0","0","0","77","0","0","0","77","0","73","77","73","0","73","3","77","0","77","Thu Feb 18 13:55:54 2021","The main experiment item","yes","Lexical_Decision_Task.osexp","C:/Users/Miss Rooker","no","Andale Mono","no","18","no","white","no","yes","576","legacy","73","73","3","C:/Users/Miss Rooker/subject-5221027.csv","legacy","Lentiform Loewenfeld","3.3.7","yes","yes","600bd7cfb6416f0113b04181","602110864497cf011d9c0822","0","j","NA","j","space","space","space","j","646","NA","2612","1602","1167","1296","646","2","legacy","1024","2","48000","-16","task","5221027","odd","NA","13744","18359","15746","163915","2180","4954","3785","164416","116796","163914","164416","163846","18359","165063","11882","163346","2174","156672","Lexical Decision Task","71","63005","78","yes","1024"
"3.374137706","10.21","4","tree","word","91.13924050632912","91.13924050632912","807.2405063291139","807.2405063291139","black","no","legacy","legacy","legacy","0","uniform","1","undefined","undefined","undefined","1","j","0","0","0","0","78","0","0","0","78","0","74","78","74","0","74","3","78","0","78","Thu Feb 18 13:55:54 2021","The main experiment item","yes","Lexical_Decision_Task.osexp","C:/Users/Miss Rooker","no","Andale Mono","no","18","no","white","no","yes","576","legacy","74","74","3","C:/Users/Miss Rooker/subject-5221027.csv","legacy","Lentiform Loewenfeld","3.3.7","yes","yes","600bd7cfb6416f0113b04181","602110864497cf011d9c0822","0","j","NA","j","space","space","space","j","767","NA","2612","1602","1167","1296","767","2","legacy","1024","2","48000","-16","task","5221027","odd","NA","13744","18359","15746","165646","2180","4954","3785","166147","116796","165644","166147","165577","18359","166915","11882","165076","2174","156672","Lexical Decision Task","72","63772","79","yes","1024"
"3.374198258","0","8","vist","non-word","90","90","804.2875","804.2875","black","no","legacy","legacy","legacy","0","uniform","0","undefined","undefined","undefined","0","f","0","0","0","0","79","0","0","0","79","0","75","79","75","0","75","3","79","0","79","Thu Feb 18 13:55:54 2021","The main experiment item","yes","Lexical_Decision_Task.osexp","C:/Users/Miss Rooker","no","Andale Mono","no","18","no","white","no","yes","576","legacy","75","75","3","C:/Users/Miss Rooker/subject-5221027.csv","legacy","Lentiform Loewenfeld","3.3.7","yes","yes","600bd7cfb6416f0113b04181","602110864497cf011d9c0822","0","j","NA","j","space","space","space","j","571","NA","2612","1602","1167","1296","571","2","legacy","1024","2","48000","-16","task","5221027","odd","NA","13744","18359","15746","167502","2180","4954","3785","168003","116796","167500","168003","167428","18359","168575","11882","166928","2174","156672","Lexical Decision Task","72","64343","80","yes","1024"
"3.269668578","0","7","trag","non-word","90.12345679012346","90.12345679012346","811.925925925926","811.925925925926","black","no","legacy","legacy","legacy","0","uniform","1","undefined","undefined","undefined","1","f","0","0","0","0","80","0","0","0","80","0","76","80","76","0","76","3","80","0","80","Thu Feb 18 13:55:54 2021","The main experiment item","yes","Lexical_Decision_Task.osexp","C:/Users/Miss Rooker","no","Andale Mono","no","18","no","white","no","yes","576","legacy","76","76","3","C:/Users/Miss Rooker/subject-5221027.csv","legacy","Lentiform Loewenfeld","3.3.7","yes","yes","600bd7cfb6416f0113b04181","602110864497cf011d9c0822","0","f","NA","j","space","space","space","f","1423","NA","2612","1602","1167","1296","1423","2","legacy","1024","2","48000","-16","task","5221027","odd","NA","13744","18359","15746","170156","2180","4954","3785","170657","116796","170154","170657","170086","18359","172081","11882","166928","2174","168586","Lexical Decision Task","73","65766","81","yes","1024"
"3.010582609","0","2","drod","non-word","90.2439024390244","90.2439024390244","810.1951219512196","810.1951219512196","black","no","legacy","legacy","legacy","0","uniform","1","undefined","undefined","undefined","1","f","0","0","0","0","81","0","0","0","81","0","77","81","77","0","77","3","81","0","81","Thu Feb 18 13:55:54 2021","The main experiment item","yes","Lexical_Decision_Task.osexp","C:/Users/Miss Rooker","no","Andale Mono","no","18","no","white","no","yes","576","legacy","77","77","3","C:/Users/Miss Rooker/subject-5221027.csv","legacy","Lentiform Loewenfeld","3.3.7","yes","yes","600bd7cfb6416f0113b04181","602110864497cf011d9c0822","0","f","NA","j","space","space","space","f","670","NA","2612","1602","1167","1296","670","2","legacy","1024","2","48000","-16","task","5221027","odd","NA","13744","18359","15746","172665","2180","4954","3785","173166","116796","172663","173166","172593","18359","173836","11882","172092","2174","168586","Lexical Decision Task","74","66436","82","yes","1024"
"2.75025376","10.2","6","jump","word","90.36144578313252","90.36144578313252","807.6746987951807","807.6746987951807","black","no","legacy","legacy","legacy","0","uniform","1","undefined","undefined","undefined","1","j","0","0","0","0","82","0","0","0","82","0","78","82","78","0","78","3","82","0","82","Thu Feb 18 13:55:54 2021","The main experiment item","yes","Lexical_Decision_Task.osexp","C:/Users/Miss Rooker","no","Andale Mono","no","18","no","white","no","yes","576","legacy","78","78","3","C:/Users/Miss Rooker/subject-5221027.csv","legacy","Lentiform Loewenfeld","3.3.7","yes","yes","600bd7cfb6416f0113b04181","602110864497cf011d9c0822","0","j","NA","j","space","space","space","j","601","NA","2612","1602","1167","1296","601","2","legacy","1024","2","48000","-16","task","5221027","odd","NA","13744","18359","15746","174421","2180","4954","3785","174922","116796","174419","174922","174349","18359","175524","11882","173848","2174","168586","Lexical Decision Task","75","67037","83","yes","1024"
"3.443783828","7.65","3","verb","word","90.47619047619048","90.47619047619048","806.6428571428571","806.6428571428571","black","no","legacy","legacy","legacy","0","uniform","1","undefined","undefined","undefined","1","j","0","0","0","0","83","0","0","0","83","0","79","83","79","0","79","3","83","0","83","Thu Feb 18 13:55:54 2021","The main experiment item","yes","Lexical_Decision_Task.osexp","C:/Users/Miss Rooker","no","Andale Mono","no","18","no","white","no","yes","576","legacy","79","79","3","C:/Users/Miss Rooker/subject-5221027.csv","legacy","Lentiform Loewenfeld","3.3.7","yes","yes","600bd7cfb6416f0113b04181","602110864497cf011d9c0822","0","j","NA","j","space","space","space","j","721","NA","2612","1602","1167","1296","721","2","legacy","1024","2","48000","-16","task","5221027","odd","NA","13744","18359","15746","176098","2180","4954","3785","176600","116796","176096","176600","176029","18359","177322","11882","175529","2174","168586","Lexical Decision Task","76","67758","84","yes","1024"
"3.067193647","6.73","6","raft","word","90.58823529411765","90.58823529411765","807.4235294117647","807.4235294117647","black","no","legacy","legacy","legacy","0","uniform","1","undefined","undefined","undefined","1","j","0","0","0","0","84","0","0","0","84","0","80","84","80","0","80","3","84","0","84","Thu Feb 18 13:55:54 2021","The main experiment item","yes","Lexical_Decision_Task.osexp","C:/Users/Miss Rooker","no","Andale Mono","no","18","no","white","no","yes","576","legacy","80","80","3","C:/Users/Miss Rooker/subject-5221027.csv","legacy","Lentiform Loewenfeld","3.3.7","yes","yes","600bd7cfb6416f0113b04181","602110864497cf011d9c0822","0","j","NA","j","space","space","space","j","873","NA","2612","1602","1167","1296","873","2","legacy","1024","2","48000","-16","task","5221027","odd","NA","13744","18359","15746","177906","2180","4954","3785","178407","116796","177904","178407","177835","18359","179282","11882","177335","2174","168586","Lexical Decision Task","77","68631","85","yes","1024"
"3.174641193","0","3","ramb","non-word","90.69767441860465","90.69767441860465","809.6511627906976","809.6511627906976","black","no","legacy","legacy","legacy","0","uniform","1","undefined","undefined","undefined","1","f","0","0","0","0","85","0","0","0","85","0","81","85","81","0","81","3","85","0","85","Thu Feb 18 13:55:54 2021","The main experiment item","yes","Lexical_Decision_Task.osexp","C:/Users/Miss Rooker","no","Andale Mono","no","18","no","white","no","yes","576","legacy","81","81","3","C:/Users/Miss Rooker/subject-5221027.csv","legacy","Lentiform Loewenfeld","3.3.7","yes","yes","600bd7cfb6416f0113b04181","602110864497cf011d9c0822","0","f","NA","j","space","space","space","f","999","NA","2612","1602","1167","1296","999","2","legacy","1024","2","48000","-16","task","5221027","odd","NA","13744","18359","15746","179863","2180","4954","3785","180364","116796","179861","180364","179794","18359","181366","11882","179294","2174","168586","Lexical Decision Task","78","69630","86","yes","1024"
"2.839268497","0","8","maft","non-word","90.80459770114942","90.80459770114942","807.9310344827586","807.9310344827586","black","no","legacy","legacy","legacy","0","uniform","1","undefined","undefined","undefined","1","f","0","0","0","0","86","0","0","0","86","0","82","86","82","0","82","3","86","0","86","Thu Feb 18 13:55:54 2021","The main experiment item","yes","Lexical_Decision_Task.osexp","C:/Users/Miss Rooker","no","Andale Mono","no","18","no","white","no","yes","576","legacy","82","82","3","C:/Users/Miss Rooker/subject-5221027.csv","legacy","Lentiform Loewenfeld","3.3.7","yes","yes","600bd7cfb6416f0113b04181","602110864497cf011d9c0822","0","f","NA","j","space","space","space","f","660","NA","2612","1602","1167","1296","660","2","legacy","1024","2","48000","-16","task","5221027","odd","NA","13744","18359","15746","181945","2180","4954","3785","182446","116796","181943","182446","181876","18359","183107","11882","181374","2174","168586","Lexical Decision Task","79","70290","87","yes","1024"
"2.706148589","0","4","hube","non-word","90.9090909090909","90.9090909090909","824.5795454545455","824.5795454545455","black","no","legacy","legacy","legacy","0","uniform","1","undefined","undefined","undefined","1","f","0","0","0","0","87","0","0","0","87","0","83","87","83","0","83","3","87","0","87","Thu Feb 18 13:55:54 2021","The main experiment item","yes","Lexical_Decision_Task.osexp","C:/Users/Miss Rooker","no","Andale Mono","no","18","no","white","no","yes","576","legacy","83","83","3","C:/Users/Miss Rooker/subject-5221027.csv","legacy","Lentiform Loewenfeld","3.3.7","yes","yes","600bd7cfb6416f0113b04181","602110864497cf011d9c0822","0","f","NA","j","space","space","space","f","2273","NA","2612","1602","1167","1296","2273","2","legacy","1024","2","48000","-16","task","5221027","odd","NA","13744","18359","15746","183712","2180","4954","3785","184213","116796","183710","184214","183620","18359","186488","11882","183120","2174","168586","Lexical Decision Task","80","72563","88","yes","1024"
"2.920123326","7.43","4","duel","word","91.01123595505618","91.01123595505618","821.8651685393259","821.8651685393259","black","no","legacy","legacy","legacy","0","uniform","1","undefined","undefined","undefined","1","j","0","0","0","0","88","0","0","0","88","0","84","88","84","0","84","3","88","0","88","Thu Feb 18 13:55:54 2021","The main experiment item","yes","Lexical_Decision_Task.osexp","C:/Users/Miss Rooker","no","Andale Mono","no","18","no","white","no","yes","576","legacy","84","84","3","C:/Users/Miss Rooker/subject-5221027.csv","legacy","Lentiform Loewenfeld","3.3.7","yes","yes","600bd7cfb6416f0113b04181","602110864497cf011d9c0822","0","j","NA","j","space","space","space","j","583","NA","2612","1602","1167","1296","583","2","legacy","1024","2","48000","-16","task","5221027","odd","NA","13744","18359","15746","187069","2180","4954","3785","187570","116796","187067","187570","187000","18359","188155","11882","186500","2174","168586","Lexical Decision Task","81","73146","89","yes","1024"
"3.230789326","5.38","5","prim","word","90","90","821.0444444444445","821.0444444444445","black","no","legacy","legacy","legacy","0","uniform","0","undefined","undefined","undefined","0","j","0","0","0","0","89","0","0","0","89","0","85","89","85","0","85","3","89","0","89","Thu Feb 18 13:55:54 2021","The main experiment item","yes","Lexical_Decision_Task.osexp","C:/Users/Miss Rooker","no","Andale Mono","no","18","no","white","no","yes","576","legacy","85","85","3","C:/Users/Miss Rooker/subject-5221027.csv","legacy","Lentiform Loewenfeld","3.3.7","yes","yes","600bd7cfb6416f0113b04181","602110864497cf011d9c0822","0","f","NA","j","space","space","space","f","748","NA","2612","1602","1167","1296","748","2","legacy","1024","2","48000","-16","task","5221027","odd","NA","13744","18359","15746","188736","2180","4954","3785","189237","116796","188735","189237","188668","18359","189986","11882","188168","2174","168586","Lexical Decision Task","81","73894","90","yes","1024"
"3.397302518","7.01","2","knit","word","90.10989010989012","90.10989010989012","820.6813186813187","820.6813186813187","black","no","legacy","legacy","legacy","0","uniform","1","undefined","undefined","undefined","1","j","0","0","0","0","90","0","0","0","90","0","86","90","86","0","86","3","90","0","90","Thu Feb 18 13:55:54 2021","The main experiment item","yes","Lexical_Decision_Task.osexp","C:/Users/Miss Rooker","no","Andale Mono","no","18","no","white","no","yes","576","legacy","86","86","3","C:/Users/Miss Rooker/subject-5221027.csv","legacy","Lentiform Loewenfeld","3.3.7","yes","yes","600bd7cfb6416f0113b04181","602110864497cf011d9c0822","0","j","NA","j","space","space","space","j","788","NA","2612","1602","1167","1296","788","2","legacy","1024","2","48000","-16","task","5221027","odd","NA","13744","18359","15746","191569","2180","4954","3785","192071","116796","191567","192071","191499","18359","192860","11882","188168","2174","189999","Lexical Decision Task","82","74682","91","yes","1024"
"2.972357144","0","5","dasp","non-word","90.21739130434783","90.21739130434783","820.7717391304348","820.7717391304348","black","no","legacy","legacy","legacy","0","uniform","1","undefined","undefined","undefined","1","f","0","0","0","0","91","0","0","0","91","0","87","91","87","0","87","3","91","0","91","Thu Feb 18 13:55:54 2021","The main experiment item","yes","Lexical_Decision_Task.osexp","C:/Users/Miss Rooker","no","Andale Mono","no","18","no","white","no","yes","576","legacy","87","87","3","C:/Users/Miss Rooker/subject-5221027.csv","legacy","Lentiform Loewenfeld","3.3.7","yes","yes","600bd7cfb6416f0113b04181","602110864497cf011d9c0822","0","f","NA","j","space","space","space","f","829","NA","2612","1602","1167","1296","829","2","legacy","1024","2","48000","-16","task","5221027","odd","NA","13744","18359","15746","193460","2180","4954","3785","193963","116796","193458","193963","193372","18359","194793","11882","192872","2174","189999","Lexical Decision Task","83","75511","92","yes","1024"
"3.20871002","7.15","8","cram","word","90.3225806451613","90.3225806451613","822.4408602150538","822.4408602150538","black","no","legacy","legacy","legacy","0","uniform","1","undefined","undefined","undefined","1","j","0","0","0","0","92","0","0","0","92","0","88","92","88","0","88","3","92","0","92","Thu Feb 18 13:55:54 2021","The main experiment item","yes","Lexical_Decision_Task.osexp","C:/Users/Miss Rooker","no","Andale Mono","no","18","no","white","no","yes","576","legacy","88","88","3","C:/Users/Miss Rooker/subject-5221027.csv","legacy","Lentiform Loewenfeld","3.3.7","yes","yes","600bd7cfb6416f0113b04181","602110864497cf011d9c0822","0","j","NA","j","space","space","space","j","976","NA","2612","1602","1167","1296","976","2","legacy","1024","2","48000","-16","task","5221027","odd","NA","13744","18359","15746","195383","2180","4954","3785","195884","116796","195381","195884","195307","18359","196861","11882","194807","2174","189999","Lexical Decision Task","84","76487","93","yes","1024"
"3.259832699","0","9","flar","non-word","90.42553191489361","90.42553191489361","823.1382978723404","823.1382978723404","black","no","legacy","legacy","legacy","0","uniform","1","undefined","undefined","undefined","1","f","0","0","0","0","93","0","0","0","93","0","89","93","89","0","89","3","93","0","93","Thu Feb 18 13:55:54 2021","The main experiment item","yes","Lexical_Decision_Task.osexp","C:/Users/Miss Rooker","no","Andale Mono","no","18","no","white","no","yes","576","legacy","89","89","3","C:/Users/Miss Rooker/subject-5221027.csv","legacy","Lentiform Loewenfeld","3.3.7","yes","yes","600bd7cfb6416f0113b04181","602110864497cf011d9c0822","0","f","NA","j","space","space","space","f","888","NA","2612","1602","1167","1296","888","2","legacy","1024","2","48000","-16","task","5221027","odd","NA","13744","18359","15746","197442","2180","4954","3785","197943","116796","197440","197944","197371","18359","198833","11882","196871","2174","189999","Lexical Decision Task","85","77375","94","yes","1024"
"2.986323777","10.85","8","ship","word","90.52631578947368","90.52631578947368","821.6947368421053","821.6947368421053","black","no","legacy","legacy","legacy","0","uniform","1","undefined","undefined","undefined","1","j","0","0","0","0","94","0","0","0","94","0","90","94","90","0","90","3","94","0","94","Thu Feb 18 13:55:54 2021","The main experiment item","yes","Lexical_Decision_Task.osexp","C:/Users/Miss Rooker","no","Andale Mono","no","18","no","white","no","yes","576","legacy","90","90","3","C:/Users/Miss Rooker/subject-5221027.csv","legacy","Lentiform Loewenfeld","3.3.7","yes","yes","600bd7cfb6416f0113b04181","602110864497cf011d9c0822","0","j","NA","j","space","space","space","j","686","NA","2612","1602","1167","1296","686","2","legacy","1024","2","48000","-16","task","5221027","odd","NA","13744","18359","15746","199415","2180","4954","3785","199916","116796","199414","199916","199346","18359","200603","11882","198845","2174","189999","Lexical Decision Task","86","78061","95","yes","1024"
"3.149629599","0","2","cleb","non-word","90.625","90.625","820.9375","820.9375","black","no","legacy","legacy","legacy","0","uniform","1","undefined","undefined","undefined","1","f","0","0","0","0","95","0","0","0","95","0","91","95","91","0","91","3","95","0","95","Thu Feb 18 13:55:54 2021","The main experiment item","yes","Lexical_Decision_Task.osexp","C:/Users/Miss Rooker","no","Andale Mono","no","18","no","white","no","yes","576","legacy","91","91","3","C:/Users/Miss Rooker/subject-5221027.csv","legacy","Lentiform Loewenfeld","3.3.7","yes","yes","600bd7cfb6416f0113b04181","602110864497cf011d9c0822","0","f","NA","j","space","space","space","f","749","NA","2612","1602","1167","1296","749","2","legacy","1024","2","48000","-16","task","5221027","odd","NA","13744","18359","15746","201176","2180","4954","3785","201677","116796","201174","201677","201108","18359","202428","11882","200608","2174","189999","Lexical Decision Task","87","78810","96","yes","1024"
"3.094121596","0","8","fode","non-word","90.72164948453609","90.72164948453609","819.6185567010309","819.6185567010309","black","no","legacy","legacy","legacy","0","uniform","1","undefined","undefined","undefined","1","f","0","0","0","0","96","0","0","0","96","0","92","96","92","0","92","3","96","0","96","Thu Feb 18 13:55:54 2021","The main experiment item","yes","Lexical_Decision_Task.osexp","C:/Users/Miss Rooker","no","Andale Mono","no","18","no","white","no","yes","576","legacy","92","92","3","C:/Users/Miss Rooker/subject-5221027.csv","legacy","Lentiform Loewenfeld","3.3.7","yes","yes","600bd7cfb6416f0113b04181","602110864497cf011d9c0822","0","f","NA","j","space","space","space","f","693","NA","2612","1602","1167","1296","693","2","legacy","1024","2","48000","-16","task","5221027","odd","NA","13744","18359","15746","203069","2180","4954","3785","203570","116796","203067","203570","203001","18359","204264","11882","202501","2174","189999","Lexical Decision Task","88","79503","97","yes","1024"
"2.767650507","0","6","yolt","non-word","90.81632653061224","90.81632653061224","818.1224489795918","818.1224489795918","black","no","legacy","legacy","legacy","0","uniform","1","undefined","undefined","undefined","1","f","0","0","0","0","97","0","0","0","97","0","93","97","93","0","93","3","97","0","97","Thu Feb 18 13:55:54 2021","The main experiment item","yes","Lexical_Decision_Task.osexp","C:/Users/Miss Rooker","no","Andale Mono","no","18","no","white","no","yes","576","legacy","93","93","3","C:/Users/Miss Rooker/subject-5221027.csv","legacy","Lentiform Loewenfeld","3.3.7","yes","yes","600bd7cfb6416f0113b04181","602110864497cf011d9c0822","0","f","NA","j","space","space","space","f","673","NA","2612","1602","1167","1296","673","2","legacy","1024","2","48000","-16","task","5221027","odd","NA","13744","18359","15746","204844","2180","4954","3785","205345","116796","204842","205345","204775","18359","206020","11882","204275","2174","189999","Lexical Decision Task","89","80176","98","yes","1024"
"2.842815106","7.86","8","lump","word","90.9090909090909","90.9090909090909","823.8787878787879","823.8787878787879","black","no","legacy","legacy","legacy","0","uniform","1","undefined","undefined","undefined","1","j","0","0","0","0","98","0","0","0","98","0","94","98","94","0","94","3","98","0","98","Thu Feb 18 13:55:54 2021","The main experiment item","yes","Lexical_Decision_Task.osexp","C:/Users/Miss Rooker","no","Andale Mono","no","18","no","white","no","yes","576","legacy","94","94","3","C:/Users/Miss Rooker/subject-5221027.csv","legacy","Lentiform Loewenfeld","3.3.7","yes","yes","600bd7cfb6416f0113b04181","602110864497cf011d9c0822","0","j","NA","j","space","space","space","j","1388","NA","2612","1602","1167","1296","1388","2","legacy","1024","2","48000","-16","task","5221027","odd","NA","13744","18359","15746","206603","2180","4954","3785","207104","116796","206602","207104","206532","18359","208493","11882","206031","2174","189999","Lexical Decision Task","90","81564","99","yes","1024"
"3.353210739","0","9","reet","non-word","91","91","824.04","824.04","black","no","legacy","legacy","legacy","0","uniform","1","undefined","undefined","undefined","1","f","0","0","0","0","99","0","0","0","99","0","95","99","95","0","95","3","99","0","99","Thu Feb 18 13:55:54 2021","The main experiment item","yes","Lexical_Decision_Task.osexp","C:/Users/Miss Rooker","no","Andale Mono","no","18","no","white","no","yes","576","legacy","95","95","3","C:/Users/Miss Rooker/subject-5221027.csv","legacy","Lentiform Loewenfeld","3.3.7","yes","yes","600bd7cfb6416f0113b04181","602110864497cf011d9c0822","0","f","NA","j","space","space","space","f","840","NA","2612","1602","1167","1296","840","2","legacy","1024","2","48000","-16","task","5221027","odd","NA","13744","18359","15746","209067","2180","4954","3785","209568","116796","209065","209568","208998","18359","210410","11882","208498","2174","189999","Lexical Decision Task","91","82404","100","yes","1024"
"2.576725172","0","8","gowl","non-word","91.08910891089108","91.08910891089108","826.1089108910891","826.1089108910891","black","no","legacy","legacy","legacy","0","uniform","1","undefined","undefined","undefined","1","f","0","0","0","0","100","0","0","0","100","0","96","100","96","0","96","3","100","0","100","Thu Feb 18 13:55:54 2021","The main experiment item","yes","Lexical_Decision_Task.osexp","C:/Users/Miss Rooker","no","Andale Mono","no","18","no","white","no","yes","576","legacy","96","96","3","C:/Users/Miss Rooker/subject-5221027.csv","legacy","Lentiform Loewenfeld","3.3.7","yes","yes","600bd7cfb6416f0113b04181","602110864497cf011d9c0822","0","f","NA","j","space","space","space","f","1033","NA","2612","1602","1167","1296","1033","2","legacy","1024","2","48000","-16","task","5221027","odd","NA","13744","18359","15746","210991","2180","4954","3785","211492","116796","210989","211492","210922","18359","212526","11882","210422","2174","189999","Lexical Decision Task","92","83437","101","yes","1024"
"3.064581521","5.51","6","cask","word","90.19607843137256","90.19607843137256","824.2254901960785","824.2254901960785","black","no","legacy","legacy","legacy","0","uniform","0","undefined","undefined","undefined","0","j","0","0","0","0","101","0","0","0","101","0","97","101","97","0","97","3","101","0","101","Thu Feb 18 13:55:54 2021","The main experiment item","yes","Lexical_Decision_Task.osexp","C:/Users/Miss Rooker","no","Andale Mono","no","18","no","white","no","yes","576","legacy","97","97","3","C:/Users/Miss Rooker/subject-5221027.csv","legacy","Lentiform Loewenfeld","3.3.7","yes","yes","600bd7cfb6416f0113b04181","602110864497cf011d9c0822","0","f","NA","j","space","space","space","f","634","NA","2612","1602","1167","1296","634","2","legacy","1024","2","48000","-16","task","5221027","odd","NA","13744","18359","15746","213112","2180","4954","3785","213613","116796","213110","213613","213040","18359","214248","11882","212540","2174","189999","Lexical Decision Task","92","84071","102","yes","1024"
