"Log_BG","Log_Freq_HAL","Ortho_N","Stimulus","Type","acc","accuracy","average_response_time","avg_rt","background","bidi","canvas_backend","clock_backend","color_backend","compensation","coordinates","correct","correct_Experimental_intro","correct_Introduction","correct_Practice_intro","correct_experimenter_kb","correct_response","count_End_Of_Experiment","count_End_Of_Practice","count_Experimental_Loop","count_Experimental_intro","count_Fixation","count_Introduction","count_Practice_Loop","count_Practice_intro","count_Stimulus","count_block_break_feedback","count_experimental_sequence","count_experimenter_kb","count_increment_trial_count","count_init_trial_count","count_logger","count_practice_sequence","count_right","count_task","count_wrong","datetime","description","disable_garbage_collection","experiment_file","experiment_path","font_bold","font_family","font_italic","font_size","font_underline","foreground","form_clicks","fullscreen","height","keyboard_backend","live_row","live_row_Experimental_Loop","live_row_Practice_Loop","logfile","mouse_backend","opensesame_codename","opensesame_version","osf_always_upload_data","osf_always_upload_experiment","osf_datanode_id","osf_id","repeat_cycle","response","response_End_Of_Experiment","response_Experimental_intro","response_Introduction","response_Practice_intro","response_block_break_feedback","response_experimenter_kb","response_time","response_time_End_Of_Experiment","response_time_Experimental_intro","response_time_Introduction","response_time_Practice_intro","response_time_block_break_feedback","response_time_experimenter_kb","round_decimals","sampler_backend","sound_buf_size","sound_channels","sound_freq","sound_sample_size","start","subject_nr","subject_parity","time_End_Of_Experiment","time_End_Of_Practice","time_Experimental_Loop","time_Experimental_intro","time_Fixation","time_Introduction","time_Practice_Loop","time_Practice_intro","time_Stimulus","time_block_break_feedback","time_experimental_sequence","time_experimenter_kb","time_increment_trial_count","time_init_trial_count","time_logger","time_practice_sequence","time_right","time_task","time_wrong","title","total_correct","total_response_time","total_responses","uniform_coordinates","width"
"2.895974732","6.65","5","sift","word","80","80","734.4","734.4","black","no","legacy","legacy","legacy","0","uniform","1","undefined","undefined","undefined","1","j","0","0","0","0","4","0","0","0","4","NA","0","4","0","0","0","3","4","0","4","Wed Feb 17 10:29:42 2021","The main experiment item","yes","Lexical_Decision_Task.osexp","C:/Users/lu-cy","no","Andale Mono","no","18","no","white","no","yes","576","legacy","0","0","3","C:/Users/lu-cy/subject-5206323.csv","legacy","Lentiform Loewenfeld","3.3.7","yes","yes","600bd7cfb6416f0113b04181","602110864497cf011d9c0822","0","j","NA","space","space","space","NA","j","1156","NA","2805","5738","3660","NA","1156","2","legacy","1024","2","48000","-16","task","5206323","odd","NA","21417","26224","23419","26255","4223","13624","9964","26757","NA","26254","26757","NA","26224","27914","19847","20894","4205","16552","Lexical Decision Task","4","3672","5","yes","1024"
"3.397302518","7.01","2","knit","word","83.33333333333333","83.33333333333333","709.8333333333334","709.8333333333334","black","no","legacy","legacy","legacy","0","uniform","1","undefined","undefined","undefined","1","j","0","0","0","0","5","0","0","0","5","NA","1","5","1","0","1","3","5","0","5","Wed Feb 17 10:29:42 2021","The main experiment item","yes","Lexical_Decision_Task.osexp","C:/Users/lu-cy","no","Andale Mono","no","18","no","white","no","yes","576","legacy","1","1","3","C:/Users/lu-cy/subject-5206323.csv","legacy","Lentiform Loewenfeld","3.3.7","yes","yes","600bd7cfb6416f0113b04181","602110864497cf011d9c0822","0","j","NA","space","space","space","NA","j","587","NA","2805","5738","3660","NA","587","2","legacy","1024","2","48000","-16","task","5206323","odd","NA","21417","26224","23419","28487","4223","13624","9964","28988","NA","28485","28988","28424","26224","29576","19847","27924","4205","16552","Lexical Decision Task","5","4259","6","yes","1024"
"3.531734309","0","6","lerd","non-word","85.71428571428571","85.71428571428571","684.2857142857143","684.2857142857143","black","no","legacy","legacy","legacy","0","uniform","1","undefined","undefined","undefined","1","f","0","0","0","0","6","0","0","0","6","NA","2","6","2","0","2","3","6","0","6","Wed Feb 17 10:29:42 2021","The main experiment item","yes","Lexical_Decision_Task.osexp","C:/Users/lu-cy","no","Andale Mono","no","18","no","white","no","yes","576","legacy","2","2","3","C:/Users/lu-cy/subject-5206323.csv","legacy","Lentiform Loewenfeld","3.3.7","yes","yes","600bd7cfb6416f0113b04181","602110864497cf011d9c0822","0","f","NA","space","space","space","NA","f","531","NA","2805","5738","3660","NA","531","2","legacy","1024","2","48000","-16","task","5206323","odd","NA","21417","26224","23419","30124","4223","13624","9964","30626","NA","30123","30626","30080","26224","31158","19847","29579","4205","16552","Lexical Decision Task","6","4790","7","yes","1024"
"3.1430148","7.92","8","bald","word","87.5","87.5","657.625","657.625","black","no","legacy","legacy","legacy","0","uniform","1","undefined","undefined","undefined","1","j","0","0","0","0","7","0","0","0","7","NA","3","7","3","0","3","3","7","0","7","Wed Feb 17 10:29:42 2021","The main experiment item","yes","Lexical_Decision_Task.osexp","C:/Users/lu-cy","no","Andale Mono","no","18","no","white","no","yes","576","legacy","3","3","3","C:/Users/lu-cy/subject-5206323.csv","legacy","Lentiform Loewenfeld","3.3.7","yes","yes","600bd7cfb6416f0113b04181","602110864497cf011d9c0822","0","j","NA","space","space","space","NA","j","471","NA","2805","5738","3660","NA","471","2","legacy","1024","2","48000","-16","task","5206323","odd","NA","21417","26224","23419","31711","4223","13624","9964","32213","NA","31710","32213","31665","26224","32685","19847","31165","4205","16552","Lexical Decision Task","7","5261","8","yes","1024"
"2.706148589","0","4","hube","non-word","88.88888888888889","88.88888888888889","660.8888888888889","660.8888888888889","black","no","legacy","legacy","legacy","0","uniform","1","undefined","undefined","undefined","1","f","0","0","0","0","8","0","0","0","8","NA","4","8","4","0","4","3","8","0","8","Wed Feb 17 10:29:42 2021","The main experiment item","yes","Lexical_Decision_Task.osexp","C:/Users/lu-cy","no","Andale Mono","no","18","no","white","no","yes","576","legacy","4","4","3","C:/Users/lu-cy/subject-5206323.csv","legacy","Lentiform Loewenfeld","3.3.7","yes","yes","600bd7cfb6416f0113b04181","602110864497cf011d9c0822","0","f","NA","space","space","space","NA","f","687","NA","2805","5738","3660","NA","687","2","legacy","1024","2","48000","-16","task","5206323","odd","NA","21417","26224","23419","33260","4223","13624","9964","33762","NA","33259","33762","33213","26224","34450","19847","32713","4205","16552","Lexical Decision Task","8","5948","9","yes","1024"
"3.218535505","7.85","7","goat","word","90","90","633.2","633.2","black","no","legacy","legacy","legacy","0","uniform","1","undefined","undefined","undefined","1","j","0","0","0","0","9","0","0","0","9","NA","5","9","5","0","5","3","9","0","9","Wed Feb 17 10:29:42 2021","The main experiment item","yes","Lexical_Decision_Task.osexp","C:/Users/lu-cy","no","Andale Mono","no","18","no","white","no","yes","576","legacy","5","5","3","C:/Users/lu-cy/subject-5206323.csv","legacy","Lentiform Loewenfeld","3.3.7","yes","yes","600bd7cfb6416f0113b04181","602110864497cf011d9c0822","0","j","NA","space","space","space","NA","j","384","NA","2805","5738","3660","NA","384","2","legacy","1024","2","48000","-16","task","5206323","odd","NA","21417","26224","23419","35031","4223","13624","9964","35533","NA","35030","35533","34979","26224","35918","19847","34479","4205","16552","Lexical Decision Task","9","6332","10","yes","1024"
"2.907588697","8.91","9","mood","word","90.9090909090909","90.9090909090909","614.2727272727273","614.2727272727273","black","no","legacy","legacy","legacy","0","uniform","1","undefined","undefined","undefined","1","j","0","0","0","0","10","0","0","0","10","NA","6","10","6","0","6","3","10","0","10","Wed Feb 17 10:29:42 2021","The main experiment item","yes","Lexical_Decision_Task.osexp","C:/Users/lu-cy","no","Andale Mono","no","18","no","white","no","yes","576","legacy","6","6","3","C:/Users/lu-cy/subject-5206323.csv","legacy","Lentiform Loewenfeld","3.3.7","yes","yes","600bd7cfb6416f0113b04181","602110864497cf011d9c0822","0","j","NA","space","space","space","NA","j","425","NA","2805","5738","3660","NA","425","2","legacy","1024","2","48000","-16","task","5206323","odd","NA","21417","26224","23419","36492","4223","13624","9964","36994","NA","36491","36994","36447","26224","37420","19847","35947","4205","16552","Lexical Decision Task","10","6757","11","yes","1024"
"2.899638141","0","3","hapt","non-word","91.66666666666667","91.66666666666667","608.3333333333334","608.3333333333334","black","no","legacy","legacy","legacy","0","uniform","1","undefined","undefined","undefined","1","f","0","0","0","0","11","0","0","0","11","NA","7","11","7","0","7","3","11","0","11","Wed Feb 17 10:29:42 2021","The main experiment item","yes","Lexical_Decision_Task.osexp","C:/Users/lu-cy","no","Andale Mono","no","18","no","white","no","yes","576","legacy","7","7","3","C:/Users/lu-cy/subject-5206323.csv","legacy","Lentiform Loewenfeld","3.3.7","yes","yes","600bd7cfb6416f0113b04181","602110864497cf011d9c0822","0","f","NA","space","space","space","NA","f","543","NA","2805","5738","3660","NA","543","2","legacy","1024","2","48000","-16","task","5206323","odd","NA","21417","26224","23419","37993","4223","13624","9964","38495","NA","37991","38495","37949","26224","39038","19847","37449","4205","16552","Lexical Decision Task","11","7300","12","yes","1024"
"3.20871002","7.15","8","cram","word","92.3076923076923","92.3076923076923","615.9230769230769","615.9230769230769","black","no","legacy","legacy","legacy","0","uniform","1","undefined","undefined","undefined","1","j","0","0","0","0","12","0","0","0","12","NA","8","12","8","0","8","3","12","0","12","Wed Feb 17 10:29:42 2021","The main experiment item","yes","Lexical_Decision_Task.osexp","C:/Users/lu-cy","no","Andale Mono","no","18","no","white","no","yes","576","legacy","8","8","3","C:/Users/lu-cy/subject-5206323.csv","legacy","Lentiform Loewenfeld","3.3.7","yes","yes","600bd7cfb6416f0113b04181","602110864497cf011d9c0822","0","j","NA","space","space","space","NA","j","707","NA","2805","5738","3660","NA","707","2","legacy","1024","2","48000","-16","task","5206323","odd","NA","21417","26224","23419","39593","4223","13624","9964","40094","NA","39591","40095","39546","26224","40802","19847","39045","4205","16552","Lexical Decision Task","12","8007","13","yes","1024"
"3.274157849","0","8","leet","non-word","92.85714285714286","92.85714285714286","618.4285714285714","618.4285714285714","black","no","legacy","legacy","legacy","0","uniform","1","undefined","undefined","undefined","1","f","0","0","0","0","13","0","0","0","13","NA","9","13","9","0","9","3","13","0","13","Wed Feb 17 10:29:42 2021","The main experiment item","yes","Lexical_Decision_Task.osexp","C:/Users/lu-cy","no","Andale Mono","no","18","no","white","no","yes","576","legacy","9","9","3","C:/Users/lu-cy/subject-5206323.csv","legacy","Lentiform Loewenfeld","3.3.7","yes","yes","600bd7cfb6416f0113b04181","602110864497cf011d9c0822","0","f","NA","space","space","space","NA","f","651","NA","2805","5738","3660","NA","651","2","legacy","1024","2","48000","-16","task","5206323","odd","NA","21417","26224","23419","41374","4223","13624","9964","41876","NA","41373","41876","41330","26224","42527","19847","40830","4205","16552","Lexical Decision Task","13","8658","14","yes","1024"
"3.16326079","0","5","parg","non-word","86.66666666666667","86.66666666666667","601.5333333333333","601.5333333333333","black","no","legacy","legacy","legacy","0","uniform","0","undefined","undefined","undefined","0","f","0","0","0","0","14","0","0","0","14","NA","10","14","10","0","10","3","14","0","14","Wed Feb 17 10:29:42 2021","The main experiment item","yes","Lexical_Decision_Task.osexp","C:/Users/lu-cy","no","Andale Mono","no","18","no","white","no","yes","576","legacy","10","10","3","C:/Users/lu-cy/subject-5206323.csv","legacy","Lentiform Loewenfeld","3.3.7","yes","yes","600bd7cfb6416f0113b04181","602110864497cf011d9c0822","0","j","NA","space","space","space","NA","j","365","NA","2805","5738","3660","NA","365","2","legacy","1024","2","48000","-16","task","5206323","odd","NA","21417","26224","23419","43104","4223","13624","9964","43606","NA","43103","43606","43056","26224","43971","19847","42556","4205","16552","Lexical Decision Task","13","9023","15","yes","1024"
"3.263399331","0","8","cour","non-word","87.5","87.5","609.5625","609.5625","black","no","legacy","legacy","legacy","0","uniform","1","undefined","undefined","undefined","1","f","0","0","0","0","15","0","0","0","15","NA","11","15","11","0","11","3","15","0","15","Wed Feb 17 10:29:42 2021","The main experiment item","yes","Lexical_Decision_Task.osexp","C:/Users/lu-cy","no","Andale Mono","no","18","no","white","no","yes","576","legacy","11","11","3","C:/Users/lu-cy/subject-5206323.csv","legacy","Lentiform Loewenfeld","3.3.7","yes","yes","600bd7cfb6416f0113b04181","602110864497cf011d9c0822","0","f","NA","space","space","space","NA","f","730","NA","2805","5738","3660","NA","730","2","legacy","1024","2","48000","-16","task","5206323","odd","NA","21417","26224","23419","45530","4223","13624","9964","46032","NA","45528","46032","45478","26224","46763","19847","42556","4205","43978","Lexical Decision Task","14","9753","16","yes","1024"
"2.82129731","6.72","5","plum","word","88.23529411764706","88.23529411764706","603.5294117647059","603.5294117647059","black","no","legacy","legacy","legacy","0","uniform","1","undefined","undefined","undefined","1","j","0","0","0","0","16","0","0","0","16","NA","12","16","12","0","12","3","16","0","16","Wed Feb 17 10:29:42 2021","The main experiment item","yes","Lexical_Decision_Task.osexp","C:/Users/lu-cy","no","Andale Mono","no","18","no","white","no","yes","576","legacy","12","12","3","C:/Users/lu-cy/subject-5206323.csv","legacy","Lentiform Loewenfeld","3.3.7","yes","yes","600bd7cfb6416f0113b04181","602110864497cf011d9c0822","0","j","NA","space","space","space","NA","j","507","NA","2805","5738","3660","NA","507","2","legacy","1024","2","48000","-16","task","5206323","odd","NA","21417","26224","23419","47335","4223","13624","9964","47837","NA","47334","47837","47291","26224","48344","19847","46791","4205","43978","Lexical Decision Task","15","10260","17","yes","1024"
"2.616654026","9.37","5","gift","word","83.33333333333333","83.33333333333333","593.1111111111111","593.1111111111111","black","no","legacy","legacy","legacy","0","uniform","0","undefined","undefined","undefined","0","j","0","0","0","0","17","0","0","0","17","NA","13","17","13","0","13","3","17","0","17","Wed Feb 17 10:29:42 2021","The main experiment item","yes","Lexical_Decision_Task.osexp","C:/Users/lu-cy","no","Andale Mono","no","18","no","white","no","yes","576","legacy","13","13","3","C:/Users/lu-cy/subject-5206323.csv","legacy","Lentiform Loewenfeld","3.3.7","yes","yes","600bd7cfb6416f0113b04181","602110864497cf011d9c0822","0","f","NA","space","space","space","NA","f","416","NA","2805","5738","3660","NA","416","2","legacy","1024","2","48000","-16","task","5206323","odd","NA","21417","26224","23419","48897","4223","13624","9964","49399","NA","48896","49399","48853","26224","49815","19847","48353","4205","43978","Lexical Decision Task","15","10676","18","yes","1024"
"3.363486562","6.93","9","lush","word","84.21052631578948","84.21052631578948","595.578947368421","595.578947368421","black","no","legacy","legacy","legacy","0","uniform","1","undefined","undefined","undefined","1","j","0","0","0","0","18","0","0","0","18","NA","14","18","14","0","14","3","18","0","18","Wed Feb 17 10:29:42 2021","The main experiment item","yes","Lexical_Decision_Task.osexp","C:/Users/lu-cy","no","Andale Mono","no","18","no","white","no","yes","576","legacy","14","14","3","C:/Users/lu-cy/subject-5206323.csv","legacy","Lentiform Loewenfeld","3.3.7","yes","yes","600bd7cfb6416f0113b04181","602110864497cf011d9c0822","0","j","NA","space","space","space","NA","j","640","NA","2805","5738","3660","NA","640","2","legacy","1024","2","48000","-16","task","5206323","odd","NA","21417","26224","23419","51367","4223","13624","9964","51869","NA","51366","51869","51322","26224","52510","19847","48353","4205","49822","Lexical Decision Task","16","11316","19","yes","1024"
"3.153001286","8.7","5","palm","word","85","85","595.25","595.25","black","no","legacy","legacy","legacy","0","uniform","1","undefined","undefined","undefined","1","j","0","0","0","0","19","0","0","0","19","NA","15","19","15","0","15","3","19","0","19","Wed Feb 17 10:29:42 2021","The main experiment item","yes","Lexical_Decision_Task.osexp","C:/Users/lu-cy","no","Andale Mono","no","18","no","white","no","yes","576","legacy","15","15","3","C:/Users/lu-cy/subject-5206323.csv","legacy","Lentiform Loewenfeld","3.3.7","yes","yes","600bd7cfb6416f0113b04181","602110864497cf011d9c0822","0","j","NA","space","space","space","NA","j","589","NA","2805","5738","3660","NA","589","2","legacy","1024","2","48000","-16","task","5206323","odd","NA","21417","26224","23419","53087","4223","13624","9964","53589","NA","53085","53589","53038","26224","54179","19847","52538","4205","49822","Lexical Decision Task","17","11905","20","yes","1024"
"2.983324025","9.56","2","debt","word","85.71428571428571","85.71428571428571","594.3809523809524","594.3809523809524","black","no","legacy","legacy","legacy","0","uniform","1","undefined","undefined","undefined","1","j","0","0","0","0","20","0","0","0","20","NA","16","20","16","0","16","3","20","0","20","Wed Feb 17 10:29:42 2021","The main experiment item","yes","Lexical_Decision_Task.osexp","C:/Users/lu-cy","no","Andale Mono","no","18","no","white","no","yes","576","legacy","16","16","3","C:/Users/lu-cy/subject-5206323.csv","legacy","Lentiform Loewenfeld","3.3.7","yes","yes","600bd7cfb6416f0113b04181","602110864497cf011d9c0822","0","j","NA","space","space","space","NA","j","577","NA","2805","5738","3660","NA","577","2","legacy","1024","2","48000","-16","task","5206323","odd","NA","21417","26224","23419","54732","4223","13624","9964","55234","NA","54731","55234","54687","26224","55812","19847","54187","4205","49822","Lexical Decision Task","18","12482","21","yes","1024"
"3.372543801","9.24","8","coat","word","86.36363636363636","86.36363636363636","589.4545454545455","589.4545454545455","black","no","legacy","legacy","legacy","0","uniform","1","undefined","undefined","undefined","1","j","0","0","0","0","21","0","0","0","21","NA","17","21","17","0","17","3","21","0","21","Wed Feb 17 10:29:42 2021","The main experiment item","yes","Lexical_Decision_Task.osexp","C:/Users/lu-cy","no","Andale Mono","no","18","no","white","no","yes","576","legacy","17","17","3","C:/Users/lu-cy/subject-5206323.csv","legacy","Lentiform Loewenfeld","3.3.7","yes","yes","600bd7cfb6416f0113b04181","602110864497cf011d9c0822","0","j","NA","space","space","space","NA","j","486","NA","2805","5738","3660","NA","486","2","legacy","1024","2","48000","-16","task","5206323","odd","NA","21417","26224","23419","56363","4223","13624","9964","56865","NA","56362","56865","56319","26224","57352","19847","55819","4205","49822","Lexical Decision Task","19","12968","22","yes","1024"
"3.29439347","8.6","9","wand","word","86.95652173913044","86.95652173913044","589.7826086956521","589.7826086956521","black","no","legacy","legacy","legacy","0","uniform","1","undefined","undefined","undefined","1","j","0","0","0","0","22","0","0","0","22","NA","18","22","18","0","18","3","22","0","22","Wed Feb 17 10:29:42 2021","The main experiment item","yes","Lexical_Decision_Task.osexp","C:/Users/lu-cy","no","Andale Mono","no","18","no","white","no","yes","576","legacy","18","18","3","C:/Users/lu-cy/subject-5206323.csv","legacy","Lentiform Loewenfeld","3.3.7","yes","yes","600bd7cfb6416f0113b04181","602110864497cf011d9c0822","0","j","NA","space","space","space","NA","j","597","NA","2805","5738","3660","NA","597","2","legacy","1024","2","48000","-16","task","5206323","odd","NA","21417","26224","23419","57925","4223","13624","9964","58427","NA","57924","58427","57881","26224","59025","19847","57380","4205","49822","Lexical Decision Task","20","13565","23","yes","1024"
"2.719886232","7.98","2","quiz","word","87.5","87.5","582.2083333333334","582.2083333333334","black","no","legacy","legacy","legacy","0","uniform","1","undefined","undefined","undefined","1","j","0","0","0","0","23","0","0","0","23","NA","19","23","19","0","19","3","23","0","23","Wed Feb 17 10:29:42 2021","The main experiment item","yes","Lexical_Decision_Task.osexp","C:/Users/lu-cy","no","Andale Mono","no","18","no","white","no","yes","576","legacy","19","19","3","C:/Users/lu-cy/subject-5206323.csv","legacy","Lentiform Loewenfeld","3.3.7","yes","yes","600bd7cfb6416f0113b04181","602110864497cf011d9c0822","0","j","NA","space","space","space","NA","j","408","NA","2805","5738","3660","NA","408","2","legacy","1024","2","48000","-16","task","5206323","odd","NA","21417","26224","23419","59581","4223","13624","9964","60083","NA","59579","60083","59530","26224","60491","19847","59030","4205","49822","Lexical Decision Task","21","13973","24","yes","1024"
"3.443783828","7.65","3","verb","word","88","88","579.12","579.12","black","no","legacy","legacy","legacy","0","uniform","1","undefined","undefined","undefined","1","j","0","0","0","0","24","0","0","0","24","NA","20","24","20","0","20","3","24","0","24","Wed Feb 17 10:29:42 2021","The main experiment item","yes","Lexical_Decision_Task.osexp","C:/Users/lu-cy","no","Andale Mono","no","18","no","white","no","yes","576","legacy","20","20","3","C:/Users/lu-cy/subject-5206323.csv","legacy","Lentiform Loewenfeld","3.3.7","yes","yes","600bd7cfb6416f0113b04181","602110864497cf011d9c0822","0","j","NA","space","space","space","NA","j","505","NA","2805","5738","3660","NA","505","2","legacy","1024","2","48000","-16","task","5206323","odd","NA","21417","26224","23419","61040","4223","13624","9964","61542","NA","61038","61542","60995","26224","62048","19847","60495","4205","49822","Lexical Decision Task","22","14478","25","yes","1024"
"2.899092422","7.27","6","snag","word","88.46153846153847","88.46153846153847","576.6153846153846","576.6153846153846","black","no","legacy","legacy","legacy","0","uniform","1","undefined","undefined","undefined","1","j","0","0","0","0","25","0","0","0","25","NA","21","25","21","0","21","3","25","0","25","Wed Feb 17 10:29:42 2021","The main experiment item","yes","Lexical_Decision_Task.osexp","C:/Users/lu-cy","no","Andale Mono","no","18","no","white","no","yes","576","legacy","21","21","3","C:/Users/lu-cy/subject-5206323.csv","legacy","Lentiform Loewenfeld","3.3.7","yes","yes","600bd7cfb6416f0113b04181","602110864497cf011d9c0822","0","j","NA","space","space","space","NA","j","514","NA","2805","5738","3660","NA","514","2","legacy","1024","2","48000","-16","task","5206323","odd","NA","21417","26224","23419","62601","4223","13624","9964","63103","NA","62600","63103","62552","26224","63617","19847","62052","4205","49822","Lexical Decision Task","23","14992","26","yes","1024"
"3.159867847","5.98","5","brim","word","88.88888888888889","88.88888888888889","576.4444444444445","576.4444444444445","black","no","legacy","legacy","legacy","0","uniform","1","undefined","undefined","undefined","1","j","0","0","0","0","26","0","0","0","26","NA","22","26","22","0","22","3","26","0","26","Wed Feb 17 10:29:42 2021","The main experiment item","yes","Lexical_Decision_Task.osexp","C:/Users/lu-cy","no","Andale Mono","no","18","no","white","no","yes","576","legacy","22","22","3","C:/Users/lu-cy/subject-5206323.csv","legacy","Lentiform Loewenfeld","3.3.7","yes","yes","600bd7cfb6416f0113b04181","602110864497cf011d9c0822","0","j","NA","space","space","space","NA","j","572","NA","2805","5738","3660","NA","572","2","legacy","1024","2","48000","-16","task","5206323","odd","NA","21417","26224","23419","64173","4223","13624","9964","64675","NA","64171","64675","64124","26224","65247","19847","63624","4205","49822","Lexical Decision Task","24","15564","27","yes","1024"
"2.64476673","0","5","moft","non-word","89.28571428571429","89.28571428571429","581.25","581.25","black","no","legacy","legacy","legacy","0","uniform","1","undefined","undefined","undefined","1","f","0","0","0","0","27","0","0","0","27","NA","23","27","23","0","23","3","27","0","27","Wed Feb 17 10:29:42 2021","The main experiment item","yes","Lexical_Decision_Task.osexp","C:/Users/lu-cy","no","Andale Mono","no","18","no","white","no","yes","576","legacy","23","23","3","C:/Users/lu-cy/subject-5206323.csv","legacy","Lentiform Loewenfeld","3.3.7","yes","yes","600bd7cfb6416f0113b04181","602110864497cf011d9c0822","0","f","NA","space","space","space","NA","f","711","NA","2805","5738","3660","NA","711","2","legacy","1024","2","48000","-16","task","5206323","odd","NA","21417","26224","23419","65801","4223","13624","9964","66303","NA","65800","66303","65755","26224","67015","19847","65255","4205","49822","Lexical Decision Task","25","16275","28","yes","1024"
"2.996511672","0","7","hoil","non-word","89.65517241379311","89.65517241379311","585.6206896551724","585.6206896551724","black","no","legacy","legacy","legacy","0","uniform","1","undefined","undefined","undefined","1","f","0","0","0","0","28","0","0","0","28","NA","24","28","24","0","24","3","28","0","28","Wed Feb 17 10:29:42 2021","The main experiment item","yes","Lexical_Decision_Task.osexp","C:/Users/lu-cy","no","Andale Mono","no","18","no","white","no","yes","576","legacy","24","24","3","C:/Users/lu-cy/subject-5206323.csv","legacy","Lentiform Loewenfeld","3.3.7","yes","yes","600bd7cfb6416f0113b04181","602110864497cf011d9c0822","0","f","NA","space","space","space","NA","f","708","NA","2805","5738","3660","NA","708","2","legacy","1024","2","48000","-16","task","5206323","odd","NA","21417","26224","23419","67587","4223","13624","9964","68089","NA","67586","68089","67543","26224","68798","19847","67043","4205","49822","Lexical Decision Task","26","16983","29","yes","1024"
"2.695770526","7.34","6","pawn","word","90","90","582.4333333333333","582.4333333333333","black","no","legacy","legacy","legacy","0","uniform","1","undefined","undefined","undefined","1","j","0","0","0","0","29","0","0","0","29","NA","25","29","25","0","25","3","29","0","29","Wed Feb 17 10:29:42 2021","The main experiment item","yes","Lexical_Decision_Task.osexp","C:/Users/lu-cy","no","Andale Mono","no","18","no","white","no","yes","576","legacy","25","25","3","C:/Users/lu-cy/subject-5206323.csv","legacy","Lentiform Loewenfeld","3.3.7","yes","yes","600bd7cfb6416f0113b04181","602110864497cf011d9c0822","0","j","NA","space","space","space","NA","j","490","NA","2805","5738","3660","NA","490","2","legacy","1024","2","48000","-16","task","5206323","odd","NA","21417","26224","23419","69357","4223","13624","9964","69859","NA","69356","69859","69306","26224","70349","19847","68806","4205","49822","Lexical Decision Task","27","17473","30","yes","1024"
"2.981215883","10.66","5","hair","word","90.3225806451613","90.3225806451613","576.3225806451613","576.3225806451613","black","no","legacy","legacy","legacy","0","uniform","1","undefined","undefined","undefined","1","j","0","0","0","0","30","0","0","0","30","NA","26","30","26","0","26","3","30","0","30","Wed Feb 17 10:29:42 2021","The main experiment item","yes","Lexical_Decision_Task.osexp","C:/Users/lu-cy","no","Andale Mono","no","18","no","white","no","yes","576","legacy","26","26","3","C:/Users/lu-cy/subject-5206323.csv","legacy","Lentiform Loewenfeld","3.3.7","yes","yes","600bd7cfb6416f0113b04181","602110864497cf011d9c0822","0","j","NA","space","space","space","NA","j","393","NA","2805","5738","3660","NA","393","2","legacy","1024","2","48000","-16","task","5206323","odd","NA","21417","26224","23419","70923","4223","13624","9964","71425","NA","70922","71425","70878","26224","71818","19847","70378","4205","49822","Lexical Decision Task","28","17866","31","yes","1024"
"2.784379519","0","2","snaf","non-word","90.625","90.625","575.1875","575.1875","black","no","legacy","legacy","legacy","0","uniform","1","undefined","undefined","undefined","1","f","0","0","0","0","31","0","0","0","31","NA","27","31","27","0","27","3","31","0","31","Wed Feb 17 10:29:42 2021","The main experiment item","yes","Lexical_Decision_Task.osexp","C:/Users/lu-cy","no","Andale Mono","no","18","no","white","no","yes","576","legacy","27","27","3","C:/Users/lu-cy/subject-5206323.csv","legacy","Lentiform Loewenfeld","3.3.7","yes","yes","600bd7cfb6416f0113b04181","602110864497cf011d9c0822","0","f","NA","space","space","space","NA","f","540","NA","2805","5738","3660","NA","540","2","legacy","1024","2","48000","-16","task","5206323","odd","NA","21417","26224","23419","72393","4223","13624","9964","72895","NA","72392","72895","72345","26224","73435","19847","71845","4205","49822","Lexical Decision Task","29","18406","32","yes","1024"
"3.248054965","7.86","5","glow","word","90.9090909090909","90.9090909090909","572.5151515151515","572.5151515151515","black","no","legacy","legacy","legacy","0","uniform","1","undefined","undefined","undefined","1","j","0","0","0","0","32","0","0","0","32","NA","28","32","28","0","28","3","32","0","32","Wed Feb 17 10:29:42 2021","The main experiment item","yes","Lexical_Decision_Task.osexp","C:/Users/lu-cy","no","Andale Mono","no","18","no","white","no","yes","576","legacy","28","28","3","C:/Users/lu-cy/subject-5206323.csv","legacy","Lentiform Loewenfeld","3.3.7","yes","yes","600bd7cfb6416f0113b04181","602110864497cf011d9c0822","0","j","NA","space","space","space","NA","j","487","NA","2805","5738","3660","NA","487","2","legacy","1024","2","48000","-16","task","5206323","odd","NA","21417","26224","23419","73984","4223","13624","9964","74486","NA","73983","74486","73940","26224","74974","19847","73440","4205","49822","Lexical Decision Task","30","18893","33","yes","1024"
"2.6599162","0","2","saff","non-word","91.17647058823529","91.17647058823529","576.4411764705883","576.4411764705883","black","no","legacy","legacy","legacy","0","uniform","1","undefined","undefined","undefined","1","f","0","0","0","0","33","0","0","0","33","NA","29","33","29","0","29","3","33","0","33","Wed Feb 17 10:29:42 2021","The main experiment item","yes","Lexical_Decision_Task.osexp","C:/Users/lu-cy","no","Andale Mono","no","18","no","white","no","yes","576","legacy","29","29","3","C:/Users/lu-cy/subject-5206323.csv","legacy","Lentiform Loewenfeld","3.3.7","yes","yes","600bd7cfb6416f0113b04181","602110864497cf011d9c0822","0","f","NA","space","space","space","NA","f","706","NA","2805","5738","3660","NA","706","2","legacy","1024","2","48000","-16","task","5206323","odd","NA","21417","26224","23419","75525","4223","13624","9964","76027","NA","75523","76027","75481","26224","76733","19847","74981","4205","49822","Lexical Decision Task","31","19599","34","yes","1024"
"2.892836167","10.01","5","soft","word","91.42857142857143","91.42857142857143","571.2857142857143","571.2857142857143","black","no","legacy","legacy","legacy","0","uniform","1","undefined","undefined","undefined","1","j","0","0","0","0","34","0","0","0","34","NA","30","34","30","0","30","3","34","0","34","Wed Feb 17 10:29:42 2021","The main experiment item","yes","Lexical_Decision_Task.osexp","C:/Users/lu-cy","no","Andale Mono","no","18","no","white","no","yes","576","legacy","30","30","3","C:/Users/lu-cy/subject-5206323.csv","legacy","Lentiform Loewenfeld","3.3.7","yes","yes","600bd7cfb6416f0113b04181","602110864497cf011d9c0822","0","j","NA","space","space","space","NA","j","396","NA","2805","5738","3660","NA","396","2","legacy","1024","2","48000","-16","task","5206323","odd","NA","21417","26224","23419","77307","4223","13624","9964","77809","NA","77305","77809","77262","26224","78205","19847","76761","4205","49822","Lexical Decision Task","32","19995","35","yes","1024"
"3.121778632","0","9","sark","non-word","88.88888888888889","88.88888888888889","578.1944444444445","578.1944444444445","black","no","legacy","legacy","legacy","0","uniform","0","undefined","undefined","undefined","0","f","0","0","0","0","35","0","0","0","35","NA","31","35","31","0","31","3","35","0","35","Wed Feb 17 10:29:42 2021","The main experiment item","yes","Lexical_Decision_Task.osexp","C:/Users/lu-cy","no","Andale Mono","no","18","no","white","no","yes","576","legacy","31","31","3","C:/Users/lu-cy/subject-5206323.csv","legacy","Lentiform Loewenfeld","3.3.7","yes","yes","600bd7cfb6416f0113b04181","602110864497cf011d9c0822","0","j","NA","space","space","space","NA","j","820","NA","2805","5738","3660","NA","820","2","legacy","1024","2","48000","-16","task","5206323","odd","NA","21417","26224","23419","78776","4223","13624","9964","79278","NA","78775","79278","78734","26224","80098","19847","78234","4205","49822","Lexical Decision Task","32","20815","36","yes","1024"
"3.261341392","5.08","8","reek","word","89.1891891891892","89.1891891891892","577.6756756756756","577.6756756756756","black","no","legacy","legacy","legacy","0","uniform","1","undefined","undefined","undefined","1","j","0","0","0","0","36","0","0","0","36","NA","32","36","32","0","32","3","36","0","36","Wed Feb 17 10:29:42 2021","The main experiment item","yes","Lexical_Decision_Task.osexp","C:/Users/lu-cy","no","Andale Mono","no","18","no","white","no","yes","576","legacy","32","32","3","C:/Users/lu-cy/subject-5206323.csv","legacy","Lentiform Loewenfeld","3.3.7","yes","yes","600bd7cfb6416f0113b04181","602110864497cf011d9c0822","0","j","NA","space","space","space","NA","j","559","NA","2805","5738","3660","NA","559","2","legacy","1024","2","48000","-16","task","5206323","odd","NA","21417","26224","23419","81658","4223","13624","9964","82159","NA","81657","82160","81605","26224","82720","19847","78234","4205","80105","Lexical Decision Task","33","21374","37","yes","1024"
"3.145920145","8.51","8","flew","word","89.47368421052632","89.47368421052632","573.8947368421053","573.8947368421053","black","no","legacy","legacy","legacy","0","uniform","1","undefined","undefined","undefined","1","j","0","0","0","0","37","0","0","0","37","NA","33","37","33","0","33","3","37","0","37","Wed Feb 17 10:29:42 2021","The main experiment item","yes","Lexical_Decision_Task.osexp","C:/Users/lu-cy","no","Andale Mono","no","18","no","white","no","yes","576","legacy","33","33","3","C:/Users/lu-cy/subject-5206323.csv","legacy","Lentiform Loewenfeld","3.3.7","yes","yes","600bd7cfb6416f0113b04181","602110864497cf011d9c0822","0","j","NA","space","space","space","NA","j","434","NA","2805","5738","3660","NA","434","2","legacy","1024","2","48000","-16","task","5206323","odd","NA","21417","26224","23419","83293","4223","13624","9964","83795","NA","83292","83795","83249","26224","84229","19847","82749","4205","80105","Lexical Decision Task","34","21808","38","yes","1024"
"3.230789326","5.38","5","prim","word","89.74358974358974","89.74358974358974","570.5384615384615","570.5384615384615","black","no","legacy","legacy","legacy","0","uniform","1","undefined","undefined","undefined","1","j","0","0","0","0","38","0","0","0","38","NA","34","38","34","0","34","3","38","0","38","Wed Feb 17 10:29:42 2021","The main experiment item","yes","Lexical_Decision_Task.osexp","C:/Users/lu-cy","no","Andale Mono","no","18","no","white","no","yes","576","legacy","34","34","3","C:/Users/lu-cy/subject-5206323.csv","legacy","Lentiform Loewenfeld","3.3.7","yes","yes","600bd7cfb6416f0113b04181","602110864497cf011d9c0822","0","j","NA","space","space","space","NA","j","443","NA","2805","5738","3660","NA","443","2","legacy","1024","2","48000","-16","task","5206323","odd","NA","21417","26224","23419","84783","4223","13624","9964","85285","NA","84782","85285","84737","26224","85728","19847","84237","4205","80105","Lexical Decision Task","35","22251","39","yes","1024"
"3.168400243","9.12","6","horn","word","90","90","566.925","566.925","black","no","legacy","legacy","legacy","0","uniform","1","undefined","undefined","undefined","1","j","0","0","0","0","39","0","0","0","39","NA","35","39","35","0","35","3","39","0","39","Wed Feb 17 10:29:42 2021","The main experiment item","yes","Lexical_Decision_Task.osexp","C:/Users/lu-cy","no","Andale Mono","no","18","no","white","no","yes","576","legacy","35","35","3","C:/Users/lu-cy/subject-5206323.csv","legacy","Lentiform Loewenfeld","3.3.7","yes","yes","600bd7cfb6416f0113b04181","602110864497cf011d9c0822","0","j","NA","space","space","space","NA","j","426","NA","2805","5738","3660","NA","426","2","legacy","1024","2","48000","-16","task","5206323","odd","NA","21417","26224","23419","86302","4223","13624","9964","86803","NA","86300","86803","86257","26224","87229","19847","85757","4205","80105","Lexical Decision Task","36","22677","40","yes","1024"
"3.368162872","0","4","ferk","non-word","87.8048780487805","87.8048780487805","562.3170731707318","562.3170731707318","black","no","legacy","legacy","legacy","0","uniform","0","undefined","undefined","undefined","0","f","0","0","0","0","40","0","0","0","40","NA","36","40","36","0","36","3","40","0","40","Wed Feb 17 10:29:42 2021","The main experiment item","yes","Lexical_Decision_Task.osexp","C:/Users/lu-cy","no","Andale Mono","no","18","no","white","no","yes","576","legacy","36","36","3","C:/Users/lu-cy/subject-5206323.csv","legacy","Lentiform Loewenfeld","3.3.7","yes","yes","600bd7cfb6416f0113b04181","602110864497cf011d9c0822","0","j","NA","space","space","space","NA","j","378","NA","2805","5738","3660","NA","378","2","legacy","1024","2","48000","-16","task","5206323","odd","NA","21417","26224","23419","87806","4223","13624","9964","88308","NA","87804","88308","87758","26224","88687","19847","87258","4205","80105","Lexical Decision Task","36","23055","41","yes","1024"
"3.043885998","0","9","gome","non-word","88.0952380952381","88.0952380952381","581.7619047619048","581.7619047619048","black","no","legacy","legacy","legacy","0","uniform","1","undefined","undefined","undefined","1","f","0","0","0","0","41","0","0","0","41","NA","37","41","37","0","37","3","41","0","41","Wed Feb 17 10:29:42 2021","The main experiment item","yes","Lexical_Decision_Task.osexp","C:/Users/lu-cy","no","Andale Mono","no","18","no","white","no","yes","576","legacy","37","37","3","C:/Users/lu-cy/subject-5206323.csv","legacy","Lentiform Loewenfeld","3.3.7","yes","yes","600bd7cfb6416f0113b04181","602110864497cf011d9c0822","0","f","NA","space","space","space","NA","f","1379","NA","2805","5738","3660","NA","1379","2","legacy","1024","2","48000","-16","task","5206323","odd","NA","21417","26224","23419","90238","4223","13624","9964","90741","NA","90237","90741","90194","26224","92121","19847","87258","4205","88694","Lexical Decision Task","37","24434","42","yes","1024"
"2.972357144","0","5","dasp","non-word","88.37209302325581","88.37209302325581","585.0232558139535","585.0232558139535","black","no","legacy","legacy","legacy","0","uniform","1","undefined","undefined","undefined","1","f","0","0","0","0","42","0","0","0","42","NA","38","42","38","0","38","3","42","0","42","Wed Feb 17 10:29:42 2021","The main experiment item","yes","Lexical_Decision_Task.osexp","C:/Users/lu-cy","no","Andale Mono","no","18","no","white","no","yes","576","legacy","38","38","3","C:/Users/lu-cy/subject-5206323.csv","legacy","Lentiform Loewenfeld","3.3.7","yes","yes","600bd7cfb6416f0113b04181","602110864497cf011d9c0822","0","f","NA","space","space","space","NA","f","722","NA","2805","5738","3660","NA","722","2","legacy","1024","2","48000","-16","task","5206323","odd","NA","21417","26224","23419","92694","4223","13624","9964","93196","NA","92692","93196","92650","26224","93918","19847","92150","4205","88694","Lexical Decision Task","38","25156","43","yes","1024"
"2.744553742","0","2","nawk","non-word","88.63636363636364","88.63636363636364","587.1590909090909","587.1590909090909","black","no","legacy","legacy","legacy","0","uniform","1","undefined","undefined","undefined","1","f","0","0","0","0","43","0","0","0","43","NA","39","43","39","0","39","3","43","0","43","Wed Feb 17 10:29:42 2021","The main experiment item","yes","Lexical_Decision_Task.osexp","C:/Users/lu-cy","no","Andale Mono","no","18","no","white","no","yes","576","legacy","39","39","3","C:/Users/lu-cy/subject-5206323.csv","legacy","Lentiform Loewenfeld","3.3.7","yes","yes","600bd7cfb6416f0113b04181","602110864497cf011d9c0822","0","f","NA","space","space","space","NA","f","679","NA","2805","5738","3660","NA","679","2","legacy","1024","2","48000","-16","task","5206323","odd","NA","21417","26224","23419","94471","4223","13624","9964","94973","NA","94470","94973","94426","26224","95652","19847","93926","4205","88694","Lexical Decision Task","39","25835","44","yes","1024"
"2.924968096","0","4","phim","non-word","88.88888888888889","88.88888888888889","588.4222222222222","588.4222222222222","black","no","legacy","legacy","legacy","0","uniform","1","undefined","undefined","undefined","1","f","0","0","0","0","44","0","0","0","44","NA","40","44","40","0","40","3","44","0","44","Wed Feb 17 10:29:42 2021","The main experiment item","yes","Lexical_Decision_Task.osexp","C:/Users/lu-cy","no","Andale Mono","no","18","no","white","no","yes","576","legacy","40","40","3","C:/Users/lu-cy/subject-5206323.csv","legacy","Lentiform Loewenfeld","3.3.7","yes","yes","600bd7cfb6416f0113b04181","602110864497cf011d9c0822","0","f","NA","space","space","space","NA","f","644","NA","2805","5738","3660","NA","644","2","legacy","1024","2","48000","-16","task","5206323","odd","NA","21417","26224","23419","96226","4223","13624","9964","96728","NA","96223","96728","96180","26224","97373","19847","95680","4205","88694","Lexical Decision Task","40","26479","45","yes","1024"
"3.22685757","9.99","7","roll","word","89.1304347826087","89.1304347826087","585.5434782608696","585.5434782608696","black","no","legacy","legacy","legacy","0","uniform","1","undefined","undefined","undefined","1","j","0","0","0","0","45","0","0","0","45","NA","41","45","41","0","41","3","45","0","45","Wed Feb 17 10:29:42 2021","The main experiment item","yes","Lexical_Decision_Task.osexp","C:/Users/lu-cy","no","Andale Mono","no","18","no","white","no","yes","576","legacy","41","41","3","C:/Users/lu-cy/subject-5206323.csv","legacy","Lentiform Loewenfeld","3.3.7","yes","yes","600bd7cfb6416f0113b04181","602110864497cf011d9c0822","0","j","NA","space","space","space","NA","j","456","NA","2805","5738","3660","NA","456","2","legacy","1024","2","48000","-16","task","5206323","odd","NA","21417","26224","23419","97944","4223","13624","9964","98446","NA","97943","98446","97901","26224","98902","19847","97401","4205","88694","Lexical Decision Task","41","26935","46","yes","1024"
"2.696356389","0","1","pizz","non-word","89.36170212765957","89.36170212765957","583.0212765957447","583.0212765957447","black","no","legacy","legacy","legacy","0","uniform","1","undefined","undefined","undefined","1","f","0","0","0","0","46","0","0","0","46","NA","42","46","42","0","42","3","46","0","46","Wed Feb 17 10:29:42 2021","The main experiment item","yes","Lexical_Decision_Task.osexp","C:/Users/lu-cy","no","Andale Mono","no","18","no","white","no","yes","576","legacy","42","42","3","C:/Users/lu-cy/subject-5206323.csv","legacy","Lentiform Loewenfeld","3.3.7","yes","yes","600bd7cfb6416f0113b04181","602110864497cf011d9c0822","0","f","NA","space","space","space","NA","f","467","NA","2805","5738","3660","NA","467","2","legacy","1024","2","48000","-16","task","5206323","odd","NA","21417","26224","23419","99453","4223","13624","9964","99955","NA","99452","99955","99409","26224","100423","19847","98909","4205","88694","Lexical Decision Task","42","27402","47","yes","1024"
"2.873320602","0","4","lurg","non-word","89.58333333333333","89.58333333333333","583.3333333333334","583.3333333333334","black","no","legacy","legacy","legacy","0","uniform","1","undefined","undefined","undefined","1","f","0","0","0","0","47","0","0","0","47","NA","43","47","43","0","43","3","47","0","47","Wed Feb 17 10:29:42 2021","The main experiment item","yes","Lexical_Decision_Task.osexp","C:/Users/lu-cy","no","Andale Mono","no","18","no","white","no","yes","576","legacy","43","43","3","C:/Users/lu-cy/subject-5206323.csv","legacy","Lentiform Loewenfeld","3.3.7","yes","yes","600bd7cfb6416f0113b04181","602110864497cf011d9c0822","0","f","NA","space","space","space","NA","f","598","NA","2805","5738","3660","NA","598","2","legacy","1024","2","48000","-16","task","5206323","odd","NA","21417","26224","23419","100975","4223","13624","9964","101477","NA","100974","101477","100931","26224","102075","19847","100431","4205","88694","Lexical Decision Task","43","28000","48","yes","1024"
"3.705778213","0","6","stin","non-word","89.79591836734694","89.79591836734694","581.0204081632653","581.0204081632653","black","no","legacy","legacy","legacy","0","uniform","1","undefined","undefined","undefined","1","f","0","0","0","0","48","0","0","0","48","NA","44","48","44","0","44","3","48","0","48","Wed Feb 17 10:29:42 2021","The main experiment item","yes","Lexical_Decision_Task.osexp","C:/Users/lu-cy","no","Andale Mono","no","18","no","white","no","yes","576","legacy","44","44","3","C:/Users/lu-cy/subject-5206323.csv","legacy","Lentiform Loewenfeld","3.3.7","yes","yes","600bd7cfb6416f0113b04181","602110864497cf011d9c0822","0","f","NA","space","space","space","NA","f","470","NA","2805","5738","3660","NA","470","2","legacy","1024","2","48000","-16","task","5206323","odd","NA","21417","26224","23419","102648","4223","13624","9964","103150","NA","102647","103150","102604","26224","103621","19847","102104","4205","88694","Lexical Decision Task","44","28470","49","yes","1024"
"3.209246849","0","7","slem","non-word","90","90","580.88","580.88","black","no","legacy","legacy","legacy","0","uniform","1","undefined","undefined","undefined","1","f","0","0","0","0","49","0","0","0","49","NA","45","49","45","0","45","3","49","0","49","Wed Feb 17 10:29:42 2021","The main experiment item","yes","Lexical_Decision_Task.osexp","C:/Users/lu-cy","no","Andale Mono","no","18","no","white","no","yes","576","legacy","45","45","3","C:/Users/lu-cy/subject-5206323.csv","legacy","Lentiform Loewenfeld","3.3.7","yes","yes","600bd7cfb6416f0113b04181","602110864497cf011d9c0822","0","f","NA","space","space","space","NA","f","574","NA","2805","5738","3660","NA","574","2","legacy","1024","2","48000","-16","task","5206323","odd","NA","21417","26224","23419","104169","4223","13624","9964","104671","NA","104167","104671","104124","26224","105247","19847","103624","4205","88694","Lexical Decision Task","45","29044","50","yes","1024"
"2.68604012","0","4","pumb","non-word","88.23529411764706","88.23529411764706","580.9803921568628","580.9803921568628","black","no","legacy","legacy","legacy","0","uniform","0","undefined","undefined","undefined","0","f","0","0","0","0","50","0","0","0","50","NA","46","50","46","0","46","3","50","0","50","Wed Feb 17 10:29:42 2021","The main experiment item","yes","Lexical_Decision_Task.osexp","C:/Users/lu-cy","no","Andale Mono","no","18","no","white","no","yes","576","legacy","46","46","3","C:/Users/lu-cy/subject-5206323.csv","legacy","Lentiform Loewenfeld","3.3.7","yes","yes","600bd7cfb6416f0113b04181","602110864497cf011d9c0822","0","j","NA","space","space","space","NA","j","586","NA","2805","5738","3660","NA","586","2","legacy","1024","2","48000","-16","task","5206323","odd","NA","21417","26224","23419","105819","4223","13624","9964","106321","NA","105818","106321","105776","26224","106907","19847","105276","4205","88694","Lexical Decision Task","45","29630","51","yes","1024"
"2.664328519","0","4","plux","non-word","88.46153846153847","88.46153846153847","580.6730769230769","580.6730769230769","black","no","legacy","legacy","legacy","0","uniform","1","undefined","undefined","undefined","1","f","0","0","0","0","51","0","0","0","51","NA","47","51","47","0","47","3","51","0","51","Wed Feb 17 10:29:42 2021","The main experiment item","yes","Lexical_Decision_Task.osexp","C:/Users/lu-cy","no","Andale Mono","no","18","no","white","no","yes","576","legacy","47","47","3","C:/Users/lu-cy/subject-5206323.csv","legacy","Lentiform Loewenfeld","3.3.7","yes","yes","600bd7cfb6416f0113b04181","602110864497cf011d9c0822","0","f","NA","space","space","space","NA","f","565","NA","2805","5738","3660","NA","565","2","legacy","1024","2","48000","-16","task","5206323","odd","NA","21417","26224","23419","108486","4223","13624","9964","108989","NA","108485","108989","108438","26224","109554","19847","105276","4205","106938","Lexical Decision Task","46","30195","52","yes","1024"
"3.156347201","0","8","lasp","non-word","88.67924528301887","88.67924528301887","580.5849056603773","580.5849056603773","black","no","legacy","legacy","legacy","0","uniform","1","undefined","undefined","undefined","1","f","0","0","0","0","52","0","0","0","52","NA","48","52","48","0","48","3","52","0","52","Wed Feb 17 10:29:42 2021","The main experiment item","yes","Lexical_Decision_Task.osexp","C:/Users/lu-cy","no","Andale Mono","no","18","no","white","no","yes","576","legacy","48","48","3","C:/Users/lu-cy/subject-5206323.csv","legacy","Lentiform Loewenfeld","3.3.7","yes","yes","600bd7cfb6416f0113b04181","602110864497cf011d9c0822","0","f","NA","space","space","space","NA","f","576","NA","2805","5738","3660","NA","576","2","legacy","1024","2","48000","-16","task","5206323","odd","NA","21417","26224","23419","110106","4223","13624","9964","110608","NA","110105","110608","110061","26224","111185","19847","109561","4205","106938","Lexical Decision Task","47","30771","53","yes","1024"
"3.174641193","0","3","ramb","non-word","88.88888888888889","88.88888888888889","580.1296296296297","580.1296296296297","black","no","legacy","legacy","legacy","0","uniform","1","undefined","undefined","undefined","1","f","0","0","0","0","53","0","0","0","53","NA","49","53","49","0","49","3","53","0","53","Wed Feb 17 10:29:42 2021","The main experiment item","yes","Lexical_Decision_Task.osexp","C:/Users/lu-cy","no","Andale Mono","no","18","no","white","no","yes","576","legacy","49","49","3","C:/Users/lu-cy/subject-5206323.csv","legacy","Lentiform Loewenfeld","3.3.7","yes","yes","600bd7cfb6416f0113b04181","602110864497cf011d9c0822","0","f","NA","space","space","space","NA","f","556","NA","2805","5738","3660","NA","556","2","legacy","1024","2","48000","-16","task","5206323","odd","NA","21417","26224","23419","111758","4223","13624","9964","112259","NA","111756","112259","111713","26224","112816","19847","111213","4205","106938","Lexical Decision Task","48","31327","54","yes","1024"
"3.153104174","10.89","6","door","word","89.0909090909091","89.0909090909091","591.9454545454546","591.9454545454546","black","no","legacy","legacy","legacy","0","uniform","1","undefined","undefined","undefined","1","j","0","0","0","0","54","0","0","0","54","0","50","54","50","0","50","3","54","0","54","Wed Feb 17 10:29:42 2021","The main experiment item","yes","Lexical_Decision_Task.osexp","C:/Users/lu-cy","no","Andale Mono","no","18","no","white","no","yes","576","legacy","50","50","3","C:/Users/lu-cy/subject-5206323.csv","legacy","Lentiform Loewenfeld","3.3.7","yes","yes","600bd7cfb6416f0113b04181","602110864497cf011d9c0822","0","j","NA","space","space","space","return","j","1230","NA","2805","5738","3660","37241","1230","2","legacy","1024","2","48000","-16","task","5206323","odd","NA","21417","26224","23419","150661","4223","13624","9964","151163","113370","150659","151163","113344","26224","152394","19847","112844","4205","106938","Lexical Decision Task","49","32557","55","yes","1024"
"2.668385917","5.48","4","twig","word","89.28571428571429","89.28571428571429","592.5357142857143","592.5357142857143","black","no","legacy","legacy","legacy","0","uniform","1","undefined","undefined","undefined","1","j","0","0","0","0","55","0","0","0","55","0","51","55","51","0","51","3","55","0","55","Wed Feb 17 10:29:42 2021","The main experiment item","yes","Lexical_Decision_Task.osexp","C:/Users/lu-cy","no","Andale Mono","no","18","no","white","no","yes","576","legacy","51","51","3","C:/Users/lu-cy/subject-5206323.csv","legacy","Lentiform Loewenfeld","3.3.7","yes","yes","600bd7cfb6416f0113b04181","602110864497cf011d9c0822","0","j","NA","space","space","space","return","j","625","NA","2805","5738","3660","37241","625","2","legacy","1024","2","48000","-16","task","5206323","odd","NA","21417","26224","23419","152971","4223","13624","9964","153473","113370","152969","153473","152923","26224","154099","19847","152423","4205","106938","Lexical Decision Task","50","33182","56","yes","1024"
"2.966923697","5.4","2","fume","word","89.47368421052632","89.47368421052632","591.1578947368421","591.1578947368421","black","no","legacy","legacy","legacy","0","uniform","1","undefined","undefined","undefined","1","j","0","0","0","0","56","0","0","0","56","0","52","56","52","0","52","3","56","0","56","Wed Feb 17 10:29:42 2021","The main experiment item","yes","Lexical_Decision_Task.osexp","C:/Users/lu-cy","no","Andale Mono","no","18","no","white","no","yes","576","legacy","52","52","3","C:/Users/lu-cy/subject-5206323.csv","legacy","Lentiform Loewenfeld","3.3.7","yes","yes","600bd7cfb6416f0113b04181","602110864497cf011d9c0822","0","j","NA","space","space","space","return","j","514","NA","2805","5738","3660","37241","514","2","legacy","1024","2","48000","-16","task","5206323","odd","NA","21417","26224","23419","154679","4223","13624","9964","155181","113370","154678","155181","154628","26224","155696","19847","154128","4205","106938","Lexical Decision Task","51","33696","57","yes","1024"
"3.120135028","0","3","vals","non-word","89.65517241379311","89.65517241379311","592.0689655172414","592.0689655172414","black","no","legacy","legacy","legacy","0","uniform","1","undefined","undefined","undefined","1","f","0","0","0","0","57","0","0","0","57","0","53","57","53","0","53","3","57","0","57","Wed Feb 17 10:29:42 2021","The main experiment item","yes","Lexical_Decision_Task.osexp","C:/Users/lu-cy","no","Andale Mono","no","18","no","white","no","yes","576","legacy","53","53","3","C:/Users/lu-cy/subject-5206323.csv","legacy","Lentiform Loewenfeld","3.3.7","yes","yes","600bd7cfb6416f0113b04181","602110864497cf011d9c0822","0","f","NA","space","space","space","return","f","644","NA","2805","5738","3660","37241","644","2","legacy","1024","2","48000","-16","task","5206323","odd","NA","21417","26224","23419","156270","4223","13624","9964","156773","113370","156269","156773","156224","26224","157418","19847","155724","4205","106938","Lexical Decision Task","52","34340","58","yes","1024"
"2.728085817","10.02","9","bike","word","89.83050847457628","89.83050847457628","591.1864406779661","591.1864406779661","black","no","legacy","legacy","legacy","0","uniform","1","undefined","undefined","undefined","1","j","0","0","0","0","58","0","0","0","58","0","54","58","54","0","54","3","58","0","58","Wed Feb 17 10:29:42 2021","The main experiment item","yes","Lexical_Decision_Task.osexp","C:/Users/lu-cy","no","Andale Mono","no","18","no","white","no","yes","576","legacy","54","54","3","C:/Users/lu-cy/subject-5206323.csv","legacy","Lentiform Loewenfeld","3.3.7","yes","yes","600bd7cfb6416f0113b04181","602110864497cf011d9c0822","0","j","NA","space","space","space","return","j","540","NA","2805","5738","3660","37241","540","2","legacy","1024","2","48000","-16","task","5206323","odd","NA","21417","26224","23419","157993","4223","13624","9964","158495","113370","157992","158495","157947","26224","159036","19847","157447","4205","106938","Lexical Decision Task","53","34880","59","yes","1024"
"2.845304797","0","6","buct","non-word","90","90","589.1166666666667","589.1166666666667","black","no","legacy","legacy","legacy","0","uniform","1","undefined","undefined","undefined","1","f","0","0","0","0","59","0","0","0","59","0","55","59","55","0","55","3","59","0","59","Wed Feb 17 10:29:42 2021","The main experiment item","yes","Lexical_Decision_Task.osexp","C:/Users/lu-cy","no","Andale Mono","no","18","no","white","no","yes","576","legacy","55","55","3","C:/Users/lu-cy/subject-5206323.csv","legacy","Lentiform Loewenfeld","3.3.7","yes","yes","600bd7cfb6416f0113b04181","602110864497cf011d9c0822","0","f","NA","space","space","space","return","f","467","NA","2805","5738","3660","37241","467","2","legacy","1024","2","48000","-16","task","5206323","odd","NA","21417","26224","23419","159610","4223","13624","9964","160112","113370","159609","160112","159565","26224","160579","19847","159065","4205","106938","Lexical Decision Task","54","35347","60","yes","1024"
"3.374137706","10.21","4","tree","word","88.52459016393442","88.52459016393442","587.2131147540983","587.2131147540983","black","no","legacy","legacy","legacy","0","uniform","0","undefined","undefined","undefined","0","j","0","0","0","0","60","0","0","0","60","0","56","60","56","0","56","3","60","0","60","Wed Feb 17 10:29:42 2021","The main experiment item","yes","Lexical_Decision_Task.osexp","C:/Users/lu-cy","no","Andale Mono","no","18","no","white","no","yes","576","legacy","56","56","3","C:/Users/lu-cy/subject-5206323.csv","legacy","Lentiform Loewenfeld","3.3.7","yes","yes","600bd7cfb6416f0113b04181","602110864497cf011d9c0822","0","f","NA","space","space","space","return","f","473","NA","2805","5738","3660","37241","473","2","legacy","1024","2","48000","-16","task","5206323","odd","NA","21417","26224","23419","161152","4223","13624","9964","161654","113370","161151","161654","161108","26224","162128","19847","160608","4205","106938","Lexical Decision Task","54","35820","61","yes","1024"
"3.382617311","0","4","pret","non-word","88.70967741935483","88.70967741935483","586.4032258064516","586.4032258064516","black","no","legacy","legacy","legacy","0","uniform","1","undefined","undefined","undefined","1","f","0","0","0","0","61","0","0","0","61","0","57","61","57","0","57","3","61","0","61","Wed Feb 17 10:29:42 2021","The main experiment item","yes","Lexical_Decision_Task.osexp","C:/Users/lu-cy","no","Andale Mono","no","18","no","white","no","yes","576","legacy","57","57","3","C:/Users/lu-cy/subject-5206323.csv","legacy","Lentiform Loewenfeld","3.3.7","yes","yes","600bd7cfb6416f0113b04181","602110864497cf011d9c0822","0","f","NA","space","space","space","return","f","537","NA","2805","5738","3660","37241","537","2","legacy","1024","2","48000","-16","task","5206323","odd","NA","21417","26224","23419","163708","4223","13624","9964","164209","113370","163706","164209","163658","26224","164747","19847","160608","4205","162158","Lexical Decision Task","55","36357","62","yes","1024"
"2.778633532","0","3","jurp","non-word","88.88888888888889","88.88888888888889","585.8730158730159","585.8730158730159","black","no","legacy","legacy","legacy","0","uniform","1","undefined","undefined","undefined","1","f","0","0","0","0","62","0","0","0","62","0","58","62","58","0","58","3","62","0","62","Wed Feb 17 10:29:42 2021","The main experiment item","yes","Lexical_Decision_Task.osexp","C:/Users/lu-cy","no","Andale Mono","no","18","no","white","no","yes","576","legacy","58","58","3","C:/Users/lu-cy/subject-5206323.csv","legacy","Lentiform Loewenfeld","3.3.7","yes","yes","600bd7cfb6416f0113b04181","602110864497cf011d9c0822","0","f","NA","space","space","space","return","f","553","NA","2805","5738","3660","37241","553","2","legacy","1024","2","48000","-16","task","5206323","odd","NA","21417","26224","23419","165322","4223","13624","9964","165823","113370","165320","165823","165276","26224","166377","19847","164775","4205","162158","Lexical Decision Task","56","36910","63","yes","1024"
"3.259832699","0","9","flar","non-word","89.0625","89.0625","587.34375","587.34375","black","no","legacy","legacy","legacy","0","uniform","1","undefined","undefined","undefined","1","f","0","0","0","0","63","0","0","0","63","0","59","63","59","0","59","3","63","0","63","Wed Feb 17 10:29:42 2021","The main experiment item","yes","Lexical_Decision_Task.osexp","C:/Users/lu-cy","no","Andale Mono","no","18","no","white","no","yes","576","legacy","59","59","3","C:/Users/lu-cy/subject-5206323.csv","legacy","Lentiform Loewenfeld","3.3.7","yes","yes","600bd7cfb6416f0113b04181","602110864497cf011d9c0822","0","f","NA","space","space","space","return","f","680","NA","2805","5738","3660","37241","680","2","legacy","1024","2","48000","-16","task","5206323","odd","NA","21417","26224","23419","166952","4223","13624","9964","167454","113370","166951","167454","166906","26224","168134","19847","166406","4205","162158","Lexical Decision Task","57","37590","64","yes","1024"
"2.767650507","0","6","yolt","non-word","89.23076923076923","89.23076923076923","586.7692307692307","586.7692307692307","black","no","legacy","legacy","legacy","0","uniform","1","undefined","undefined","undefined","1","f","0","0","0","0","64","0","0","0","64","0","60","64","60","0","60","3","64","0","64","Wed Feb 17 10:29:42 2021","The main experiment item","yes","Lexical_Decision_Task.osexp","C:/Users/lu-cy","no","Andale Mono","no","18","no","white","no","yes","576","legacy","60","60","3","C:/Users/lu-cy/subject-5206323.csv","legacy","Lentiform Loewenfeld","3.3.7","yes","yes","600bd7cfb6416f0113b04181","602110864497cf011d9c0822","0","f","NA","space","space","space","return","f","550","NA","2805","5738","3660","37241","550","2","legacy","1024","2","48000","-16","task","5206323","odd","NA","21417","26224","23419","168693","4223","13624","9964","169195","113370","168691","169195","168641","26224","169746","19847","168141","4205","162158","Lexical Decision Task","58","38140","65","yes","1024"
"2.6599162","0","6","flug","non-word","89.39393939393939","89.39393939393939","586.2575757575758","586.2575757575758","black","no","legacy","legacy","legacy","0","uniform","1","undefined","undefined","undefined","1","f","0","0","0","0","65","0","0","0","65","0","61","65","61","0","61","3","65","0","65","Wed Feb 17 10:29:42 2021","The main experiment item","yes","Lexical_Decision_Task.osexp","C:/Users/lu-cy","no","Andale Mono","no","18","no","white","no","yes","576","legacy","61","61","3","C:/Users/lu-cy/subject-5206323.csv","legacy","Lentiform Loewenfeld","3.3.7","yes","yes","600bd7cfb6416f0113b04181","602110864497cf011d9c0822","0","f","NA","space","space","space","return","f","553","NA","2805","5738","3660","37241","553","2","legacy","1024","2","48000","-16","task","5206323","odd","NA","21417","26224","23419","170321","4223","13624","9964","170822","113370","170320","170822","170275","26224","171375","19847","169775","4205","162158","Lexical Decision Task","59","38693","66","yes","1024"
"3.460446784","0","5","dess","non-word","89.55223880597015","89.55223880597015","585.5223880597015","585.5223880597015","black","no","legacy","legacy","legacy","0","uniform","1","undefined","undefined","undefined","1","f","0","0","0","0","66","0","0","0","66","0","62","66","62","0","62","3","66","0","66","Wed Feb 17 10:29:42 2021","The main experiment item","yes","Lexical_Decision_Task.osexp","C:/Users/lu-cy","no","Andale Mono","no","18","no","white","no","yes","576","legacy","62","62","3","C:/Users/lu-cy/subject-5206323.csv","legacy","Lentiform Loewenfeld","3.3.7","yes","yes","600bd7cfb6416f0113b04181","602110864497cf011d9c0822","0","f","NA","space","space","space","return","f","537","NA","2805","5738","3660","37241","537","2","legacy","1024","2","48000","-16","task","5206323","odd","NA","21417","26224","23419","171949","4223","13624","9964","172451","113370","171948","172451","171904","26224","172989","19847","171404","4205","162158","Lexical Decision Task","60","39230","67","yes","1024"
"2.952953801","0","8","clax","non-word","89.70588235294117","89.70588235294117","585.5","585.5","black","no","legacy","legacy","legacy","0","uniform","1","undefined","undefined","undefined","1","f","0","0","0","0","67","0","0","0","67","0","63","67","63","0","63","3","67","0","67","Wed Feb 17 10:29:42 2021","The main experiment item","yes","Lexical_Decision_Task.osexp","C:/Users/lu-cy","no","Andale Mono","no","18","no","white","no","yes","576","legacy","63","63","3","C:/Users/lu-cy/subject-5206323.csv","legacy","Lentiform Loewenfeld","3.3.7","yes","yes","600bd7cfb6416f0113b04181","602110864497cf011d9c0822","0","f","NA","space","space","space","return","f","584","NA","2805","5738","3660","37241","584","2","legacy","1024","2","48000","-16","task","5206323","odd","NA","21417","26224","23419","173565","4223","13624","9964","174067","113370","173563","174067","173517","26224","174652","19847","173017","4205","162158","Lexical Decision Task","61","39814","68","yes","1024"
"3.378276681","6.39","8","bran","word","88.40579710144928","88.40579710144928","584.8260869565217","584.8260869565217","black","no","legacy","legacy","legacy","0","uniform","0","undefined","undefined","undefined","0","j","0","0","0","0","68","0","0","0","68","0","64","68","64","0","64","3","68","0","68","Wed Feb 17 10:29:42 2021","The main experiment item","yes","Lexical_Decision_Task.osexp","C:/Users/lu-cy","no","Andale Mono","no","18","no","white","no","yes","576","legacy","64","64","3","C:/Users/lu-cy/subject-5206323.csv","legacy","Lentiform Loewenfeld","3.3.7","yes","yes","600bd7cfb6416f0113b04181","602110864497cf011d9c0822","0","f","NA","space","space","space","return","f","539","NA","2805","5738","3660","37241","539","2","legacy","1024","2","48000","-16","task","5206323","odd","NA","21417","26224","23419","175232","4223","13624","9964","175734","113370","175231","175734","175182","26224","176274","19847","174682","4205","162158","Lexical Decision Task","61","40353","69","yes","1024"
"2.69019608","9.01","2","myth","word","88.57142857142857","88.57142857142857","584.7142857142857","584.7142857142857","black","no","legacy","legacy","legacy","0","uniform","1","undefined","undefined","undefined","1","j","0","0","0","0","69","0","0","0","69","0","65","69","65","0","65","3","69","0","69","Wed Feb 17 10:29:42 2021","The main experiment item","yes","Lexical_Decision_Task.osexp","C:/Users/lu-cy","no","Andale Mono","no","18","no","white","no","yes","576","legacy","65","65","3","C:/Users/lu-cy/subject-5206323.csv","legacy","Lentiform Loewenfeld","3.3.7","yes","yes","600bd7cfb6416f0113b04181","602110864497cf011d9c0822","0","j","NA","space","space","space","return","j","577","NA","2805","5738","3660","37241","577","2","legacy","1024","2","48000","-16","task","5206323","odd","NA","21417","26224","23419","177854","4223","13624","9964","178356","113370","177853","178356","177802","26224","178934","19847","174682","4205","176302","Lexical Decision Task","62","40930","70","yes","1024"
"3.431095062","5.74","9","perk","word","88.73239436619718","88.73239436619718","583.5352112676056","583.5352112676056","black","no","legacy","legacy","legacy","0","uniform","1","undefined","undefined","undefined","1","j","0","0","0","0","70","0","0","0","70","0","66","70","66","0","66","3","70","0","70","Wed Feb 17 10:29:42 2021","The main experiment item","yes","Lexical_Decision_Task.osexp","C:/Users/lu-cy","no","Andale Mono","no","18","no","white","no","yes","576","legacy","66","66","3","C:/Users/lu-cy/subject-5206323.csv","legacy","Lentiform Loewenfeld","3.3.7","yes","yes","600bd7cfb6416f0113b04181","602110864497cf011d9c0822","0","j","NA","space","space","space","return","j","501","NA","2805","5738","3660","37241","501","2","legacy","1024","2","48000","-16","task","5206323","odd","NA","21417","26224","23419","179485","4223","13624","9964","179987","113370","179483","179987","179441","26224","180488","19847","178941","4205","176302","Lexical Decision Task","63","41431","71","yes","1024"
"3.064581521","5.51","6","cask","word","87.5","87.5","584.75","584.75","black","no","legacy","legacy","legacy","0","uniform","0","undefined","undefined","undefined","0","j","0","0","0","0","71","0","0","0","71","0","67","71","67","0","67","3","71","0","71","Wed Feb 17 10:29:42 2021","The main experiment item","yes","Lexical_Decision_Task.osexp","C:/Users/lu-cy","no","Andale Mono","no","18","no","white","no","yes","576","legacy","67","67","3","C:/Users/lu-cy/subject-5206323.csv","legacy","Lentiform Loewenfeld","3.3.7","yes","yes","600bd7cfb6416f0113b04181","602110864497cf011d9c0822","0","f","NA","space","space","space","return","f","671","NA","2805","5738","3660","37241","671","2","legacy","1024","2","48000","-16","task","5206323","odd","NA","21417","26224","23419","181063","4223","13624","9964","181565","113370","181061","181565","181017","26224","182237","19847","180517","4205","176302","Lexical Decision Task","63","42102","72","yes","1024"
"2.980306438","0","7","slun","non-word","87.67123287671232","87.67123287671232","584.972602739726","584.972602739726","black","no","legacy","legacy","legacy","0","uniform","1","undefined","undefined","undefined","1","f","0","0","0","0","72","0","0","0","72","0","68","72","68","0","68","3","72","0","72","Wed Feb 17 10:29:42 2021","The main experiment item","yes","Lexical_Decision_Task.osexp","C:/Users/lu-cy","no","Andale Mono","no","18","no","white","no","yes","576","legacy","68","68","3","C:/Users/lu-cy/subject-5206323.csv","legacy","Lentiform Loewenfeld","3.3.7","yes","yes","600bd7cfb6416f0113b04181","602110864497cf011d9c0822","0","f","NA","space","space","space","return","f","601","NA","2805","5738","3660","37241","601","2","legacy","1024","2","48000","-16","task","5206323","odd","NA","21417","26224","23419","183816","4223","13624","9964","184318","113370","183815","184318","183767","26224","184920","19847","180517","4205","182266","Lexical Decision Task","64","42703","73","yes","1024"
"3.105055783","0","2","norp","non-word","87.83783783783784","87.83783783783784","583.2702702702703","583.2702702702703","black","no","legacy","legacy","legacy","0","uniform","1","undefined","undefined","undefined","1","f","0","0","0","0","73","0","0","0","73","0","69","73","69","0","69","3","73","0","73","Wed Feb 17 10:29:42 2021","The main experiment item","yes","Lexical_Decision_Task.osexp","C:/Users/lu-cy","no","Andale Mono","no","18","no","white","no","yes","576","legacy","69","69","3","C:/Users/lu-cy/subject-5206323.csv","legacy","Lentiform Loewenfeld","3.3.7","yes","yes","600bd7cfb6416f0113b04181","602110864497cf011d9c0822","0","f","NA","space","space","space","return","f","459","NA","2805","5738","3660","37241","459","2","legacy","1024","2","48000","-16","task","5206323","odd","NA","21417","26224","23419","185472","4223","13624","9964","185974","113370","185471","185974","185428","26224","186434","19847","184928","4205","182266","Lexical Decision Task","65","43162","74","yes","1024"
"2.708989954","9.28","9","bowl","word","88","88","581.8266666666667","581.8266666666667","black","no","legacy","legacy","legacy","0","uniform","1","undefined","undefined","undefined","1","j","0","0","0","0","74","0","0","0","74","0","70","74","70","0","70","3","74","0","74","Wed Feb 17 10:29:42 2021","The main experiment item","yes","Lexical_Decision_Task.osexp","C:/Users/lu-cy","no","Andale Mono","no","18","no","white","no","yes","576","legacy","70","70","3","C:/Users/lu-cy/subject-5206323.csv","legacy","Lentiform Loewenfeld","3.3.7","yes","yes","600bd7cfb6416f0113b04181","602110864497cf011d9c0822","0","j","NA","space","space","space","return","j","475","NA","2805","5738","3660","37241","475","2","legacy","1024","2","48000","-16","task","5206323","odd","NA","21417","26224","23419","187009","4223","13624","9964","187511","113370","187007","187511","186962","26224","187988","19847","186462","4205","182266","Lexical Decision Task","66","43637","75","yes","1024"
"3.120025233","0","2","nyst","non-word","88.15789473684211","88.15789473684211","582.0263157894736","582.0263157894736","black","no","legacy","legacy","legacy","0","uniform","1","undefined","undefined","undefined","1","f","0","0","0","0","75","0","0","0","75","0","71","75","71","0","71","3","75","0","75","Wed Feb 17 10:29:42 2021","The main experiment item","yes","Lexical_Decision_Task.osexp","C:/Users/lu-cy","no","Andale Mono","no","18","no","white","no","yes","576","legacy","71","71","3","C:/Users/lu-cy/subject-5206323.csv","legacy","Lentiform Loewenfeld","3.3.7","yes","yes","600bd7cfb6416f0113b04181","602110864497cf011d9c0822","0","f","NA","space","space","space","return","f","597","NA","2805","5738","3660","37241","597","2","legacy","1024","2","48000","-16","task","5206323","odd","NA","21417","26224","23419","188562","4223","13624","9964","189064","113370","188561","189064","188516","26224","189662","19847","188016","4205","182266","Lexical Decision Task","67","44234","76","yes","1024"
"2.875447132","0","9","jelt","non-word","88.31168831168831","88.31168831168831","582.4025974025974","582.4025974025974","black","no","legacy","legacy","legacy","0","uniform","1","undefined","undefined","undefined","1","f","0","0","0","0","76","0","0","0","76","0","72","76","72","0","72","3","76","0","76","Wed Feb 17 10:29:42 2021","The main experiment item","yes","Lexical_Decision_Task.osexp","C:/Users/lu-cy","no","Andale Mono","no","18","no","white","no","yes","576","legacy","72","72","3","C:/Users/lu-cy/subject-5206323.csv","legacy","Lentiform Loewenfeld","3.3.7","yes","yes","600bd7cfb6416f0113b04181","602110864497cf011d9c0822","0","f","NA","space","space","space","return","f","611","NA","2805","5738","3660","37241","611","2","legacy","1024","2","48000","-16","task","5206323","odd","NA","21417","26224","23419","190212","4223","13624","9964","190714","113370","190211","190714","190169","26224","191325","19847","189669","4205","182266","Lexical Decision Task","68","44845","77","yes","1024"
"2.838639236","0","4","furg","non-word","88.46153846153847","88.46153846153847","580.7435897435897","580.7435897435897","black","no","legacy","legacy","legacy","0","uniform","1","undefined","undefined","undefined","1","f","0","0","0","0","77","0","0","0","77","0","73","77","73","0","73","3","77","0","77","Wed Feb 17 10:29:42 2021","The main experiment item","yes","Lexical_Decision_Task.osexp","C:/Users/lu-cy","no","Andale Mono","no","18","no","white","no","yes","576","legacy","73","73","3","C:/Users/lu-cy/subject-5206323.csv","legacy","Lentiform Loewenfeld","3.3.7","yes","yes","600bd7cfb6416f0113b04181","602110864497cf011d9c0822","0","f","NA","space","space","space","return","f","453","NA","2805","5738","3660","37241","453","2","legacy","1024","2","48000","-16","task","5206323","odd","NA","21417","26224","23419","191899","4223","13624","9964","192400","113370","191898","192401","191854","26224","192854","19847","191354","4205","182266","Lexical Decision Task","69","45298","78","yes","1024"
"2.814027728","8.2","4","foam","word","88.60759493670886","88.60759493670886","580.5822784810126","580.5822784810126","black","no","legacy","legacy","legacy","0","uniform","1","undefined","undefined","undefined","1","j","0","0","0","0","78","0","0","0","78","0","74","78","74","0","74","3","78","0","78","Wed Feb 17 10:29:42 2021","The main experiment item","yes","Lexical_Decision_Task.osexp","C:/Users/lu-cy","no","Andale Mono","no","18","no","white","no","yes","576","legacy","74","74","3","C:/Users/lu-cy/subject-5206323.csv","legacy","Lentiform Loewenfeld","3.3.7","yes","yes","600bd7cfb6416f0113b04181","602110864497cf011d9c0822","0","j","NA","space","space","space","return","j","568","NA","2805","5738","3660","37241","568","2","legacy","1024","2","48000","-16","task","5206323","odd","NA","21417","26224","23419","193427","4223","13624","9964","193929","113370","193425","193929","193383","26224","194498","19847","192883","4205","182266","Lexical Decision Task","70","45866","79","yes","1024"
"3.252447662","9.67","9","boat","word","88.75","88.75","578.3","578.3","black","no","legacy","legacy","legacy","0","uniform","1","undefined","undefined","undefined","1","j","0","0","0","0","79","0","0","0","79","0","75","79","75","0","75","3","79","0","79","Wed Feb 17 10:29:42 2021","The main experiment item","yes","Lexical_Decision_Task.osexp","C:/Users/lu-cy","no","Andale Mono","no","18","no","white","no","yes","576","legacy","75","75","3","C:/Users/lu-cy/subject-5206323.csv","legacy","Lentiform Loewenfeld","3.3.7","yes","yes","600bd7cfb6416f0113b04181","602110864497cf011d9c0822","0","j","NA","space","space","space","return","j","398","NA","2805","5738","3660","37241","398","2","legacy","1024","2","48000","-16","task","5206323","odd","NA","21417","26224","23419","195049","4223","13624","9964","195551","113370","195047","195551","195003","26224","195950","19847","194503","4205","182266","Lexical Decision Task","71","46264","80","yes","1024"
"2.86332286","6.71","2","feud","word","88.88888888888889","88.88888888888889","577.4567901234568","577.4567901234568","black","no","legacy","legacy","legacy","0","uniform","1","undefined","undefined","undefined","1","j","0","0","0","0","80","0","0","0","80","0","76","80","76","0","76","3","80","0","80","Wed Feb 17 10:29:42 2021","The main experiment item","yes","Lexical_Decision_Task.osexp","C:/Users/lu-cy","no","Andale Mono","no","18","no","white","no","yes","576","legacy","76","76","3","C:/Users/lu-cy/subject-5206323.csv","legacy","Lentiform Loewenfeld","3.3.7","yes","yes","600bd7cfb6416f0113b04181","602110864497cf011d9c0822","0","j","NA","space","space","space","return","j","510","NA","2805","5738","3660","37241","510","2","legacy","1024","2","48000","-16","task","5206323","odd","NA","21417","26224","23419","196503","4223","13624","9964","197005","113370","196502","197005","196458","26224","197516","19847","195958","4205","182266","Lexical Decision Task","72","46774","81","yes","1024"
"3.2757719","0","5","slea","non-word","87.8048780487805","87.8048780487805","575.9878048780488","575.9878048780488","black","no","legacy","legacy","legacy","0","uniform","0","undefined","undefined","undefined","0","f","0","0","0","0","81","0","0","0","81","0","77","81","77","0","77","3","81","0","81","Wed Feb 17 10:29:42 2021","The main experiment item","yes","Lexical_Decision_Task.osexp","C:/Users/lu-cy","no","Andale Mono","no","18","no","white","no","yes","576","legacy","77","77","3","C:/Users/lu-cy/subject-5206323.csv","legacy","Lentiform Loewenfeld","3.3.7","yes","yes","600bd7cfb6416f0113b04181","602110864497cf011d9c0822","0","j","NA","space","space","space","return","j","457","NA","2805","5738","3660","37241","457","2","legacy","1024","2","48000","-16","task","5206323","odd","NA","21417","26224","23419","198069","4223","13624","9964","198571","113370","198068","198571","198024","26224","199029","19847","197524","4205","182266","Lexical Decision Task","72","47231","82","yes","1024"
"3.384413096","10.15","3","glad","word","87.95180722891567","87.95180722891567","575.4578313253012","575.4578313253012","black","no","legacy","legacy","legacy","0","uniform","1","undefined","undefined","undefined","1","j","0","0","0","0","82","0","0","0","82","0","78","82","78","0","78","3","82","0","82","Wed Feb 17 10:29:42 2021","The main experiment item","yes","Lexical_Decision_Task.osexp","C:/Users/lu-cy","no","Andale Mono","no","18","no","white","no","yes","576","legacy","78","78","3","C:/Users/lu-cy/subject-5206323.csv","legacy","Lentiform Loewenfeld","3.3.7","yes","yes","600bd7cfb6416f0113b04181","602110864497cf011d9c0822","0","j","NA","space","space","space","return","j","532","NA","2805","5738","3660","37241","532","2","legacy","1024","2","48000","-16","task","5206323","odd","NA","21417","26224","23419","200585","4223","13624","9964","201088","113370","200584","201088","200537","26224","201621","19847","197524","4205","199036","Lexical Decision Task","73","47763","83","yes","1024"
"3.14849993","10.75","7","hour","word","88.0952380952381","88.0952380952381","573.4404761904761","573.4404761904761","black","no","legacy","legacy","legacy","0","uniform","1","undefined","undefined","undefined","1","j","0","0","0","0","83","0","0","0","83","0","79","83","79","0","79","3","83","0","83","Wed Feb 17 10:29:42 2021","The main experiment item","yes","Lexical_Decision_Task.osexp","C:/Users/lu-cy","no","Andale Mono","no","18","no","white","no","yes","576","legacy","79","79","3","C:/Users/lu-cy/subject-5206323.csv","legacy","Lentiform Loewenfeld","3.3.7","yes","yes","600bd7cfb6416f0113b04181","602110864497cf011d9c0822","0","j","NA","space","space","space","return","j","406","NA","2805","5738","3660","37241","406","2","legacy","1024","2","48000","-16","task","5206323","odd","NA","21417","26224","23419","202193","4223","13624","9964","202695","113370","202192","202695","202149","26224","203101","19847","201649","4205","199036","Lexical Decision Task","74","48169","84","yes","1024"
"3.076883066","0","8","mout","non-word","87.05882352941177","87.05882352941177","571.7764705882353","571.7764705882353","black","no","legacy","legacy","legacy","0","uniform","0","undefined","undefined","undefined","0","f","0","0","0","0","84","0","0","0","84","0","80","84","80","0","80","3","84","0","84","Wed Feb 17 10:29:42 2021","The main experiment item","yes","Lexical_Decision_Task.osexp","C:/Users/lu-cy","no","Andale Mono","no","18","no","white","no","yes","576","legacy","80","80","3","C:/Users/lu-cy/subject-5206323.csv","legacy","Lentiform Loewenfeld","3.3.7","yes","yes","600bd7cfb6416f0113b04181","602110864497cf011d9c0822","0","j","NA","space","space","space","return","j","432","NA","2805","5738","3660","37241","432","2","legacy","1024","2","48000","-16","task","5206323","odd","NA","21417","26224","23419","203675","4223","13624","9964","204177","113370","203673","204177","203631","26224","204611","19847","203131","4205","199036","Lexical Decision Task","74","48601","85","yes","1024"
"3.195807436","0","6","stup","non-word","87.20930232558139","87.20930232558139","571.8488372093024","571.8488372093024","black","no","legacy","legacy","legacy","0","uniform","1","undefined","undefined","undefined","1","f","0","0","0","0","85","0","0","0","85","0","81","85","81","0","81","3","85","0","85","Wed Feb 17 10:29:42 2021","The main experiment item","yes","Lexical_Decision_Task.osexp","C:/Users/lu-cy","no","Andale Mono","no","18","no","white","no","yes","576","legacy","81","81","3","C:/Users/lu-cy/subject-5206323.csv","legacy","Lentiform Loewenfeld","3.3.7","yes","yes","600bd7cfb6416f0113b04181","602110864497cf011d9c0822","0","f","NA","space","space","space","return","f","578","NA","2805","5738","3660","37241","578","2","legacy","1024","2","48000","-16","task","5206323","odd","NA","21417","26224","23419","206162","4223","13624","9964","206664","113370","206161","206664","206114","26224","207243","19847","203131","4205","204613","Lexical Decision Task","75","49179","86","yes","1024"
"3.062080345","0","6","tomp","non-word","86.20689655172414","86.20689655172414","570.9310344827586","570.9310344827586","black","no","legacy","legacy","legacy","0","uniform","0","undefined","undefined","undefined","0","f","0","0","0","0","86","0","0","0","86","0","82","86","82","0","82","3","86","0","86","Wed Feb 17 10:29:42 2021","The main experiment item","yes","Lexical_Decision_Task.osexp","C:/Users/lu-cy","no","Andale Mono","no","18","no","white","no","yes","576","legacy","82","82","3","C:/Users/lu-cy/subject-5206323.csv","legacy","Lentiform Loewenfeld","3.3.7","yes","yes","600bd7cfb6416f0113b04181","602110864497cf011d9c0822","0","j","NA","space","space","space","return","j","492","NA","2805","5738","3660","37241","492","2","legacy","1024","2","48000","-16","task","5206323","odd","NA","21417","26224","23419","207816","4223","13624","9964","208318","113370","207815","208318","207771","26224","208811","19847","207271","4205","204613","Lexical Decision Task","75","49671","87","yes","1024"
"3.276537627","9.15","5","trap","word","85.22727272727273","85.22727272727273","570.4772727272727","570.4772727272727","black","no","legacy","legacy","legacy","0","uniform","0","undefined","undefined","undefined","0","j","0","0","0","0","87","0","0","0","87","0","83","87","83","0","83","3","87","0","87","Wed Feb 17 10:29:42 2021","The main experiment item","yes","Lexical_Decision_Task.osexp","C:/Users/lu-cy","no","Andale Mono","no","18","no","white","no","yes","576","legacy","83","83","3","C:/Users/lu-cy/subject-5206323.csv","legacy","Lentiform Loewenfeld","3.3.7","yes","yes","600bd7cfb6416f0113b04181","602110864497cf011d9c0822","0","f","NA","space","space","space","return","f","531","NA","2805","5738","3660","37241","531","2","legacy","1024","2","48000","-16","task","5206323","odd","NA","21417","26224","23419","210388","4223","13624","9964","210890","113370","210386","210890","210340","26224","211422","19847","207271","4205","208839","Lexical Decision Task","75","50202","88","yes","1024"
"2.67699827","0","6","hulf","non-word","85.3932584269663","85.3932584269663","570.2247191011236","570.2247191011236","black","no","legacy","legacy","legacy","0","uniform","1","undefined","undefined","undefined","1","f","0","0","0","0","88","0","0","0","88","0","84","88","84","0","84","3","88","0","88","Wed Feb 17 10:29:42 2021","The main experiment item","yes","Lexical_Decision_Task.osexp","C:/Users/lu-cy","no","Andale Mono","no","18","no","white","no","yes","576","legacy","84","84","3","C:/Users/lu-cy/subject-5206323.csv","legacy","Lentiform Loewenfeld","3.3.7","yes","yes","600bd7cfb6416f0113b04181","602110864497cf011d9c0822","0","f","NA","space","space","space","return","f","548","NA","2805","5738","3660","37241","548","2","legacy","1024","2","48000","-16","task","5206323","odd","NA","21417","26224","23419","212977","4223","13624","9964","213479","113370","212976","213480","212929","26224","214028","19847","207271","4205","211429","Lexical Decision Task","76","50750","89","yes","1024"
"3.037294994","8.64","7","roof","word","85.55555555555556","85.55555555555556","569.1777777777778","569.1777777777778","black","no","legacy","legacy","legacy","0","uniform","1","undefined","undefined","undefined","1","j","0","0","0","0","89","0","0","0","89","0","85","89","85","0","85","3","89","0","89","Wed Feb 17 10:29:42 2021","The main experiment item","yes","Lexical_Decision_Task.osexp","C:/Users/lu-cy","no","Andale Mono","no","18","no","white","no","yes","576","legacy","85","85","3","C:/Users/lu-cy/subject-5206323.csv","legacy","Lentiform Loewenfeld","3.3.7","yes","yes","600bd7cfb6416f0113b04181","602110864497cf011d9c0822","0","j","NA","space","space","space","return","j","476","NA","2805","5738","3660","37241","476","2","legacy","1024","2","48000","-16","task","5206323","odd","NA","21417","26224","23419","214581","4223","13624","9964","215083","113370","214580","215083","214536","26224","215559","19847","214036","4205","211429","Lexical Decision Task","77","51226","90","yes","1024"
"3.492014979","0","9","yine","non-word","85.71428571428571","85.71428571428571","567.8351648351648","567.8351648351648","black","no","legacy","legacy","legacy","0","uniform","1","undefined","undefined","undefined","1","f","0","0","0","0","90","0","0","0","90","0","86","90","86","0","86","3","90","0","90","Wed Feb 17 10:29:42 2021","The main experiment item","yes","Lexical_Decision_Task.osexp","C:/Users/lu-cy","no","Andale Mono","no","18","no","white","no","yes","576","legacy","86","86","3","C:/Users/lu-cy/subject-5206323.csv","legacy","Lentiform Loewenfeld","3.3.7","yes","yes","600bd7cfb6416f0113b04181","602110864497cf011d9c0822","0","f","NA","space","space","space","return","f","447","NA","2805","5738","3660","37241","447","2","legacy","1024","2","48000","-16","task","5206323","odd","NA","21417","26224","23419","216111","4223","13624","9964","216613","113370","216109","216613","216066","26224","217061","19847","215566","4205","211429","Lexical Decision Task","78","51673","91","yes","1024"
"2.898725182","0","7","turl","non-word","85.8695652173913","85.8695652173913","568.9021739130435","568.9021739130435","black","no","legacy","legacy","legacy","0","uniform","1","undefined","undefined","undefined","1","f","0","0","0","0","91","0","0","0","91","0","87","91","87","0","87","3","91","0","91","Wed Feb 17 10:29:42 2021","The main experiment item","yes","Lexical_Decision_Task.osexp","C:/Users/lu-cy","no","Andale Mono","no","18","no","white","no","yes","576","legacy","87","87","3","C:/Users/lu-cy/subject-5206323.csv","legacy","Lentiform Loewenfeld","3.3.7","yes","yes","600bd7cfb6416f0113b04181","602110864497cf011d9c0822","0","f","NA","space","space","space","return","f","666","NA","2805","5738","3660","37241","666","2","legacy","1024","2","48000","-16","task","5206323","odd","NA","21417","26224","23419","217633","4223","13624","9964","218135","113370","217631","218135","217589","26224","218801","19847","217089","4205","211429","Lexical Decision Task","79","52339","92","yes","1024"
"2.746890964","9.67","3","plug","word","86.02150537634408","86.02150537634408","567.0215053763441","567.0215053763441","black","no","legacy","legacy","legacy","0","uniform","1","undefined","undefined","undefined","1","j","0","0","0","0","92","0","0","0","92","0","88","92","88","0","88","3","92","0","92","Wed Feb 17 10:29:42 2021","The main experiment item","yes","Lexical_Decision_Task.osexp","C:/Users/lu-cy","no","Andale Mono","no","18","no","white","no","yes","576","legacy","88","88","3","C:/Users/lu-cy/subject-5206323.csv","legacy","Lentiform Loewenfeld","3.3.7","yes","yes","600bd7cfb6416f0113b04181","602110864497cf011d9c0822","0","j","NA","space","space","space","return","j","394","NA","2805","5738","3660","37241","394","2","legacy","1024","2","48000","-16","task","5206323","odd","NA","21417","26224","23419","219374","4223","13624","9964","219876","113370","219373","219876","219329","26224","220271","19847","218829","4205","211429","Lexical Decision Task","80","52733","93","yes","1024"
"3.347850856","10.51","2","rich","word","86.17021276595744","86.17021276595744","567.8297872340426","567.8297872340426","black","no","legacy","legacy","legacy","0","uniform","1","undefined","undefined","undefined","1","j","0","0","0","0","93","0","0","0","93","0","89","93","89","0","89","3","93","0","93","Wed Feb 17 10:29:42 2021","The main experiment item","yes","Lexical_Decision_Task.osexp","C:/Users/lu-cy","no","Andale Mono","no","18","no","white","no","yes","576","legacy","89","89","3","C:/Users/lu-cy/subject-5206323.csv","legacy","Lentiform Loewenfeld","3.3.7","yes","yes","600bd7cfb6416f0113b04181","602110864497cf011d9c0822","0","j","NA","space","space","space","return","j","643","NA","2805","5738","3660","37241","643","2","legacy","1024","2","48000","-16","task","5206323","odd","NA","21417","26224","23419","220843","4223","13624","9964","221345","113370","220842","221345","220800","26224","221989","19847","220300","4205","211429","Lexical Decision Task","81","53376","94","yes","1024"
"3.481012421","8.34","5","teen","word","86.3157894736842","86.3157894736842","566.2","566.2","black","no","legacy","legacy","legacy","0","uniform","1","undefined","undefined","undefined","1","j","0","0","0","0","94","0","0","0","94","0","90","94","90","0","90","3","94","0","94","Wed Feb 17 10:29:42 2021","The main experiment item","yes","Lexical_Decision_Task.osexp","C:/Users/lu-cy","no","Andale Mono","no","18","no","white","no","yes","576","legacy","90","90","3","C:/Users/lu-cy/subject-5206323.csv","legacy","Lentiform Loewenfeld","3.3.7","yes","yes","600bd7cfb6416f0113b04181","602110864497cf011d9c0822","0","j","NA","space","space","space","return","j","413","NA","2805","5738","3660","37241","413","2","legacy","1024","2","48000","-16","task","5206323","odd","NA","21417","26224","23419","222560","4223","13624","9964","223061","113370","222559","223061","222517","26224","223475","19847","222017","4205","211429","Lexical Decision Task","82","53789","95","yes","1024"
"2.842815106","7.86","8","lump","word","86.45833333333333","86.45833333333333","565.0208333333334","565.0208333333334","black","no","legacy","legacy","legacy","0","uniform","1","undefined","undefined","undefined","1","j","0","0","0","0","95","0","0","0","95","0","91","95","91","0","91","3","95","0","95","Wed Feb 17 10:29:42 2021","The main experiment item","yes","Lexical_Decision_Task.osexp","C:/Users/lu-cy","no","Andale Mono","no","18","no","white","no","yes","576","legacy","91","91","3","C:/Users/lu-cy/subject-5206323.csv","legacy","Lentiform Loewenfeld","3.3.7","yes","yes","600bd7cfb6416f0113b04181","602110864497cf011d9c0822","0","j","NA","space","space","space","return","j","453","NA","2805","5738","3660","37241","453","2","legacy","1024","2","48000","-16","task","5206323","odd","NA","21417","26224","23419","224047","4223","13624","9964","224548","113370","224045","224548","224004","26224","225002","19847","223504","4205","211429","Lexical Decision Task","83","54242","96","yes","1024"
"2.893578687","8.69","3","surf","word","86.5979381443299","86.5979381443299","564.7319587628866","564.7319587628866","black","no","legacy","legacy","legacy","0","uniform","1","undefined","undefined","undefined","1","j","0","0","0","0","96","0","0","0","96","0","92","96","92","0","92","3","96","0","96","Wed Feb 17 10:29:42 2021","The main experiment item","yes","Lexical_Decision_Task.osexp","C:/Users/lu-cy","no","Andale Mono","no","18","no","white","no","yes","576","legacy","92","92","3","C:/Users/lu-cy/subject-5206323.csv","legacy","Lentiform Loewenfeld","3.3.7","yes","yes","600bd7cfb6416f0113b04181","602110864497cf011d9c0822","0","j","NA","space","space","space","return","j","537","NA","2805","5738","3660","37241","537","2","legacy","1024","2","48000","-16","task","5206323","odd","NA","21417","26224","23419","225554","4223","13624","9964","226056","113370","225553","226056","225509","26224","226595","19847","225009","4205","211429","Lexical Decision Task","84","54779","97","yes","1024"
"3.282244367","0","6","fute","non-word","85.71428571428571","85.71428571428571","562.6122448979592","562.6122448979592","black","no","legacy","legacy","legacy","0","uniform","0","undefined","undefined","undefined","0","f","0","0","0","0","97","0","0","0","97","0","93","97","93","0","93","3","97","0","97","Wed Feb 17 10:29:42 2021","The main experiment item","yes","Lexical_Decision_Task.osexp","C:/Users/lu-cy","no","Andale Mono","no","18","no","white","no","yes","576","legacy","93","93","3","C:/Users/lu-cy/subject-5206323.csv","legacy","Lentiform Loewenfeld","3.3.7","yes","yes","600bd7cfb6416f0113b04181","602110864497cf011d9c0822","0","j","NA","space","space","space","return","j","357","NA","2805","5738","3660","37241","357","2","legacy","1024","2","48000","-16","task","5206323","odd","NA","21417","26224","23419","227168","4223","13624","9964","227670","113370","227166","227670","227123","26224","228028","19847","226623","4205","211429","Lexical Decision Task","84","55136","98","yes","1024"
"3.102203805","7.21","3","drip","word","85.85858585858585","85.85858585858585","561.8787878787879","561.8787878787879","black","no","legacy","legacy","legacy","0","uniform","1","undefined","undefined","undefined","1","j","0","0","0","0","98","0","0","0","98","0","94","98","94","0","94","3","98","0","98","Wed Feb 17 10:29:42 2021","The main experiment item","yes","Lexical_Decision_Task.osexp","C:/Users/lu-cy","no","Andale Mono","no","18","no","white","no","yes","576","legacy","94","94","3","C:/Users/lu-cy/subject-5206323.csv","legacy","Lentiform Loewenfeld","3.3.7","yes","yes","600bd7cfb6416f0113b04181","602110864497cf011d9c0822","0","j","NA","space","space","space","return","j","490","NA","2805","5738","3660","37241","490","2","legacy","1024","2","48000","-16","task","5206323","odd","NA","21417","26224","23419","229605","4223","13624","9964","230108","113370","229604","230108","229557","26224","230598","19847","226623","4205","228057","Lexical Decision Task","85","55626","99","yes","1024"
"3.134602053","0","8","jart","non-word","86","86","561.23","561.23","black","no","legacy","legacy","legacy","0","uniform","1","undefined","undefined","undefined","1","f","0","0","0","0","99","0","0","0","99","0","95","99","95","0","95","3","99","0","99","Wed Feb 17 10:29:42 2021","The main experiment item","yes","Lexical_Decision_Task.osexp","C:/Users/lu-cy","no","Andale Mono","no","18","no","white","no","yes","576","legacy","95","95","3","C:/Users/lu-cy/subject-5206323.csv","legacy","Lentiform Loewenfeld","3.3.7","yes","yes","600bd7cfb6416f0113b04181","602110864497cf011d9c0822","0","f","NA","space","space","space","return","f","497","NA","2805","5738","3660","37241","497","2","legacy","1024","2","48000","-16","task","5206323","odd","NA","21417","26224","23419","231151","4223","13624","9964","231653","113370","231149","231653","231106","26224","232150","19847","230606","4205","228057","Lexical Decision Task","86","56123","100","yes","1024"
"2.880623071","0","9","curp","non-word","86.13861386138613","86.13861386138613","561.3762376237623","561.3762376237623","black","no","legacy","legacy","legacy","0","uniform","1","undefined","undefined","undefined","1","f","0","0","0","0","100","0","0","0","100","0","96","100","96","0","96","3","100","0","100","Wed Feb 17 10:29:42 2021","The main experiment item","yes","Lexical_Decision_Task.osexp","C:/Users/lu-cy","no","Andale Mono","no","18","no","white","no","yes","576","legacy","96","96","3","C:/Users/lu-cy/subject-5206323.csv","legacy","Lentiform Loewenfeld","3.3.7","yes","yes","600bd7cfb6416f0113b04181","602110864497cf011d9c0822","0","f","NA","space","space","space","return","f","576","NA","2805","5738","3660","37241","576","2","legacy","1024","2","48000","-16","task","5206323","odd","NA","21417","26224","23419","232725","4223","13624","9964","233227","113370","232724","233227","232679","26224","233804","19847","232179","4205","228057","Lexical Decision Task","87","56699","101","yes","1024"
"2.843025032","0","9","pusk","non-word","86.27450980392157","86.27450980392157","561.6470588235294","561.6470588235294","black","no","legacy","legacy","legacy","0","uniform","1","undefined","undefined","undefined","1","f","0","0","0","0","101","0","0","0","101","0","97","101","97","0","97","3","101","0","101","Wed Feb 17 10:29:42 2021","The main experiment item","yes","Lexical_Decision_Task.osexp","C:/Users/lu-cy","no","Andale Mono","no","18","no","white","no","yes","576","legacy","97","97","3","C:/Users/lu-cy/subject-5206323.csv","legacy","Lentiform Loewenfeld","3.3.7","yes","yes","600bd7cfb6416f0113b04181","602110864497cf011d9c0822","0","f","NA","space","space","space","return","f","589","NA","2805","5738","3660","37241","589","2","legacy","1024","2","48000","-16","task","5206323","odd","NA","21417","26224","23419","234376","4223","13624","9964","234878","113370","234375","234878","234332","26224","235468","19847","233832","4205","228057","Lexical Decision Task","88","57288","102","yes","1024"
"2.755364069","7.72","2","hoax","word","86.40776699029126","86.40776699029126","560.4757281553398","560.4757281553398","black","no","legacy","legacy","legacy","0","uniform","1","undefined","undefined","undefined","1","j","0","0","0","0","102","0","0","0","102","0","98","102","98","0","98","3","102","0","102","Wed Feb 17 10:29:42 2021","The main experiment item","yes","Lexical_Decision_Task.osexp","C:/Users/lu-cy","no","Andale Mono","no","18","no","white","no","yes","576","legacy","98","98","3","C:/Users/lu-cy/subject-5206323.csv","legacy","Lentiform Loewenfeld","3.3.7","yes","yes","600bd7cfb6416f0113b04181","602110864497cf011d9c0822","0","j","NA","space","space","space","return","j","441","NA","2805","5738","3660","37241","441","2","legacy","1024","2","48000","-16","task","5206323","odd","NA","21417","26224","23419","236042","4223","13624","9964","236544","113370","236041","236544","235997","26224","236985","19847","235497","4205","228057","Lexical Decision Task","89","57729","103","yes","1024"
