"Log_BG","Log_Freq_HAL","Ortho_N","Stimulus","Type","acc","accuracy","average_response_time","avg_rt","background","bidi","canvas_backend","clock_backend","color_backend","compensation","coordinates","correct","correct_Experimental_intro","correct_Introduction","correct_Practice_intro","correct_experimenter_kb","correct_response","count_End_Of_Experiment","count_End_Of_Practice","count_Experimental_Loop","count_Experimental_intro","count_Fixation","count_Introduction","count_Practice_Loop","count_Practice_intro","count_Stimulus","count_block_break_feedback","count_experimental_sequence","count_experimenter_kb","count_increment_trial_count","count_init_trial_count","count_logger","count_practice_sequence","count_right","count_task","count_wrong","datetime","description","disable_garbage_collection","experiment_file","experiment_path","font_bold","font_family","font_italic","font_size","font_underline","foreground","form_clicks","fullscreen","height","keyboard_backend","live_row","live_row_Experimental_Loop","live_row_Practice_Loop","logfile","mouse_backend","opensesame_codename","opensesame_version","osf_always_upload_data","osf_always_upload_experiment","osf_datanode_id","osf_id","repeat_cycle","response","response_End_Of_Experiment","response_Experimental_intro","response_Introduction","response_Practice_intro","response_block_break_feedback","response_experimenter_kb","response_time","response_time_End_Of_Experiment","response_time_Experimental_intro","response_time_Introduction","response_time_Practice_intro","response_time_block_break_feedback","response_time_experimenter_kb","round_decimals","sampler_backend","sound_buf_size","sound_channels","sound_freq","sound_sample_size","start","subject_nr","subject_parity","time_End_Of_Experiment","time_End_Of_Practice","time_Experimental_Loop","time_Experimental_intro","time_Fixation","time_Introduction","time_Practice_Loop","time_Practice_intro","time_Stimulus","time_block_break_feedback","time_experimental_sequence","time_experimenter_kb","time_increment_trial_count","time_init_trial_count","time_logger","time_practice_sequence","time_right","time_task","time_wrong","title","total_correct","total_response_time","total_responses","uniform_coordinates","width"
"2.695481676","0","7","goke","non-word","80","80","1169.6","1169.6","black","no","legacy","legacy","legacy","0","uniform","1","undefined","undefined","undefined","1","f","0","0","0","0","4","0","0","0","4","NA","0","4","0","0","0","3","4","0","4","Fri Feb 19 11:48:35 2021","The main experiment item","yes","Lexical_Decision_Task.osexp","/Users/Megan/Desktop","no","Andale Mono","no","18","no","white","no","yes","576","legacy","0","0","3","/Users/Megan/Desktop/subject-5207721.csv","legacy","Lentiform Loewenfeld","3.3.7","yes","yes","600bd7cfb6416f0113b04181","602110864497cf011d9c0822","0","f","NA","space","j","j","NA","f","1681","NA","4816","11981","5922","NA","1681","2","legacy","1024","2","48000","-16","task","5207721","odd","NA","31728","38548","33730","38579","4370","22285","16362","39081","NA","38576","39081","NA","38548","40764","29296","31198","4299","27743","Lexical Decision Task","4","5848","5","yes","1024"
"3.20871002","7.15","8","cram","word","83.33333333333333","83.33333333333333","1123.5","1123.5","black","no","legacy","legacy","legacy","0","uniform","1","undefined","undefined","undefined","1","j","0","0","0","0","5","0","0","0","5","NA","1","5","1","0","1","3","5","0","5","Fri Feb 19 11:48:35 2021","The main experiment item","yes","Lexical_Decision_Task.osexp","/Users/Megan/Desktop","no","Andale Mono","no","18","no","white","no","yes","576","legacy","1","1","3","/Users/Megan/Desktop/subject-5207721.csv","legacy","Lentiform Loewenfeld","3.3.7","yes","yes","600bd7cfb6416f0113b04181","602110864497cf011d9c0822","0","j","NA","space","j","j","NA","j","893","NA","4816","11981","5922","NA","893","2","legacy","1024","2","48000","-16","task","5207721","odd","NA","31728","38548","33730","41327","4370","22285","16362","41829","NA","41325","41829","41271","38548","42723","29296","40771","4299","27743","Lexical Decision Task","5","6741","6","yes","1024"
"3.031408464","0","7","drow","non-word","85.71428571428571","85.71428571428571","1105.142857142857","1105.142857142857","black","no","legacy","legacy","legacy","0","uniform","1","undefined","undefined","undefined","1","f","0","0","0","0","6","0","0","0","6","NA","2","6","2","0","2","3","6","0","6","Fri Feb 19 11:48:35 2021","The main experiment item","yes","Lexical_Decision_Task.osexp","/Users/Megan/Desktop","no","Andale Mono","no","18","no","white","no","yes","576","legacy","2","2","3","/Users/Megan/Desktop/subject-5207721.csv","legacy","Lentiform Loewenfeld","3.3.7","yes","yes","600bd7cfb6416f0113b04181","602110864497cf011d9c0822","0","f","NA","space","j","j","NA","f","995","NA","4816","11981","5922","NA","995","2","legacy","1024","2","48000","-16","task","5207721","odd","NA","31728","38548","33730","43281","4370","22285","16362","43783","NA","43279","43783","43227","38548","44780","29296","42727","4299","27743","Lexical Decision Task","6","7736","7","yes","1024"
"3.049218023","7.4","9","robe","word","87.5","87.5","1064","1064","black","no","legacy","legacy","legacy","0","uniform","1","undefined","undefined","undefined","1","j","0","0","0","0","7","0","0","0","7","NA","3","7","3","0","3","3","7","0","7","Fri Feb 19 11:48:35 2021","The main experiment item","yes","Lexical_Decision_Task.osexp","/Users/Megan/Desktop","no","Andale Mono","no","18","no","white","no","yes","576","legacy","3","3","3","/Users/Megan/Desktop/subject-5207721.csv","legacy","Lentiform Loewenfeld","3.3.7","yes","yes","600bd7cfb6416f0113b04181","602110864497cf011d9c0822","0","j","NA","space","j","j","NA","j","776","NA","4816","11981","5922","NA","776","2","legacy","1024","2","48000","-16","task","5207721","odd","NA","31728","38548","33730","45341","4370","22285","16362","45843","NA","45338","45843","45284","38548","46620","29296","44784","4299","27743","Lexical Decision Task","7","8512","8","yes","1024"
"2.937852093","0","7","bamp","non-word","88.88888888888889","88.88888888888889","1076.5555555555557","1076.5555555555557","black","no","legacy","legacy","legacy","0","uniform","1","undefined","undefined","undefined","1","f","0","0","0","0","8","0","0","0","8","NA","4","8","4","0","4","3","8","0","8","Fri Feb 19 11:48:35 2021","The main experiment item","yes","Lexical_Decision_Task.osexp","/Users/Megan/Desktop","no","Andale Mono","no","18","no","white","no","yes","576","legacy","4","4","3","/Users/Megan/Desktop/subject-5207721.csv","legacy","Lentiform Loewenfeld","3.3.7","yes","yes","600bd7cfb6416f0113b04181","602110864497cf011d9c0822","0","f","NA","space","j","j","NA","f","1177","NA","4816","11981","5922","NA","1177","2","legacy","1024","2","48000","-16","task","5207721","odd","NA","31728","38548","33730","47180","4370","22285","16362","47682","NA","47177","47682","47124","38548","48860","29296","46623","4299","27743","Lexical Decision Task","8","9689","9","yes","1024"
"2.778633532","0","3","jurp","non-word","80","80","1052.9","1052.9","black","no","legacy","legacy","legacy","0","uniform","0","undefined","undefined","undefined","0","f","0","0","0","0","9","0","0","0","9","NA","5","9","5","0","5","3","9","0","9","Fri Feb 19 11:48:35 2021","The main experiment item","yes","Lexical_Decision_Task.osexp","/Users/Megan/Desktop","no","Andale Mono","no","18","no","white","no","yes","576","legacy","5","5","3","/Users/Megan/Desktop/subject-5207721.csv","legacy","Lentiform Loewenfeld","3.3.7","yes","yes","600bd7cfb6416f0113b04181","602110864497cf011d9c0822","0","j","NA","space","j","j","NA","j","840","NA","4816","11981","5922","NA","840","2","legacy","1024","2","48000","-16","task","5207721","odd","NA","31728","38548","33730","49421","4370","22285","16362","49923","NA","49418","49923","49364","38548","50764","29296","48864","4299","27743","Lexical Decision Task","8","10529","10","yes","1024"
"2.875447132","0","9","jelt","non-word","81.81818181818181","81.81818181818181","1117","1117","black","no","legacy","legacy","legacy","0","uniform","1","undefined","undefined","undefined","1","f","0","0","0","0","10","0","0","0","10","NA","6","10","6","0","6","3","10","0","10","Fri Feb 19 11:48:35 2021","The main experiment item","yes","Lexical_Decision_Task.osexp","/Users/Megan/Desktop","no","Andale Mono","no","18","no","white","no","yes","576","legacy","6","6","3","/Users/Megan/Desktop/subject-5207721.csv","legacy","Lentiform Loewenfeld","3.3.7","yes","yes","600bd7cfb6416f0113b04181","602110864497cf011d9c0822","0","f","NA","space","j","j","NA","f","1758","NA","4816","11981","5922","NA","1758","2","legacy","1024","2","48000","-16","task","5207721","odd","NA","31728","38548","33730","52324","4370","22285","16362","52828","NA","52322","52828","52268","38548","54588","29296","48864","4299","50768","Lexical Decision Task","9","12287","11","yes","1024"
"2.813801082","5.47","7","nook","word","83.33333333333333","83.33333333333333","1093.9166666666667","1093.9166666666667","black","no","legacy","legacy","legacy","0","uniform","1","undefined","undefined","undefined","1","j","0","0","0","0","11","0","0","0","11","NA","7","11","7","0","7","3","11","0","11","Fri Feb 19 11:48:35 2021","The main experiment item","yes","Lexical_Decision_Task.osexp","/Users/Megan/Desktop","no","Andale Mono","no","18","no","white","no","yes","576","legacy","7","7","3","/Users/Megan/Desktop/subject-5207721.csv","legacy","Lentiform Loewenfeld","3.3.7","yes","yes","600bd7cfb6416f0113b04181","602110864497cf011d9c0822","0","j","NA","space","j","j","NA","j","840","NA","4816","11981","5922","NA","840","2","legacy","1024","2","48000","-16","task","5207721","odd","NA","31728","38548","33730","55149","4370","22285","16362","55651","NA","55146","55651","55092","38548","56492","29296","54591","4299","50768","Lexical Decision Task","10","13127","12","yes","1024"
"2.767650507","0","6","yolt","non-word","84.61538461538461","84.61538461538461","1109.6923076923076","1109.6923076923076","black","no","legacy","legacy","legacy","0","uniform","1","undefined","undefined","undefined","1","f","0","0","0","0","12","0","0","0","12","NA","8","12","8","0","8","3","12","0","12","Fri Feb 19 11:48:35 2021","The main experiment item","yes","Lexical_Decision_Task.osexp","/Users/Megan/Desktop","no","Andale Mono","no","18","no","white","no","yes","576","legacy","8","8","3","/Users/Megan/Desktop/subject-5207721.csv","legacy","Lentiform Loewenfeld","3.3.7","yes","yes","600bd7cfb6416f0113b04181","602110864497cf011d9c0822","0","f","NA","space","j","j","NA","f","1299","NA","4816","11981","5922","NA","1299","2","legacy","1024","2","48000","-16","task","5207721","odd","NA","31728","38548","33730","57050","4370","22285","16362","57552","NA","57047","57552","56996","38548","58852","29296","56495","4299","50768","Lexical Decision Task","11","14426","13","yes","1024"
"3.028977705","0","7","frow","non-word","85.71428571428571","85.71428571428571","1153","1153","black","no","legacy","legacy","legacy","0","uniform","1","undefined","undefined","undefined","1","f","0","0","0","0","13","0","0","0","13","NA","9","13","9","0","9","3","13","0","13","Fri Feb 19 11:48:35 2021","The main experiment item","yes","Lexical_Decision_Task.osexp","/Users/Megan/Desktop","no","Andale Mono","no","18","no","white","no","yes","576","legacy","9","9","3","/Users/Megan/Desktop/subject-5207721.csv","legacy","Lentiform Loewenfeld","3.3.7","yes","yes","600bd7cfb6416f0113b04181","602110864497cf011d9c0822","0","f","NA","space","j","j","NA","f","1716","NA","4816","11981","5922","NA","1716","2","legacy","1024","2","48000","-16","task","5207721","odd","NA","31728","38548","33730","59415","4370","22285","16362","59918","NA","59413","59918","59358","38548","61636","29296","58858","4299","50768","Lexical Decision Task","12","16142","14","yes","1024"
"2.980911938","7.15","7","hoop","word","86.66666666666667","86.66666666666667","1122.7333333333333","1122.7333333333333","black","no","legacy","legacy","legacy","0","uniform","1","undefined","undefined","undefined","1","j","0","0","0","0","14","0","0","0","14","NA","10","14","10","0","10","3","14","0","14","Fri Feb 19 11:48:35 2021","The main experiment item","yes","Lexical_Decision_Task.osexp","/Users/Megan/Desktop","no","Andale Mono","no","18","no","white","no","yes","576","legacy","10","10","3","/Users/Megan/Desktop/subject-5207721.csv","legacy","Lentiform Loewenfeld","3.3.7","yes","yes","600bd7cfb6416f0113b04181","602110864497cf011d9c0822","0","j","NA","space","j","j","NA","j","699","NA","4816","11981","5922","NA","699","2","legacy","1024","2","48000","-16","task","5207721","odd","NA","31728","38548","33730","62193","4370","22285","16362","62696","NA","62191","62696","62139","38548","63396","29296","61639","4299","50768","Lexical Decision Task","13","16841","15","yes","1024"
"3.120025233","0","2","nyst","non-word","87.5","87.5","1104.5625","1104.5625","black","no","legacy","legacy","legacy","0","uniform","1","undefined","undefined","undefined","1","f","0","0","0","0","15","0","0","0","15","NA","11","15","11","0","11","3","15","0","15","Fri Feb 19 11:48:35 2021","The main experiment item","yes","Lexical_Decision_Task.osexp","/Users/Megan/Desktop","no","Andale Mono","no","18","no","white","no","yes","576","legacy","11","11","3","/Users/Megan/Desktop/subject-5207721.csv","legacy","Lentiform Loewenfeld","3.3.7","yes","yes","600bd7cfb6416f0113b04181","602110864497cf011d9c0822","0","f","NA","space","j","j","NA","f","832","NA","4816","11981","5922","NA","832","2","legacy","1024","2","48000","-16","task","5207721","odd","NA","31728","38548","33730","63956","4370","22285","16362","64458","NA","63953","64458","63900","38548","65291","29296","63399","4299","50768","Lexical Decision Task","14","17673","16","yes","1024"
"3.230789326","5.38","5","prim","word","82.3529411764706","82.3529411764706","1116.9411764705883","1116.9411764705883","black","no","legacy","legacy","legacy","0","uniform","0","undefined","undefined","undefined","0","j","0","0","0","0","16","0","0","0","16","NA","12","16","12","0","12","3","16","0","16","Fri Feb 19 11:48:35 2021","The main experiment item","yes","Lexical_Decision_Task.osexp","/Users/Megan/Desktop","no","Andale Mono","no","18","no","white","no","yes","576","legacy","12","12","3","/Users/Megan/Desktop/subject-5207721.csv","legacy","Lentiform Loewenfeld","3.3.7","yes","yes","600bd7cfb6416f0113b04181","602110864497cf011d9c0822","0","f","NA","space","j","j","NA","f","1315","NA","4816","11981","5922","NA","1315","2","legacy","1024","2","48000","-16","task","5207721","odd","NA","31728","38548","33730","65849","4370","22285","16362","66350","NA","65847","66351","65795","38548","67667","29296","65295","4299","50768","Lexical Decision Task","14","18988","17","yes","1024"
"3.347850856","10.51","2","rich","word","83.33333333333333","83.33333333333333","1088.1666666666667","1088.1666666666667","black","no","legacy","legacy","legacy","0","uniform","1","undefined","undefined","undefined","1","j","0","0","0","0","17","0","0","0","17","NA","13","17","13","0","13","3","17","0","17","Fri Feb 19 11:48:35 2021","The main experiment item","yes","Lexical_Decision_Task.osexp","/Users/Megan/Desktop","no","Andale Mono","no","18","no","white","no","yes","576","legacy","13","13","3","/Users/Megan/Desktop/subject-5207721.csv","legacy","Lentiform Loewenfeld","3.3.7","yes","yes","600bd7cfb6416f0113b04181","602110864497cf011d9c0822","0","j","NA","space","j","j","NA","j","599","NA","4816","11981","5922","NA","599","2","legacy","1024","2","48000","-16","task","5207721","odd","NA","31728","38548","33730","69229","4370","22285","16362","69731","NA","69226","69731","69171","38548","70332","29296","65295","4299","67671","Lexical Decision Task","15","19587","18","yes","1024"
"3.269668578","0","7","trag","non-word","84.21052631578948","84.21052631578948","1091.4736842105262","1091.4736842105262","black","no","legacy","legacy","legacy","0","uniform","1","undefined","undefined","undefined","1","f","0","0","0","0","18","0","0","0","18","NA","14","18","14","0","14","3","18","0","18","Fri Feb 19 11:48:35 2021","The main experiment item","yes","Lexical_Decision_Task.osexp","/Users/Megan/Desktop","no","Andale Mono","no","18","no","white","no","yes","576","legacy","14","14","3","/Users/Megan/Desktop/subject-5207721.csv","legacy","Lentiform Loewenfeld","3.3.7","yes","yes","600bd7cfb6416f0113b04181","602110864497cf011d9c0822","0","f","NA","space","j","j","NA","f","1151","NA","4816","11981","5922","NA","1151","2","legacy","1024","2","48000","-16","task","5207721","odd","NA","31728","38548","33730","70893","4370","22285","16362","71395","NA","70891","71395","70836","38548","72548","29296","70335","4299","67671","Lexical Decision Task","16","20738","19","yes","1024"
"3.131833513","7.66","4","limb","word","85","85","1097.65","1097.65","black","no","legacy","legacy","legacy","0","uniform","1","undefined","undefined","undefined","1","j","0","0","0","0","19","0","0","0","19","NA","15","19","15","0","15","3","19","0","19","Fri Feb 19 11:48:35 2021","The main experiment item","yes","Lexical_Decision_Task.osexp","/Users/Megan/Desktop","no","Andale Mono","no","18","no","white","no","yes","576","legacy","15","15","3","/Users/Megan/Desktop/subject-5207721.csv","legacy","Lentiform Loewenfeld","3.3.7","yes","yes","600bd7cfb6416f0113b04181","602110864497cf011d9c0822","0","j","NA","space","j","j","NA","j","1215","NA","4816","11981","5922","NA","1215","2","legacy","1024","2","48000","-16","task","5207721","odd","NA","31728","38548","33730","73109","4370","22285","16362","73611","NA","73107","73611","73052","38548","74828","29296","72551","4299","67671","Lexical Decision Task","17","21953","20","yes","1024"
"2.68604012","0","4","pumb","non-word","85.71428571428571","85.71428571428571","1173.8095238095239","1173.8095238095239","black","no","legacy","legacy","legacy","0","uniform","1","undefined","undefined","undefined","1","f","0","0","0","0","20","0","0","0","20","NA","16","20","16","0","16","3","20","0","20","Fri Feb 19 11:48:35 2021","The main experiment item","yes","Lexical_Decision_Task.osexp","/Users/Megan/Desktop","no","Andale Mono","no","18","no","white","no","yes","576","legacy","16","16","3","/Users/Megan/Desktop/subject-5207721.csv","legacy","Lentiform Loewenfeld","3.3.7","yes","yes","600bd7cfb6416f0113b04181","602110864497cf011d9c0822","0","f","NA","space","j","j","NA","f","2697","NA","4816","11981","5922","NA","2697","2","legacy","1024","2","48000","-16","task","5207721","odd","NA","31728","38548","33730","75388","4370","22285","16362","75890","NA","75385","75890","75333","38548","78588","29296","74832","4299","67671","Lexical Decision Task","18","24650","21","yes","1024"
"3.168890155","0","6","thet","non-word","86.36363636363636","86.36363636363636","1173.590909090909","1173.590909090909","black","no","legacy","legacy","legacy","0","uniform","1","undefined","undefined","undefined","1","f","0","0","0","0","21","0","0","0","21","NA","17","21","17","0","17","3","21","0","21","Fri Feb 19 11:48:35 2021","The main experiment item","yes","Lexical_Decision_Task.osexp","/Users/Megan/Desktop","no","Andale Mono","no","18","no","white","no","yes","576","legacy","17","17","3","/Users/Megan/Desktop/subject-5207721.csv","legacy","Lentiform Loewenfeld","3.3.7","yes","yes","600bd7cfb6416f0113b04181","602110864497cf011d9c0822","0","f","NA","space","j","j","NA","f","1169","NA","4816","11981","5922","NA","1169","2","legacy","1024","2","48000","-16","task","5207721","odd","NA","31728","38548","33730","79147","4370","22285","16362","79650","NA","79144","79650","79092","38548","80821","29296","78592","4299","67671","Lexical Decision Task","19","25819","22","yes","1024"
"3.488597715","0","9","nain","non-word","86.95652173913044","86.95652173913044","1174.4347826086957","1174.4347826086957","black","no","legacy","legacy","legacy","0","uniform","1","undefined","undefined","undefined","1","f","0","0","0","0","22","0","0","0","22","NA","18","22","18","0","18","3","22","0","22","Fri Feb 19 11:48:35 2021","The main experiment item","yes","Lexical_Decision_Task.osexp","/Users/Megan/Desktop","no","Andale Mono","no","18","no","white","no","yes","576","legacy","18","18","3","/Users/Megan/Desktop/subject-5207721.csv","legacy","Lentiform Loewenfeld","3.3.7","yes","yes","600bd7cfb6416f0113b04181","602110864497cf011d9c0822","0","f","NA","space","j","j","NA","f","1193","NA","4816","11981","5922","NA","1193","2","legacy","1024","2","48000","-16","task","5207721","odd","NA","31728","38548","33730","81380","4370","22285","16362","81883","NA","81378","81883","81325","38548","83078","29296","80825","4299","67671","Lexical Decision Task","20","27012","23","yes","1024"
"2.86332286","6.71","2","feud","word","87.5","87.5","1157.125","1157.125","black","no","legacy","legacy","legacy","0","uniform","1","undefined","undefined","undefined","1","j","0","0","0","0","23","0","0","0","23","NA","19","23","19","0","19","3","23","0","23","Fri Feb 19 11:48:35 2021","The main experiment item","yes","Lexical_Decision_Task.osexp","/Users/Megan/Desktop","no","Andale Mono","no","18","no","white","no","yes","576","legacy","19","19","3","/Users/Megan/Desktop/subject-5207721.csv","legacy","Lentiform Loewenfeld","3.3.7","yes","yes","600bd7cfb6416f0113b04181","602110864497cf011d9c0822","0","j","NA","space","j","j","NA","j","759","NA","4816","11981","5922","NA","759","2","legacy","1024","2","48000","-16","task","5207721","odd","NA","31728","38548","33730","83639","4370","22285","16362","84141","NA","83636","84141","83582","38548","84901","29296","83082","4299","67671","Lexical Decision Task","21","27771","24","yes","1024"
"2.807758206","6.25","4","hurl","word","88","88","1155.96","1155.96","black","no","legacy","legacy","legacy","0","uniform","1","undefined","undefined","undefined","1","j","0","0","0","0","24","0","0","0","24","NA","20","24","20","0","20","3","24","0","24","Fri Feb 19 11:48:35 2021","The main experiment item","yes","Lexical_Decision_Task.osexp","/Users/Megan/Desktop","no","Andale Mono","no","18","no","white","no","yes","576","legacy","20","20","3","/Users/Megan/Desktop/subject-5207721.csv","legacy","Lentiform Loewenfeld","3.3.7","yes","yes","600bd7cfb6416f0113b04181","602110864497cf011d9c0822","0","j","NA","space","j","j","NA","j","1128","NA","4816","11981","5922","NA","1128","2","legacy","1024","2","48000","-16","task","5207721","odd","NA","31728","38548","33730","85461","4370","22285","16362","85963","NA","85459","85963","85405","38548","87092","29296","84905","4299","67671","Lexical Decision Task","22","28899","25","yes","1024"
"3.037294994","8.64","7","roof","word","88.46153846153847","88.46153846153847","1135.576923076923","1135.576923076923","black","no","legacy","legacy","legacy","0","uniform","1","undefined","undefined","undefined","1","j","0","0","0","0","25","0","0","0","25","NA","21","25","21","0","21","3","25","0","25","Fri Feb 19 11:48:35 2021","The main experiment item","yes","Lexical_Decision_Task.osexp","/Users/Megan/Desktop","no","Andale Mono","no","18","no","white","no","yes","576","legacy","21","21","3","/Users/Megan/Desktop/subject-5207721.csv","legacy","Lentiform Loewenfeld","3.3.7","yes","yes","600bd7cfb6416f0113b04181","602110864497cf011d9c0822","0","j","NA","space","j","j","NA","j","626","NA","4816","11981","5922","NA","626","2","legacy","1024","2","48000","-16","task","5207721","odd","NA","31728","38548","33730","87652","4370","22285","16362","88154","NA","87650","88154","87596","38548","88782","29296","87096","4299","67671","Lexical Decision Task","23","29525","26","yes","1024"
"3.495914186","0","4","peng","non-word","85.18518518518519","85.18518518518519","1114.851851851852","1114.851851851852","black","no","legacy","legacy","legacy","0","uniform","0","undefined","undefined","undefined","0","f","0","0","0","0","26","0","0","0","26","NA","22","26","22","0","22","3","26","0","26","Fri Feb 19 11:48:35 2021","The main experiment item","yes","Lexical_Decision_Task.osexp","/Users/Megan/Desktop","no","Andale Mono","no","18","no","white","no","yes","576","legacy","22","22","3","/Users/Megan/Desktop/subject-5207721.csv","legacy","Lentiform Loewenfeld","3.3.7","yes","yes","600bd7cfb6416f0113b04181","602110864497cf011d9c0822","0","j","NA","space","j","j","NA","j","576","NA","4816","11981","5922","NA","576","2","legacy","1024","2","48000","-16","task","5207721","odd","NA","31728","38548","33730","89342","4370","22285","16362","89844","NA","89340","89844","89286","38548","90421","29296","88786","4299","67671","Lexical Decision Task","23","30101","27","yes","1024"
"3.195807436","0","6","stup","non-word","85.71428571428571","85.71428571428571","1142.8214285714287","1142.8214285714287","black","no","legacy","legacy","legacy","0","uniform","1","undefined","undefined","undefined","1","f","0","0","0","0","27","0","0","0","27","NA","23","27","23","0","23","3","27","0","27","Fri Feb 19 11:48:35 2021","The main experiment item","yes","Lexical_Decision_Task.osexp","/Users/Megan/Desktop","no","Andale Mono","no","18","no","white","no","yes","576","legacy","23","23","3","/Users/Megan/Desktop/subject-5207721.csv","legacy","Lentiform Loewenfeld","3.3.7","yes","yes","600bd7cfb6416f0113b04181","602110864497cf011d9c0822","0","f","NA","space","j","j","NA","f","1898","NA","4816","11981","5922","NA","1898","2","legacy","1024","2","48000","-16","task","5207721","odd","NA","31728","38548","33730","91979","4370","22285","16362","92482","NA","91977","92482","91925","38548","94381","29296","88786","4299","90425","Lexical Decision Task","24","31999","28","yes","1024"
"3.082307743","9.68","8","camp","word","86.20689655172414","86.20689655172414","1140.9655172413793","1140.9655172413793","black","no","legacy","legacy","legacy","0","uniform","1","undefined","undefined","undefined","1","j","0","0","0","0","28","0","0","0","28","NA","24","28","24","0","24","3","28","0","28","Fri Feb 19 11:48:35 2021","The main experiment item","yes","Lexical_Decision_Task.osexp","/Users/Megan/Desktop","no","Andale Mono","no","18","no","white","no","yes","576","legacy","24","24","3","/Users/Megan/Desktop/subject-5207721.csv","legacy","Lentiform Loewenfeld","3.3.7","yes","yes","600bd7cfb6416f0113b04181","602110864497cf011d9c0822","0","j","NA","space","j","j","NA","j","1089","NA","4816","11981","5922","NA","1089","2","legacy","1024","2","48000","-16","task","5207721","odd","NA","31728","38548","33730","94939","4370","22285","16362","95442","NA","94937","95442","94885","38548","96533","29296","94385","4299","90425","Lexical Decision Task","25","33088","29","yes","1024"
"2.719886232","7.98","2","quiz","word","86.66666666666667","86.66666666666667","1133.1333333333334","1133.1333333333334","black","no","legacy","legacy","legacy","0","uniform","1","undefined","undefined","undefined","1","j","0","0","0","0","29","0","0","0","29","NA","25","29","25","0","25","3","29","0","29","Fri Feb 19 11:48:35 2021","The main experiment item","yes","Lexical_Decision_Task.osexp","/Users/Megan/Desktop","no","Andale Mono","no","18","no","white","no","yes","576","legacy","25","25","3","/Users/Megan/Desktop/subject-5207721.csv","legacy","Lentiform Loewenfeld","3.3.7","yes","yes","600bd7cfb6416f0113b04181","602110864497cf011d9c0822","0","j","NA","space","j","j","NA","j","906","NA","4816","11981","5922","NA","906","2","legacy","1024","2","48000","-16","task","5207721","odd","NA","31728","38548","33730","97091","4370","22285","16362","97594","NA","97089","97594","97037","38548","98501","29296","96536","4299","90425","Lexical Decision Task","26","33994","30","yes","1024"
"3.443783828","7.65","3","verb","word","87.09677419354838","87.09677419354838","1127.3548387096773","1127.3548387096773","black","no","legacy","legacy","legacy","0","uniform","1","undefined","undefined","undefined","1","j","0","0","0","0","30","0","0","0","30","NA","26","30","26","0","26","3","30","0","30","Fri Feb 19 11:48:35 2021","The main experiment item","yes","Lexical_Decision_Task.osexp","/Users/Megan/Desktop","no","Andale Mono","no","18","no","white","no","yes","576","legacy","26","26","3","/Users/Megan/Desktop/subject-5207721.csv","legacy","Lentiform Loewenfeld","3.3.7","yes","yes","600bd7cfb6416f0113b04181","602110864497cf011d9c0822","0","j","NA","space","j","j","NA","j","954","NA","4816","11981","5922","NA","954","2","legacy","1024","2","48000","-16","task","5207721","odd","NA","31728","38548","33730","99059","4370","22285","16362","99561","NA","99056","99561","99005","38548","100517","29296","98505","4299","90425","Lexical Decision Task","27","34948","31","yes","1024"
"3.081107167","0","6","chot","non-word","87.5","87.5","1129.1875","1129.1875","black","no","legacy","legacy","legacy","0","uniform","1","undefined","undefined","undefined","1","f","0","0","0","0","31","0","0","0","31","NA","27","31","27","0","27","3","31","0","31","Fri Feb 19 11:48:35 2021","The main experiment item","yes","Lexical_Decision_Task.osexp","/Users/Megan/Desktop","no","Andale Mono","no","18","no","white","no","yes","576","legacy","27","27","3","/Users/Megan/Desktop/subject-5207721.csv","legacy","Lentiform Loewenfeld","3.3.7","yes","yes","600bd7cfb6416f0113b04181","602110864497cf011d9c0822","0","f","NA","space","j","j","NA","f","1186","NA","4816","11981","5922","NA","1186","2","legacy","1024","2","48000","-16","task","5207721","odd","NA","31728","38548","33730","101075","4370","22285","16362","101577","NA","101073","101577","101021","38548","102765","29296","100521","4299","90425","Lexical Decision Task","28","36134","32","yes","1024"
"3.302475237","0","7","leel","non-word","87.87878787878788","87.87878787878788","1127.4848484848485","1127.4848484848485","black","no","legacy","legacy","legacy","0","uniform","1","undefined","undefined","undefined","1","f","0","0","0","0","32","0","0","0","32","NA","28","32","28","0","28","3","32","0","32","Fri Feb 19 11:48:35 2021","The main experiment item","yes","Lexical_Decision_Task.osexp","/Users/Megan/Desktop","no","Andale Mono","no","18","no","white","no","yes","576","legacy","28","28","3","/Users/Megan/Desktop/subject-5207721.csv","legacy","Lentiform Loewenfeld","3.3.7","yes","yes","600bd7cfb6416f0113b04181","602110864497cf011d9c0822","0","f","NA","space","j","j","NA","f","1073","NA","4816","11981","5922","NA","1073","2","legacy","1024","2","48000","-16","task","5207721","odd","NA","31728","38548","33730","103323","4370","22285","16362","103826","NA","103320","103826","103269","38548","104901","29296","102769","4299","90425","Lexical Decision Task","29","37207","33","yes","1024"
"3.366547468","0","6","plat","non-word","88.23529411764706","88.23529411764706","1150.6470588235295","1150.6470588235295","black","no","legacy","legacy","legacy","0","uniform","1","undefined","undefined","undefined","1","f","0","0","0","0","33","0","0","0","33","NA","29","33","29","0","29","3","33","0","33","Fri Feb 19 11:48:35 2021","The main experiment item","yes","Lexical_Decision_Task.osexp","/Users/Megan/Desktop","no","Andale Mono","no","18","no","white","no","yes","576","legacy","29","29","3","/Users/Megan/Desktop/subject-5207721.csv","legacy","Lentiform Loewenfeld","3.3.7","yes","yes","600bd7cfb6416f0113b04181","602110864497cf011d9c0822","0","f","NA","space","j","j","NA","f","1915","NA","4816","11981","5922","NA","1915","2","legacy","1024","2","48000","-16","task","5207721","odd","NA","31728","38548","33730","105459","4370","22285","16362","105961","NA","105456","105961","105405","38548","107877","29296","104905","4299","90425","Lexical Decision Task","30","39122","34","yes","1024"
"2.705007959","6.01","4","wept","word","88.57142857142857","88.57142857142857","1168.8285714285714","1168.8285714285714","black","no","legacy","legacy","legacy","0","uniform","1","undefined","undefined","undefined","1","j","0","0","0","0","34","0","0","0","34","NA","30","34","30","0","30","3","34","0","34","Fri Feb 19 11:48:35 2021","The main experiment item","yes","Lexical_Decision_Task.osexp","/Users/Megan/Desktop","no","Andale Mono","no","18","no","white","no","yes","576","legacy","30","30","3","/Users/Megan/Desktop/subject-5207721.csv","legacy","Lentiform Loewenfeld","3.3.7","yes","yes","600bd7cfb6416f0113b04181","602110864497cf011d9c0822","0","j","NA","space","j","j","NA","j","1787","NA","4816","11981","5922","NA","1787","2","legacy","1024","2","48000","-16","task","5207721","odd","NA","31728","38548","33730","108434","4370","22285","16362","108936","NA","108432","108936","108381","38548","110725","29296","107881","4299","90425","Lexical Decision Task","31","40909","35","yes","1024"
"3.374137706","10.21","4","tree","word","88.88888888888889","88.88888888888889","1151.7777777777778","1151.7777777777778","black","no","legacy","legacy","legacy","0","uniform","1","undefined","undefined","undefined","1","j","0","0","0","0","35","0","0","0","35","NA","31","35","31","0","31","3","35","0","35","Fri Feb 19 11:48:35 2021","The main experiment item","yes","Lexical_Decision_Task.osexp","/Users/Megan/Desktop","no","Andale Mono","no","18","no","white","no","yes","576","legacy","31","31","3","/Users/Megan/Desktop/subject-5207721.csv","legacy","Lentiform Loewenfeld","3.3.7","yes","yes","600bd7cfb6416f0113b04181","602110864497cf011d9c0822","0","j","NA","space","j","j","NA","j","555","NA","4816","11981","5922","NA","555","2","legacy","1024","2","48000","-16","task","5207721","odd","NA","31728","38548","33730","111283","4370","22285","16362","111785","NA","111280","111785","111229","38548","112341","29296","110729","4299","90425","Lexical Decision Task","32","41464","36","yes","1024"
"3.307211407","6.07","7","honk","word","89.1891891891892","89.1891891891892","1142.081081081081","1142.081081081081","black","no","legacy","legacy","legacy","0","uniform","1","undefined","undefined","undefined","1","j","0","0","0","0","36","0","0","0","36","NA","32","36","32","0","32","3","36","0","36","Fri Feb 19 11:48:35 2021","The main experiment item","yes","Lexical_Decision_Task.osexp","/Users/Megan/Desktop","no","Andale Mono","no","18","no","white","no","yes","576","legacy","32","32","3","/Users/Megan/Desktop/subject-5207721.csv","legacy","Lentiform Loewenfeld","3.3.7","yes","yes","600bd7cfb6416f0113b04181","602110864497cf011d9c0822","0","j","NA","space","j","j","NA","j","793","NA","4816","11981","5922","NA","793","2","legacy","1024","2","48000","-16","task","5207721","odd","NA","31728","38548","33730","112899","4370","22285","16362","113402","NA","112896","113402","112845","38548","114197","29296","112345","4299","90425","Lexical Decision Task","33","42257","37","yes","1024"
"3.216517684","10.87","3","film","word","89.47368421052632","89.47368421052632","1139.8947368421052","1139.8947368421052","black","no","legacy","legacy","legacy","0","uniform","1","undefined","undefined","undefined","1","j","0","0","0","0","37","0","0","0","37","NA","33","37","33","0","33","3","37","0","37","Fri Feb 19 11:48:35 2021","The main experiment item","yes","Lexical_Decision_Task.osexp","/Users/Megan/Desktop","no","Andale Mono","no","18","no","white","no","yes","576","legacy","33","33","3","/Users/Megan/Desktop/subject-5207721.csv","legacy","Lentiform Loewenfeld","3.3.7","yes","yes","600bd7cfb6416f0113b04181","602110864497cf011d9c0822","0","j","NA","space","j","j","NA","j","1059","NA","4816","11981","5922","NA","1059","2","legacy","1024","2","48000","-16","task","5207721","odd","NA","31728","38548","33730","114755","4370","22285","16362","115257","NA","114752","115257","114701","38548","116317","29296","114201","4299","90425","Lexical Decision Task","34","43316","38","yes","1024"
"3.066077331","0","7","vorn","non-word","89.74358974358974","89.74358974358974","1131.948717948718","1131.948717948718","black","no","legacy","legacy","legacy","0","uniform","1","undefined","undefined","undefined","1","f","0","0","0","0","38","0","0","0","38","NA","34","38","34","0","34","3","38","0","38","Fri Feb 19 11:48:35 2021","The main experiment item","yes","Lexical_Decision_Task.osexp","/Users/Megan/Desktop","no","Andale Mono","no","18","no","white","no","yes","576","legacy","34","34","3","/Users/Megan/Desktop/subject-5207721.csv","legacy","Lentiform Loewenfeld","3.3.7","yes","yes","600bd7cfb6416f0113b04181","602110864497cf011d9c0822","0","f","NA","space","j","j","NA","f","830","NA","4816","11981","5922","NA","830","2","legacy","1024","2","48000","-16","task","5207721","odd","NA","31728","38548","33730","116879","4370","22285","16362","117381","NA","116876","117381","116823","38548","118213","29296","116322","4299","90425","Lexical Decision Task","35","44146","39","yes","1024"
"3.145920145","8.51","8","flew","word","90","90","1119.925","1119.925","black","no","legacy","legacy","legacy","0","uniform","1","undefined","undefined","undefined","1","j","0","0","0","0","39","0","0","0","39","NA","35","39","35","0","35","3","39","0","39","Fri Feb 19 11:48:35 2021","The main experiment item","yes","Lexical_Decision_Task.osexp","/Users/Megan/Desktop","no","Andale Mono","no","18","no","white","no","yes","576","legacy","35","35","3","/Users/Megan/Desktop/subject-5207721.csv","legacy","Lentiform Loewenfeld","3.3.7","yes","yes","600bd7cfb6416f0113b04181","602110864497cf011d9c0822","0","j","NA","space","j","j","NA","j","651","NA","4816","11981","5922","NA","651","2","legacy","1024","2","48000","-16","task","5207721","odd","NA","31728","38548","33730","118771","4370","22285","16362","119273","NA","118769","119273","118717","38548","119925","29296","118217","4299","90425","Lexical Decision Task","36","44797","40","yes","1024"
"3.1430148","7.92","8","bald","word","90.2439024390244","90.2439024390244","1111.1951219512196","1111.1951219512196","black","no","legacy","legacy","legacy","0","uniform","1","undefined","undefined","undefined","1","j","0","0","0","0","40","0","0","0","40","NA","36","40","36","0","36","3","40","0","40","Fri Feb 19 11:48:35 2021","The main experiment item","yes","Lexical_Decision_Task.osexp","/Users/Megan/Desktop","no","Andale Mono","no","18","no","white","no","yes","576","legacy","36","36","3","/Users/Megan/Desktop/subject-5207721.csv","legacy","Lentiform Loewenfeld","3.3.7","yes","yes","600bd7cfb6416f0113b04181","602110864497cf011d9c0822","0","j","NA","space","j","j","NA","j","762","NA","4816","11981","5922","NA","762","2","legacy","1024","2","48000","-16","task","5207721","odd","NA","31728","38548","33730","120482","4370","22285","16362","120985","NA","120480","120985","120429","38548","121749","29296","119929","4299","90425","Lexical Decision Task","37","45559","41","yes","1024"
"3.225825991","0","7","talm","non-word","90.47619047619048","90.47619047619048","1107.0714285714287","1107.0714285714287","black","no","legacy","legacy","legacy","0","uniform","1","undefined","undefined","undefined","1","f","0","0","0","0","41","0","0","0","41","NA","37","41","37","0","37","3","41","0","41","Fri Feb 19 11:48:35 2021","The main experiment item","yes","Lexical_Decision_Task.osexp","/Users/Megan/Desktop","no","Andale Mono","no","18","no","white","no","yes","576","legacy","37","37","3","/Users/Megan/Desktop/subject-5207721.csv","legacy","Lentiform Loewenfeld","3.3.7","yes","yes","600bd7cfb6416f0113b04181","602110864497cf011d9c0822","0","f","NA","space","j","j","NA","f","938","NA","4816","11981","5922","NA","938","2","legacy","1024","2","48000","-16","task","5207721","odd","NA","31728","38548","33730","122306","4370","22285","16362","122809","NA","122304","122809","122253","38548","123749","29296","121752","4299","90425","Lexical Decision Task","38","46497","42","yes","1024"
"2.972819734","0","4","scew","non-word","90.69767441860465","90.69767441860465","1106.8837209302326","1106.8837209302326","black","no","legacy","legacy","legacy","0","uniform","1","undefined","undefined","undefined","1","f","0","0","0","0","42","0","0","0","42","NA","38","42","38","0","38","3","42","0","42","Fri Feb 19 11:48:35 2021","The main experiment item","yes","Lexical_Decision_Task.osexp","/Users/Megan/Desktop","no","Andale Mono","no","18","no","white","no","yes","576","legacy","38","38","3","/Users/Megan/Desktop/subject-5207721.csv","legacy","Lentiform Loewenfeld","3.3.7","yes","yes","600bd7cfb6416f0113b04181","602110864497cf011d9c0822","0","f","NA","space","j","j","NA","f","1099","NA","4816","11981","5922","NA","1099","2","legacy","1024","2","48000","-16","task","5207721","odd","NA","31728","38548","33730","124306","4370","22285","16362","124808","NA","124304","124808","124253","38548","125909","29296","123752","4299","90425","Lexical Decision Task","39","47596","43","yes","1024"
"3.043885998","0","9","gome","non-word","90.9090909090909","90.9090909090909","1108.7045454545455","1108.7045454545455","black","no","legacy","legacy","legacy","0","uniform","1","undefined","undefined","undefined","1","f","0","0","0","0","43","0","0","0","43","NA","39","43","39","0","39","3","43","0","43","Fri Feb 19 11:48:35 2021","The main experiment item","yes","Lexical_Decision_Task.osexp","/Users/Megan/Desktop","no","Andale Mono","no","18","no","white","no","yes","576","legacy","39","39","3","/Users/Megan/Desktop/subject-5207721.csv","legacy","Lentiform Loewenfeld","3.3.7","yes","yes","600bd7cfb6416f0113b04181","602110864497cf011d9c0822","0","f","NA","space","j","j","NA","f","1187","NA","4816","11981","5922","NA","1187","2","legacy","1024","2","48000","-16","task","5207721","odd","NA","31728","38548","33730","126467","4370","22285","16362","126969","NA","126464","126969","126413","38548","128157","29296","125912","4299","90425","Lexical Decision Task","40","48783","44","yes","1024"
"2.843025032","0","9","pusk","non-word","91.11111111111111","91.11111111111111","1110.6","1110.6","black","no","legacy","legacy","legacy","0","uniform","1","undefined","undefined","undefined","1","f","0","0","0","0","44","0","0","0","44","NA","40","44","40","0","40","3","44","0","44","Fri Feb 19 11:48:35 2021","The main experiment item","yes","Lexical_Decision_Task.osexp","/Users/Megan/Desktop","no","Andale Mono","no","18","no","white","no","yes","576","legacy","40","40","3","/Users/Megan/Desktop/subject-5207721.csv","legacy","Lentiform Loewenfeld","3.3.7","yes","yes","600bd7cfb6416f0113b04181","602110864497cf011d9c0822","0","f","NA","space","j","j","NA","f","1194","NA","4816","11981","5922","NA","1194","2","legacy","1024","2","48000","-16","task","5207721","odd","NA","31728","38548","33730","128715","4370","22285","16362","129217","NA","128713","129217","128661","38548","130413","29296","128161","4299","90425","Lexical Decision Task","41","49977","45","yes","1024"
"2.880623071","0","9","curp","non-word","91.30434782608695","91.30434782608695","1105.6521739130435","1105.6521739130435","black","no","legacy","legacy","legacy","0","uniform","1","undefined","undefined","undefined","1","f","0","0","0","0","45","0","0","0","45","NA","41","45","41","0","41","3","45","0","45","Fri Feb 19 11:48:35 2021","The main experiment item","yes","Lexical_Decision_Task.osexp","/Users/Megan/Desktop","no","Andale Mono","no","18","no","white","no","yes","576","legacy","41","41","3","/Users/Megan/Desktop/subject-5207721.csv","legacy","Lentiform Loewenfeld","3.3.7","yes","yes","600bd7cfb6416f0113b04181","602110864497cf011d9c0822","0","f","NA","space","j","j","NA","f","883","NA","4816","11981","5922","NA","883","2","legacy","1024","2","48000","-16","task","5207721","odd","NA","31728","38548","33730","130970","4370","22285","16362","131472","NA","130968","131472","130916","38548","132357","29296","130416","4299","90425","Lexical Decision Task","42","50860","46","yes","1024"
"3.064581521","5.51","6","cask","word","91.48936170212765","91.48936170212765","1095.8085106382978","1095.8085106382978","black","no","legacy","legacy","legacy","0","uniform","1","undefined","undefined","undefined","1","j","0","0","0","0","46","0","0","0","46","NA","42","46","42","0","42","3","46","0","46","Fri Feb 19 11:48:35 2021","The main experiment item","yes","Lexical_Decision_Task.osexp","/Users/Megan/Desktop","no","Andale Mono","no","18","no","white","no","yes","576","legacy","42","42","3","/Users/Megan/Desktop/subject-5207721.csv","legacy","Lentiform Loewenfeld","3.3.7","yes","yes","600bd7cfb6416f0113b04181","602110864497cf011d9c0822","0","j","NA","space","j","j","NA","j","643","NA","4816","11981","5922","NA","643","2","legacy","1024","2","48000","-16","task","5207721","odd","NA","31728","38548","33730","132915","4370","22285","16362","133417","NA","132912","133417","132861","38548","134061","29296","132361","4299","90425","Lexical Decision Task","43","51503","47","yes","1024"
"2.868644438","10.52","4","town","word","91.66666666666667","91.66666666666667","1082.8541666666667","1082.8541666666667","black","no","legacy","legacy","legacy","0","uniform","1","undefined","undefined","undefined","1","j","0","0","0","0","47","0","0","0","47","NA","43","47","43","0","43","3","47","0","47","Fri Feb 19 11:48:35 2021","The main experiment item","yes","Lexical_Decision_Task.osexp","/Users/Megan/Desktop","no","Andale Mono","no","18","no","white","no","yes","576","legacy","43","43","3","/Users/Megan/Desktop/subject-5207721.csv","legacy","Lentiform Loewenfeld","3.3.7","yes","yes","600bd7cfb6416f0113b04181","602110864497cf011d9c0822","0","j","NA","space","j","j","NA","j","474","NA","4816","11981","5922","NA","474","2","legacy","1024","2","48000","-16","task","5207721","odd","NA","31728","38548","33730","134619","4370","22285","16362","135121","NA","134616","135121","134565","38548","135597","29296","134065","4299","90425","Lexical Decision Task","44","51977","48","yes","1024"
"2.771097306","0","9","jold","non-word","91.83673469387755","91.83673469387755","1075.1632653061224","1075.1632653061224","black","no","legacy","legacy","legacy","0","uniform","1","undefined","undefined","undefined","1","f","0","0","0","0","48","0","0","0","48","NA","44","48","44","0","44","3","48","0","48","Fri Feb 19 11:48:35 2021","The main experiment item","yes","Lexical_Decision_Task.osexp","/Users/Megan/Desktop","no","Andale Mono","no","18","no","white","no","yes","576","legacy","44","44","3","/Users/Megan/Desktop/subject-5207721.csv","legacy","Lentiform Loewenfeld","3.3.7","yes","yes","600bd7cfb6416f0113b04181","602110864497cf011d9c0822","0","f","NA","space","j","j","NA","f","706","NA","4816","11981","5922","NA","706","2","legacy","1024","2","48000","-16","task","5207721","odd","NA","31728","38548","33730","136155","4370","22285","16362","136657","NA","136152","136657","136101","38548","137365","29296","135601","4299","90425","Lexical Decision Task","45","52683","49","yes","1024"
"2.693726949","5.08","3","swig","word","92","92","1087.46","1087.46","black","no","legacy","legacy","legacy","0","uniform","1","undefined","undefined","undefined","1","j","0","0","0","0","49","0","0","0","49","NA","45","49","45","0","45","3","49","0","49","Fri Feb 19 11:48:35 2021","The main experiment item","yes","Lexical_Decision_Task.osexp","/Users/Megan/Desktop","no","Andale Mono","no","18","no","white","no","yes","576","legacy","45","45","3","/Users/Megan/Desktop/subject-5207721.csv","legacy","Lentiform Loewenfeld","3.3.7","yes","yes","600bd7cfb6416f0113b04181","602110864497cf011d9c0822","0","j","NA","space","j","j","NA","j","1690","NA","4816","11981","5922","NA","1690","2","legacy","1024","2","48000","-16","task","5207721","odd","NA","31728","38548","33730","137923","4370","22285","16362","138425","NA","137921","138425","137869","38548","140117","29296","137368","4299","90425","Lexical Decision Task","46","54373","50","yes","1024"
"3.397302518","7.01","2","knit","word","92.15686274509804","92.15686274509804","1098.3725490196077","1098.3725490196077","black","no","legacy","legacy","legacy","0","uniform","1","undefined","undefined","undefined","1","j","0","0","0","0","50","0","0","0","50","NA","46","50","46","0","46","3","50","0","50","Fri Feb 19 11:48:35 2021","The main experiment item","yes","Lexical_Decision_Task.osexp","/Users/Megan/Desktop","no","Andale Mono","no","18","no","white","no","yes","576","legacy","46","46","3","/Users/Megan/Desktop/subject-5207721.csv","legacy","Lentiform Loewenfeld","3.3.7","yes","yes","600bd7cfb6416f0113b04181","602110864497cf011d9c0822","0","j","NA","space","j","j","NA","j","1644","NA","4816","11981","5922","NA","1644","2","legacy","1024","2","48000","-16","task","5207721","odd","NA","31728","38548","33730","140674","4370","22285","16362","141176","NA","140672","141176","140621","38548","142822","29296","140120","4299","90425","Lexical Decision Task","47","56017","51","yes","1024"
"3.174641193","0","3","ramb","non-word","92.3076923076923","92.3076923076923","1098.0192307692307","1098.0192307692307","black","no","legacy","legacy","legacy","0","uniform","1","undefined","undefined","undefined","1","f","0","0","0","0","51","0","0","0","51","NA","47","51","47","0","47","3","51","0","51","Fri Feb 19 11:48:35 2021","The main experiment item","yes","Lexical_Decision_Task.osexp","/Users/Megan/Desktop","no","Andale Mono","no","18","no","white","no","yes","576","legacy","47","47","3","/Users/Megan/Desktop/subject-5207721.csv","legacy","Lentiform Loewenfeld","3.3.7","yes","yes","600bd7cfb6416f0113b04181","602110864497cf011d9c0822","0","f","NA","space","j","j","NA","f","1080","NA","4816","11981","5922","NA","1080","2","legacy","1024","2","48000","-16","task","5207721","odd","NA","31728","38548","33730","143381","4370","22285","16362","143883","NA","143378","143883","143326","38548","144965","29296","142826","4299","90425","Lexical Decision Task","48","57097","52","yes","1024"
"3.16326079","0","5","parg","non-word","92.45283018867924","92.45283018867924","1096.377358490566","1096.377358490566","black","no","legacy","legacy","legacy","0","uniform","1","undefined","undefined","undefined","1","f","0","0","0","0","52","0","0","0","52","NA","48","52","48","0","48","3","52","0","52","Fri Feb 19 11:48:35 2021","The main experiment item","yes","Lexical_Decision_Task.osexp","/Users/Megan/Desktop","no","Andale Mono","no","18","no","white","no","yes","576","legacy","48","48","3","/Users/Megan/Desktop/subject-5207721.csv","legacy","Lentiform Loewenfeld","3.3.7","yes","yes","600bd7cfb6416f0113b04181","602110864497cf011d9c0822","0","f","NA","space","j","j","NA","f","1011","NA","4816","11981","5922","NA","1011","2","legacy","1024","2","48000","-16","task","5207721","odd","NA","31728","38548","33730","145523","4370","22285","16362","146025","NA","145520","146025","145468","38548","147037","29296","144968","4299","90425","Lexical Decision Task","49","58108","53","yes","1024"
"2.782472624","10.55","2","huge","word","92.5925925925926","92.5925925925926","1085.9074074074074","1085.9074074074074","black","no","legacy","legacy","legacy","0","uniform","1","undefined","undefined","undefined","1","j","0","0","0","0","53","0","0","0","53","NA","49","53","49","0","49","3","53","0","53","Fri Feb 19 11:48:35 2021","The main experiment item","yes","Lexical_Decision_Task.osexp","/Users/Megan/Desktop","no","Andale Mono","no","18","no","white","no","yes","576","legacy","49","49","3","/Users/Megan/Desktop/subject-5207721.csv","legacy","Lentiform Loewenfeld","3.3.7","yes","yes","600bd7cfb6416f0113b04181","602110864497cf011d9c0822","0","j","NA","space","j","j","NA","j","531","NA","4816","11981","5922","NA","531","2","legacy","1024","2","48000","-16","task","5207721","odd","NA","31728","38548","33730","147594","4370","22285","16362","148096","NA","147592","148096","147541","38548","148629","29296","147041","4299","90425","Lexical Decision Task","50","58639","54","yes","1024"
"3.121778632","0","9","sark","non-word","92.72727272727273","92.72727272727273","1079.8363636363636","1079.8363636363636","black","no","legacy","legacy","legacy","0","uniform","1","undefined","undefined","undefined","1","f","0","0","0","0","54","0","0","0","54","0","50","54","50","0","50","3","54","0","54","Fri Feb 19 11:48:35 2021","The main experiment item","yes","Lexical_Decision_Task.osexp","/Users/Megan/Desktop","no","Andale Mono","no","18","no","white","no","yes","576","legacy","50","50","3","/Users/Megan/Desktop/subject-5207721.csv","legacy","Lentiform Loewenfeld","3.3.7","yes","yes","600bd7cfb6416f0113b04181","602110864497cf011d9c0822","0","f","NA","space","j","j","space","f","752","NA","4816","11981","5922","4892","752","2","legacy","1024","2","48000","-16","task","5207721","odd","NA","31728","38548","33730","154108","4370","22285","16362","154611","149159","154106","154611","149133","38548","155365","29296","148633","4299","90425","Lexical Decision Task","51","59391","55","yes","1024"
"3.282244367","0","6","fute","non-word","92.85714285714286","92.85714285714286","1075.2857142857142","1075.2857142857142","black","no","legacy","legacy","legacy","0","uniform","1","undefined","undefined","undefined","1","f","0","0","0","0","55","0","0","0","55","0","51","55","51","0","51","3","55","0","55","Fri Feb 19 11:48:35 2021","The main experiment item","yes","Lexical_Decision_Task.osexp","/Users/Megan/Desktop","no","Andale Mono","no","18","no","white","no","yes","576","legacy","51","51","3","/Users/Megan/Desktop/subject-5207721.csv","legacy","Lentiform Loewenfeld","3.3.7","yes","yes","600bd7cfb6416f0113b04181","602110864497cf011d9c0822","0","f","NA","space","j","j","space","f","825","NA","4816","11981","5922","4892","825","2","legacy","1024","2","48000","-16","task","5207721","odd","NA","31728","38548","33730","155924","4370","22285","16362","156426","149159","155921","156426","155869","38548","157253","29296","155369","4299","90425","Lexical Decision Task","52","60216","56","yes","1024"
"2.799799878","0","4","ciff","non-word","92.98245614035088","92.98245614035088","1068.561403508772","1068.561403508772","black","no","legacy","legacy","legacy","0","uniform","1","undefined","undefined","undefined","1","f","0","0","0","0","56","0","0","0","56","0","52","56","52","0","52","3","56","0","56","Fri Feb 19 11:48:35 2021","The main experiment item","yes","Lexical_Decision_Task.osexp","/Users/Megan/Desktop","no","Andale Mono","no","18","no","white","no","yes","576","legacy","52","52","3","/Users/Megan/Desktop/subject-5207721.csv","legacy","Lentiform Loewenfeld","3.3.7","yes","yes","600bd7cfb6416f0113b04181","602110864497cf011d9c0822","0","f","NA","space","j","j","space","f","692","NA","4816","11981","5922","4892","692","2","legacy","1024","2","48000","-16","task","5207721","odd","NA","31728","38548","33730","157810","4370","22285","16362","158312","149159","157808","158312","157757","38548","159005","29296","157257","4299","90425","Lexical Decision Task","53","60908","57","yes","1024"
"3.137775856","7.39","5","comb","word","91.37931034482759","91.37931034482759","1064.2586206896551","1064.2586206896551","black","no","legacy","legacy","legacy","0","uniform","0","undefined","undefined","undefined","0","j","0","0","0","0","57","0","0","0","57","0","53","57","53","0","53","3","57","0","57","Fri Feb 19 11:48:35 2021","The main experiment item","yes","Lexical_Decision_Task.osexp","/Users/Megan/Desktop","no","Andale Mono","no","18","no","white","no","yes","576","legacy","53","53","3","/Users/Megan/Desktop/subject-5207721.csv","legacy","Lentiform Loewenfeld","3.3.7","yes","yes","600bd7cfb6416f0113b04181","602110864497cf011d9c0822","0","f","NA","space","j","j","space","f","819","NA","4816","11981","5922","4892","819","2","legacy","1024","2","48000","-16","task","5207721","odd","NA","31728","38548","33730","159563","4370","22285","16362","160065","149159","159560","160065","159509","38548","160885","29296","159009","4299","90425","Lexical Decision Task","53","61727","58","yes","1024"
"2.899092422","7.27","6","snag","word","91.52542372881356","91.52542372881356","1062.7796610169491","1062.7796610169491","black","no","legacy","legacy","legacy","0","uniform","1","undefined","undefined","undefined","1","j","0","0","0","0","58","0","0","0","58","0","54","58","54","0","54","3","58","0","58","Fri Feb 19 11:48:35 2021","The main experiment item","yes","Lexical_Decision_Task.osexp","/Users/Megan/Desktop","no","Andale Mono","no","18","no","white","no","yes","576","legacy","54","54","3","/Users/Megan/Desktop/subject-5207721.csv","legacy","Lentiform Loewenfeld","3.3.7","yes","yes","600bd7cfb6416f0113b04181","602110864497cf011d9c0822","0","j","NA","space","j","j","space","j","977","NA","4816","11981","5922","4892","977","2","legacy","1024","2","48000","-16","task","5207721","odd","NA","31728","38548","33730","162444","4370","22285","16362","162947","149159","162442","162947","162390","38548","163925","29296","159009","4299","160889","Lexical Decision Task","54","62704","59","yes","1024"
"3.303771854","0","9","dath","non-word","91.66666666666667","91.66666666666667","1056.95","1056.95","black","no","legacy","legacy","legacy","0","uniform","1","undefined","undefined","undefined","1","f","0","0","0","0","59","0","0","0","59","0","55","59","55","0","55","3","59","0","59","Fri Feb 19 11:48:35 2021","The main experiment item","yes","Lexical_Decision_Task.osexp","/Users/Megan/Desktop","no","Andale Mono","no","18","no","white","no","yes","576","legacy","55","55","3","/Users/Megan/Desktop/subject-5207721.csv","legacy","Lentiform Loewenfeld","3.3.7","yes","yes","600bd7cfb6416f0113b04181","602110864497cf011d9c0822","0","f","NA","space","j","j","space","f","713","NA","4816","11981","5922","4892","713","2","legacy","1024","2","48000","-16","task","5207721","odd","NA","31728","38548","33730","164483","4370","22285","16362","164986","149159","164481","164986","164429","38548","165701","29296","163929","4299","160889","Lexical Decision Task","55","63417","60","yes","1024"
"2.986323777","10.85","8","ship","word","91.80327868852459","91.80327868852459","1049.360655737705","1049.360655737705","black","no","legacy","legacy","legacy","0","uniform","1","undefined","undefined","undefined","1","j","0","0","0","0","60","0","0","0","60","0","56","60","56","0","56","3","60","0","60","Fri Feb 19 11:48:35 2021","The main experiment item","yes","Lexical_Decision_Task.osexp","/Users/Megan/Desktop","no","Andale Mono","no","18","no","white","no","yes","576","legacy","56","56","3","/Users/Megan/Desktop/subject-5207721.csv","legacy","Lentiform Loewenfeld","3.3.7","yes","yes","600bd7cfb6416f0113b04181","602110864497cf011d9c0822","0","j","NA","space","j","j","space","j","594","NA","4816","11981","5922","4892","594","2","legacy","1024","2","48000","-16","task","5207721","odd","NA","31728","38548","33730","166259","4370","22285","16362","166761","149159","166256","166761","166205","38548","167357","29296","165705","4299","160889","Lexical Decision Task","56","64011","61","yes","1024"
"2.819763221","0","2","durp","non-word","91.93548387096774","91.93548387096774","1043.0483870967741","1043.0483870967741","black","no","legacy","legacy","legacy","0","uniform","1","undefined","undefined","undefined","1","f","0","0","0","0","61","0","0","0","61","0","57","61","57","0","57","3","61","0","61","Fri Feb 19 11:48:35 2021","The main experiment item","yes","Lexical_Decision_Task.osexp","/Users/Megan/Desktop","no","Andale Mono","no","18","no","white","no","yes","576","legacy","57","57","3","/Users/Megan/Desktop/subject-5207721.csv","legacy","Lentiform Loewenfeld","3.3.7","yes","yes","600bd7cfb6416f0113b04181","602110864497cf011d9c0822","0","f","NA","space","j","j","space","f","658","NA","4816","11981","5922","4892","658","2","legacy","1024","2","48000","-16","task","5207721","odd","NA","31728","38548","33730","167915","4370","22285","16362","168417","149159","167912","168417","167861","38548","169077","29296","167361","4299","160889","Lexical Decision Task","57","64669","62","yes","1024"
"3.209246849","0","7","slem","non-word","90.47619047619048","90.47619047619048","1034.3809523809523","1034.3809523809523","black","no","legacy","legacy","legacy","0","uniform","0","undefined","undefined","undefined","0","f","0","0","0","0","62","0","0","0","62","0","58","62","58","0","58","3","62","0","62","Fri Feb 19 11:48:35 2021","The main experiment item","yes","Lexical_Decision_Task.osexp","/Users/Megan/Desktop","no","Andale Mono","no","18","no","white","no","yes","576","legacy","58","58","3","/Users/Megan/Desktop/subject-5207721.csv","legacy","Lentiform Loewenfeld","3.3.7","yes","yes","600bd7cfb6416f0113b04181","602110864497cf011d9c0822","0","j","NA","space","j","j","space","j","497","NA","4816","11981","5922","4892","497","2","legacy","1024","2","48000","-16","task","5207721","odd","NA","31728","38548","33730","169635","4370","22285","16362","170138","149159","169633","170138","169582","38548","170637","29296","169081","4299","160889","Lexical Decision Task","57","65166","63","yes","1024"
"3.156347201","0","8","lasp","non-word","90.625","90.625","1039.859375","1039.859375","black","no","legacy","legacy","legacy","0","uniform","1","undefined","undefined","undefined","1","f","0","0","0","0","63","0","0","0","63","0","59","63","59","0","59","3","63","0","63","Fri Feb 19 11:48:35 2021","The main experiment item","yes","Lexical_Decision_Task.osexp","/Users/Megan/Desktop","no","Andale Mono","no","18","no","white","no","yes","576","legacy","59","59","3","/Users/Megan/Desktop/subject-5207721.csv","legacy","Lentiform Loewenfeld","3.3.7","yes","yes","600bd7cfb6416f0113b04181","602110864497cf011d9c0822","0","f","NA","space","j","j","space","f","1385","NA","4816","11981","5922","4892","1385","2","legacy","1024","2","48000","-16","task","5207721","odd","NA","31728","38548","33730","172196","4370","22285","16362","172698","149159","172194","172698","172142","38548","174085","29296","169081","4299","170641","Lexical Decision Task","58","66551","64","yes","1024"
"2.82129731","6.72","5","plum","word","90.76923076923077","90.76923076923077","1034.6","1034.6","black","no","legacy","legacy","legacy","0","uniform","1","undefined","undefined","undefined","1","j","0","0","0","0","64","0","0","0","64","0","60","64","60","0","60","3","64","0","64","Fri Feb 19 11:48:35 2021","The main experiment item","yes","Lexical_Decision_Task.osexp","/Users/Megan/Desktop","no","Andale Mono","no","18","no","white","no","yes","576","legacy","60","60","3","/Users/Megan/Desktop/subject-5207721.csv","legacy","Lentiform Loewenfeld","3.3.7","yes","yes","600bd7cfb6416f0113b04181","602110864497cf011d9c0822","0","j","NA","space","j","j","space","j","698","NA","4816","11981","5922","4892","698","2","legacy","1024","2","48000","-16","task","5207721","odd","NA","31728","38548","33730","174643","4370","22285","16362","175145","149159","174641","175145","174589","38548","175845","29296","174089","4299","170641","Lexical Decision Task","59","67249","65","yes","1024"
"3.252447662","9.67","9","boat","word","90.9090909090909","90.9090909090909","1029.2575757575758","1029.2575757575758","black","no","legacy","legacy","legacy","0","uniform","1","undefined","undefined","undefined","1","j","0","0","0","0","65","0","0","0","65","0","61","65","61","0","61","3","65","0","65","Fri Feb 19 11:48:35 2021","The main experiment item","yes","Lexical_Decision_Task.osexp","/Users/Megan/Desktop","no","Andale Mono","no","18","no","white","no","yes","576","legacy","61","61","3","/Users/Megan/Desktop/subject-5207721.csv","legacy","Lentiform Loewenfeld","3.3.7","yes","yes","600bd7cfb6416f0113b04181","602110864497cf011d9c0822","0","j","NA","space","j","j","space","j","682","NA","4816","11981","5922","4892","682","2","legacy","1024","2","48000","-16","task","5207721","odd","NA","31728","38548","33730","176403","4370","22285","16362","176905","149159","176400","176905","176349","38548","177589","29296","175849","4299","170641","Lexical Decision Task","60","67931","66","yes","1024"
"3.100255637","0","6","brax","non-word","91.04477611940298","91.04477611940298","1024.1044776119404","1024.1044776119404","black","no","legacy","legacy","legacy","0","uniform","1","undefined","undefined","undefined","1","f","0","0","0","0","66","0","0","0","66","0","62","66","62","0","62","3","66","0","66","Fri Feb 19 11:48:35 2021","The main experiment item","yes","Lexical_Decision_Task.osexp","/Users/Megan/Desktop","no","Andale Mono","no","18","no","white","no","yes","576","legacy","62","62","3","/Users/Megan/Desktop/subject-5207721.csv","legacy","Lentiform Loewenfeld","3.3.7","yes","yes","600bd7cfb6416f0113b04181","602110864497cf011d9c0822","0","f","NA","space","j","j","space","f","684","NA","4816","11981","5922","4892","684","2","legacy","1024","2","48000","-16","task","5207721","odd","NA","31728","38548","33730","178146","4370","22285","16362","178648","149159","178144","178648","178093","38548","179333","29296","177593","4299","170641","Lexical Decision Task","61","68615","67","yes","1024"
"3.208978517","10.33","4","fish","word","91.17647058823529","91.17647058823529","1018.1470588235294","1018.1470588235294","black","no","legacy","legacy","legacy","0","uniform","1","undefined","undefined","undefined","1","j","0","0","0","0","67","0","0","0","67","0","63","67","63","0","63","3","67","0","67","Fri Feb 19 11:48:35 2021","The main experiment item","yes","Lexical_Decision_Task.osexp","/Users/Megan/Desktop","no","Andale Mono","no","18","no","white","no","yes","576","legacy","63","63","3","/Users/Megan/Desktop/subject-5207721.csv","legacy","Lentiform Loewenfeld","3.3.7","yes","yes","600bd7cfb6416f0113b04181","602110864497cf011d9c0822","0","j","NA","space","j","j","space","j","619","NA","4816","11981","5922","4892","619","2","legacy","1024","2","48000","-16","task","5207721","odd","NA","31728","38548","33730","179890","4370","22285","16362","180392","149159","179888","180392","179837","38548","181013","29296","179337","4299","170641","Lexical Decision Task","62","69234","68","yes","1024"
"3.378276681","6.39","8","bran","word","89.85507246376811","89.85507246376811","1017.5797101449275","1017.5797101449275","black","no","legacy","legacy","legacy","0","uniform","0","undefined","undefined","undefined","0","j","0","0","0","0","68","0","0","0","68","0","64","68","64","0","64","3","68","0","68","Fri Feb 19 11:48:35 2021","The main experiment item","yes","Lexical_Decision_Task.osexp","/Users/Megan/Desktop","no","Andale Mono","no","18","no","white","no","yes","576","legacy","64","64","3","/Users/Megan/Desktop/subject-5207721.csv","legacy","Lentiform Loewenfeld","3.3.7","yes","yes","600bd7cfb6416f0113b04181","602110864497cf011d9c0822","0","f","NA","space","j","j","space","f","979","NA","4816","11981","5922","4892","979","2","legacy","1024","2","48000","-16","task","5207721","odd","NA","31728","38548","33730","181570","4370","22285","16362","182072","149159","181567","182072","181517","38548","183053","29296","181017","4299","170641","Lexical Decision Task","62","70213","69","yes","1024"
"3.062080345","0","6","tomp","non-word","90","90","1017.4857142857143","1017.4857142857143","black","no","legacy","legacy","legacy","0","uniform","1","undefined","undefined","undefined","1","f","0","0","0","0","69","0","0","0","69","0","65","69","65","0","65","3","69","0","69","Fri Feb 19 11:48:35 2021","The main experiment item","yes","Lexical_Decision_Task.osexp","/Users/Megan/Desktop","no","Andale Mono","no","18","no","white","no","yes","576","legacy","65","65","3","/Users/Megan/Desktop/subject-5207721.csv","legacy","Lentiform Loewenfeld","3.3.7","yes","yes","600bd7cfb6416f0113b04181","602110864497cf011d9c0822","0","f","NA","space","j","j","space","f","1011","NA","4816","11981","5922","4892","1011","2","legacy","1024","2","48000","-16","task","5207721","odd","NA","31728","38548","33730","184611","4370","22285","16362","185113","149159","184609","185113","184558","38548","186125","29296","181017","4299","183057","Lexical Decision Task","63","71224","70","yes","1024"
"2.744553742","0","2","nawk","non-word","90.14084507042253","90.14084507042253","1020.1971830985915","1020.1971830985915","black","no","legacy","legacy","legacy","0","uniform","1","undefined","undefined","undefined","1","f","0","0","0","0","70","0","0","0","70","0","66","70","66","0","66","3","70","0","70","Fri Feb 19 11:48:35 2021","The main experiment item","yes","Lexical_Decision_Task.osexp","/Users/Megan/Desktop","no","Andale Mono","no","18","no","white","no","yes","576","legacy","66","66","3","/Users/Megan/Desktop/subject-5207721.csv","legacy","Lentiform Loewenfeld","3.3.7","yes","yes","600bd7cfb6416f0113b04181","602110864497cf011d9c0822","0","f","NA","space","j","j","space","f","1210","NA","4816","11981","5922","4892","1210","2","legacy","1024","2","48000","-16","task","5207721","odd","NA","31728","38548","33730","186683","4370","22285","16362","187185","149159","186681","187185","186629","38548","188397","29296","186129","4299","183057","Lexical Decision Task","64","72434","71","yes","1024"
"3.094121596","0","8","fode","non-word","90.27777777777777","90.27777777777777","1023.4027777777778","1023.4027777777778","black","no","legacy","legacy","legacy","0","uniform","1","undefined","undefined","undefined","1","f","0","0","0","0","71","0","0","0","71","0","67","71","67","0","67","3","71","0","71","Fri Feb 19 11:48:35 2021","The main experiment item","yes","Lexical_Decision_Task.osexp","/Users/Megan/Desktop","no","Andale Mono","no","18","no","white","no","yes","576","legacy","67","67","3","/Users/Megan/Desktop/subject-5207721.csv","legacy","Lentiform Loewenfeld","3.3.7","yes","yes","600bd7cfb6416f0113b04181","602110864497cf011d9c0822","0","f","NA","space","j","j","space","f","1251","NA","4816","11981","5922","4892","1251","2","legacy","1024","2","48000","-16","task","5207721","odd","NA","31728","38548","33730","188954","4370","22285","16362","189456","149159","188951","189456","188901","38548","190709","29296","188401","4299","183057","Lexical Decision Task","65","73685","72","yes","1024"
"2.907588697","8.91","9","mood","word","90.41095890410959","90.41095890410959","1017.082191780822","1017.082191780822","black","no","legacy","legacy","legacy","0","uniform","1","undefined","undefined","undefined","1","j","0","0","0","0","72","0","0","0","72","0","68","72","68","0","68","3","72","0","72","Fri Feb 19 11:48:35 2021","The main experiment item","yes","Lexical_Decision_Task.osexp","/Users/Megan/Desktop","no","Andale Mono","no","18","no","white","no","yes","576","legacy","68","68","3","/Users/Megan/Desktop/subject-5207721.csv","legacy","Lentiform Loewenfeld","3.3.7","yes","yes","600bd7cfb6416f0113b04181","602110864497cf011d9c0822","0","j","NA","space","j","j","space","j","562","NA","4816","11981","5922","4892","562","2","legacy","1024","2","48000","-16","task","5207721","odd","NA","31728","38548","33730","191267","4370","22285","16362","191769","149159","191264","191769","191213","38548","192333","29296","190713","4299","183057","Lexical Decision Task","66","74247","73","yes","1024"
"2.713490543","0","3","feps","non-word","90.54054054054055","90.54054054054055","1013.5405405405405","1013.5405405405405","black","no","legacy","legacy","legacy","0","uniform","1","undefined","undefined","undefined","1","f","0","0","0","0","73","0","0","0","73","0","69","73","69","0","69","3","73","0","73","Fri Feb 19 11:48:35 2021","The main experiment item","yes","Lexical_Decision_Task.osexp","/Users/Megan/Desktop","no","Andale Mono","no","18","no","white","no","yes","576","legacy","69","69","3","/Users/Megan/Desktop/subject-5207721.csv","legacy","Lentiform Loewenfeld","3.3.7","yes","yes","600bd7cfb6416f0113b04181","602110864497cf011d9c0822","0","f","NA","space","j","j","space","f","755","NA","4816","11981","5922","4892","755","2","legacy","1024","2","48000","-16","task","5207721","odd","NA","31728","38548","33730","192890","4370","22285","16362","193392","149159","192887","193392","192837","38548","194149","29296","192337","4299","183057","Lexical Decision Task","67","75002","74","yes","1024"
"3.091901331","0","9","nipe","non-word","90.66666666666667","90.66666666666667","1009.96","1009.96","black","no","legacy","legacy","legacy","0","uniform","1","undefined","undefined","undefined","1","f","0","0","0","0","74","0","0","0","74","0","70","74","70","0","70","3","74","0","74","Fri Feb 19 11:48:35 2021","The main experiment item","yes","Lexical_Decision_Task.osexp","/Users/Megan/Desktop","no","Andale Mono","no","18","no","white","no","yes","576","legacy","70","70","3","/Users/Megan/Desktop/subject-5207721.csv","legacy","Lentiform Loewenfeld","3.3.7","yes","yes","600bd7cfb6416f0113b04181","602110864497cf011d9c0822","0","f","NA","space","j","j","space","f","745","NA","4816","11981","5922","4892","745","2","legacy","1024","2","48000","-16","task","5207721","odd","NA","31728","38548","33730","194708","4370","22285","16362","195210","149159","194705","195210","194653","38548","195958","29296","194153","4299","183057","Lexical Decision Task","68","75747","75","yes","1024"
"2.839268497","0","8","maft","non-word","90.78947368421052","90.78947368421052","1005.828947368421","1005.828947368421","black","no","legacy","legacy","legacy","0","uniform","1","undefined","undefined","undefined","1","f","0","0","0","0","75","0","0","0","75","0","71","75","71","0","71","3","75","0","75","Fri Feb 19 11:48:35 2021","The main experiment item","yes","Lexical_Decision_Task.osexp","/Users/Megan/Desktop","no","Andale Mono","no","18","no","white","no","yes","576","legacy","71","71","3","/Users/Megan/Desktop/subject-5207721.csv","legacy","Lentiform Loewenfeld","3.3.7","yes","yes","600bd7cfb6416f0113b04181","602110864497cf011d9c0822","0","f","NA","space","j","j","space","f","696","NA","4816","11981","5922","4892","696","2","legacy","1024","2","48000","-16","task","5207721","odd","NA","31728","38548","33730","196518","4370","22285","16362","197020","149159","196515","197020","196462","38548","197717","29296","195962","4299","183057","Lexical Decision Task","69","76443","76","yes","1024"
"3.276537627","9.15","5","trap","word","90.9090909090909","90.9090909090909","1009","1009","black","no","legacy","legacy","legacy","0","uniform","1","undefined","undefined","undefined","1","j","0","0","0","0","76","0","0","0","76","0","72","76","72","0","72","3","76","0","76","Fri Feb 19 11:48:35 2021","The main experiment item","yes","Lexical_Decision_Task.osexp","/Users/Megan/Desktop","no","Andale Mono","no","18","no","white","no","yes","576","legacy","72","72","3","/Users/Megan/Desktop/subject-5207721.csv","legacy","Lentiform Loewenfeld","3.3.7","yes","yes","600bd7cfb6416f0113b04181","602110864497cf011d9c0822","0","j","NA","space","j","j","space","j","1250","NA","4816","11981","5922","4892","1250","2","legacy","1024","2","48000","-16","task","5207721","odd","NA","31728","38548","33730","198275","4370","22285","16362","198777","149159","198272","198777","198221","38548","200029","29296","197720","4299","183057","Lexical Decision Task","70","77693","77","yes","1024"
"2.755364069","7.72","2","hoax","word","91.02564102564102","91.02564102564102","1004.5128205128206","1004.5128205128206","black","no","legacy","legacy","legacy","0","uniform","1","undefined","undefined","undefined","1","j","0","0","0","0","77","0","0","0","77","0","73","77","73","0","73","3","77","0","77","Fri Feb 19 11:48:35 2021","The main experiment item","yes","Lexical_Decision_Task.osexp","/Users/Megan/Desktop","no","Andale Mono","no","18","no","white","no","yes","576","legacy","73","73","3","/Users/Megan/Desktop/subject-5207721.csv","legacy","Lentiform Loewenfeld","3.3.7","yes","yes","600bd7cfb6416f0113b04181","602110864497cf011d9c0822","0","j","NA","space","j","j","space","j","659","NA","4816","11981","5922","4892","659","2","legacy","1024","2","48000","-16","task","5207721","odd","NA","31728","38548","33730","200586","4370","22285","16362","201088","149159","200583","201088","200533","38548","201749","29296","200033","4299","183057","Lexical Decision Task","71","78352","78","yes","1024"
"2.616654026","9.37","5","gift","word","91.13924050632912","91.13924050632912","997.6075949367089","997.6075949367089","black","no","legacy","legacy","legacy","0","uniform","1","undefined","undefined","undefined","1","j","0","0","0","0","78","0","0","0","78","0","74","78","74","0","74","3","78","0","78","Fri Feb 19 11:48:35 2021","The main experiment item","yes","Lexical_Decision_Task.osexp","/Users/Megan/Desktop","no","Andale Mono","no","18","no","white","no","yes","576","legacy","74","74","3","/Users/Megan/Desktop/subject-5207721.csv","legacy","Lentiform Loewenfeld","3.3.7","yes","yes","600bd7cfb6416f0113b04181","602110864497cf011d9c0822","0","j","NA","space","j","j","space","j","459","NA","4816","11981","5922","4892","459","2","legacy","1024","2","48000","-16","task","5207721","odd","NA","31728","38548","33730","202305","4370","22285","16362","202808","149159","202303","202808","202253","38548","203269","29296","201753","4299","183057","Lexical Decision Task","72","78811","79","yes","1024"
"3.067193647","6.73","6","raft","word","91.25","91.25","992.0625","992.0625","black","no","legacy","legacy","legacy","0","uniform","1","undefined","undefined","undefined","1","j","0","0","0","0","79","0","0","0","79","0","75","79","75","0","75","3","79","0","79","Fri Feb 19 11:48:35 2021","The main experiment item","yes","Lexical_Decision_Task.osexp","/Users/Megan/Desktop","no","Andale Mono","no","18","no","white","no","yes","576","legacy","75","75","3","/Users/Megan/Desktop/subject-5207721.csv","legacy","Lentiform Loewenfeld","3.3.7","yes","yes","600bd7cfb6416f0113b04181","602110864497cf011d9c0822","0","j","NA","space","j","j","space","j","554","NA","4816","11981","5922","4892","554","2","legacy","1024","2","48000","-16","task","5207721","odd","NA","31728","38548","33730","203826","4370","22285","16362","204329","149159","203824","204329","203773","38548","204886","29296","203273","4299","183057","Lexical Decision Task","73","79365","80","yes","1024"
"3.067070856","9.39","3","loud","word","91.35802469135803","91.35802469135803","986.0617283950618","986.0617283950618","black","no","legacy","legacy","legacy","0","uniform","1","undefined","undefined","undefined","1","j","0","0","0","0","80","0","0","0","80","0","76","80","76","0","76","3","80","0","80","Fri Feb 19 11:48:35 2021","The main experiment item","yes","Lexical_Decision_Task.osexp","/Users/Megan/Desktop","no","Andale Mono","no","18","no","white","no","yes","576","legacy","76","76","3","/Users/Megan/Desktop/subject-5207721.csv","legacy","Lentiform Loewenfeld","3.3.7","yes","yes","600bd7cfb6416f0113b04181","602110864497cf011d9c0822","0","j","NA","space","j","j","space","j","506","NA","4816","11981","5922","4892","506","2","legacy","1024","2","48000","-16","task","5207721","odd","NA","31728","38548","33730","205442","4370","22285","16362","205945","149159","205440","205945","205389","38548","206453","29296","204889","4299","183057","Lexical Decision Task","74","79871","81","yes","1024"
"2.728085817","10.02","9","bike","word","91.46341463414635","91.46341463414635","980.3048780487804","980.3048780487804","black","no","legacy","legacy","legacy","0","uniform","1","undefined","undefined","undefined","1","j","0","0","0","0","81","0","0","0","81","0","77","81","77","0","77","3","81","0","81","Fri Feb 19 11:48:35 2021","The main experiment item","yes","Lexical_Decision_Task.osexp","/Users/Megan/Desktop","no","Andale Mono","no","18","no","white","no","yes","576","legacy","77","77","3","/Users/Megan/Desktop/subject-5207721.csv","legacy","Lentiform Loewenfeld","3.3.7","yes","yes","600bd7cfb6416f0113b04181","602110864497cf011d9c0822","0","j","NA","space","j","j","space","j","514","NA","4816","11981","5922","4892","514","2","legacy","1024","2","48000","-16","task","5207721","odd","NA","31728","38548","33730","207011","4370","22285","16362","207513","149159","207009","207513","206958","38548","208029","29296","206458","4299","183057","Lexical Decision Task","75","80385","82","yes","1024"
"3.132473155","0","4","glim","non-word","90.36144578313252","90.36144578313252","975.6385542168674","975.6385542168674","black","no","legacy","legacy","legacy","0","uniform","0","undefined","undefined","undefined","0","f","0","0","0","0","82","0","0","0","82","0","78","82","78","0","78","3","82","0","82","Fri Feb 19 11:48:35 2021","The main experiment item","yes","Lexical_Decision_Task.osexp","/Users/Megan/Desktop","no","Andale Mono","no","18","no","white","no","yes","576","legacy","78","78","3","/Users/Megan/Desktop/subject-5207721.csv","legacy","Lentiform Loewenfeld","3.3.7","yes","yes","600bd7cfb6416f0113b04181","602110864497cf011d9c0822","0","j","NA","space","j","j","space","j","593","NA","4816","11981","5922","4892","593","2","legacy","1024","2","48000","-16","task","5207721","odd","NA","31728","38548","33730","208588","4370","22285","16362","209090","149159","208585","209090","208534","38548","209685","29296","208033","4299","183057","Lexical Decision Task","75","80978","83","yes","1024"
"3.15462682","0","6","noal","non-word","89.28571428571429","89.28571428571429","976.4285714285714","976.4285714285714","black","no","legacy","legacy","legacy","0","uniform","0","undefined","undefined","undefined","0","f","0","0","0","0","83","0","0","0","83","0","79","83","79","0","79","3","83","0","83","Fri Feb 19 11:48:35 2021","The main experiment item","yes","Lexical_Decision_Task.osexp","/Users/Megan/Desktop","no","Andale Mono","no","18","no","white","no","yes","576","legacy","79","79","3","/Users/Megan/Desktop/subject-5207721.csv","legacy","Lentiform Loewenfeld","3.3.7","yes","yes","600bd7cfb6416f0113b04181","602110864497cf011d9c0822","0","j","NA","space","j","j","space","j","1042","NA","4816","11981","5922","4892","1042","2","legacy","1024","2","48000","-16","task","5207721","odd","NA","31728","38548","33730","211244","4370","22285","16362","211746","149159","211241","211746","211189","38548","212789","29296","208033","4299","209689","Lexical Decision Task","75","82020","84","yes","1024"
"3.068433376","8.09","2","bulb","word","89.41176470588235","89.41176470588235","973.5176470588235","973.5176470588235","black","no","legacy","legacy","legacy","0","uniform","1","undefined","undefined","undefined","1","j","0","0","0","0","84","0","0","0","84","0","80","84","80","0","80","3","84","0","84","Fri Feb 19 11:48:35 2021","The main experiment item","yes","Lexical_Decision_Task.osexp","/Users/Megan/Desktop","no","Andale Mono","no","18","no","white","no","yes","576","legacy","80","80","3","/Users/Megan/Desktop/subject-5207721.csv","legacy","Lentiform Loewenfeld","3.3.7","yes","yes","600bd7cfb6416f0113b04181","602110864497cf011d9c0822","0","j","NA","space","j","j","space","j","729","NA","4816","11981","5922","4892","729","2","legacy","1024","2","48000","-16","task","5207721","odd","NA","31728","38548","33730","214348","4370","22285","16362","214850","149159","214345","214850","214293","38548","215581","29296","208033","4299","212793","Lexical Decision Task","76","82749","85","yes","1024"
"3.259832699","0","9","flar","non-word","89.53488372093024","89.53488372093024","973.6511627906976","973.6511627906976","black","no","legacy","legacy","legacy","0","uniform","1","undefined","undefined","undefined","1","f","0","0","0","0","85","0","0","0","85","0","81","85","81","0","81","3","85","0","85","Fri Feb 19 11:48:35 2021","The main experiment item","yes","Lexical_Decision_Task.osexp","/Users/Megan/Desktop","no","Andale Mono","no","18","no","white","no","yes","576","legacy","81","81","3","/Users/Megan/Desktop/subject-5207721.csv","legacy","Lentiform Loewenfeld","3.3.7","yes","yes","600bd7cfb6416f0113b04181","602110864497cf011d9c0822","0","f","NA","space","j","j","space","f","985","NA","4816","11981","5922","4892","985","2","legacy","1024","2","48000","-16","task","5207721","odd","NA","31728","38548","33730","216139","4370","22285","16362","216642","149159","216137","216642","216085","38548","217629","29296","215585","4299","212793","Lexical Decision Task","77","83734","86","yes","1024"
"2.899638141","0","3","hapt","non-word","89.65517241379311","89.65517241379311","973.4252873563219","973.4252873563219","black","no","legacy","legacy","legacy","0","uniform","1","undefined","undefined","undefined","1","f","0","0","0","0","86","0","0","0","86","0","82","86","82","0","82","3","86","0","86","Fri Feb 19 11:48:35 2021","The main experiment item","yes","Lexical_Decision_Task.osexp","/Users/Megan/Desktop","no","Andale Mono","no","18","no","white","no","yes","576","legacy","82","82","3","/Users/Megan/Desktop/subject-5207721.csv","legacy","Lentiform Loewenfeld","3.3.7","yes","yes","600bd7cfb6416f0113b04181","602110864497cf011d9c0822","0","f","NA","space","j","j","space","f","954","NA","4816","11981","5922","4892","954","2","legacy","1024","2","48000","-16","task","5207721","odd","NA","31728","38548","33730","218187","4370","22285","16362","218689","149159","218185","218689","218133","38548","219645","29296","217633","4299","212793","Lexical Decision Task","78","84688","87","yes","1024"
"2.706148589","0","4","hube","non-word","89.77272727272727","89.77272727272727","968.3068181818181","968.3068181818181","black","no","legacy","legacy","legacy","0","uniform","1","undefined","undefined","undefined","1","f","0","0","0","0","87","0","0","0","87","0","83","87","83","0","83","3","87","0","87","Fri Feb 19 11:48:35 2021","The main experiment item","yes","Lexical_Decision_Task.osexp","/Users/Megan/Desktop","no","Andale Mono","no","18","no","white","no","yes","576","legacy","83","83","3","/Users/Megan/Desktop/subject-5207721.csv","legacy","Lentiform Loewenfeld","3.3.7","yes","yes","600bd7cfb6416f0113b04181","602110864497cf011d9c0822","0","f","NA","space","j","j","space","f","523","NA","4816","11981","5922","4892","523","2","legacy","1024","2","48000","-16","task","5207721","odd","NA","31728","38548","33730","220203","4370","22285","16362","220705","149159","220201","220705","220149","38548","221229","29296","219649","4299","212793","Lexical Decision Task","79","85211","88","yes","1024"
"2.668385917","5.48","4","twig","word","88.76404494382022","88.76404494382022","966.629213483146","966.629213483146","black","no","legacy","legacy","legacy","0","uniform","0","undefined","undefined","undefined","0","j","0","0","0","0","88","0","0","0","88","0","84","88","84","0","84","3","88","0","88","Fri Feb 19 11:48:35 2021","The main experiment item","yes","Lexical_Decision_Task.osexp","/Users/Megan/Desktop","no","Andale Mono","no","18","no","white","no","yes","576","legacy","84","84","3","/Users/Megan/Desktop/subject-5207721.csv","legacy","Lentiform Loewenfeld","3.3.7","yes","yes","600bd7cfb6416f0113b04181","602110864497cf011d9c0822","0","f","NA","space","j","j","space","f","819","NA","4816","11981","5922","4892","819","2","legacy","1024","2","48000","-16","task","5207721","odd","NA","31728","38548","33730","221786","4370","22285","16362","222288","149159","221784","222288","221733","38548","223109","29296","221233","4299","212793","Lexical Decision Task","79","86030","89","yes","1024"
"3.316948329","0","1","besc","non-word","88.88888888888889","88.88888888888889","965.4333333333333","965.4333333333333","black","no","legacy","legacy","legacy","0","uniform","1","undefined","undefined","undefined","1","f","0","0","0","0","89","0","0","0","89","0","85","89","85","0","85","3","89","0","89","Fri Feb 19 11:48:35 2021","The main experiment item","yes","Lexical_Decision_Task.osexp","/Users/Megan/Desktop","no","Andale Mono","no","18","no","white","no","yes","576","legacy","85","85","3","/Users/Megan/Desktop/subject-5207721.csv","legacy","Lentiform Loewenfeld","3.3.7","yes","yes","600bd7cfb6416f0113b04181","602110864497cf011d9c0822","0","f","NA","space","j","j","space","f","859","NA","4816","11981","5922","4892","859","2","legacy","1024","2","48000","-16","task","5207721","odd","NA","31728","38548","33730","224666","4370","22285","16362","225169","149159","224664","225169","224613","38548","226029","29296","221233","4299","223113","Lexical Decision Task","80","86889","90","yes","1024"
"2.9737419","7.69","7","claw","word","87.91208791208791","87.91208791208791","979.8241758241758","979.8241758241758","black","no","legacy","legacy","legacy","0","uniform","0","undefined","undefined","undefined","0","j","0","0","0","0","90","0","0","0","90","0","86","90","86","0","86","3","90","0","90","Fri Feb 19 11:48:35 2021","The main experiment item","yes","Lexical_Decision_Task.osexp","/Users/Megan/Desktop","no","Andale Mono","no","18","no","white","no","yes","576","legacy","86","86","3","/Users/Megan/Desktop/subject-5207721.csv","legacy","Lentiform Loewenfeld","3.3.7","yes","yes","600bd7cfb6416f0113b04181","602110864497cf011d9c0822","0","f","NA","space","j","j","space","f","2275","NA","4816","11981","5922","4892","2275","2","legacy","1024","2","48000","-16","task","5207721","odd","NA","31728","38548","33730","226586","4370","22285","16362","227088","149159","226584","227088","226533","38548","229365","29296","226033","4299","223113","Lexical Decision Task","80","89164","91","yes","1024"
"3.133964479","0","8","graw","non-word","88.04347826086956","88.04347826086956","977.4565217391304","977.4565217391304","black","no","legacy","legacy","legacy","0","uniform","1","undefined","undefined","undefined","1","f","0","0","0","0","91","0","0","0","91","0","87","91","87","0","87","3","91","0","91","Fri Feb 19 11:48:35 2021","The main experiment item","yes","Lexical_Decision_Task.osexp","/Users/Megan/Desktop","no","Andale Mono","no","18","no","white","no","yes","576","legacy","87","87","3","/Users/Megan/Desktop/subject-5207721.csv","legacy","Lentiform Loewenfeld","3.3.7","yes","yes","600bd7cfb6416f0113b04181","602110864497cf011d9c0822","0","f","NA","space","j","j","space","f","762","NA","4816","11981","5922","4892","762","2","legacy","1024","2","48000","-16","task","5207721","odd","NA","31728","38548","33730","230923","4370","22285","16362","231425","149159","230921","231425","230869","38548","232189","29296","226033","4299","229369","Lexical Decision Task","81","89926","92","yes","1024"
"2.884795364","0","6","flob","non-word","88.17204301075269","88.17204301075269","982.2903225806451","982.2903225806451","black","no","legacy","legacy","legacy","0","uniform","1","undefined","undefined","undefined","1","f","0","0","0","0","92","0","0","0","92","0","88","92","88","0","88","3","92","0","92","Fri Feb 19 11:48:35 2021","The main experiment item","yes","Lexical_Decision_Task.osexp","/Users/Megan/Desktop","no","Andale Mono","no","18","no","white","no","yes","576","legacy","88","88","3","/Users/Megan/Desktop/subject-5207721.csv","legacy","Lentiform Loewenfeld","3.3.7","yes","yes","600bd7cfb6416f0113b04181","602110864497cf011d9c0822","0","f","NA","space","j","j","space","f","1427","NA","4816","11981","5922","4892","1427","2","legacy","1024","2","48000","-16","task","5207721","odd","NA","31728","38548","33730","232746","4370","22285","16362","233248","149159","232743","233248","232693","38548","234677","29296","232193","4299","229369","Lexical Decision Task","82","91353","93","yes","1024"
"3.382617311","0","4","pret","non-word","87.23404255319149","87.23404255319149","980.0212765957447","980.0212765957447","black","no","legacy","legacy","legacy","0","uniform","0","undefined","undefined","undefined","0","f","0","0","0","0","93","0","0","0","93","0","89","93","89","0","89","3","93","0","93","Fri Feb 19 11:48:35 2021","The main experiment item","yes","Lexical_Decision_Task.osexp","/Users/Megan/Desktop","no","Andale Mono","no","18","no","white","no","yes","576","legacy","89","89","3","/Users/Megan/Desktop/subject-5207721.csv","legacy","Lentiform Loewenfeld","3.3.7","yes","yes","600bd7cfb6416f0113b04181","602110864497cf011d9c0822","0","j","NA","space","j","j","space","j","769","NA","4816","11981","5922","4892","769","2","legacy","1024","2","48000","-16","task","5207721","odd","NA","31728","38548","33730","235235","4370","22285","16362","235738","149159","235233","235738","235181","38548","236509","29296","234681","4299","229369","Lexical Decision Task","82","92122","94","yes","1024"
"3.20996159","0","4","clee","non-word","87.36842105263158","87.36842105263158","977.8842105263158","977.8842105263158","black","no","legacy","legacy","legacy","0","uniform","1","undefined","undefined","undefined","1","f","0","0","0","0","94","0","0","0","94","0","90","94","90","0","90","3","94","0","94","Fri Feb 19 11:48:35 2021","The main experiment item","yes","Lexical_Decision_Task.osexp","/Users/Megan/Desktop","no","Andale Mono","no","18","no","white","no","yes","576","legacy","90","90","3","/Users/Megan/Desktop/subject-5207721.csv","legacy","Lentiform Loewenfeld","3.3.7","yes","yes","600bd7cfb6416f0113b04181","602110864497cf011d9c0822","0","f","NA","space","j","j","space","f","777","NA","4816","11981","5922","4892","777","2","legacy","1024","2","48000","-16","task","5207721","odd","NA","31728","38548","33730","238068","4370","22285","16362","238571","149159","238066","238571","238014","38548","239349","29296","234681","4299","236513","Lexical Decision Task","83","92899","95","yes","1024"
"2.990042563","6.64","9","plow","word","86.45833333333333","86.45833333333333","976.8125","976.8125","black","no","legacy","legacy","legacy","0","uniform","0","undefined","undefined","undefined","0","j","0","0","0","0","95","0","0","0","95","0","91","95","91","0","91","3","95","0","95","Fri Feb 19 11:48:35 2021","The main experiment item","yes","Lexical_Decision_Task.osexp","/Users/Megan/Desktop","no","Andale Mono","no","18","no","white","no","yes","576","legacy","91","91","3","/Users/Megan/Desktop/subject-5207721.csv","legacy","Lentiform Loewenfeld","3.3.7","yes","yes","600bd7cfb6416f0113b04181","602110864497cf011d9c0822","0","f","NA","space","j","j","space","f","875","NA","4816","11981","5922","4892","875","2","legacy","1024","2","48000","-16","task","5207721","odd","NA","31728","38548","33730","239906","4370","22285","16362","240409","149159","239904","240409","239853","38548","241285","29296","239353","4299","236513","Lexical Decision Task","83","93774","96","yes","1024"
"2.6599162","0","2","saff","non-word","85.56701030927834","85.56701030927834","975.0927835051547","975.0927835051547","black","no","legacy","legacy","legacy","0","uniform","0","undefined","undefined","undefined","0","f","0","0","0","0","96","0","0","0","96","0","92","96","92","0","92","3","96","0","96","Fri Feb 19 11:48:35 2021","The main experiment item","yes","Lexical_Decision_Task.osexp","/Users/Megan/Desktop","no","Andale Mono","no","18","no","white","no","yes","576","legacy","92","92","3","/Users/Megan/Desktop/subject-5207721.csv","legacy","Lentiform Loewenfeld","3.3.7","yes","yes","600bd7cfb6416f0113b04181","602110864497cf011d9c0822","0","j","NA","space","j","j","space","j","810","NA","4816","11981","5922","4892","810","2","legacy","1024","2","48000","-16","task","5207721","odd","NA","31728","38548","33730","242843","4370","22285","16362","243345","149159","242841","243345","242789","38548","244157","29296","239353","4299","241289","Lexical Decision Task","83","94584","97","yes","1024"
"2.839898939","8.99","6","soap","word","85.71428571428571","85.71428571428571","971.5918367346939","971.5918367346939","black","no","legacy","legacy","legacy","0","uniform","1","undefined","undefined","undefined","1","j","0","0","0","0","97","0","0","0","97","0","93","97","93","0","93","3","97","0","97","Fri Feb 19 11:48:35 2021","The main experiment item","yes","Lexical_Decision_Task.osexp","/Users/Megan/Desktop","no","Andale Mono","no","18","no","white","no","yes","576","legacy","93","93","3","/Users/Megan/Desktop/subject-5207721.csv","legacy","Lentiform Loewenfeld","3.3.7","yes","yes","600bd7cfb6416f0113b04181","602110864497cf011d9c0822","0","j","NA","space","j","j","space","j","632","NA","4816","11981","5922","4892","632","2","legacy","1024","2","48000","-16","task","5207721","odd","NA","31728","38548","33730","245716","4370","22285","16362","246218","149159","245714","246219","245662","38548","246853","29296","239353","4299","244161","Lexical Decision Task","84","95216","98","yes","1024"
"2.80048796","0","8","pife","non-word","85.85858585858585","85.85858585858585","968.7676767676768","968.7676767676768","black","no","legacy","legacy","legacy","0","uniform","1","undefined","undefined","undefined","1","f","0","0","0","0","98","0","0","0","98","0","94","98","94","0","94","3","98","0","98","Fri Feb 19 11:48:35 2021","The main experiment item","yes","Lexical_Decision_Task.osexp","/Users/Megan/Desktop","no","Andale Mono","no","18","no","white","no","yes","576","legacy","94","94","3","/Users/Megan/Desktop/subject-5207721.csv","legacy","Lentiform Loewenfeld","3.3.7","yes","yes","600bd7cfb6416f0113b04181","602110864497cf011d9c0822","0","f","NA","space","j","j","space","f","692","NA","4816","11981","5922","4892","692","2","legacy","1024","2","48000","-16","task","5207721","odd","NA","31728","38548","33730","247410","4370","22285","16362","247912","149159","247408","247912","247357","38548","248605","29296","246857","4299","244161","Lexical Decision Task","85","95908","99","yes","1024"
"2.983324025","9.56","2","debt","word","86","86","965.66","965.66","black","no","legacy","legacy","legacy","0","uniform","1","undefined","undefined","undefined","1","j","0","0","0","0","99","0","0","0","99","0","95","99","95","0","95","3","99","0","99","Fri Feb 19 11:48:35 2021","The main experiment item","yes","Lexical_Decision_Task.osexp","/Users/Megan/Desktop","no","Andale Mono","no","18","no","white","no","yes","576","legacy","95","95","3","/Users/Megan/Desktop/subject-5207721.csv","legacy","Lentiform Loewenfeld","3.3.7","yes","yes","600bd7cfb6416f0113b04181","602110864497cf011d9c0822","0","j","NA","space","j","j","space","j","658","NA","4816","11981","5922","4892","658","2","legacy","1024","2","48000","-16","task","5207721","odd","NA","31728","38548","33730","249162","4370","22285","16362","249665","149159","249160","249665","249109","38548","250325","29296","248609","4299","244161","Lexical Decision Task","86","96566","100","yes","1024"
"3.440331212","7.35","6","stew","word","86.13861386138613","86.13861386138613","963.7227722772277","963.7227722772277","black","no","legacy","legacy","legacy","0","uniform","1","undefined","undefined","undefined","1","j","0","0","0","0","100","0","0","0","100","0","96","100","96","0","96","3","100","0","100","Fri Feb 19 11:48:35 2021","The main experiment item","yes","Lexical_Decision_Task.osexp","/Users/Megan/Desktop","no","Andale Mono","no","18","no","white","no","yes","576","legacy","96","96","3","/Users/Megan/Desktop/subject-5207721.csv","legacy","Lentiform Loewenfeld","3.3.7","yes","yes","600bd7cfb6416f0113b04181","602110864497cf011d9c0822","0","j","NA","space","j","j","space","j","770","NA","4816","11981","5922","4892","770","2","legacy","1024","2","48000","-16","task","5207721","odd","NA","31728","38548","33730","250883","4370","22285","16362","251385","149159","250881","251385","250829","38548","252157","29296","250329","4299","244161","Lexical Decision Task","87","97336","101","yes","1024"
"2.7084209","0","8","vump","non-word","86.27450980392157","86.27450980392157","962.1274509803922","962.1274509803922","black","no","legacy","legacy","legacy","0","uniform","1","undefined","undefined","undefined","1","f","0","0","0","0","101","0","0","0","101","0","97","101","97","0","97","3","101","0","101","Fri Feb 19 11:48:35 2021","The main experiment item","yes","Lexical_Decision_Task.osexp","/Users/Megan/Desktop","no","Andale Mono","no","18","no","white","no","yes","576","legacy","97","97","3","/Users/Megan/Desktop/subject-5207721.csv","legacy","Lentiform Loewenfeld","3.3.7","yes","yes","600bd7cfb6416f0113b04181","602110864497cf011d9c0822","0","f","NA","space","j","j","space","f","801","NA","4816","11981","5922","4892","801","2","legacy","1024","2","48000","-16","task","5207721","odd","NA","31728","38548","33730","252716","4370","22285","16362","253218","149159","252713","253219","252662","38548","254021","29296","252162","4299","244161","Lexical Decision Task","88","98137","102","yes","1024"
