"Log_BG","Log_Freq_HAL","Ortho_N","Stimulus","Type","acc","accuracy","average_response_time","avg_rt","background","bidi","canvas_backend","clock_backend","color_backend","compensation","coordinates","correct","correct_Experimental_intro","correct_Introduction","correct_Practice_intro","correct_experimenter_kb","correct_response","count_End_Of_Experiment","count_End_Of_Practice","count_Experimental_Loop","count_Experimental_intro","count_Fixation","count_Introduction","count_Practice_Loop","count_Practice_intro","count_Stimulus","count_block_break_feedback","count_experimental_sequence","count_experimenter_kb","count_increment_trial_count","count_init_trial_count","count_logger","count_practice_sequence","count_right","count_task","count_wrong","datetime","description","disable_garbage_collection","experiment_file","experiment_path","font_bold","font_family","font_italic","font_size","font_underline","foreground","form_clicks","fullscreen","height","keyboard_backend","live_row","live_row_Experimental_Loop","live_row_Practice_Loop","logfile","mouse_backend","opensesame_codename","opensesame_version","osf_always_upload_data","osf_always_upload_experiment","osf_datanode_id","osf_id","repeat_cycle","response","response_End_Of_Experiment","response_Experimental_intro","response_Introduction","response_Practice_intro","response_block_break_feedback","response_experimenter_kb","response_time","response_time_End_Of_Experiment","response_time_Experimental_intro","response_time_Introduction","response_time_Practice_intro","response_time_block_break_feedback","response_time_experimenter_kb","round_decimals","sampler_backend","sound_buf_size","sound_channels","sound_freq","sound_sample_size","start","subject_nr","subject_parity","time_End_Of_Experiment","time_End_Of_Practice","time_Experimental_Loop","time_Experimental_intro","time_Fixation","time_Introduction","time_Practice_Loop","time_Practice_intro","time_Stimulus","time_block_break_feedback","time_experimental_sequence","time_experimenter_kb","time_increment_trial_count","time_init_trial_count","time_logger","time_practice_sequence","time_right","time_task","time_wrong","title","total_correct","total_response_time","total_responses","uniform_coordinates","width"
"2.744553742","0","2","nawk","non-word","100","100","1005.4","1005.4","black","no","legacy","legacy","legacy","0","uniform","1","undefined","undefined","undefined","1","f","0","0","0","0","4","0","0","0","4","NA","0","4","0","0","0","3","4","0","4","Thu Feb 18 11:11:23 2021","The main experiment item","yes","Lexical_Decision_Task.osexp","C:/Users/gmhan","no","Andale Mono","no","18","no","white","no","yes","576","legacy","0","0","3","C:/Users/gmhan/subject-5202467.csv","legacy","Lentiform Loewenfeld","3.3.7","yes","yes","600bd7cfb6416f0113b04181","602110864497cf011d9c0822","0","f","NA","space","space","space","NA","f","755","NA","3960","9408","7114","NA","755","2","legacy","1024","2","48000","-16","task","5202467","odd","NA","28170","34132","30171","34171","3020","19545","12430","34672","NA","34170","34672","NA","34132","35427","26373","27649","2990","NA","Lexical Decision Task","5","5027","5","yes","1024"
"3.140404328","10.66","9","deep","word","100","100","939.8333333333334","939.8333333333334","black","no","legacy","legacy","legacy","0","uniform","1","undefined","undefined","undefined","1","j","0","0","0","0","5","0","0","0","5","NA","1","5","1","0","1","3","5","0","5","Thu Feb 18 11:11:23 2021","The main experiment item","yes","Lexical_Decision_Task.osexp","C:/Users/gmhan","no","Andale Mono","no","18","no","white","no","yes","576","legacy","1","1","3","C:/Users/gmhan/subject-5202467.csv","legacy","Lentiform Loewenfeld","3.3.7","yes","yes","600bd7cfb6416f0113b04181","602110864497cf011d9c0822","0","j","NA","space","space","space","NA","j","612","NA","3960","9408","7114","NA","612","2","legacy","1024","2","48000","-16","task","5202467","odd","NA","28170","34132","30171","36122","3020","19545","12430","36623","NA","36121","36623","35988","34132","37235","26373","35488","2990","NA","Lexical Decision Task","6","5639","6","yes","1024"
"3.174641193","0","3","ramb","non-word","100","100","972.1428571428571","972.1428571428571","black","no","legacy","legacy","legacy","0","uniform","1","undefined","undefined","undefined","1","f","0","0","0","0","6","0","0","0","6","NA","2","6","2","0","2","3","6","0","6","Thu Feb 18 11:11:23 2021","The main experiment item","yes","Lexical_Decision_Task.osexp","C:/Users/gmhan","no","Andale Mono","no","18","no","white","no","yes","576","legacy","2","2","3","C:/Users/gmhan/subject-5202467.csv","legacy","Lentiform Loewenfeld","3.3.7","yes","yes","600bd7cfb6416f0113b04181","602110864497cf011d9c0822","0","f","NA","space","space","space","NA","f","1166","NA","3960","9408","7114","NA","1166","2","legacy","1024","2","48000","-16","task","5202467","odd","NA","28170","34132","30171","37841","3020","19545","12430","38343","NA","37840","38343","37792","34132","39510","26373","37292","2990","NA","Lexical Decision Task","7","6805","7","yes","1024"
"2.966923697","5.4","2","fume","word","100","100","941","941","black","no","legacy","legacy","legacy","0","uniform","1","undefined","undefined","undefined","1","j","0","0","0","0","7","0","0","0","7","NA","3","7","3","0","3","3","7","0","7","Thu Feb 18 11:11:23 2021","The main experiment item","yes","Lexical_Decision_Task.osexp","C:/Users/gmhan","no","Andale Mono","no","18","no","white","no","yes","576","legacy","3","3","3","C:/Users/gmhan/subject-5202467.csv","legacy","Lentiform Loewenfeld","3.3.7","yes","yes","600bd7cfb6416f0113b04181","602110864497cf011d9c0822","0","j","NA","space","space","space","NA","j","723","NA","3960","9408","7114","NA","723","2","legacy","1024","2","48000","-16","task","5202467","odd","NA","28170","34132","30171","40118","3020","19545","12430","40619","NA","40117","40619","40069","34132","41343","26373","39569","2990","NA","Lexical Decision Task","8","7528","8","yes","1024"
"2.821076612","0","4","lult","non-word","100","100","958.3333333333334","958.3333333333334","black","no","legacy","legacy","legacy","0","uniform","1","undefined","undefined","undefined","1","f","0","0","0","0","8","0","0","0","8","NA","4","8","4","0","4","3","8","0","8","Thu Feb 18 11:11:23 2021","The main experiment item","yes","Lexical_Decision_Task.osexp","C:/Users/gmhan","no","Andale Mono","no","18","no","white","no","yes","576","legacy","4","4","3","C:/Users/gmhan/subject-5202467.csv","legacy","Lentiform Loewenfeld","3.3.7","yes","yes","600bd7cfb6416f0113b04181","602110864497cf011d9c0822","0","f","NA","space","space","space","NA","f","1097","NA","3960","9408","7114","NA","1097","2","legacy","1024","2","48000","-16","task","5202467","odd","NA","28170","34132","30171","41952","3020","19545","12430","42454","NA","41950","42454","41901","34132","43553","26373","41401","2990","NA","Lexical Decision Task","9","8625","9","yes","1024"
"3.303771854","0","9","dath","non-word","100","100","927","927","black","no","legacy","legacy","legacy","0","uniform","1","undefined","undefined","undefined","1","f","0","0","0","0","9","0","0","0","9","NA","5","9","5","0","5","3","9","0","9","Thu Feb 18 11:11:23 2021","The main experiment item","yes","Lexical_Decision_Task.osexp","C:/Users/gmhan","no","Andale Mono","no","18","no","white","no","yes","576","legacy","5","5","3","C:/Users/gmhan/subject-5202467.csv","legacy","Lentiform Loewenfeld","3.3.7","yes","yes","600bd7cfb6416f0113b04181","602110864497cf011d9c0822","0","f","NA","space","space","space","NA","f","645","NA","3960","9408","7114","NA","645","2","legacy","1024","2","48000","-16","task","5202467","odd","NA","28170","34132","30171","44161","3020","19545","12430","44662","NA","44160","44663","44111","34132","45309","26373","43611","2990","NA","Lexical Decision Task","10","9270","10","yes","1024"
"3.374198258","0","8","vist","non-word","90.9090909090909","90.9090909090909","913.9090909090909","913.9090909090909","black","no","legacy","legacy","legacy","0","uniform","0","undefined","undefined","undefined","0","f","0","0","0","0","10","0","0","0","10","NA","6","10","6","0","6","3","10","0","10","Thu Feb 18 11:11:23 2021","The main experiment item","yes","Lexical_Decision_Task.osexp","C:/Users/gmhan","no","Andale Mono","no","18","no","white","no","yes","576","legacy","6","6","3","C:/Users/gmhan/subject-5202467.csv","legacy","Lentiform Loewenfeld","3.3.7","yes","yes","600bd7cfb6416f0113b04181","602110864497cf011d9c0822","0","j","NA","space","space","space","NA","j","783","NA","3960","9408","7114","NA","783","2","legacy","1024","2","48000","-16","task","5202467","odd","NA","28170","34132","30171","45861","3020","19545","12430","46362","NA","45860","46362","45813","34132","47147","26373","45313","2990","NA","Lexical Decision Task","10","10053","11","yes","1024"
"2.952953801","0","8","clax","non-word","91.66666666666667","91.66666666666667","1003.1666666666666","1003.1666666666666","black","no","legacy","legacy","legacy","0","uniform","1","undefined","undefined","undefined","1","f","0","0","0","0","11","0","0","0","11","NA","7","11","7","0","7","3","11","0","11","Thu Feb 18 11:11:23 2021","The main experiment item","yes","Lexical_Decision_Task.osexp","C:/Users/gmhan","no","Andale Mono","no","18","no","white","no","yes","576","legacy","7","7","3","C:/Users/gmhan/subject-5202467.csv","legacy","Lentiform Loewenfeld","3.3.7","yes","yes","600bd7cfb6416f0113b04181","602110864497cf011d9c0822","0","f","NA","space","space","space","NA","f","1985","NA","3960","9408","7114","NA","1985","2","legacy","1024","2","48000","-16","task","5202467","odd","NA","28170","34132","30171","48758","3020","19545","12430","49259","NA","48757","49259","48704","34132","51245","26373","45313","2990","47204","Lexical Decision Task","11","12038","12","yes","1024"
"2.698100546","0","9","mulk","non-word","84.61538461538461","84.61538461538461","993.5384615384615","993.5384615384615","black","no","legacy","legacy","legacy","0","uniform","0","undefined","undefined","undefined","0","f","0","0","0","0","12","0","0","0","12","NA","8","12","8","0","8","3","12","0","12","Thu Feb 18 11:11:23 2021","The main experiment item","yes","Lexical_Decision_Task.osexp","C:/Users/gmhan","no","Andale Mono","no","18","no","white","no","yes","576","legacy","8","8","3","C:/Users/gmhan/subject-5202467.csv","legacy","Lentiform Loewenfeld","3.3.7","yes","yes","600bd7cfb6416f0113b04181","602110864497cf011d9c0822","0","j","NA","space","space","space","NA","j","878","NA","3960","9408","7114","NA","878","2","legacy","1024","2","48000","-16","task","5202467","odd","NA","28170","34132","30171","51852","3020","19545","12430","52353","NA","51851","52353","51805","34132","53231","26373","51305","2990","47204","Lexical Decision Task","11","12916","13","yes","1024"
"3.068433376","8.09","2","bulb","word","85.71428571428571","85.71428571428571","980.7857142857143","980.7857142857143","black","no","legacy","legacy","legacy","0","uniform","1","undefined","undefined","undefined","1","j","0","0","0","0","13","0","0","0","13","NA","9","13","9","0","9","3","13","0","13","Thu Feb 18 11:11:23 2021","The main experiment item","yes","Lexical_Decision_Task.osexp","C:/Users/gmhan","no","Andale Mono","no","18","no","white","no","yes","576","legacy","9","9","3","C:/Users/gmhan/subject-5202467.csv","legacy","Lentiform Loewenfeld","3.3.7","yes","yes","600bd7cfb6416f0113b04181","602110864497cf011d9c0822","0","j","NA","space","space","space","NA","j","815","NA","3960","9408","7114","NA","815","2","legacy","1024","2","48000","-16","task","5202467","odd","NA","28170","34132","30171","54834","3020","19545","12430","55335","NA","54832","55336","54788","34132","56151","26373","51305","2990","53288","Lexical Decision Task","12","13731","14","yes","1024"
"3.197740804","6.74","3","ache","word","86.66666666666667","86.66666666666667","960.9333333333333","960.9333333333333","black","no","legacy","legacy","legacy","0","uniform","1","undefined","undefined","undefined","1","j","0","0","0","0","14","0","0","0","14","NA","10","14","10","0","10","3","14","0","14","Thu Feb 18 11:11:23 2021","The main experiment item","yes","Lexical_Decision_Task.osexp","C:/Users/gmhan","no","Andale Mono","no","18","no","white","no","yes","576","legacy","10","10","3","C:/Users/gmhan/subject-5202467.csv","legacy","Lentiform Loewenfeld","3.3.7","yes","yes","600bd7cfb6416f0113b04181","602110864497cf011d9c0822","0","j","NA","space","space","space","NA","j","683","NA","3960","9408","7114","NA","683","2","legacy","1024","2","48000","-16","task","5202467","odd","NA","28170","34132","30171","56757","3020","19545","12430","57258","NA","56756","57258","56709","34132","57944","26373","56209","2990","53288","Lexical Decision Task","13","14414","15","yes","1024"
"3.064581521","5.51","6","cask","word","81.25","81.25","951.75","951.75","black","no","legacy","legacy","legacy","0","uniform","0","undefined","undefined","undefined","0","j","0","0","0","0","15","0","0","0","15","NA","11","15","11","0","11","3","15","0","15","Thu Feb 18 11:11:23 2021","The main experiment item","yes","Lexical_Decision_Task.osexp","C:/Users/gmhan","no","Andale Mono","no","18","no","white","no","yes","576","legacy","11","11","3","C:/Users/gmhan/subject-5202467.csv","legacy","Lentiform Loewenfeld","3.3.7","yes","yes","600bd7cfb6416f0113b04181","602110864497cf011d9c0822","0","f","NA","space","space","space","NA","f","814","NA","3960","9408","7114","NA","814","2","legacy","1024","2","48000","-16","task","5202467","odd","NA","28170","34132","30171","58551","3020","19545","12430","59052","NA","58549","59052","58503","34132","59867","26373","58003","2990","53288","Lexical Decision Task","13","15228","16","yes","1024"
"3.031408464","0","7","drow","non-word","82.3529411764706","82.3529411764706","961.7058823529412","961.7058823529412","black","no","legacy","legacy","legacy","0","uniform","1","undefined","undefined","undefined","1","f","0","0","0","0","16","0","0","0","16","NA","12","16","12","0","12","3","16","0","16","Thu Feb 18 11:11:23 2021","The main experiment item","yes","Lexical_Decision_Task.osexp","C:/Users/gmhan","no","Andale Mono","no","18","no","white","no","yes","576","legacy","12","12","3","C:/Users/gmhan/subject-5202467.csv","legacy","Lentiform Loewenfeld","3.3.7","yes","yes","600bd7cfb6416f0113b04181","602110864497cf011d9c0822","0","f","NA","space","space","space","NA","f","1121","NA","3960","9408","7114","NA","1121","2","legacy","1024","2","48000","-16","task","5202467","odd","NA","28170","34132","30171","61479","3020","19545","12430","61981","NA","61477","61981","61424","34132","63104","26373","58003","2990","59924","Lexical Decision Task","14","16349","17","yes","1024"
"3.067193647","6.73","6","raft","word","83.33333333333333","83.33333333333333","961.0555555555555","961.0555555555555","black","no","legacy","legacy","legacy","0","uniform","1","undefined","undefined","undefined","1","j","0","0","0","0","17","0","0","0","17","NA","13","17","13","0","13","3","17","0","17","Thu Feb 18 11:11:23 2021","The main experiment item","yes","Lexical_Decision_Task.osexp","C:/Users/gmhan","no","Andale Mono","no","18","no","white","no","yes","576","legacy","13","13","3","C:/Users/gmhan/subject-5202467.csv","legacy","Lentiform Loewenfeld","3.3.7","yes","yes","600bd7cfb6416f0113b04181","602110864497cf011d9c0822","0","j","NA","space","space","space","NA","j","950","NA","3960","9408","7114","NA","950","2","legacy","1024","2","48000","-16","task","5202467","odd","NA","28170","34132","30171","63708","3020","19545","12430","64209","NA","63706","64209","63660","34132","65159","26373","63160","2990","59924","Lexical Decision Task","15","17299","18","yes","1024"
"3.274543461","7.46","7","scar","word","84.21052631578948","84.21052631578948","949.2631578947369","949.2631578947369","black","no","legacy","legacy","legacy","0","uniform","1","undefined","undefined","undefined","1","j","0","0","0","0","18","0","0","0","18","NA","14","18","14","0","14","3","18","0","18","Thu Feb 18 11:11:23 2021","The main experiment item","yes","Lexical_Decision_Task.osexp","C:/Users/gmhan","no","Andale Mono","no","18","no","white","no","yes","576","legacy","14","14","3","C:/Users/gmhan/subject-5202467.csv","legacy","Lentiform Loewenfeld","3.3.7","yes","yes","600bd7cfb6416f0113b04181","602110864497cf011d9c0822","0","j","NA","space","space","space","NA","j","737","NA","3960","9408","7114","NA","737","2","legacy","1024","2","48000","-16","task","5202467","odd","NA","28170","34132","30171","65765","3020","19545","12430","66267","NA","65764","66267","65717","34132","67004","26373","65217","2990","59924","Lexical Decision Task","16","18036","19","yes","1024"
"2.799799878","0","4","ciff","non-word","80","80","937.95","937.95","black","no","legacy","legacy","legacy","0","uniform","0","undefined","undefined","undefined","0","f","0","0","0","0","19","0","0","0","19","NA","15","19","15","0","15","3","19","0","19","Thu Feb 18 11:11:23 2021","The main experiment item","yes","Lexical_Decision_Task.osexp","C:/Users/gmhan","no","Andale Mono","no","18","no","white","no","yes","576","legacy","15","15","3","C:/Users/gmhan/subject-5202467.csv","legacy","Lentiform Loewenfeld","3.3.7","yes","yes","600bd7cfb6416f0113b04181","602110864497cf011d9c0822","0","j","NA","space","space","space","NA","j","723","NA","3960","9408","7114","NA","723","2","legacy","1024","2","48000","-16","task","5202467","odd","NA","28170","34132","30171","67564","3020","19545","12430","68065","NA","67563","68065","67507","34132","68789","26373","67007","2990","59924","Lexical Decision Task","16","18759","20","yes","1024"
"3.282244367","0","6","fute","non-word","80.95238095238095","80.95238095238095","946.2857142857143","946.2857142857143","black","no","legacy","legacy","legacy","0","uniform","1","undefined","undefined","undefined","1","f","0","0","0","0","20","0","0","0","20","NA","16","20","16","0","16","3","20","0","20","Thu Feb 18 11:11:23 2021","The main experiment item","yes","Lexical_Decision_Task.osexp","C:/Users/gmhan","no","Andale Mono","no","18","no","white","no","yes","576","legacy","16","16","3","C:/Users/gmhan/subject-5202467.csv","legacy","Lentiform Loewenfeld","3.3.7","yes","yes","600bd7cfb6416f0113b04181","602110864497cf011d9c0822","0","f","NA","space","space","space","NA","f","1113","NA","3960","9408","7114","NA","1113","2","legacy","1024","2","48000","-16","task","5202467","odd","NA","28170","34132","30171","70399","3020","19545","12430","70901","NA","70398","70901","70346","34132","72015","26373","67007","2990","68846","Lexical Decision Task","17","19872","21","yes","1024"
"3.049218023","7.4","9","robe","word","81.81818181818181","81.81818181818181","934.7272727272727","934.7272727272727","black","no","legacy","legacy","legacy","0","uniform","1","undefined","undefined","undefined","1","j","0","0","0","0","21","0","0","0","21","NA","17","21","17","0","17","3","21","0","21","Thu Feb 18 11:11:23 2021","The main experiment item","yes","Lexical_Decision_Task.osexp","C:/Users/gmhan","no","Andale Mono","no","18","no","white","no","yes","576","legacy","17","17","3","C:/Users/gmhan/subject-5202467.csv","legacy","Lentiform Loewenfeld","3.3.7","yes","yes","600bd7cfb6416f0113b04181","602110864497cf011d9c0822","0","j","NA","space","space","space","NA","j","692","NA","3960","9408","7114","NA","692","2","legacy","1024","2","48000","-16","task","5202467","odd","NA","28170","34132","30171","72624","3020","19545","12430","73125","NA","72622","73125","72572","34132","73818","26373","72072","2990","68846","Lexical Decision Task","18","20564","22","yes","1024"
"3.368162872","0","4","ferk","non-word","82.6086956521739","82.6086956521739","922.2608695652174","922.2608695652174","black","no","legacy","legacy","legacy","0","uniform","1","undefined","undefined","undefined","1","f","0","0","0","0","22","0","0","0","22","NA","18","22","18","0","18","3","22","0","22","Thu Feb 18 11:11:23 2021","The main experiment item","yes","Lexical_Decision_Task.osexp","C:/Users/gmhan","no","Andale Mono","no","18","no","white","no","yes","576","legacy","18","18","3","C:/Users/gmhan/subject-5202467.csv","legacy","Lentiform Loewenfeld","3.3.7","yes","yes","600bd7cfb6416f0113b04181","602110864497cf011d9c0822","0","f","NA","space","space","space","NA","f","648","NA","3960","9408","7114","NA","648","2","legacy","1024","2","48000","-16","task","5202467","odd","NA","28170","34132","30171","74425","3020","19545","12430","74926","NA","74424","74926","74377","34132","75575","26373","73877","2990","68846","Lexical Decision Task","19","21212","23","yes","1024"
"3.119255889","6.63","2","itch","word","83.33333333333333","83.33333333333333","908.9583333333334","908.9583333333334","black","no","legacy","legacy","legacy","0","uniform","1","undefined","undefined","undefined","1","j","0","0","0","0","23","0","0","0","23","NA","19","23","19","0","19","3","23","0","23","Thu Feb 18 11:11:23 2021","The main experiment item","yes","Lexical_Decision_Task.osexp","C:/Users/gmhan","no","Andale Mono","no","18","no","white","no","yes","576","legacy","19","19","3","C:/Users/gmhan/subject-5202467.csv","legacy","Lentiform Loewenfeld","3.3.7","yes","yes","600bd7cfb6416f0113b04181","602110864497cf011d9c0822","0","j","NA","space","space","space","NA","j","603","NA","3960","9408","7114","NA","603","2","legacy","1024","2","48000","-16","task","5202467","odd","NA","28170","34132","30171","76181","3020","19545","12430","76683","NA","76180","76683","76133","34132","77287","26373","75633","2990","68846","Lexical Decision Task","20","21815","24","yes","1024"
"3.209246849","0","7","slem","non-word","84","84","900.76","900.76","black","no","legacy","legacy","legacy","0","uniform","1","undefined","undefined","undefined","1","f","0","0","0","0","24","0","0","0","24","NA","20","24","20","0","20","3","24","0","24","Thu Feb 18 11:11:23 2021","The main experiment item","yes","Lexical_Decision_Task.osexp","C:/Users/gmhan","no","Andale Mono","no","18","no","white","no","yes","576","legacy","20","20","3","C:/Users/gmhan/subject-5202467.csv","legacy","Lentiform Loewenfeld","3.3.7","yes","yes","600bd7cfb6416f0113b04181","602110864497cf011d9c0822","0","f","NA","space","space","space","NA","f","704","NA","3960","9408","7114","NA","704","2","legacy","1024","2","48000","-16","task","5202467","odd","NA","28170","34132","30171","77894","3020","19545","12430","78395","NA","77892","78395","77845","34132","79099","26373","77345","2990","68846","Lexical Decision Task","21","22519","25","yes","1024"
"3.316948329","0","1","besc","non-word","84.61538461538461","84.61538461538461","896.5769230769231","896.5769230769231","black","no","legacy","legacy","legacy","0","uniform","1","undefined","undefined","undefined","1","f","0","0","0","0","25","0","0","0","25","NA","21","25","21","0","21","3","25","0","25","Thu Feb 18 11:11:23 2021","The main experiment item","yes","Lexical_Decision_Task.osexp","C:/Users/gmhan","no","Andale Mono","no","18","no","white","no","yes","576","legacy","21","21","3","C:/Users/gmhan/subject-5202467.csv","legacy","Lentiform Loewenfeld","3.3.7","yes","yes","600bd7cfb6416f0113b04181","602110864497cf011d9c0822","0","f","NA","space","space","space","NA","f","792","NA","3960","9408","7114","NA","792","2","legacy","1024","2","48000","-16","task","5202467","odd","NA","28170","34132","30171","79715","3020","19545","12430","80216","NA","79713","80217","79658","34132","81010","26373","79158","2990","68846","Lexical Decision Task","22","23311","26","yes","1024"
"2.807758206","6.25","4","hurl","word","81.48148148148148","81.48148148148148","894.3703703703703","894.3703703703703","black","no","legacy","legacy","legacy","0","uniform","0","undefined","undefined","undefined","0","j","0","0","0","0","26","0","0","0","26","NA","22","26","22","0","22","3","26","0","26","Thu Feb 18 11:11:23 2021","The main experiment item","yes","Lexical_Decision_Task.osexp","C:/Users/gmhan","no","Andale Mono","no","18","no","white","no","yes","576","legacy","22","22","3","C:/Users/gmhan/subject-5202467.csv","legacy","Lentiform Loewenfeld","3.3.7","yes","yes","600bd7cfb6416f0113b04181","602110864497cf011d9c0822","0","f","NA","space","space","space","NA","f","837","NA","3960","9408","7114","NA","837","2","legacy","1024","2","48000","-16","task","5202467","odd","NA","28170","34132","30171","81619","3020","19545","12430","82120","NA","81618","82120","81566","34132","82958","26373","81066","2990","68846","Lexical Decision Task","22","24148","27","yes","1024"
"2.771097306","0","9","jold","non-word","82.14285714285714","82.14285714285714","891","891","black","no","legacy","legacy","legacy","0","uniform","1","undefined","undefined","undefined","1","f","0","0","0","0","27","0","0","0","27","NA","23","27","23","0","23","3","27","0","27","Thu Feb 18 11:11:23 2021","The main experiment item","yes","Lexical_Decision_Task.osexp","C:/Users/gmhan","no","Andale Mono","no","18","no","white","no","yes","576","legacy","23","23","3","C:/Users/gmhan/subject-5202467.csv","legacy","Lentiform Loewenfeld","3.3.7","yes","yes","600bd7cfb6416f0113b04181","602110864497cf011d9c0822","0","f","NA","space","space","space","NA","f","800","NA","3960","9408","7114","NA","800","2","legacy","1024","2","48000","-16","task","5202467","odd","NA","28170","34132","30171","84568","3020","19545","12430","85069","NA","84567","85069","84515","34132","85870","26373","81066","2990","83015","Lexical Decision Task","23","24948","28","yes","1024"
"2.924968096","0","4","phim","non-word","82.75862068965517","82.75862068965517","887.7586206896551","887.7586206896551","black","no","legacy","legacy","legacy","0","uniform","1","undefined","undefined","undefined","1","f","0","0","0","0","28","0","0","0","28","NA","24","28","24","0","24","3","28","0","28","Thu Feb 18 11:11:23 2021","The main experiment item","yes","Lexical_Decision_Task.osexp","C:/Users/gmhan","no","Andale Mono","no","18","no","white","no","yes","576","legacy","24","24","3","C:/Users/gmhan/subject-5202467.csv","legacy","Lentiform Loewenfeld","3.3.7","yes","yes","600bd7cfb6416f0113b04181","602110864497cf011d9c0822","0","f","NA","space","space","space","NA","f","797","NA","3960","9408","7114","NA","797","2","legacy","1024","2","48000","-16","task","5202467","odd","NA","28170","34132","30171","86484","3020","19545","12430","86986","NA","86482","86986","86429","34132","87783","26373","85929","2990","83015","Lexical Decision Task","24","25745","29","yes","1024"
"3.088136089","8.32","9","worm","word","83.33333333333333","83.33333333333333","876.8666666666667","876.8666666666667","black","no","legacy","legacy","legacy","0","uniform","1","undefined","undefined","undefined","1","j","0","0","0","0","29","0","0","0","29","NA","25","29","25","0","25","3","29","0","29","Thu Feb 18 11:11:23 2021","The main experiment item","yes","Lexical_Decision_Task.osexp","C:/Users/gmhan","no","Andale Mono","no","18","no","white","no","yes","576","legacy","25","25","3","C:/Users/gmhan/subject-5202467.csv","legacy","Lentiform Loewenfeld","3.3.7","yes","yes","600bd7cfb6416f0113b04181","602110864497cf011d9c0822","0","j","NA","space","space","space","NA","j","561","NA","3960","9408","7114","NA","561","2","legacy","1024","2","48000","-16","task","5202467","odd","NA","28170","34132","30171","88394","3020","19545","12430","88895","NA","88392","88895","88341","34132","89456","26373","87841","2990","83015","Lexical Decision Task","25","26306","30","yes","1024"
"2.703007489","8.37","3","pulp","word","83.87096774193549","83.87096774193549","875.5806451612904","875.5806451612904","black","no","legacy","legacy","legacy","0","uniform","1","undefined","undefined","undefined","1","j","0","0","0","0","30","0","0","0","30","NA","26","30","26","0","26","3","30","0","30","Thu Feb 18 11:11:23 2021","The main experiment item","yes","Lexical_Decision_Task.osexp","C:/Users/gmhan","no","Andale Mono","no","18","no","white","no","yes","576","legacy","26","26","3","C:/Users/gmhan/subject-5202467.csv","legacy","Lentiform Loewenfeld","3.3.7","yes","yes","600bd7cfb6416f0113b04181","602110864497cf011d9c0822","0","j","NA","space","space","space","NA","j","837","NA","3960","9408","7114","NA","837","2","legacy","1024","2","48000","-16","task","5202467","odd","NA","28170","34132","30171","90022","3020","19545","12430","90522","NA","90021","90523","89959","34132","91361","26373","89459","2990","83015","Lexical Decision Task","26","27143","31","yes","1024"
"3.495914186","0","4","peng","non-word","81.25","81.25","879.15625","879.15625","black","no","legacy","legacy","legacy","0","uniform","0","undefined","undefined","undefined","0","f","0","0","0","0","31","0","0","0","31","NA","27","31","27","0","27","3","31","0","31","Thu Feb 18 11:11:23 2021","The main experiment item","yes","Lexical_Decision_Task.osexp","C:/Users/gmhan","no","Andale Mono","no","18","no","white","no","yes","576","legacy","27","27","3","C:/Users/gmhan/subject-5202467.csv","legacy","Lentiform Loewenfeld","3.3.7","yes","yes","600bd7cfb6416f0113b04181","602110864497cf011d9c0822","0","j","NA","space","space","space","NA","j","990","NA","3960","9408","7114","NA","990","2","legacy","1024","2","48000","-16","task","5202467","odd","NA","28170","34132","30171","91972","3020","19545","12430","92473","NA","91970","92473","91919","34132","93464","26373","91419","2990","83015","Lexical Decision Task","26","28133","32","yes","1024"
"2.706148589","0","4","hube","non-word","78.78787878787878","78.78787878787878","881.1818181818181","881.1818181818181","black","no","legacy","legacy","legacy","0","uniform","0","undefined","undefined","undefined","0","f","0","0","0","0","32","0","0","0","32","NA","28","32","28","0","28","3","32","0","32","Thu Feb 18 11:11:23 2021","The main experiment item","yes","Lexical_Decision_Task.osexp","C:/Users/gmhan","no","Andale Mono","no","18","no","white","no","yes","576","legacy","28","28","3","C:/Users/gmhan/subject-5202467.csv","legacy","Lentiform Loewenfeld","3.3.7","yes","yes","600bd7cfb6416f0113b04181","602110864497cf011d9c0822","0","j","NA","space","space","space","NA","j","946","NA","3960","9408","7114","NA","946","2","legacy","1024","2","48000","-16","task","5202467","odd","NA","28170","34132","30171","95075","3020","19545","12430","95576","NA","95073","95576","95021","34132","96523","26373","91419","2990","93521","Lexical Decision Task","26","29079","33","yes","1024"
"3.22685757","9.99","7","roll","word","79.41176470588235","79.41176470588235","881.1470588235294","881.1470588235294","black","no","legacy","legacy","legacy","0","uniform","1","undefined","undefined","undefined","1","j","0","0","0","0","33","0","0","0","33","NA","29","33","29","0","29","3","33","0","33","Thu Feb 18 11:11:23 2021","The main experiment item","yes","Lexical_Decision_Task.osexp","C:/Users/gmhan","no","Andale Mono","no","18","no","white","no","yes","576","legacy","29","29","3","C:/Users/gmhan/subject-5202467.csv","legacy","Lentiform Loewenfeld","3.3.7","yes","yes","600bd7cfb6416f0113b04181","602110864497cf011d9c0822","0","j","NA","space","space","space","NA","j","880","NA","3960","9408","7114","NA","880","2","legacy","1024","2","48000","-16","task","5202467","odd","NA","28170","34132","30171","98133","3020","19545","12430","98634","NA","98132","98634","98080","34132","99514","26373","91419","2990","96580","Lexical Decision Task","27","29959","34","yes","1024"
"3.137775856","7.39","5","comb","word","80","80","882.9142857142857","882.9142857142857","black","no","legacy","legacy","legacy","0","uniform","1","undefined","undefined","undefined","1","j","0","0","0","0","34","0","0","0","34","NA","30","34","30","0","30","3","34","0","34","Thu Feb 18 11:11:23 2021","The main experiment item","yes","Lexical_Decision_Task.osexp","C:/Users/gmhan","no","Andale Mono","no","18","no","white","no","yes","576","legacy","30","30","3","C:/Users/gmhan/subject-5202467.csv","legacy","Lentiform Loewenfeld","3.3.7","yes","yes","600bd7cfb6416f0113b04181","602110864497cf011d9c0822","0","j","NA","space","space","space","NA","j","943","NA","3960","9408","7114","NA","943","2","legacy","1024","2","48000","-16","task","5202467","odd","NA","28170","34132","30171","100123","3020","19545","12430","100625","NA","100122","100625","100073","34132","101569","26373","99573","2990","96580","Lexical Decision Task","28","30902","35","yes","1024"
"2.696356389","0","1","pizz","non-word","80.55555555555556","80.55555555555556","881.3333333333334","881.3333333333334","black","no","legacy","legacy","legacy","0","uniform","1","undefined","undefined","undefined","1","f","0","0","0","0","35","0","0","0","35","NA","31","35","31","0","31","3","35","0","35","Thu Feb 18 11:11:23 2021","The main experiment item","yes","Lexical_Decision_Task.osexp","C:/Users/gmhan","no","Andale Mono","no","18","no","white","no","yes","576","legacy","31","31","3","C:/Users/gmhan/subject-5202467.csv","legacy","Lentiform Loewenfeld","3.3.7","yes","yes","600bd7cfb6416f0113b04181","602110864497cf011d9c0822","0","f","NA","space","space","space","NA","f","826","NA","3960","9408","7114","NA","826","2","legacy","1024","2","48000","-16","task","5202467","odd","NA","28170","34132","30171","102183","3020","19545","12430","102684","NA","102182","102684","102129","34132","103511","26373","101628","2990","96580","Lexical Decision Task","29","31728","36","yes","1024"
"2.698387659","6.66","7","skid","word","81.08108108108108","81.08108108108108","874.8648648648649","874.8648648648649","black","no","legacy","legacy","legacy","0","uniform","1","undefined","undefined","undefined","1","j","0","0","0","0","36","0","0","0","36","NA","32","36","32","0","32","3","36","0","36","Thu Feb 18 11:11:23 2021","The main experiment item","yes","Lexical_Decision_Task.osexp","C:/Users/gmhan","no","Andale Mono","no","18","no","white","no","yes","576","legacy","32","32","3","C:/Users/gmhan/subject-5202467.csv","legacy","Lentiform Loewenfeld","3.3.7","yes","yes","600bd7cfb6416f0113b04181","602110864497cf011d9c0822","0","j","NA","space","space","space","NA","j","642","NA","3960","9408","7114","NA","642","2","legacy","1024","2","48000","-16","task","5202467","odd","NA","28170","34132","30171","104119","3020","19545","12430","104620","NA","104118","104620","104068","34132","105263","26373","103568","2990","96580","Lexical Decision Task","30","32370","37","yes","1024"
"3.082307743","9.68","8","camp","word","81.57894736842105","81.57894736842105","877.2894736842105","877.2894736842105","black","no","legacy","legacy","legacy","0","uniform","1","undefined","undefined","undefined","1","j","0","0","0","0","37","0","0","0","37","NA","33","37","33","0","33","3","37","0","37","Thu Feb 18 11:11:23 2021","The main experiment item","yes","Lexical_Decision_Task.osexp","C:/Users/gmhan","no","Andale Mono","no","18","no","white","no","yes","576","legacy","33","33","3","C:/Users/gmhan/subject-5202467.csv","legacy","Lentiform Loewenfeld","3.3.7","yes","yes","600bd7cfb6416f0113b04181","602110864497cf011d9c0822","0","j","NA","space","space","space","NA","j","967","NA","3960","9408","7114","NA","967","2","legacy","1024","2","48000","-16","task","5202467","odd","NA","28170","34132","30171","105872","3020","19545","12430","106373","NA","105871","106373","105820","34132","107341","26373","105320","2990","96580","Lexical Decision Task","31","33337","38","yes","1024"
"2.695770526","7.34","6","pawn","word","82.05128205128206","82.05128205128206","870.9230769230769","870.9230769230769","black","no","legacy","legacy","legacy","0","uniform","1","undefined","undefined","undefined","1","j","0","0","0","0","38","0","0","0","38","NA","34","38","34","0","34","3","38","0","38","Thu Feb 18 11:11:23 2021","The main experiment item","yes","Lexical_Decision_Task.osexp","C:/Users/gmhan","no","Andale Mono","no","18","no","white","no","yes","576","legacy","34","34","3","C:/Users/gmhan/subject-5202467.csv","legacy","Lentiform Loewenfeld","3.3.7","yes","yes","600bd7cfb6416f0113b04181","602110864497cf011d9c0822","0","j","NA","space","space","space","NA","j","629","NA","3960","9408","7114","NA","629","2","legacy","1024","2","48000","-16","task","5202467","odd","NA","28170","34132","30171","107951","3020","19545","12430","108452","NA","107950","108452","107900","34132","109083","26373","107399","2990","96580","Lexical Decision Task","32","33966","39","yes","1024"
"3.347850856","10.51","2","rich","word","82.5","82.5","862.525","862.525","black","no","legacy","legacy","legacy","0","uniform","1","undefined","undefined","undefined","1","j","0","0","0","0","39","0","0","0","39","NA","35","39","35","0","35","3","39","0","39","Thu Feb 18 11:11:23 2021","The main experiment item","yes","Lexical_Decision_Task.osexp","C:/Users/gmhan","no","Andale Mono","no","18","no","white","no","yes","576","legacy","35","35","3","C:/Users/gmhan/subject-5202467.csv","legacy","Lentiform Loewenfeld","3.3.7","yes","yes","600bd7cfb6416f0113b04181","602110864497cf011d9c0822","0","j","NA","space","space","space","NA","j","535","NA","3960","9408","7114","NA","535","2","legacy","1024","2","48000","-16","task","5202467","odd","NA","28170","34132","30171","109691","3020","19545","12430","110192","NA","109690","110192","109639","34132","110728","26373","109139","2990","96580","Lexical Decision Task","33","34501","40","yes","1024"
"3.259832699","0","9","flar","non-word","82.92682926829268","82.92682926829268","861.2439024390244","861.2439024390244","black","no","legacy","legacy","legacy","0","uniform","1","undefined","undefined","undefined","1","f","0","0","0","0","40","0","0","0","40","NA","36","40","36","0","36","3","40","0","40","Thu Feb 18 11:11:23 2021","The main experiment item","yes","Lexical_Decision_Task.osexp","C:/Users/gmhan","no","Andale Mono","no","18","no","white","no","yes","576","legacy","36","36","3","C:/Users/gmhan/subject-5202467.csv","legacy","Lentiform Loewenfeld","3.3.7","yes","yes","600bd7cfb6416f0113b04181","602110864497cf011d9c0822","0","f","NA","space","space","space","NA","f","810","NA","3960","9408","7114","NA","810","2","legacy","1024","2","48000","-16","task","5202467","odd","NA","28170","34132","30171","111346","3020","19545","12430","111847","NA","111345","111847","111287","34132","112657","26373","110787","2990","96580","Lexical Decision Task","34","35311","41","yes","1024"
"2.972357144","0","5","dasp","non-word","83.33333333333333","83.33333333333333","860","860","black","no","legacy","legacy","legacy","0","uniform","1","undefined","undefined","undefined","1","f","0","0","0","0","41","0","0","0","41","NA","37","41","37","0","37","3","41","0","41","Thu Feb 18 11:11:23 2021","The main experiment item","yes","Lexical_Decision_Task.osexp","C:/Users/gmhan","no","Andale Mono","no","18","no","white","no","yes","576","legacy","37","37","3","C:/Users/gmhan/subject-5202467.csv","legacy","Lentiform Loewenfeld","3.3.7","yes","yes","600bd7cfb6416f0113b04181","602110864497cf011d9c0822","0","f","NA","space","space","space","NA","f","809","NA","3960","9408","7114","NA","809","2","legacy","1024","2","48000","-16","task","5202467","odd","NA","28170","34132","30171","113210","3020","19545","12430","113711","NA","113209","113711","113159","34132","114521","26373","112659","2990","96580","Lexical Decision Task","35","36120","42","yes","1024"
"2.839268497","0","8","maft","non-word","83.72093023255815","83.72093023255815","857.1627906976744","857.1627906976744","black","no","legacy","legacy","legacy","0","uniform","1","undefined","undefined","undefined","1","f","0","0","0","0","42","0","0","0","42","NA","38","42","38","0","38","3","42","0","42","Thu Feb 18 11:11:23 2021","The main experiment item","yes","Lexical_Decision_Task.osexp","C:/Users/gmhan","no","Andale Mono","no","18","no","white","no","yes","576","legacy","38","38","3","C:/Users/gmhan/subject-5202467.csv","legacy","Lentiform Loewenfeld","3.3.7","yes","yes","600bd7cfb6416f0113b04181","602110864497cf011d9c0822","0","f","NA","space","space","space","NA","f","738","NA","3960","9408","7114","NA","738","2","legacy","1024","2","48000","-16","task","5202467","odd","NA","28170","34132","30171","115130","3020","19545","12430","115631","NA","115127","115631","115079","34132","116371","26373","114579","2990","96580","Lexical Decision Task","36","36858","43","yes","1024"
"3.257359335","8","6","brew","word","84.0909090909091","84.0909090909091","852.4090909090909","852.4090909090909","black","no","legacy","legacy","legacy","0","uniform","1","undefined","undefined","undefined","1","j","0","0","0","0","43","0","0","0","43","NA","39","43","39","0","39","3","43","0","43","Thu Feb 18 11:11:23 2021","The main experiment item","yes","Lexical_Decision_Task.osexp","C:/Users/gmhan","no","Andale Mono","no","18","no","white","no","yes","576","legacy","39","39","3","C:/Users/gmhan/subject-5202467.csv","legacy","Lentiform Loewenfeld","3.3.7","yes","yes","600bd7cfb6416f0113b04181","602110864497cf011d9c0822","0","j","NA","space","space","space","NA","j","648","NA","3960","9408","7114","NA","648","2","legacy","1024","2","48000","-16","task","5202467","odd","NA","28170","34132","30171","116981","3020","19545","12430","117482","NA","116980","117482","116928","34132","118131","26373","116428","2990","96580","Lexical Decision Task","37","37506","44","yes","1024"
"2.843025032","0","9","pusk","non-word","84.44444444444444","84.44444444444444","847.8444444444444","847.8444444444444","black","no","legacy","legacy","legacy","0","uniform","1","undefined","undefined","undefined","1","f","0","0","0","0","44","0","0","0","44","NA","40","44","40","0","40","3","44","0","44","Thu Feb 18 11:11:23 2021","The main experiment item","yes","Lexical_Decision_Task.osexp","C:/Users/gmhan","no","Andale Mono","no","18","no","white","no","yes","576","legacy","40","40","3","C:/Users/gmhan/subject-5202467.csv","legacy","Lentiform Loewenfeld","3.3.7","yes","yes","600bd7cfb6416f0113b04181","602110864497cf011d9c0822","0","f","NA","space","space","space","NA","f","647","NA","3960","9408","7114","NA","647","2","legacy","1024","2","48000","-16","task","5202467","odd","NA","28170","34132","30171","118683","3020","19545","12430","119184","NA","118681","119185","118634","34132","119834","26373","118134","2990","96580","Lexical Decision Task","38","38153","45","yes","1024"
"2.719886232","7.98","2","quiz","word","84.78260869565217","84.78260869565217","841.304347826087","841.304347826087","black","no","legacy","legacy","legacy","0","uniform","1","undefined","undefined","undefined","1","j","0","0","0","0","45","0","0","0","45","NA","41","45","41","0","41","3","45","0","45","Thu Feb 18 11:11:23 2021","The main experiment item","yes","Lexical_Decision_Task.osexp","C:/Users/gmhan","no","Andale Mono","no","18","no","white","no","yes","576","legacy","41","41","3","C:/Users/gmhan/subject-5202467.csv","legacy","Lentiform Loewenfeld","3.3.7","yes","yes","600bd7cfb6416f0113b04181","602110864497cf011d9c0822","0","j","NA","space","space","space","NA","j","547","NA","3960","9408","7114","NA","547","2","legacy","1024","2","48000","-16","task","5202467","odd","NA","28170","34132","30171","120392","3020","19545","12430","120893","NA","120390","120893","120338","34132","121441","26373","119838","2990","96580","Lexical Decision Task","39","38700","46","yes","1024"
"3.031812271","6.52","3","gulp","word","85.1063829787234","85.1063829787234","839.4042553191489","839.4042553191489","black","no","legacy","legacy","legacy","0","uniform","1","undefined","undefined","undefined","1","j","0","0","0","0","46","0","0","0","46","NA","42","46","42","0","42","3","46","0","46","Thu Feb 18 11:11:23 2021","The main experiment item","yes","Lexical_Decision_Task.osexp","C:/Users/gmhan","no","Andale Mono","no","18","no","white","no","yes","576","legacy","42","42","3","C:/Users/gmhan/subject-5202467.csv","legacy","Lentiform Loewenfeld","3.3.7","yes","yes","600bd7cfb6416f0113b04181","602110864497cf011d9c0822","0","j","NA","space","space","space","NA","j","752","NA","3960","9408","7114","NA","752","2","legacy","1024","2","48000","-16","task","5202467","odd","NA","28170","34132","30171","122048","3020","19545","12430","122549","NA","122047","122549","121998","34132","123302","26373","121498","2990","96580","Lexical Decision Task","40","39452","47","yes","1024"
"3.195807436","0","6","stup","non-word","85.41666666666667","85.41666666666667","835.875","835.875","black","no","legacy","legacy","legacy","0","uniform","1","undefined","undefined","undefined","1","f","0","0","0","0","47","0","0","0","47","NA","43","47","43","0","43","3","47","0","47","Thu Feb 18 11:11:23 2021","The main experiment item","yes","Lexical_Decision_Task.osexp","C:/Users/gmhan","no","Andale Mono","no","18","no","white","no","yes","576","legacy","43","43","3","C:/Users/gmhan/subject-5202467.csv","legacy","Lentiform Loewenfeld","3.3.7","yes","yes","600bd7cfb6416f0113b04181","602110864497cf011d9c0822","0","f","NA","space","space","space","NA","f","670","NA","3960","9408","7114","NA","670","2","legacy","1024","2","48000","-16","task","5202467","odd","NA","28170","34132","30171","123913","3020","19545","12430","124414","NA","123912","124414","123859","34132","125086","26373","123359","2990","96580","Lexical Decision Task","41","40122","48","yes","1024"
"2.980911938","7.15","7","hoop","word","85.71428571428571","85.71428571428571","831.6122448979592","831.6122448979592","black","no","legacy","legacy","legacy","0","uniform","1","undefined","undefined","undefined","1","j","0","0","0","0","48","0","0","0","48","NA","44","48","44","0","44","3","48","0","48","Thu Feb 18 11:11:23 2021","The main experiment item","yes","Lexical_Decision_Task.osexp","C:/Users/gmhan","no","Andale Mono","no","18","no","white","no","yes","576","legacy","44","44","3","C:/Users/gmhan/subject-5202467.csv","legacy","Lentiform Loewenfeld","3.3.7","yes","yes","600bd7cfb6416f0113b04181","602110864497cf011d9c0822","0","j","NA","space","space","space","NA","j","627","NA","3960","9408","7114","NA","627","2","legacy","1024","2","48000","-16","task","5202467","odd","NA","28170","34132","30171","125693","3020","19545","12430","126194","NA","125692","126194","125645","34132","126822","26373","125145","2990","96580","Lexical Decision Task","42","40749","49","yes","1024"
"2.868644438","10.52","4","town","word","86","86","828.54","828.54","black","no","legacy","legacy","legacy","0","uniform","1","undefined","undefined","undefined","1","j","0","0","0","0","49","0","0","0","49","NA","45","49","45","0","45","3","49","0","49","Thu Feb 18 11:11:23 2021","The main experiment item","yes","Lexical_Decision_Task.osexp","C:/Users/gmhan","no","Andale Mono","no","18","no","white","no","yes","576","legacy","45","45","3","C:/Users/gmhan/subject-5202467.csv","legacy","Lentiform Loewenfeld","3.3.7","yes","yes","600bd7cfb6416f0113b04181","602110864497cf011d9c0822","0","j","NA","space","space","space","NA","j","678","NA","3960","9408","7114","NA","678","2","legacy","1024","2","48000","-16","task","5202467","odd","NA","28170","34132","30171","127427","3020","19545","12430","127928","NA","127426","127928","127379","34132","128607","26373","126879","2990","96580","Lexical Decision Task","43","41427","50","yes","1024"
"3.302475237","0","7","leel","non-word","86.27450980392157","86.27450980392157","821.6666666666666","821.6666666666666","black","no","legacy","legacy","legacy","0","uniform","1","undefined","undefined","undefined","1","f","0","0","0","0","50","0","0","0","50","NA","46","50","46","0","46","3","50","0","50","Thu Feb 18 11:11:23 2021","The main experiment item","yes","Lexical_Decision_Task.osexp","C:/Users/gmhan","no","Andale Mono","no","18","no","white","no","yes","576","legacy","46","46","3","C:/Users/gmhan/subject-5202467.csv","legacy","Lentiform Loewenfeld","3.3.7","yes","yes","600bd7cfb6416f0113b04181","602110864497cf011d9c0822","0","f","NA","space","space","space","NA","f","478","NA","3960","9408","7114","NA","478","2","legacy","1024","2","48000","-16","task","5202467","odd","NA","28170","34132","30171","129217","3020","19545","12430","129718","NA","129216","129718","129166","34132","130196","26373","128666","2990","96580","Lexical Decision Task","44","41905","51","yes","1024"
"3.230789326","5.38","5","prim","word","84.61538461538461","84.61538461538461","819.6730769230769","819.6730769230769","black","no","legacy","legacy","legacy","0","uniform","0","undefined","undefined","undefined","0","j","0","0","0","0","51","0","0","0","51","NA","47","51","47","0","47","3","51","0","51","Thu Feb 18 11:11:23 2021","The main experiment item","yes","Lexical_Decision_Task.osexp","C:/Users/gmhan","no","Andale Mono","no","18","no","white","no","yes","576","legacy","47","47","3","C:/Users/gmhan/subject-5202467.csv","legacy","Lentiform Loewenfeld","3.3.7","yes","yes","600bd7cfb6416f0113b04181","602110864497cf011d9c0822","0","f","NA","space","space","space","NA","f","718","NA","3960","9408","7114","NA","718","2","legacy","1024","2","48000","-16","task","5202467","odd","NA","28170","34132","30171","130805","3020","19545","12430","131306","NA","130803","131306","130752","34132","132024","26373","130252","2990","96580","Lexical Decision Task","44","42623","52","yes","1024"
"2.767650507","0","6","yolt","non-word","84.90566037735849","84.90566037735849","818.7169811320755","818.7169811320755","black","no","legacy","legacy","legacy","0","uniform","1","undefined","undefined","undefined","1","f","0","0","0","0","52","0","0","0","52","NA","48","52","48","0","48","3","52","0","52","Thu Feb 18 11:11:23 2021","The main experiment item","yes","Lexical_Decision_Task.osexp","C:/Users/gmhan","no","Andale Mono","no","18","no","white","no","yes","576","legacy","48","48","3","C:/Users/gmhan/subject-5202467.csv","legacy","Lentiform Loewenfeld","3.3.7","yes","yes","600bd7cfb6416f0113b04181","602110864497cf011d9c0822","0","f","NA","space","space","space","NA","f","769","NA","3960","9408","7114","NA","769","2","legacy","1024","2","48000","-16","task","5202467","odd","NA","28170","34132","30171","133633","3020","19545","12430","134134","NA","133631","134134","133583","34132","134904","26373","130252","2990","132083","Lexical Decision Task","45","43392","53","yes","1024"
"2.937852093","0","7","bamp","non-word","85.18518518518519","85.18518518518519","816.5370370370371","816.5370370370371","black","no","legacy","legacy","legacy","0","uniform","1","undefined","undefined","undefined","1","f","0","0","0","0","53","0","0","0","53","NA","49","53","49","0","49","3","53","0","53","Thu Feb 18 11:11:23 2021","The main experiment item","yes","Lexical_Decision_Task.osexp","C:/Users/gmhan","no","Andale Mono","no","18","no","white","no","yes","576","legacy","49","49","3","C:/Users/gmhan/subject-5202467.csv","legacy","Lentiform Loewenfeld","3.3.7","yes","yes","600bd7cfb6416f0113b04181","602110864497cf011d9c0822","0","f","NA","space","space","space","NA","f","701","NA","3960","9408","7114","NA","701","2","legacy","1024","2","48000","-16","task","5202467","odd","NA","28170","34132","30171","135513","3020","19545","12430","136014","NA","135512","136015","135464","34132","136718","26373","134964","2990","132083","Lexical Decision Task","46","44093","54","yes","1024"
"2.819763221","0","2","durp","non-word","85.45454545454545","85.45454545454545","826.9454545454546","826.9454545454546","black","no","legacy","legacy","legacy","0","uniform","1","undefined","undefined","undefined","1","f","0","0","0","0","54","0","0","0","54","0","50","54","50","0","50","3","54","0","54","Thu Feb 18 11:11:23 2021","The main experiment item","yes","Lexical_Decision_Task.osexp","C:/Users/gmhan","no","Andale Mono","no","18","no","white","no","yes","576","legacy","50","50","3","C:/Users/gmhan/subject-5202467.csv","legacy","Lentiform Loewenfeld","3.3.7","yes","yes","600bd7cfb6416f0113b04181","602110864497cf011d9c0822","0","f","NA","space","space","space","space","f","1389","NA","3960","9408","7114","14355","1389","2","legacy","1024","2","48000","-16","task","5202467","odd","NA","28170","34132","30171","151731","3020","19545","12430","152232","137324","151730","152232","137278","34132","153623","26373","136777","2990","132083","Lexical Decision Task","47","45482","55","yes","1024"
"2.873320602","0","4","lurg","non-word","83.92857142857143","83.92857142857143","823.6785714285714","823.6785714285714","black","no","legacy","legacy","legacy","0","uniform","0","undefined","undefined","undefined","0","f","0","0","0","0","55","0","0","0","55","0","51","55","51","0","51","3","55","0","55","Thu Feb 18 11:11:23 2021","The main experiment item","yes","Lexical_Decision_Task.osexp","C:/Users/gmhan","no","Andale Mono","no","18","no","white","no","yes","576","legacy","51","51","3","C:/Users/gmhan/subject-5202467.csv","legacy","Lentiform Loewenfeld","3.3.7","yes","yes","600bd7cfb6416f0113b04181","602110864497cf011d9c0822","0","j","NA","space","space","space","space","j","644","NA","3960","9408","7114","14355","644","2","legacy","1024","2","48000","-16","task","5202467","odd","NA","28170","34132","30171","154232","3020","19545","12430","154733","137324","154231","154733","154179","34132","155378","26373","153679","2990","132083","Lexical Decision Task","47","46126","56","yes","1024"
"3.263399331","0","8","cour","non-word","84.21052631578948","84.21052631578948","822.3333333333334","822.3333333333334","black","no","legacy","legacy","legacy","0","uniform","1","undefined","undefined","undefined","1","f","0","0","0","0","56","0","0","0","56","0","52","56","52","0","52","3","56","0","56","Thu Feb 18 11:11:23 2021","The main experiment item","yes","Lexical_Decision_Task.osexp","C:/Users/gmhan","no","Andale Mono","no","18","no","white","no","yes","576","legacy","52","52","3","C:/Users/gmhan/subject-5202467.csv","legacy","Lentiform Loewenfeld","3.3.7","yes","yes","600bd7cfb6416f0113b04181","602110864497cf011d9c0822","0","f","NA","space","space","space","space","f","747","NA","3960","9408","7114","14355","747","2","legacy","1024","2","48000","-16","task","5202467","odd","NA","28170","34132","30171","156990","3020","19545","12430","157491","137324","156989","157491","156937","34132","158239","26373","153679","2990","155437","Lexical Decision Task","48","46873","57","yes","1024"
"3.261341392","5.08","8","reek","word","82.75862068965517","82.75862068965517","829.3793103448276","829.3793103448276","black","no","legacy","legacy","legacy","0","uniform","0","undefined","undefined","undefined","0","j","0","0","0","0","57","0","0","0","57","0","53","57","53","0","53","3","57","0","57","Thu Feb 18 11:11:23 2021","The main experiment item","yes","Lexical_Decision_Task.osexp","C:/Users/gmhan","no","Andale Mono","no","18","no","white","no","yes","576","legacy","53","53","3","C:/Users/gmhan/subject-5202467.csv","legacy","Lentiform Loewenfeld","3.3.7","yes","yes","600bd7cfb6416f0113b04181","602110864497cf011d9c0822","0","f","NA","space","space","space","space","f","1231","NA","3960","9408","7114","14355","1231","2","legacy","1024","2","48000","-16","task","5202467","odd","NA","28170","34132","30171","158852","3020","19545","12430","159353","137324","158850","159353","158798","34132","160586","26373","158298","2990","155437","Lexical Decision Task","48","48104","58","yes","1024"
"2.594027722","9.08","8","skip","word","83.05084745762711","83.05084745762711","825.6271186440678","825.6271186440678","black","no","legacy","legacy","legacy","0","uniform","1","undefined","undefined","undefined","1","j","0","0","0","0","58","0","0","0","58","0","54","58","54","0","54","3","58","0","58","Thu Feb 18 11:11:23 2021","The main experiment item","yes","Lexical_Decision_Task.osexp","C:/Users/gmhan","no","Andale Mono","no","18","no","white","no","yes","576","legacy","54","54","3","C:/Users/gmhan/subject-5202467.csv","legacy","Lentiform Loewenfeld","3.3.7","yes","yes","600bd7cfb6416f0113b04181","602110864497cf011d9c0822","0","j","NA","space","space","space","space","j","608","NA","3960","9408","7114","14355","608","2","legacy","1024","2","48000","-16","task","5202467","odd","NA","28170","34132","30171","162200","3020","19545","12430","162701","137324","162198","162701","162144","34132","163309","26373","158298","2990","160644","Lexical Decision Task","49","48712","59","yes","1024"
"3.062080345","0","6","tomp","non-word","83.33333333333333","83.33333333333333","823.0833333333334","823.0833333333334","black","no","legacy","legacy","legacy","0","uniform","1","undefined","undefined","undefined","1","f","0","0","0","0","59","0","0","0","59","0","55","59","55","0","55","3","59","0","59","Thu Feb 18 11:11:23 2021","The main experiment item","yes","Lexical_Decision_Task.osexp","C:/Users/gmhan","no","Andale Mono","no","18","no","white","no","yes","576","legacy","55","55","3","C:/Users/gmhan/subject-5202467.csv","legacy","Lentiform Loewenfeld","3.3.7","yes","yes","600bd7cfb6416f0113b04181","602110864497cf011d9c0822","0","f","NA","space","space","space","space","f","673","NA","3960","9408","7114","14355","673","2","legacy","1024","2","48000","-16","task","5202467","odd","NA","28170","34132","30171","163919","3020","19545","12430","164420","137324","163918","164420","163868","34132","165093","26373","163367","2990","160644","Lexical Decision Task","50","49385","60","yes","1024"
"3.274157849","0","8","leet","non-word","83.60655737704919","83.60655737704919","820.5409836065573","820.5409836065573","black","no","legacy","legacy","legacy","0","uniform","1","undefined","undefined","undefined","1","f","0","0","0","0","60","0","0","0","60","0","56","60","56","0","56","3","60","0","60","Thu Feb 18 11:11:23 2021","The main experiment item","yes","Lexical_Decision_Task.osexp","C:/Users/gmhan","no","Andale Mono","no","18","no","white","no","yes","576","legacy","56","56","3","C:/Users/gmhan/subject-5202467.csv","legacy","Lentiform Loewenfeld","3.3.7","yes","yes","600bd7cfb6416f0113b04181","602110864497cf011d9c0822","0","f","NA","space","space","space","space","f","668","NA","3960","9408","7114","14355","668","2","legacy","1024","2","48000","-16","task","5202467","odd","NA","28170","34132","30171","165699","3020","19545","12430","166200","137324","165697","166200","165650","34132","166868","26373","165150","2990","160644","Lexical Decision Task","51","50053","61","yes","1024"
"2.728085817","10.02","9","bike","word","83.87096774193549","83.87096774193549","817.1290322580645","817.1290322580645","black","no","legacy","legacy","legacy","0","uniform","1","undefined","undefined","undefined","1","j","0","0","0","0","61","0","0","0","61","0","57","61","57","0","57","3","61","0","61","Thu Feb 18 11:11:23 2021","The main experiment item","yes","Lexical_Decision_Task.osexp","C:/Users/gmhan","no","Andale Mono","no","18","no","white","no","yes","576","legacy","57","57","3","C:/Users/gmhan/subject-5202467.csv","legacy","Lentiform Loewenfeld","3.3.7","yes","yes","600bd7cfb6416f0113b04181","602110864497cf011d9c0822","0","j","NA","space","space","space","space","j","609","NA","3960","9408","7114","14355","609","2","legacy","1024","2","48000","-16","task","5202467","odd","NA","28170","34132","30171","167476","3020","19545","12430","167977","137324","167475","167977","167427","34132","168588","26373","166927","2990","160644","Lexical Decision Task","52","50662","62","yes","1024"
"2.983324025","9.56","2","debt","word","84.12698412698413","84.12698412698413","814.7936507936508","814.7936507936508","black","no","legacy","legacy","legacy","0","uniform","1","undefined","undefined","undefined","1","j","0","0","0","0","62","0","0","0","62","0","58","62","58","0","58","3","62","0","62","Thu Feb 18 11:11:23 2021","The main experiment item","yes","Lexical_Decision_Task.osexp","C:/Users/gmhan","no","Andale Mono","no","18","no","white","no","yes","576","legacy","58","58","3","C:/Users/gmhan/subject-5202467.csv","legacy","Lentiform Loewenfeld","3.3.7","yes","yes","600bd7cfb6416f0113b04181","602110864497cf011d9c0822","0","j","NA","space","space","space","space","j","670","NA","3960","9408","7114","14355","670","2","legacy","1024","2","48000","-16","task","5202467","odd","NA","28170","34132","30171","169196","3020","19545","12430","169698","137324","169195","169698","169147","34132","170369","26373","168646","2990","160644","Lexical Decision Task","53","51332","63","yes","1024"
"3.488597715","0","9","nain","non-word","84.375","84.375","814.46875","814.46875","black","no","legacy","legacy","legacy","0","uniform","1","undefined","undefined","undefined","1","f","0","0","0","0","63","0","0","0","63","0","59","63","59","0","59","3","63","0","63","Thu Feb 18 11:11:23 2021","The main experiment item","yes","Lexical_Decision_Task.osexp","C:/Users/gmhan","no","Andale Mono","no","18","no","white","no","yes","576","legacy","59","59","3","C:/Users/gmhan/subject-5202467.csv","legacy","Lentiform Loewenfeld","3.3.7","yes","yes","600bd7cfb6416f0113b04181","602110864497cf011d9c0822","0","f","NA","space","space","space","space","f","794","NA","3960","9408","7114","14355","794","2","legacy","1024","2","48000","-16","task","5202467","odd","NA","28170","34132","30171","170979","3020","19545","12430","171480","137324","170977","171480","170928","34132","172275","26373","170428","2990","160644","Lexical Decision Task","54","52126","64","yes","1024"
"2.576725172","0","8","gowl","non-word","84.61538461538461","84.61538461538461","820.2615384615384","820.2615384615384","black","no","legacy","legacy","legacy","0","uniform","1","undefined","undefined","undefined","1","f","0","0","0","0","64","0","0","0","64","0","60","64","60","0","60","3","64","0","64","Thu Feb 18 11:11:23 2021","The main experiment item","yes","Lexical_Decision_Task.osexp","C:/Users/gmhan","no","Andale Mono","no","18","no","white","no","yes","576","legacy","60","60","3","C:/Users/gmhan/subject-5202467.csv","legacy","Lentiform Loewenfeld","3.3.7","yes","yes","600bd7cfb6416f0113b04181","602110864497cf011d9c0822","0","f","NA","space","space","space","space","f","1191","NA","3960","9408","7114","14355","1191","2","legacy","1024","2","48000","-16","task","5202467","odd","NA","28170","34132","30171","172882","3020","19545","12430","173383","137324","172881","173383","172833","34132","174576","26373","172333","2990","160644","Lexical Decision Task","55","53317","65","yes","1024"
"2.880623071","0","9","curp","non-word","84.84848484848484","84.84848484848484","818.7878787878788","818.7878787878788","black","no","legacy","legacy","legacy","0","uniform","1","undefined","undefined","undefined","1","f","0","0","0","0","65","0","0","0","65","0","61","65","61","0","61","3","65","0","65","Thu Feb 18 11:11:23 2021","The main experiment item","yes","Lexical_Decision_Task.osexp","C:/Users/gmhan","no","Andale Mono","no","18","no","white","no","yes","576","legacy","61","61","3","C:/Users/gmhan/subject-5202467.csv","legacy","Lentiform Loewenfeld","3.3.7","yes","yes","600bd7cfb6416f0113b04181","602110864497cf011d9c0822","0","f","NA","space","space","space","space","f","723","NA","3960","9408","7114","14355","723","2","legacy","1024","2","48000","-16","task","5202467","odd","NA","28170","34132","30171","175182","3020","19545","12430","175684","137324","175181","175684","175134","34132","176409","26373","174634","2990","160644","Lexical Decision Task","56","54040","66","yes","1024"
"2.981215883","10.66","5","hair","word","85.07462686567165","85.07462686567165","813.9850746268656","813.9850746268656","black","no","legacy","legacy","legacy","0","uniform","1","undefined","undefined","undefined","1","j","0","0","0","0","66","0","0","0","66","0","62","66","62","0","62","3","66","0","66","Thu Feb 18 11:11:23 2021","The main experiment item","yes","Lexical_Decision_Task.osexp","C:/Users/gmhan","no","Andale Mono","no","18","no","white","no","yes","576","legacy","62","62","3","C:/Users/gmhan/subject-5202467.csv","legacy","Lentiform Loewenfeld","3.3.7","yes","yes","600bd7cfb6416f0113b04181","602110864497cf011d9c0822","0","j","NA","space","space","space","space","j","497","NA","3960","9408","7114","14355","497","2","legacy","1024","2","48000","-16","task","5202467","odd","NA","28170","34132","30171","177019","3020","19545","12430","177521","137324","177018","177521","176967","34132","178019","26373","176467","2990","160644","Lexical Decision Task","57","54537","67","yes","1024"
"3.208978517","10.33","4","fish","word","85.29411764705883","85.29411764705883","810.7794117647059","810.7794117647059","black","no","legacy","legacy","legacy","0","uniform","1","undefined","undefined","undefined","1","j","0","0","0","0","67","0","0","0","67","0","63","67","63","0","63","3","67","0","67","Thu Feb 18 11:11:23 2021","The main experiment item","yes","Lexical_Decision_Task.osexp","C:/Users/gmhan","no","Andale Mono","no","18","no","white","no","yes","576","legacy","63","63","3","C:/Users/gmhan/subject-5202467.csv","legacy","Lentiform Loewenfeld","3.3.7","yes","yes","600bd7cfb6416f0113b04181","602110864497cf011d9c0822","0","j","NA","space","space","space","space","j","596","NA","3960","9408","7114","14355","596","2","legacy","1024","2","48000","-16","task","5202467","odd","NA","28170","34132","30171","178625","3020","19545","12430","179126","137324","178623","179126","178578","34132","179723","26373","178078","2990","160644","Lexical Decision Task","58","55133","68","yes","1024"
"2.980306438","0","7","slun","non-word","85.5072463768116","85.5072463768116","806.8985507246376","806.8985507246376","black","no","legacy","legacy","legacy","0","uniform","1","undefined","undefined","undefined","1","f","0","0","0","0","68","0","0","0","68","0","64","68","64","0","64","3","68","0","68","Thu Feb 18 11:11:23 2021","The main experiment item","yes","Lexical_Decision_Task.osexp","C:/Users/gmhan","no","Andale Mono","no","18","no","white","no","yes","576","legacy","64","64","3","C:/Users/gmhan/subject-5202467.csv","legacy","Lentiform Loewenfeld","3.3.7","yes","yes","600bd7cfb6416f0113b04181","602110864497cf011d9c0822","0","f","NA","space","space","space","space","f","543","NA","3960","9408","7114","14355","543","2","legacy","1024","2","48000","-16","task","5202467","odd","NA","28170","34132","30171","180274","3020","19545","12430","180775","137324","180272","180775","180226","34132","181319","26373","179726","2990","160644","Lexical Decision Task","59","55676","69","yes","1024"
"3.20996159","0","4","clee","non-word","85.71428571428571","85.71428571428571","804.2714285714286","804.2714285714286","black","no","legacy","legacy","legacy","0","uniform","1","undefined","undefined","undefined","1","f","0","0","0","0","69","0","0","0","69","0","65","69","65","0","65","3","69","0","69","Thu Feb 18 11:11:23 2021","The main experiment item","yes","Lexical_Decision_Task.osexp","C:/Users/gmhan","no","Andale Mono","no","18","no","white","no","yes","576","legacy","65","65","3","C:/Users/gmhan/subject-5202467.csv","legacy","Lentiform Loewenfeld","3.3.7","yes","yes","600bd7cfb6416f0113b04181","602110864497cf011d9c0822","0","f","NA","space","space","space","space","f","623","NA","3960","9408","7114","14355","623","2","legacy","1024","2","48000","-16","task","5202467","odd","NA","28170","34132","30171","181925","3020","19545","12430","182426","137324","181923","182426","181877","34132","183049","26373","181377","2990","160644","Lexical Decision Task","60","56299","70","yes","1024"
"3.20871002","7.15","8","cram","word","85.91549295774648","85.91549295774648","802.2253521126761","802.2253521126761","black","no","legacy","legacy","legacy","0","uniform","1","undefined","undefined","undefined","1","j","0","0","0","0","70","0","0","0","70","0","66","70","66","0","66","3","70","0","70","Thu Feb 18 11:11:23 2021","The main experiment item","yes","Lexical_Decision_Task.osexp","C:/Users/gmhan","no","Andale Mono","no","18","no","white","no","yes","576","legacy","66","66","3","C:/Users/gmhan/subject-5202467.csv","legacy","Lentiform Loewenfeld","3.3.7","yes","yes","600bd7cfb6416f0113b04181","602110864497cf011d9c0822","0","j","NA","space","space","space","space","j","659","NA","3960","9408","7114","14355","659","2","legacy","1024","2","48000","-16","task","5202467","odd","NA","28170","34132","30171","183655","3020","19545","12430","184157","137324","183653","184157","183607","34132","184817","26373","183107","2990","160644","Lexical Decision Task","61","56958","71","yes","1024"
"2.895974732","6.65","5","sift","word","84.72222222222223","84.72222222222223","800.7916666666666","800.7916666666666","black","no","legacy","legacy","legacy","0","uniform","0","undefined","undefined","undefined","0","j","0","0","0","0","71","0","0","0","71","0","67","71","67","0","67","3","71","0","71","Thu Feb 18 11:11:23 2021","The main experiment item","yes","Lexical_Decision_Task.osexp","C:/Users/gmhan","no","Andale Mono","no","18","no","white","no","yes","576","legacy","67","67","3","C:/Users/gmhan/subject-5202467.csv","legacy","Lentiform Loewenfeld","3.3.7","yes","yes","600bd7cfb6416f0113b04181","602110864497cf011d9c0822","0","f","NA","space","space","space","space","f","699","NA","3960","9408","7114","14355","699","2","legacy","1024","2","48000","-16","task","5202467","odd","NA","28170","34132","30171","185367","3020","19545","12430","185868","137324","185366","185868","185320","34132","186568","26373","184820","2990","160644","Lexical Decision Task","61","57657","72","yes","1024"
"2.778633532","0","3","jurp","non-word","83.56164383561644","83.56164383561644","801.6438356164383","801.6438356164383","black","no","legacy","legacy","legacy","0","uniform","0","undefined","undefined","undefined","0","f","0","0","0","0","72","0","0","0","72","0","68","72","68","0","68","3","72","0","72","Thu Feb 18 11:11:23 2021","The main experiment item","yes","Lexical_Decision_Task.osexp","C:/Users/gmhan","no","Andale Mono","no","18","no","white","no","yes","576","legacy","68","68","3","C:/Users/gmhan/subject-5202467.csv","legacy","Lentiform Loewenfeld","3.3.7","yes","yes","600bd7cfb6416f0113b04181","602110864497cf011d9c0822","0","j","NA","space","space","space","space","j","863","NA","3960","9408","7114","14355","863","2","legacy","1024","2","48000","-16","task","5202467","odd","NA","28170","34132","30171","188178","3020","19545","12430","188679","137324","188177","188679","188125","34132","189542","26373","184820","2990","186625","Lexical Decision Task","61","58520","73","yes","1024"
"2.80048796","0","8","pife","non-word","83.78378378378379","83.78378378378379","800.0135135135135","800.0135135135135","black","no","legacy","legacy","legacy","0","uniform","1","undefined","undefined","undefined","1","f","0","0","0","0","73","0","0","0","73","0","69","73","69","0","69","3","73","0","73","Thu Feb 18 11:11:23 2021","The main experiment item","yes","Lexical_Decision_Task.osexp","C:/Users/gmhan","no","Andale Mono","no","18","no","white","no","yes","576","legacy","69","69","3","C:/Users/gmhan/subject-5202467.csv","legacy","Lentiform Loewenfeld","3.3.7","yes","yes","600bd7cfb6416f0113b04181","602110864497cf011d9c0822","0","f","NA","space","space","space","space","f","681","NA","3960","9408","7114","14355","681","2","legacy","1024","2","48000","-16","task","5202467","odd","NA","28170","34132","30171","191156","3020","19545","12430","191657","137324","191154","191657","191101","34132","192339","26373","184820","2990","189601","Lexical Decision Task","62","59201","74","yes","1024"
"2.803231716","5.26","3","kiln","word","84","84","802.2666666666667","802.2666666666667","black","no","legacy","legacy","legacy","0","uniform","1","undefined","undefined","undefined","1","j","0","0","0","0","74","0","0","0","74","0","70","74","70","0","70","3","74","0","74","Thu Feb 18 11:11:23 2021","The main experiment item","yes","Lexical_Decision_Task.osexp","C:/Users/gmhan","no","Andale Mono","no","18","no","white","no","yes","576","legacy","70","70","3","C:/Users/gmhan/subject-5202467.csv","legacy","Lentiform Loewenfeld","3.3.7","yes","yes","600bd7cfb6416f0113b04181","602110864497cf011d9c0822","0","j","NA","space","space","space","space","j","969","NA","3960","9408","7114","14355","969","2","legacy","1024","2","48000","-16","task","5202467","odd","NA","28170","34132","30171","192946","3020","19545","12430","193447","137324","192945","193447","192897","34132","194418","26373","192397","2990","189601","Lexical Decision Task","63","60170","75","yes","1024"
"3.218535505","7.85","7","goat","word","84.21052631578948","84.21052631578948","800.5131578947369","800.5131578947369","black","no","legacy","legacy","legacy","0","uniform","1","undefined","undefined","undefined","1","j","0","0","0","0","75","0","0","0","75","0","71","75","71","0","71","3","75","0","75","Thu Feb 18 11:11:23 2021","The main experiment item","yes","Lexical_Decision_Task.osexp","C:/Users/gmhan","no","Andale Mono","no","18","no","white","no","yes","576","legacy","71","71","3","C:/Users/gmhan/subject-5202467.csv","legacy","Lentiform Loewenfeld","3.3.7","yes","yes","600bd7cfb6416f0113b04181","602110864497cf011d9c0822","0","j","NA","space","space","space","space","j","669","NA","3960","9408","7114","14355","669","2","legacy","1024","2","48000","-16","task","5202467","odd","NA","28170","34132","30171","195024","3020","19545","12430","195526","137324","195023","195526","194974","34132","196196","26373","194474","2990","189601","Lexical Decision Task","64","60839","76","yes","1024"
"3.168400243","9.12","6","horn","word","84.41558441558442","84.41558441558442","797.4545454545455","797.4545454545455","black","no","legacy","legacy","legacy","0","uniform","1","undefined","undefined","undefined","1","j","0","0","0","0","76","0","0","0","76","0","72","76","72","0","72","3","76","0","76","Thu Feb 18 11:11:23 2021","The main experiment item","yes","Lexical_Decision_Task.osexp","C:/Users/gmhan","no","Andale Mono","no","18","no","white","no","yes","576","legacy","72","72","3","C:/Users/gmhan/subject-5202467.csv","legacy","Lentiform Loewenfeld","3.3.7","yes","yes","600bd7cfb6416f0113b04181","602110864497cf011d9c0822","0","j","NA","space","space","space","space","j","565","NA","3960","9408","7114","14355","565","2","legacy","1024","2","48000","-16","task","5202467","odd","NA","28170","34132","30171","196804","3020","19545","12430","197305","137324","196803","197305","196753","34132","197871","26373","196253","2990","189601","Lexical Decision Task","65","61404","77","yes","1024"
"2.794720352","0","9","koot","non-word","84.61538461538461","84.61538461538461","800.3205128205128","800.3205128205128","black","no","legacy","legacy","legacy","0","uniform","1","undefined","undefined","undefined","1","f","0","0","0","0","77","0","0","0","77","0","73","77","73","0","73","3","77","0","77","Thu Feb 18 11:11:23 2021","The main experiment item","yes","Lexical_Decision_Task.osexp","C:/Users/gmhan","no","Andale Mono","no","18","no","white","no","yes","576","legacy","73","73","3","C:/Users/gmhan/subject-5202467.csv","legacy","Lentiform Loewenfeld","3.3.7","yes","yes","600bd7cfb6416f0113b04181","602110864497cf011d9c0822","0","f","NA","space","space","space","space","f","1021","NA","3960","9408","7114","14355","1021","2","legacy","1024","2","48000","-16","task","5202467","odd","NA","28170","34132","30171","198483","3020","19545","12430","198985","137324","198482","198985","198430","34132","200008","26373","197930","2990","189601","Lexical Decision Task","66","62425","78","yes","1024"
"2.793790385","5.67","9","swab","word","84.81012658227849","84.81012658227849","803.8607594936709","803.8607594936709","black","no","legacy","legacy","legacy","0","uniform","1","undefined","undefined","undefined","1","j","0","0","0","0","78","0","0","0","78","0","74","78","74","0","74","3","78","0","78","Thu Feb 18 11:11:23 2021","The main experiment item","yes","Lexical_Decision_Task.osexp","C:/Users/gmhan","no","Andale Mono","no","18","no","white","no","yes","576","legacy","74","74","3","C:/Users/gmhan/subject-5202467.csv","legacy","Lentiform Loewenfeld","3.3.7","yes","yes","600bd7cfb6416f0113b04181","602110864497cf011d9c0822","0","j","NA","space","space","space","space","j","1080","NA","3960","9408","7114","14355","1080","2","legacy","1024","2","48000","-16","task","5202467","odd","NA","28170","34132","30171","200560","3020","19545","12430","201062","137324","200559","201062","200510","34132","202143","26373","200010","2990","189601","Lexical Decision Task","67","63505","79","yes","1024"
"3.076883066","0","8","mout","non-word","85","85","807.8375","807.8375","black","no","legacy","legacy","legacy","0","uniform","1","undefined","undefined","undefined","1","f","0","0","0","0","79","0","0","0","79","0","75","79","75","0","75","3","79","0","79","Thu Feb 18 11:11:23 2021","The main experiment item","yes","Lexical_Decision_Task.osexp","C:/Users/gmhan","no","Andale Mono","no","18","no","white","no","yes","576","legacy","75","75","3","C:/Users/gmhan/subject-5202467.csv","legacy","Lentiform Loewenfeld","3.3.7","yes","yes","600bd7cfb6416f0113b04181","602110864497cf011d9c0822","0","f","NA","space","space","space","space","f","1122","NA","3960","9408","7114","14355","1122","2","legacy","1024","2","48000","-16","task","5202467","odd","NA","28170","34132","30171","202751","3020","19545","12430","203252","137324","202750","203252","202700","34132","204375","26373","202200","2990","189601","Lexical Decision Task","68","64627","80","yes","1024"
"3.153001286","8.7","5","palm","word","85.18518518518519","85.18518518518519","804.5185185185185","804.5185185185185","black","no","legacy","legacy","legacy","0","uniform","1","undefined","undefined","undefined","1","j","0","0","0","0","80","0","0","0","80","0","76","80","76","0","76","3","80","0","80","Thu Feb 18 11:11:23 2021","The main experiment item","yes","Lexical_Decision_Task.osexp","C:/Users/gmhan","no","Andale Mono","no","18","no","white","no","yes","576","legacy","76","76","3","C:/Users/gmhan/subject-5202467.csv","legacy","Lentiform Loewenfeld","3.3.7","yes","yes","600bd7cfb6416f0113b04181","602110864497cf011d9c0822","0","j","NA","space","space","space","space","j","539","NA","3960","9408","7114","14355","539","2","legacy","1024","2","48000","-16","task","5202467","odd","NA","28170","34132","30171","204979","3020","19545","12430","205481","137324","204978","205481","204932","34132","206020","26373","204432","2990","189601","Lexical Decision Task","69","65166","81","yes","1024"
"2.708989954","9.28","9","bowl","word","85.36585365853658","85.36585365853658","801.9268292682926","801.9268292682926","black","no","legacy","legacy","legacy","0","uniform","1","undefined","undefined","undefined","1","j","0","0","0","0","81","0","0","0","81","0","77","81","77","0","77","3","81","0","81","Thu Feb 18 11:11:23 2021","The main experiment item","yes","Lexical_Decision_Task.osexp","C:/Users/gmhan","no","Andale Mono","no","18","no","white","no","yes","576","legacy","77","77","3","C:/Users/gmhan/subject-5202467.csv","legacy","Lentiform Loewenfeld","3.3.7","yes","yes","600bd7cfb6416f0113b04181","602110864497cf011d9c0822","0","j","NA","space","space","space","space","j","592","NA","3960","9408","7114","14355","592","2","legacy","1024","2","48000","-16","task","5202467","odd","NA","28170","34132","30171","206629","3020","19545","12430","207131","137324","206628","207131","206579","34132","207724","26373","206079","2990","189601","Lexical Decision Task","70","65758","82","yes","1024"
"3.037294994","8.64","7","roof","word","85.5421686746988","85.5421686746988","799.722891566265","799.722891566265","black","no","legacy","legacy","legacy","0","uniform","1","undefined","undefined","undefined","1","j","0","0","0","0","82","0","0","0","82","0","78","82","78","0","78","3","82","0","82","Thu Feb 18 11:11:23 2021","The main experiment item","yes","Lexical_Decision_Task.osexp","C:/Users/gmhan","no","Andale Mono","no","18","no","white","no","yes","576","legacy","78","78","3","C:/Users/gmhan/subject-5202467.csv","legacy","Lentiform Loewenfeld","3.3.7","yes","yes","600bd7cfb6416f0113b04181","602110864497cf011d9c0822","0","j","NA","space","space","space","space","j","619","NA","3960","9408","7114","14355","619","2","legacy","1024","2","48000","-16","task","5202467","odd","NA","28170","34132","30171","208333","3020","19545","12430","208834","137324","208331","208834","208281","34132","209454","26373","207781","2990","189601","Lexical Decision Task","71","66377","83","yes","1024"
"2.996511672","0","7","hoil","non-word","85.71428571428571","85.71428571428571","800.9761904761905","800.9761904761905","black","no","legacy","legacy","legacy","0","uniform","1","undefined","undefined","undefined","1","f","0","0","0","0","83","0","0","0","83","0","79","83","79","0","79","3","83","0","83","Thu Feb 18 11:11:23 2021","The main experiment item","yes","Lexical_Decision_Task.osexp","C:/Users/gmhan","no","Andale Mono","no","18","no","white","no","yes","576","legacy","79","79","3","C:/Users/gmhan/subject-5202467.csv","legacy","Lentiform Loewenfeld","3.3.7","yes","yes","600bd7cfb6416f0113b04181","602110864497cf011d9c0822","0","f","NA","space","space","space","space","f","905","NA","3960","9408","7114","14355","905","2","legacy","1024","2","48000","-16","task","5202467","odd","NA","28170","34132","30171","210065","3020","19545","12430","210566","137324","210063","210566","210013","34132","211473","26373","209513","2990","189601","Lexical Decision Task","72","67282","84","yes","1024"
"2.68604012","0","4","pumb","non-word","85.88235294117646","85.88235294117646","802.8117647058823","802.8117647058823","black","no","legacy","legacy","legacy","0","uniform","1","undefined","undefined","undefined","1","f","0","0","0","0","84","0","0","0","84","0","80","84","80","0","80","3","84","0","84","Thu Feb 18 11:11:23 2021","The main experiment item","yes","Lexical_Decision_Task.osexp","C:/Users/gmhan","no","Andale Mono","no","18","no","white","no","yes","576","legacy","80","80","3","C:/Users/gmhan/subject-5202467.csv","legacy","Lentiform Loewenfeld","3.3.7","yes","yes","600bd7cfb6416f0113b04181","602110864497cf011d9c0822","0","f","NA","space","space","space","space","f","957","NA","3960","9408","7114","14355","957","2","legacy","1024","2","48000","-16","task","5202467","odd","NA","28170","34132","30171","212078","3020","19545","12430","212579","137324","212077","212579","212030","34132","213537","26373","211530","2990","189601","Lexical Decision Task","73","68239","85","yes","1024"
"2.696644658","5.78","2","yolk","word","86.04651162790698","86.04651162790698","801.4186046511628","801.4186046511628","black","no","legacy","legacy","legacy","0","uniform","1","undefined","undefined","undefined","1","j","0","0","0","0","85","0","0","0","85","0","81","85","81","0","81","3","85","0","85","Thu Feb 18 11:11:23 2021","The main experiment item","yes","Lexical_Decision_Task.osexp","C:/Users/gmhan","no","Andale Mono","no","18","no","white","no","yes","576","legacy","81","81","3","C:/Users/gmhan/subject-5202467.csv","legacy","Lentiform Loewenfeld","3.3.7","yes","yes","600bd7cfb6416f0113b04181","602110864497cf011d9c0822","0","j","NA","space","space","space","space","j","683","NA","3960","9408","7114","14355","683","2","legacy","1024","2","48000","-16","task","5202467","odd","NA","28170","34132","30171","214147","3020","19545","12430","214648","137324","214145","214648","214095","34132","215332","26373","213595","2990","189601","Lexical Decision Task","74","68922","86","yes","1024"
"3.105055783","0","2","norp","non-word","86.20689655172414","86.20689655172414","798.3103448275862","798.3103448275862","black","no","legacy","legacy","legacy","0","uniform","1","undefined","undefined","undefined","1","f","0","0","0","0","86","0","0","0","86","0","82","86","82","0","82","3","86","0","86","Thu Feb 18 11:11:23 2021","The main experiment item","yes","Lexical_Decision_Task.osexp","C:/Users/gmhan","no","Andale Mono","no","18","no","white","no","yes","576","legacy","82","82","3","C:/Users/gmhan/subject-5202467.csv","legacy","Lentiform Loewenfeld","3.3.7","yes","yes","600bd7cfb6416f0113b04181","602110864497cf011d9c0822","0","f","NA","space","space","space","space","f","531","NA","3960","9408","7114","14355","531","2","legacy","1024","2","48000","-16","task","5202467","odd","NA","28170","34132","30171","215940","3020","19545","12430","216441","137324","215936","216441","215889","34132","216973","26373","215389","2990","189601","Lexical Decision Task","75","69453","87","yes","1024"
"2.845304797","0","6","buct","non-word","86.36363636363636","86.36363636363636","795.4431818181819","795.4431818181819","black","no","legacy","legacy","legacy","0","uniform","1","undefined","undefined","undefined","1","f","0","0","0","0","87","0","0","0","87","0","83","87","83","0","83","3","87","0","87","Thu Feb 18 11:11:23 2021","The main experiment item","yes","Lexical_Decision_Task.osexp","C:/Users/gmhan","no","Andale Mono","no","18","no","white","no","yes","576","legacy","83","83","3","C:/Users/gmhan/subject-5202467.csv","legacy","Lentiform Loewenfeld","3.3.7","yes","yes","600bd7cfb6416f0113b04181","602110864497cf011d9c0822","0","f","NA","space","space","space","space","f","546","NA","3960","9408","7114","14355","546","2","legacy","1024","2","48000","-16","task","5202467","odd","NA","28170","34132","30171","217579","3020","19545","12430","218081","137324","217577","218081","217531","34132","218629","26373","217031","2990","189601","Lexical Decision Task","76","69999","88","yes","1024"
"3.14849993","10.75","7","hour","word","86.51685393258427","86.51685393258427","794.1910112359551","794.1910112359551","black","no","legacy","legacy","legacy","0","uniform","1","undefined","undefined","undefined","1","j","0","0","0","0","88","0","0","0","88","0","84","88","84","0","84","3","88","0","88","Thu Feb 18 11:11:23 2021","The main experiment item","yes","Lexical_Decision_Task.osexp","C:/Users/gmhan","no","Andale Mono","no","18","no","white","no","yes","576","legacy","84","84","3","C:/Users/gmhan/subject-5202467.csv","legacy","Lentiform Loewenfeld","3.3.7","yes","yes","600bd7cfb6416f0113b04181","602110864497cf011d9c0822","0","j","NA","space","space","space","space","j","684","NA","3960","9408","7114","14355","684","2","legacy","1024","2","48000","-16","task","5202467","odd","NA","28170","34132","30171","219230","3020","19545","12430","219731","137324","219229","219731","219181","34132","220417","26373","218681","2990","189601","Lexical Decision Task","77","70683","89","yes","1024"
"2.664328519","0","4","plux","non-word","86.66666666666667","86.66666666666667","793.0333333333333","793.0333333333333","black","no","legacy","legacy","legacy","0","uniform","1","undefined","undefined","undefined","1","f","0","0","0","0","89","0","0","0","89","0","85","89","85","0","85","3","89","0","89","Thu Feb 18 11:11:23 2021","The main experiment item","yes","Lexical_Decision_Task.osexp","C:/Users/gmhan","no","Andale Mono","no","18","no","white","no","yes","576","legacy","85","85","3","C:/Users/gmhan/subject-5202467.csv","legacy","Lentiform Loewenfeld","3.3.7","yes","yes","600bd7cfb6416f0113b04181","602110864497cf011d9c0822","0","f","NA","space","space","space","space","f","690","NA","3960","9408","7114","14355","690","2","legacy","1024","2","48000","-16","task","5202467","odd","NA","28170","34132","30171","221027","3020","19545","12430","221528","137324","221026","221528","220976","34132","222219","26373","220476","2990","189601","Lexical Decision Task","78","71373","90","yes","1024"
"2.693726949","5.08","3","swig","word","86.81318681318682","86.81318681318682","792.6263736263736","792.6263736263736","black","no","legacy","legacy","legacy","0","uniform","1","undefined","undefined","undefined","1","j","0","0","0","0","90","0","0","0","90","0","86","90","86","0","86","3","90","0","90","Thu Feb 18 11:11:23 2021","The main experiment item","yes","Lexical_Decision_Task.osexp","C:/Users/gmhan","no","Andale Mono","no","18","no","white","no","yes","576","legacy","86","86","3","C:/Users/gmhan/subject-5202467.csv","legacy","Lentiform Loewenfeld","3.3.7","yes","yes","600bd7cfb6416f0113b04181","602110864497cf011d9c0822","0","j","NA","space","space","space","space","j","756","NA","3960","9408","7114","14355","756","2","legacy","1024","2","48000","-16","task","5202467","odd","NA","28170","34132","30171","222829","3020","19545","12430","223330","137324","222827","223330","222779","34132","224088","26373","222279","2990","189601","Lexical Decision Task","79","72129","91","yes","1024"
"3.010582609","0","2","drod","non-word","86.95652173913044","86.95652173913044","790.6086956521739","790.6086956521739","black","no","legacy","legacy","legacy","0","uniform","1","undefined","undefined","undefined","1","f","0","0","0","0","91","0","0","0","91","0","87","91","87","0","87","3","91","0","91","Thu Feb 18 11:11:23 2021","The main experiment item","yes","Lexical_Decision_Task.osexp","C:/Users/gmhan","no","Andale Mono","no","18","no","white","no","yes","576","legacy","87","87","3","C:/Users/gmhan/subject-5202467.csv","legacy","Lentiform Loewenfeld","3.3.7","yes","yes","600bd7cfb6416f0113b04181","602110864497cf011d9c0822","0","f","NA","space","space","space","space","f","607","NA","3960","9408","7114","14355","607","2","legacy","1024","2","48000","-16","task","5202467","odd","NA","28170","34132","30171","224695","3020","19545","12430","225197","137324","224693","225197","224646","34132","225805","26373","224146","2990","189601","Lexical Decision Task","80","72736","92","yes","1024"
"2.979548375","8.71","4","soup","word","87.09677419354838","87.09677419354838","788.258064516129","788.258064516129","black","no","legacy","legacy","legacy","0","uniform","1","undefined","undefined","undefined","1","j","0","0","0","0","92","0","0","0","92","0","88","92","88","0","88","3","92","0","92","Thu Feb 18 11:11:23 2021","The main experiment item","yes","Lexical_Decision_Task.osexp","C:/Users/gmhan","no","Andale Mono","no","18","no","white","no","yes","576","legacy","88","88","3","C:/Users/gmhan/subject-5202467.csv","legacy","Lentiform Loewenfeld","3.3.7","yes","yes","600bd7cfb6416f0113b04181","602110864497cf011d9c0822","0","j","NA","space","space","space","space","j","572","NA","3960","9408","7114","14355","572","2","legacy","1024","2","48000","-16","task","5202467","odd","NA","28170","34132","30171","226415","3020","19545","12430","226916","137324","226414","226916","226363","34132","227489","26373","225863","2990","189601","Lexical Decision Task","81","73308","93","yes","1024"
"3.397302518","7.01","2","knit","word","87.23404255319149","87.23404255319149","787.0425531914893","787.0425531914893","black","no","legacy","legacy","legacy","0","uniform","1","undefined","undefined","undefined","1","j","0","0","0","0","93","0","0","0","93","0","89","93","89","0","89","3","93","0","93","Thu Feb 18 11:11:23 2021","The main experiment item","yes","Lexical_Decision_Task.osexp","C:/Users/gmhan","no","Andale Mono","no","18","no","white","no","yes","576","legacy","89","89","3","C:/Users/gmhan/subject-5202467.csv","legacy","Lentiform Loewenfeld","3.3.7","yes","yes","600bd7cfb6416f0113b04181","602110864497cf011d9c0822","0","j","NA","space","space","space","space","j","674","NA","3960","9408","7114","14355","674","2","legacy","1024","2","48000","-16","task","5202467","odd","NA","28170","34132","30171","228095","3020","19545","12430","228596","137324","228094","228596","228048","34132","229271","26373","227548","2990","189601","Lexical Decision Task","82","73982","94","yes","1024"
"3.090140555","5.81","8","pout","word","87.36842105263158","87.36842105263158","785.9052631578948","785.9052631578948","black","no","legacy","legacy","legacy","0","uniform","1","undefined","undefined","undefined","1","j","0","0","0","0","94","0","0","0","94","0","90","94","90","0","90","3","94","0","94","Thu Feb 18 11:11:23 2021","The main experiment item","yes","Lexical_Decision_Task.osexp","C:/Users/gmhan","no","Andale Mono","no","18","no","white","no","yes","576","legacy","90","90","3","C:/Users/gmhan/subject-5202467.csv","legacy","Lentiform Loewenfeld","3.3.7","yes","yes","600bd7cfb6416f0113b04181","602110864497cf011d9c0822","0","j","NA","space","space","space","space","j","679","NA","3960","9408","7114","14355","679","2","legacy","1024","2","48000","-16","task","5202467","odd","NA","28170","34132","30171","229879","3020","19545","12430","230380","137324","229878","230380","229829","34132","231061","26373","229329","2990","189601","Lexical Decision Task","83","74661","95","yes","1024"
"2.713490543","0","3","feps","non-word","87.5","87.5","784.1979166666666","784.1979166666666","black","no","legacy","legacy","legacy","0","uniform","1","undefined","undefined","undefined","1","f","0","0","0","0","95","0","0","0","95","0","91","95","91","0","91","3","95","0","95","Thu Feb 18 11:11:23 2021","The main experiment item","yes","Lexical_Decision_Task.osexp","C:/Users/gmhan","no","Andale Mono","no","18","no","white","no","yes","576","legacy","91","91","3","C:/Users/gmhan/subject-5202467.csv","legacy","Lentiform Loewenfeld","3.3.7","yes","yes","600bd7cfb6416f0113b04181","602110864497cf011d9c0822","0","f","NA","space","space","space","space","f","622","NA","3960","9408","7114","14355","622","2","legacy","1024","2","48000","-16","task","5202467","odd","NA","28170","34132","30171","231667","3020","19545","12430","232169","137324","231666","232169","231618","34132","232792","26373","231118","2990","189601","Lexical Decision Task","84","75283","96","yes","1024"
"2.69019608","9.01","2","myth","word","87.62886597938144","87.62886597938144","783.9278350515464","783.9278350515464","black","no","legacy","legacy","legacy","0","uniform","1","undefined","undefined","undefined","1","j","0","0","0","0","96","0","0","0","96","0","92","96","92","0","92","3","96","0","96","Thu Feb 18 11:11:23 2021","The main experiment item","yes","Lexical_Decision_Task.osexp","C:/Users/gmhan","no","Andale Mono","no","18","no","white","no","yes","576","legacy","92","92","3","C:/Users/gmhan/subject-5202467.csv","legacy","Lentiform Loewenfeld","3.3.7","yes","yes","600bd7cfb6416f0113b04181","602110864497cf011d9c0822","0","j","NA","space","space","space","space","j","758","NA","3960","9408","7114","14355","758","2","legacy","1024","2","48000","-16","task","5202467","odd","NA","28170","34132","30171","233361","3020","19545","12430","233862","137324","233359","233862","233312","34132","234621","26373","232812","2990","189601","Lexical Decision Task","85","76041","97","yes","1024"
"3.431095062","5.74","9","perk","word","87.75510204081633","87.75510204081633","784","784","black","no","legacy","legacy","legacy","0","uniform","1","undefined","undefined","undefined","1","j","0","0","0","0","97","0","0","0","97","0","93","97","93","0","93","3","97","0","97","Thu Feb 18 11:11:23 2021","The main experiment item","yes","Lexical_Decision_Task.osexp","C:/Users/gmhan","no","Andale Mono","no","18","no","white","no","yes","576","legacy","93","93","3","C:/Users/gmhan/subject-5202467.csv","legacy","Lentiform Loewenfeld","3.3.7","yes","yes","600bd7cfb6416f0113b04181","602110864497cf011d9c0822","0","j","NA","space","space","space","space","j","791","NA","3960","9408","7114","14355","791","2","legacy","1024","2","48000","-16","task","5202467","odd","NA","28170","34132","30171","235228","3020","19545","12430","235729","137324","235226","235729","235180","34132","236521","26373","234680","2990","189601","Lexical Decision Task","86","76832","98","yes","1024"
"2.68604012","0","3","mulb","non-word","87.87878787878788","87.87878787878788","782.8787878787879","782.8787878787879","black","no","legacy","legacy","legacy","0","uniform","1","undefined","undefined","undefined","1","f","0","0","0","0","98","0","0","0","98","0","94","98","94","0","94","3","98","0","98","Thu Feb 18 11:11:23 2021","The main experiment item","yes","Lexical_Decision_Task.osexp","C:/Users/gmhan","no","Andale Mono","no","18","no","white","no","yes","576","legacy","94","94","3","C:/Users/gmhan/subject-5202467.csv","legacy","Lentiform Loewenfeld","3.3.7","yes","yes","600bd7cfb6416f0113b04181","602110864497cf011d9c0822","0","f","NA","space","space","space","space","f","673","NA","3960","9408","7114","14355","673","2","legacy","1024","2","48000","-16","task","5202467","odd","NA","28170","34132","30171","237134","3020","19545","12430","237635","137324","237132","237635","237080","34132","238310","26373","236580","2990","189601","Lexical Decision Task","87","77505","99","yes","1024"
"3.149629599","0","2","cleb","non-word","88","88","789.99","789.99","black","no","legacy","legacy","legacy","0","uniform","1","undefined","undefined","undefined","1","f","0","0","0","0","99","0","0","0","99","0","95","99","95","0","95","3","99","0","99","Thu Feb 18 11:11:23 2021","The main experiment item","yes","Lexical_Decision_Task.osexp","C:/Users/gmhan","no","Andale Mono","no","18","no","white","no","yes","576","legacy","95","95","3","C:/Users/gmhan/subject-5202467.csv","legacy","Lentiform Loewenfeld","3.3.7","yes","yes","600bd7cfb6416f0113b04181","602110864497cf011d9c0822","0","f","NA","space","space","space","space","f","1494","NA","3960","9408","7114","14355","1494","2","legacy","1024","2","48000","-16","task","5202467","odd","NA","28170","34132","30171","238915","3020","19545","12430","239417","137324","238913","239417","238868","34132","240911","26373","238368","2990","189601","Lexical Decision Task","88","78999","100","yes","1024"
"3.372543801","9.24","8","coat","word","88.11881188118812","88.11881188118812","787.7623762376238","787.7623762376238","black","no","legacy","legacy","legacy","0","uniform","1","undefined","undefined","undefined","1","j","0","0","0","0","100","0","0","0","100","0","96","100","96","0","96","3","100","0","100","Thu Feb 18 11:11:23 2021","The main experiment item","yes","Lexical_Decision_Task.osexp","C:/Users/gmhan","no","Andale Mono","no","18","no","white","no","yes","576","legacy","96","96","3","C:/Users/gmhan/subject-5202467.csv","legacy","Lentiform Loewenfeld","3.3.7","yes","yes","600bd7cfb6416f0113b04181","602110864497cf011d9c0822","0","j","NA","space","space","space","space","j","565","NA","3960","9408","7114","14355","565","2","legacy","1024","2","48000","-16","task","5202467","odd","NA","28170","34132","30171","241523","3020","19545","12430","242024","137324","241522","242024","241470","34132","242589","26373","240970","2990","189601","Lexical Decision Task","89","79564","101","yes","1024"
"3.2757719","0","5","slea","non-word","88.23529411764706","88.23529411764706","786.1666666666666","786.1666666666666","black","no","legacy","legacy","legacy","0","uniform","1","undefined","undefined","undefined","1","f","0","0","0","0","101","0","0","0","101","0","97","101","97","0","97","3","101","0","101","Thu Feb 18 11:11:23 2021","The main experiment item","yes","Lexical_Decision_Task.osexp","C:/Users/gmhan","no","Andale Mono","no","18","no","white","no","yes","576","legacy","97","97","3","C:/Users/gmhan/subject-5202467.csv","legacy","Lentiform Loewenfeld","3.3.7","yes","yes","600bd7cfb6416f0113b04181","602110864497cf011d9c0822","0","f","NA","space","space","space","space","f","625","NA","3960","9408","7114","14355","625","2","legacy","1024","2","48000","-16","task","5202467","odd","NA","28170","34132","30171","243191","3020","19545","12430","243692","137324","243190","243692","243146","34132","244318","26373","242646","2990","189601","Lexical Decision Task","90","80189","102","yes","1024"
