"Log_BG","Log_Freq_HAL","Ortho_N","Stimulus","Type","acc","accuracy","average_response_time","avg_rt","background","bidi","canvas_backend","clock_backend","color_backend","compensation","coordinates","correct","correct_Experimental_intro","correct_Introduction","correct_Practice_intro","correct_experimenter_kb","correct_response","count_End_Of_Experiment","count_End_Of_Practice","count_Experimental_Loop","count_Experimental_intro","count_Fixation","count_Introduction","count_Practice_Loop","count_Practice_intro","count_Stimulus","count_block_break_feedback","count_experimental_sequence","count_experimenter_kb","count_increment_trial_count","count_init_trial_count","count_logger","count_practice_sequence","count_right","count_task","count_wrong","datetime","description","disable_garbage_collection","experiment_file","experiment_path","font_bold","font_family","font_italic","font_size","font_underline","foreground","form_clicks","fullscreen","height","keyboard_backend","live_row","live_row_Experimental_Loop","live_row_Practice_Loop","logfile","mouse_backend","opensesame_codename","opensesame_version","osf_always_upload_data","osf_always_upload_experiment","osf_datanode_id","osf_id","repeat_cycle","response","response_End_Of_Experiment","response_Experimental_intro","response_Introduction","response_Practice_intro","response_block_break_feedback","response_experimenter_kb","response_time","response_time_End_Of_Experiment","response_time_Experimental_intro","response_time_Introduction","response_time_Practice_intro","response_time_block_break_feedback","response_time_experimenter_kb","round_decimals","sampler_backend","sound_buf_size","sound_channels","sound_freq","sound_sample_size","start","subject_nr","subject_parity","time_End_Of_Experiment","time_End_Of_Practice","time_Experimental_Loop","time_Experimental_intro","time_Fixation","time_Introduction","time_Practice_Loop","time_Practice_intro","time_Stimulus","time_block_break_feedback","time_experimental_sequence","time_experimenter_kb","time_increment_trial_count","time_init_trial_count","time_logger","time_practice_sequence","time_right","time_task","time_wrong","title","total_correct","total_response_time","total_responses","uniform_coordinates","width"
"3.431095062","5.74","9","perk","word","80","80","1249.6","1249.6","black","no","legacy","legacy","legacy","0","uniform","1","undefined","undefined","undefined","1","j","0","0","0","0","4","0","0","0","4","NA","0","4","0","0","0","3","4","0","4","Wed Feb 17 11:17:03 2021","The main experiment item","yes","Lexical_Decision_Task.osexp","C:/Users/alfie/OneDrive/Documents/UNI/Year 2/Cognition and Language/Assignment","no","Andale Mono","no","18","no","white","no","yes","576","legacy","0","0","3","C:/Users/alfie/OneDrive/Documents/UNI/Year 2/Cognition and Language/Assignment/subject-5219060.csv","legacy","Lentiform Loewenfeld","3.3.7","yes","yes","600bd7cfb6416f0113b04181","602110864497cf011d9c0822","0","j","NA","space","j","j","NA","j","973","NA","1661","19260","5468","NA","973","2","legacy","1024","2","48000","-16","task","5219060","even","NA","42872","46538","44875","46648","6822","31599","26131","47153","NA","46646","47155","NA","46538","48129","41232","42314","6782","35453","Lexical Decision Task","4","6248","5","yes","1024"
"2.695770526","7.34","6","pawn","word","83.33333333333333","83.33333333333333","1227.6666666666667","1227.6666666666667","black","no","legacy","legacy","legacy","0","uniform","1","undefined","undefined","undefined","1","j","0","0","0","0","5","0","0","0","5","NA","1","5","1","0","1","3","5","0","5","Wed Feb 17 11:17:03 2021","The main experiment item","yes","Lexical_Decision_Task.osexp","C:/Users/alfie/OneDrive/Documents/UNI/Year 2/Cognition and Language/Assignment","no","Andale Mono","no","18","no","white","no","yes","576","legacy","1","1","3","C:/Users/alfie/OneDrive/Documents/UNI/Year 2/Cognition and Language/Assignment/subject-5219060.csv","legacy","Lentiform Loewenfeld","3.3.7","yes","yes","600bd7cfb6416f0113b04181","602110864497cf011d9c0822","0","j","NA","space","j","j","NA","j","1118","NA","1661","19260","5468","NA","1118","2","legacy","1024","2","48000","-16","task","5219060","even","NA","42872","46538","44875","48923","6822","31599","26131","49427","NA","48918","49427","48707","46538","50546","41232","48207","6782","35453","Lexical Decision Task","5","7366","6","yes","1024"
"3.307211407","6.07","7","honk","word","85.71428571428571","85.71428571428571","1144.142857142857","1144.142857142857","black","no","legacy","legacy","legacy","0","uniform","1","undefined","undefined","undefined","1","j","0","0","0","0","6","0","0","0","6","NA","2","6","2","0","2","3","6","0","6","Wed Feb 17 11:17:03 2021","The main experiment item","yes","Lexical_Decision_Task.osexp","C:/Users/alfie/OneDrive/Documents/UNI/Year 2/Cognition and Language/Assignment","no","Andale Mono","no","18","no","white","no","yes","576","legacy","2","2","3","C:/Users/alfie/OneDrive/Documents/UNI/Year 2/Cognition and Language/Assignment/subject-5219060.csv","legacy","Lentiform Loewenfeld","3.3.7","yes","yes","600bd7cfb6416f0113b04181","602110864497cf011d9c0822","0","j","NA","space","j","j","NA","j","643","NA","1661","19260","5468","NA","643","2","legacy","1024","2","48000","-16","task","5219060","even","NA","42872","46538","44875","51304","6822","31599","26131","51807","NA","51297","51808","51120","46538","52452","41232","50620","6782","35453","Lexical Decision Task","6","8009","7","yes","1024"
"2.839268497","0","8","maft","non-word","87.5","87.5","1086.375","1086.375","black","no","legacy","legacy","legacy","0","uniform","1","undefined","undefined","undefined","1","f","0","0","0","0","7","0","0","0","7","NA","3","7","3","0","3","3","7","0","7","Wed Feb 17 11:17:03 2021","The main experiment item","yes","Lexical_Decision_Task.osexp","C:/Users/alfie/OneDrive/Documents/UNI/Year 2/Cognition and Language/Assignment","no","Andale Mono","no","18","no","white","no","yes","576","legacy","3","3","3","C:/Users/alfie/OneDrive/Documents/UNI/Year 2/Cognition and Language/Assignment/subject-5219060.csv","legacy","Lentiform Loewenfeld","3.3.7","yes","yes","600bd7cfb6416f0113b04181","602110864497cf011d9c0822","0","f","NA","space","j","j","NA","f","682","NA","1661","19260","5468","NA","682","2","legacy","1024","2","48000","-16","task","5219060","even","NA","42872","46538","44875","53135","6822","31599","26131","53639","NA","53133","53640","53024","46538","54323","41232","52524","6782","35453","Lexical Decision Task","7","8691","8","yes","1024"
"2.708989954","9.28","9","bowl","word","88.88888888888889","88.88888888888889","1046.7777777777778","1046.7777777777778","black","no","legacy","legacy","legacy","0","uniform","1","undefined","undefined","undefined","1","j","0","0","0","0","8","0","0","0","8","NA","4","8","4","0","4","3","8","0","8","Wed Feb 17 11:17:03 2021","The main experiment item","yes","Lexical_Decision_Task.osexp","C:/Users/alfie/OneDrive/Documents/UNI/Year 2/Cognition and Language/Assignment","no","Andale Mono","no","18","no","white","no","yes","576","legacy","4","4","3","C:/Users/alfie/OneDrive/Documents/UNI/Year 2/Cognition and Language/Assignment/subject-5219060.csv","legacy","Lentiform Loewenfeld","3.3.7","yes","yes","600bd7cfb6416f0113b04181","602110864497cf011d9c0822","0","j","NA","space","j","j","NA","j","730","NA","1661","19260","5468","NA","730","2","legacy","1024","2","48000","-16","task","5219060","even","NA","42872","46538","44875","55066","6822","31599","26131","55569","NA","55061","55570","54882","46538","56302","41232","54382","6782","35453","Lexical Decision Task","8","9421","9","yes","1024"
"2.971428938","9.86","7","spot","word","90","90","1001.2","1001.2","black","no","legacy","legacy","legacy","0","uniform","1","undefined","undefined","undefined","1","j","0","0","0","0","9","0","0","0","9","NA","5","9","5","0","5","3","9","0","9","Wed Feb 17 11:17:03 2021","The main experiment item","yes","Lexical_Decision_Task.osexp","C:/Users/alfie/OneDrive/Documents/UNI/Year 2/Cognition and Language/Assignment","no","Andale Mono","no","18","no","white","no","yes","576","legacy","5","5","3","C:/Users/alfie/OneDrive/Documents/UNI/Year 2/Cognition and Language/Assignment/subject-5219060.csv","legacy","Lentiform Loewenfeld","3.3.7","yes","yes","600bd7cfb6416f0113b04181","602110864497cf011d9c0822","0","j","NA","space","j","j","NA","j","591","NA","1661","19260","5468","NA","591","2","legacy","1024","2","48000","-16","task","5219060","even","NA","42872","46538","44875","57038","6822","31599","26131","57544","NA","57032","57544","56861","46538","58136","41232","56361","6782","35453","Lexical Decision Task","9","10012","10","yes","1024"
"2.809559715","8.44","4","volt","word","90.9090909090909","90.9090909090909","996.4545454545455","996.4545454545455","black","no","legacy","legacy","legacy","0","uniform","1","undefined","undefined","undefined","1","j","0","0","0","0","10","0","0","0","10","NA","6","10","6","0","6","3","10","0","10","Wed Feb 17 11:17:03 2021","The main experiment item","yes","Lexical_Decision_Task.osexp","C:/Users/alfie/OneDrive/Documents/UNI/Year 2/Cognition and Language/Assignment","no","Andale Mono","no","18","no","white","no","yes","576","legacy","6","6","3","C:/Users/alfie/OneDrive/Documents/UNI/Year 2/Cognition and Language/Assignment/subject-5219060.csv","legacy","Lentiform Loewenfeld","3.3.7","yes","yes","600bd7cfb6416f0113b04181","602110864497cf011d9c0822","0","j","NA","space","j","j","NA","j","949","NA","1661","19260","5468","NA","949","2","legacy","1024","2","48000","-16","task","5219060","even","NA","42872","46538","44875","58894","6822","31599","26131","59397","NA","58888","59398","58695","46538","60348","41232","58195","6782","35453","Lexical Decision Task","10","10961","11","yes","1024"
"3.230789326","5.38","5","prim","word","91.66666666666667","91.66666666666667","970.6666666666666","970.6666666666666","black","no","legacy","legacy","legacy","0","uniform","1","undefined","undefined","undefined","1","j","0","0","0","0","11","0","0","0","11","NA","7","11","7","0","7","3","11","0","11","Wed Feb 17 11:17:03 2021","The main experiment item","yes","Lexical_Decision_Task.osexp","C:/Users/alfie/OneDrive/Documents/UNI/Year 2/Cognition and Language/Assignment","no","Andale Mono","no","18","no","white","no","yes","576","legacy","7","7","3","C:/Users/alfie/OneDrive/Documents/UNI/Year 2/Cognition and Language/Assignment/subject-5219060.csv","legacy","Lentiform Loewenfeld","3.3.7","yes","yes","600bd7cfb6416f0113b04181","602110864497cf011d9c0822","0","j","NA","space","j","j","NA","j","687","NA","1661","19260","5468","NA","687","2","legacy","1024","2","48000","-16","task","5219060","even","NA","42872","46538","44875","61090","6822","31599","26131","61593","NA","61085","61594","60908","46538","62282","41232","60408","6782","35453","Lexical Decision Task","11","11648","12","yes","1024"
"2.793790385","5.67","9","swab","word","92.3076923076923","92.3076923076923","951.1538461538462","951.1538461538462","black","no","legacy","legacy","legacy","0","uniform","1","undefined","undefined","undefined","1","j","0","0","0","0","12","0","0","0","12","NA","8","12","8","0","8","3","12","0","12","Wed Feb 17 11:17:03 2021","The main experiment item","yes","Lexical_Decision_Task.osexp","C:/Users/alfie/OneDrive/Documents/UNI/Year 2/Cognition and Language/Assignment","no","Andale Mono","no","18","no","white","no","yes","576","legacy","8","8","3","C:/Users/alfie/OneDrive/Documents/UNI/Year 2/Cognition and Language/Assignment/subject-5219060.csv","legacy","Lentiform Loewenfeld","3.3.7","yes","yes","600bd7cfb6416f0113b04181","602110864497cf011d9c0822","0","j","NA","space","j","j","NA","j","717","NA","1661","19260","5468","NA","717","2","legacy","1024","2","48000","-16","task","5219060","even","NA","42872","46538","44875","62980","6822","31599","26131","63482","NA","62975","63482","62842","46538","64200","41232","62342","6782","35453","Lexical Decision Task","12","12365","13","yes","1024"
"3.397302518","7.01","2","knit","word","85.71428571428571","85.71428571428571","944.7857142857143","944.7857142857143","black","no","legacy","legacy","legacy","0","uniform","0","undefined","undefined","undefined","0","j","0","0","0","0","13","0","0","0","13","NA","9","13","9","0","9","3","13","0","13","Wed Feb 17 11:17:03 2021","The main experiment item","yes","Lexical_Decision_Task.osexp","C:/Users/alfie/OneDrive/Documents/UNI/Year 2/Cognition and Language/Assignment","no","Andale Mono","no","18","no","white","no","yes","576","legacy","9","9","3","C:/Users/alfie/OneDrive/Documents/UNI/Year 2/Cognition and Language/Assignment/subject-5219060.csv","legacy","Lentiform Loewenfeld","3.3.7","yes","yes","600bd7cfb6416f0113b04181","602110864497cf011d9c0822","0","f","NA","space","j","j","NA","f","862","NA","1661","19260","5468","NA","862","2","legacy","1024","2","48000","-16","task","5219060","even","NA","42872","46538","44875","64861","6822","31599","26131","65364","NA","64860","65364","64763","46538","66227","41232","64263","6782","35453","Lexical Decision Task","12","13227","14","yes","1024"
"3.028977705","0","7","frow","non-word","80","80","921.4666666666667","921.4666666666667","black","no","legacy","legacy","legacy","0","uniform","0","undefined","undefined","undefined","0","f","0","0","0","0","14","0","0","0","14","NA","10","14","10","0","10","3","14","0","14","Wed Feb 17 11:17:03 2021","The main experiment item","yes","Lexical_Decision_Task.osexp","C:/Users/alfie/OneDrive/Documents/UNI/Year 2/Cognition and Language/Assignment","no","Andale Mono","no","18","no","white","no","yes","576","legacy","10","10","3","C:/Users/alfie/OneDrive/Documents/UNI/Year 2/Cognition and Language/Assignment/subject-5219060.csv","legacy","Lentiform Loewenfeld","3.3.7","yes","yes","600bd7cfb6416f0113b04181","602110864497cf011d9c0822","0","j","NA","space","j","j","NA","j","595","NA","1661","19260","5468","NA","595","2","legacy","1024","2","48000","-16","task","5219060","even","NA","42872","46538","44875","67954","6822","31599","26131","68456","NA","67949","68457","67790","46538","69054","41232","64263","6782","66289","Lexical Decision Task","12","13822","15","yes","1024"
"3.031408464","0","7","drow","non-word","81.25","81.25","934.3125","934.3125","black","no","legacy","legacy","legacy","0","uniform","1","undefined","undefined","undefined","1","f","0","0","0","0","15","0","0","0","15","NA","11","15","11","0","11","3","15","0","15","Wed Feb 17 11:17:03 2021","The main experiment item","yes","Lexical_Decision_Task.osexp","C:/Users/alfie/OneDrive/Documents/UNI/Year 2/Cognition and Language/Assignment","no","Andale Mono","no","18","no","white","no","yes","576","legacy","11","11","3","C:/Users/alfie/OneDrive/Documents/UNI/Year 2/Cognition and Language/Assignment/subject-5219060.csv","legacy","Lentiform Loewenfeld","3.3.7","yes","yes","600bd7cfb6416f0113b04181","602110864497cf011d9c0822","0","f","NA","space","j","j","NA","f","1127","NA","1661","19260","5468","NA","1127","2","legacy","1024","2","48000","-16","task","5219060","even","NA","42872","46538","44875","70770","6822","31599","26131","71274","NA","70765","71275","70588","46538","72403","41232","64263","6782","69088","Lexical Decision Task","13","14949","16","yes","1024"
"2.884795364","0","6","flob","non-word","76.47058823529412","76.47058823529412","943.1176470588235","943.1176470588235","black","no","legacy","legacy","legacy","0","uniform","0","undefined","undefined","undefined","0","f","0","0","0","0","16","0","0","0","16","NA","12","16","12","0","12","3","16","0","16","Wed Feb 17 11:17:03 2021","The main experiment item","yes","Lexical_Decision_Task.osexp","C:/Users/alfie/OneDrive/Documents/UNI/Year 2/Cognition and Language/Assignment","no","Andale Mono","no","18","no","white","no","yes","576","legacy","12","12","3","C:/Users/alfie/OneDrive/Documents/UNI/Year 2/Cognition and Language/Assignment/subject-5219060.csv","legacy","Lentiform Loewenfeld","3.3.7","yes","yes","600bd7cfb6416f0113b04181","602110864497cf011d9c0822","0","j","NA","space","j","j","NA","j","1084","NA","1661","19260","5468","NA","1084","2","legacy","1024","2","48000","-16","task","5219060","even","NA","42872","46538","44875","73024","6822","31599","26131","73527","NA","73023","73527","72912","46538","74613","41232","72412","6782","69088","Lexical Decision Task","13","16033","17","yes","1024"
"3.443783828","7.65","3","verb","word","77.77777777777777","77.77777777777777","930.1111111111111","930.1111111111111","black","no","legacy","legacy","legacy","0","uniform","1","undefined","undefined","undefined","1","j","0","0","0","0","17","0","0","0","17","NA","13","17","13","0","13","3","17","0","17","Wed Feb 17 11:17:03 2021","The main experiment item","yes","Lexical_Decision_Task.osexp","C:/Users/alfie/OneDrive/Documents/UNI/Year 2/Cognition and Language/Assignment","no","Andale Mono","no","18","no","white","no","yes","576","legacy","13","13","3","C:/Users/alfie/OneDrive/Documents/UNI/Year 2/Cognition and Language/Assignment/subject-5219060.csv","legacy","Lentiform Loewenfeld","3.3.7","yes","yes","600bd7cfb6416f0113b04181","602110864497cf011d9c0822","0","j","NA","space","j","j","NA","j","709","NA","1661","19260","5468","NA","709","2","legacy","1024","2","48000","-16","task","5219060","even","NA","42872","46538","44875","76332","6822","31599","26131","76835","NA","76330","76837","76180","46538","77547","41232","72412","6782","74680","Lexical Decision Task","14","16742","18","yes","1024"
"2.868644438","10.52","4","town","word","78.94736842105263","78.94736842105263","919.4736842105264","919.4736842105264","black","no","legacy","legacy","legacy","0","uniform","1","undefined","undefined","undefined","1","j","0","0","0","0","18","0","0","0","18","NA","14","18","14","0","14","3","18","0","18","Wed Feb 17 11:17:03 2021","The main experiment item","yes","Lexical_Decision_Task.osexp","C:/Users/alfie/OneDrive/Documents/UNI/Year 2/Cognition and Language/Assignment","no","Andale Mono","no","18","no","white","no","yes","576","legacy","14","14","3","C:/Users/alfie/OneDrive/Documents/UNI/Year 2/Cognition and Language/Assignment/subject-5219060.csv","legacy","Lentiform Loewenfeld","3.3.7","yes","yes","600bd7cfb6416f0113b04181","602110864497cf011d9c0822","0","j","NA","space","j","j","NA","j","728","NA","1661","19260","5468","NA","728","2","legacy","1024","2","48000","-16","task","5219060","even","NA","42872","46538","44875","78246","6822","31599","26131","78749","NA","78241","78750","78056","46538","79480","41232","77556","6782","74680","Lexical Decision Task","15","17470","19","yes","1024"
"2.907588697","8.91","9","mood","word","80","80","907.3","907.3","black","no","legacy","legacy","legacy","0","uniform","1","undefined","undefined","undefined","1","j","0","0","0","0","19","0","0","0","19","NA","15","19","15","0","15","3","19","0","19","Wed Feb 17 11:17:03 2021","The main experiment item","yes","Lexical_Decision_Task.osexp","C:/Users/alfie/OneDrive/Documents/UNI/Year 2/Cognition and Language/Assignment","no","Andale Mono","no","18","no","white","no","yes","576","legacy","15","15","3","C:/Users/alfie/OneDrive/Documents/UNI/Year 2/Cognition and Language/Assignment/subject-5219060.csv","legacy","Lentiform Loewenfeld","3.3.7","yes","yes","600bd7cfb6416f0113b04181","602110864497cf011d9c0822","0","j","NA","space","j","j","NA","j","676","NA","1661","19260","5468","NA","676","2","legacy","1024","2","48000","-16","task","5219060","even","NA","42872","46538","44875","80148","6822","31599","26131","80652","NA","80146","80653","80049","46538","81332","41232","79549","6782","74680","Lexical Decision Task","16","18146","20","yes","1024"
"3.066077331","0","7","vorn","non-word","80.95238095238095","80.95238095238095","925.4285714285714","925.4285714285714","black","no","legacy","legacy","legacy","0","uniform","1","undefined","undefined","undefined","1","f","0","0","0","0","20","0","0","0","20","NA","16","20","16","0","16","3","20","0","20","Wed Feb 17 11:17:03 2021","The main experiment item","yes","Lexical_Decision_Task.osexp","C:/Users/alfie/OneDrive/Documents/UNI/Year 2/Cognition and Language/Assignment","no","Andale Mono","no","18","no","white","no","yes","576","legacy","16","16","3","C:/Users/alfie/OneDrive/Documents/UNI/Year 2/Cognition and Language/Assignment/subject-5219060.csv","legacy","Lentiform Loewenfeld","3.3.7","yes","yes","600bd7cfb6416f0113b04181","602110864497cf011d9c0822","0","f","NA","space","j","j","NA","f","1288","NA","1661","19260","5468","NA","1288","2","legacy","1024","2","48000","-16","task","5219060","even","NA","42872","46538","44875","82016","6822","31599","26131","82519","NA","82014","82520","81900","46538","83811","41232","81400","6782","74680","Lexical Decision Task","17","19434","21","yes","1024"
"2.86332286","6.71","2","feud","word","77.27272727272727","77.27272727272727","925.7727272727273","925.7727272727273","black","no","legacy","legacy","legacy","0","uniform","0","undefined","undefined","undefined","0","j","0","0","0","0","21","0","0","0","21","NA","17","21","17","0","17","3","21","0","21","Wed Feb 17 11:17:03 2021","The main experiment item","yes","Lexical_Decision_Task.osexp","C:/Users/alfie/OneDrive/Documents/UNI/Year 2/Cognition and Language/Assignment","no","Andale Mono","no","18","no","white","no","yes","576","legacy","17","17","3","C:/Users/alfie/OneDrive/Documents/UNI/Year 2/Cognition and Language/Assignment/subject-5219060.csv","legacy","Lentiform Loewenfeld","3.3.7","yes","yes","600bd7cfb6416f0113b04181","602110864497cf011d9c0822","0","f","NA","space","j","j","NA","f","933","NA","1661","19260","5468","NA","933","2","legacy","1024","2","48000","-16","task","5219060","even","NA","42872","46538","44875","84478","6822","31599","26131","84982","NA","84475","84983","84378","46538","85919","41232","83878","6782","74680","Lexical Decision Task","17","20367","22","yes","1024"
"3.010582609","0","2","drod","non-word","78.26086956521739","78.26086956521739","924.3913043478261","924.3913043478261","black","no","legacy","legacy","legacy","0","uniform","1","undefined","undefined","undefined","1","f","0","0","0","0","22","0","0","0","22","NA","18","22","18","0","18","3","22","0","22","Wed Feb 17 11:17:03 2021","The main experiment item","yes","Lexical_Decision_Task.osexp","C:/Users/alfie/OneDrive/Documents/UNI/Year 2/Cognition and Language/Assignment","no","Andale Mono","no","18","no","white","no","yes","576","legacy","18","18","3","C:/Users/alfie/OneDrive/Documents/UNI/Year 2/Cognition and Language/Assignment/subject-5219060.csv","legacy","Lentiform Loewenfeld","3.3.7","yes","yes","600bd7cfb6416f0113b04181","602110864497cf011d9c0822","0","f","NA","space","j","j","NA","f","894","NA","1661","19260","5468","NA","894","2","legacy","1024","2","48000","-16","task","5219060","even","NA","42872","46538","44875","87650","6822","31599","26131","88152","NA","87647","88153","87488","46538","89050","41232","83878","6782","85988","Lexical Decision Task","18","21261","23","yes","1024"
"2.668385917","5.48","4","twig","word","79.16666666666667","79.16666666666667","927.875","927.875","black","no","legacy","legacy","legacy","0","uniform","1","undefined","undefined","undefined","1","j","0","0","0","0","23","0","0","0","23","NA","19","23","19","0","19","3","23","0","23","Wed Feb 17 11:17:03 2021","The main experiment item","yes","Lexical_Decision_Task.osexp","C:/Users/alfie/OneDrive/Documents/UNI/Year 2/Cognition and Language/Assignment","no","Andale Mono","no","18","no","white","no","yes","576","legacy","19","19","3","C:/Users/alfie/OneDrive/Documents/UNI/Year 2/Cognition and Language/Assignment/subject-5219060.csv","legacy","Lentiform Loewenfeld","3.3.7","yes","yes","600bd7cfb6416f0113b04181","602110864497cf011d9c0822","0","j","NA","space","j","j","NA","j","1008","NA","1661","19260","5468","NA","1008","2","legacy","1024","2","48000","-16","task","5219060","even","NA","42872","46538","44875","89797","6822","31599","26131","90301","NA","89791","90302","89621","46538","91312","41232","89121","6782","85988","Lexical Decision Task","19","22269","24","yes","1024"
"2.767650507","0","6","yolt","non-word","76","76","932.4","932.4","black","no","legacy","legacy","legacy","0","uniform","0","undefined","undefined","undefined","0","f","0","0","0","0","24","0","0","0","24","NA","20","24","20","0","20","3","24","0","24","Wed Feb 17 11:17:03 2021","The main experiment item","yes","Lexical_Decision_Task.osexp","C:/Users/alfie/OneDrive/Documents/UNI/Year 2/Cognition and Language/Assignment","no","Andale Mono","no","18","no","white","no","yes","576","legacy","20","20","3","C:/Users/alfie/OneDrive/Documents/UNI/Year 2/Cognition and Language/Assignment/subject-5219060.csv","legacy","Lentiform Loewenfeld","3.3.7","yes","yes","600bd7cfb6416f0113b04181","602110864497cf011d9c0822","0","j","NA","space","j","j","NA","j","1041","NA","1661","19260","5468","NA","1041","2","legacy","1024","2","48000","-16","task","5219060","even","NA","42872","46538","44875","92070","6822","31599","26131","92574","NA","92065","92575","91885","46538","93618","41232","91384","6782","85988","Lexical Decision Task","19","23310","25","yes","1024"
"2.895974732","6.65","5","sift","word","73.07692307692308","73.07692307692308","931.3461538461538","931.3461538461538","black","no","legacy","legacy","legacy","0","uniform","0","undefined","undefined","undefined","0","j","0","0","0","0","25","0","0","0","25","NA","21","25","21","0","21","3","25","0","25","Wed Feb 17 11:17:03 2021","The main experiment item","yes","Lexical_Decision_Task.osexp","C:/Users/alfie/OneDrive/Documents/UNI/Year 2/Cognition and Language/Assignment","no","Andale Mono","no","18","no","white","no","yes","576","legacy","21","21","3","C:/Users/alfie/OneDrive/Documents/UNI/Year 2/Cognition and Language/Assignment/subject-5219060.csv","legacy","Lentiform Loewenfeld","3.3.7","yes","yes","600bd7cfb6416f0113b04181","602110864497cf011d9c0822","0","f","NA","space","j","j","NA","f","905","NA","1661","19260","5468","NA","905","2","legacy","1024","2","48000","-16","task","5219060","even","NA","42872","46538","44875","95371","6822","31599","26131","95874","NA","95366","95876","95188","46538","96783","41232","91384","6782","93687","Lexical Decision Task","19","24215","26","yes","1024"
"3.174641193","0","3","ramb","non-word","74.07407407407408","74.07407407407408","949.074074074074","949.074074074074","black","no","legacy","legacy","legacy","0","uniform","1","undefined","undefined","undefined","1","f","0","0","0","0","26","0","0","0","26","NA","22","26","22","0","22","3","26","0","26","Wed Feb 17 11:17:03 2021","The main experiment item","yes","Lexical_Decision_Task.osexp","C:/Users/alfie/OneDrive/Documents/UNI/Year 2/Cognition and Language/Assignment","no","Andale Mono","no","18","no","white","no","yes","576","legacy","22","22","3","C:/Users/alfie/OneDrive/Documents/UNI/Year 2/Cognition and Language/Assignment/subject-5219060.csv","legacy","Lentiform Loewenfeld","3.3.7","yes","yes","600bd7cfb6416f0113b04181","602110864497cf011d9c0822","0","f","NA","space","j","j","NA","f","1410","NA","1661","19260","5468","NA","1410","2","legacy","1024","2","48000","-16","task","5219060","even","NA","42872","46538","44875","98513","6822","31599","26131","99016","NA","98507","99016","98354","46538","100428","41232","91384","6782","96854","Lexical Decision Task","20","25625","27","yes","1024"
"2.705007959","6.01","4","wept","word","75","75","955.8214285714286","955.8214285714286","black","no","legacy","legacy","legacy","0","uniform","1","undefined","undefined","undefined","1","j","0","0","0","0","27","0","0","0","27","NA","23","27","23","0","23","3","27","0","27","Wed Feb 17 11:17:03 2021","The main experiment item","yes","Lexical_Decision_Task.osexp","C:/Users/alfie/OneDrive/Documents/UNI/Year 2/Cognition and Language/Assignment","no","Andale Mono","no","18","no","white","no","yes","576","legacy","23","23","3","C:/Users/alfie/OneDrive/Documents/UNI/Year 2/Cognition and Language/Assignment/subject-5219060.csv","legacy","Lentiform Loewenfeld","3.3.7","yes","yes","600bd7cfb6416f0113b04181","602110864497cf011d9c0822","0","j","NA","space","j","j","NA","j","1138","NA","1661","19260","5468","NA","1138","2","legacy","1024","2","48000","-16","task","5219060","even","NA","42872","46538","44875","101140","6822","31599","26131","101642","NA","101137","101642","100966","46538","102781","41232","100466","6782","96854","Lexical Decision Task","21","26763","28","yes","1024"
"3.062080345","0","6","tomp","non-word","75.86206896551724","75.86206896551724","954.2413793103449","954.2413793103449","black","no","legacy","legacy","legacy","0","uniform","1","undefined","undefined","undefined","1","f","0","0","0","0","28","0","0","0","28","NA","24","28","24","0","24","3","28","0","28","Wed Feb 17 11:17:03 2021","The main experiment item","yes","Lexical_Decision_Task.osexp","C:/Users/alfie/OneDrive/Documents/UNI/Year 2/Cognition and Language/Assignment","no","Andale Mono","no","18","no","white","no","yes","576","legacy","24","24","3","C:/Users/alfie/OneDrive/Documents/UNI/Year 2/Cognition and Language/Assignment/subject-5219060.csv","legacy","Lentiform Loewenfeld","3.3.7","yes","yes","600bd7cfb6416f0113b04181","602110864497cf011d9c0822","0","f","NA","space","j","j","NA","f","910","NA","1661","19260","5468","NA","910","2","legacy","1024","2","48000","-16","task","5219060","even","NA","42872","46538","44875","103421","6822","31599","26131","103925","NA","103418","103925","103304","46538","104836","41232","102804","6782","96854","Lexical Decision Task","22","27673","29","yes","1024"
"3.382617311","0","4","pret","non-word","73.33333333333333","73.33333333333333","948.6666666666666","948.6666666666666","black","no","legacy","legacy","legacy","0","uniform","0","undefined","undefined","undefined","0","f","0","0","0","0","29","0","0","0","29","NA","25","29","25","0","25","3","29","0","29","Wed Feb 17 11:17:03 2021","The main experiment item","yes","Lexical_Decision_Task.osexp","C:/Users/alfie/OneDrive/Documents/UNI/Year 2/Cognition and Language/Assignment","no","Andale Mono","no","18","no","white","no","yes","576","legacy","25","25","3","C:/Users/alfie/OneDrive/Documents/UNI/Year 2/Cognition and Language/Assignment/subject-5219060.csv","legacy","Lentiform Loewenfeld","3.3.7","yes","yes","600bd7cfb6416f0113b04181","602110864497cf011d9c0822","0","j","NA","space","j","j","NA","j","787","NA","1661","19260","5468","NA","787","2","legacy","1024","2","48000","-16","task","5219060","even","NA","42872","46538","44875","105573","6822","31599","26131","106076","NA","105568","106076","105399","46538","106867","41232","104899","6782","96854","Lexical Decision Task","22","28460","30","yes","1024"
"3.100255637","0","6","brax","non-word","74.19354838709677","74.19354838709677","949.9032258064516","949.9032258064516","black","no","legacy","legacy","legacy","0","uniform","1","undefined","undefined","undefined","1","f","0","0","0","0","30","0","0","0","30","NA","26","30","26","0","26","3","30","0","30","Wed Feb 17 11:17:03 2021","The main experiment item","yes","Lexical_Decision_Task.osexp","C:/Users/alfie/OneDrive/Documents/UNI/Year 2/Cognition and Language/Assignment","no","Andale Mono","no","18","no","white","no","yes","576","legacy","26","26","3","C:/Users/alfie/OneDrive/Documents/UNI/Year 2/Cognition and Language/Assignment/subject-5219060.csv","legacy","Lentiform Loewenfeld","3.3.7","yes","yes","600bd7cfb6416f0113b04181","602110864497cf011d9c0822","0","f","NA","space","j","j","NA","f","987","NA","1661","19260","5468","NA","987","2","legacy","1024","2","48000","-16","task","5219060","even","NA","42872","46538","44875","108586","6822","31599","26131","109089","NA","108582","109089","108430","46538","110078","41232","104899","6782","106930","Lexical Decision Task","23","29447","31","yes","1024"
"2.664011697","8.19","4","hawk","word","75","75","940.96875","940.96875","black","no","legacy","legacy","legacy","0","uniform","1","undefined","undefined","undefined","1","j","0","0","0","0","31","0","0","0","31","NA","27","31","27","0","27","3","31","0","31","Wed Feb 17 11:17:03 2021","The main experiment item","yes","Lexical_Decision_Task.osexp","C:/Users/alfie/OneDrive/Documents/UNI/Year 2/Cognition and Language/Assignment","no","Andale Mono","no","18","no","white","no","yes","576","legacy","27","27","3","C:/Users/alfie/OneDrive/Documents/UNI/Year 2/Cognition and Language/Assignment/subject-5219060.csv","legacy","Lentiform Loewenfeld","3.3.7","yes","yes","600bd7cfb6416f0113b04181","602110864497cf011d9c0822","0","j","NA","space","j","j","NA","j","664","NA","1661","19260","5468","NA","664","2","legacy","1024","2","48000","-16","task","5219060","even","NA","42872","46538","44875","110812","6822","31599","26131","111316","NA","110807","111317","110640","46538","111983","41232","110140","6782","106930","Lexical Decision Task","24","30111","32","yes","1024"
"3.347850856","10.51","2","rich","word","75.75757575757575","75.75757575757575","929.8787878787879","929.8787878787879","black","no","legacy","legacy","legacy","0","uniform","1","undefined","undefined","undefined","1","j","0","0","0","0","32","0","0","0","32","NA","28","32","28","0","28","3","32","0","32","Wed Feb 17 11:17:03 2021","The main experiment item","yes","Lexical_Decision_Task.osexp","C:/Users/alfie/OneDrive/Documents/UNI/Year 2/Cognition and Language/Assignment","no","Andale Mono","no","18","no","white","no","yes","576","legacy","28","28","3","C:/Users/alfie/OneDrive/Documents/UNI/Year 2/Cognition and Language/Assignment/subject-5219060.csv","legacy","Lentiform Loewenfeld","3.3.7","yes","yes","600bd7cfb6416f0113b04181","602110864497cf011d9c0822","0","j","NA","space","j","j","NA","j","575","NA","1661","19260","5468","NA","575","2","legacy","1024","2","48000","-16","task","5219060","even","NA","42872","46538","44875","112649","6822","31599","26131","113152","NA","112648","113153","112544","46538","113731","41232","112044","6782","106930","Lexical Decision Task","25","30686","33","yes","1024"
"2.920123326","7.43","4","duel","word","76.47058823529412","76.47058823529412","923.0588235294117","923.0588235294117","black","no","legacy","legacy","legacy","0","uniform","1","undefined","undefined","undefined","1","j","0","0","0","0","33","0","0","0","33","NA","29","33","29","0","29","3","33","0","33","Wed Feb 17 11:17:03 2021","The main experiment item","yes","Lexical_Decision_Task.osexp","C:/Users/alfie/OneDrive/Documents/UNI/Year 2/Cognition and Language/Assignment","no","Andale Mono","no","18","no","white","no","yes","576","legacy","29","29","3","C:/Users/alfie/OneDrive/Documents/UNI/Year 2/Cognition and Language/Assignment/subject-5219060.csv","legacy","Lentiform Loewenfeld","3.3.7","yes","yes","600bd7cfb6416f0113b04181","602110864497cf011d9c0822","0","j","NA","space","j","j","NA","j","698","NA","1661","19260","5468","NA","698","2","legacy","1024","2","48000","-16","task","5219060","even","NA","42872","46538","44875","114473","6822","31599","26131","114977","NA","114470","114978","114296","46538","115678","41232","113796","6782","106930","Lexical Decision Task","26","31384","34","yes","1024"
"2.842815106","7.86","8","lump","word","77.14285714285714","77.14285714285714","912.6857142857143","912.6857142857143","black","no","legacy","legacy","legacy","0","uniform","1","undefined","undefined","undefined","1","j","0","0","0","0","34","0","0","0","34","NA","30","34","30","0","30","3","34","0","34","Wed Feb 17 11:17:03 2021","The main experiment item","yes","Lexical_Decision_Task.osexp","C:/Users/alfie/OneDrive/Documents/UNI/Year 2/Cognition and Language/Assignment","no","Andale Mono","no","18","no","white","no","yes","576","legacy","30","30","3","C:/Users/alfie/OneDrive/Documents/UNI/Year 2/Cognition and Language/Assignment/subject-5219060.csv","legacy","Lentiform Loewenfeld","3.3.7","yes","yes","600bd7cfb6416f0113b04181","602110864497cf011d9c0822","0","j","NA","space","j","j","NA","j","560","NA","1661","19260","5468","NA","560","2","legacy","1024","2","48000","-16","task","5219060","even","NA","42872","46538","44875","116424","6822","31599","26131","116928","NA","116420","116929","116241","46538","117490","41232","115741","6782","106930","Lexical Decision Task","27","31944","35","yes","1024"
"2.845304797","0","6","buct","non-word","77.77777777777777","77.77777777777777","904.4444444444445","904.4444444444445","black","no","legacy","legacy","legacy","0","uniform","1","undefined","undefined","undefined","1","f","0","0","0","0","35","0","0","0","35","NA","31","35","31","0","31","3","35","0","35","Wed Feb 17 11:17:03 2021","The main experiment item","yes","Lexical_Decision_Task.osexp","C:/Users/alfie/OneDrive/Documents/UNI/Year 2/Cognition and Language/Assignment","no","Andale Mono","no","18","no","white","no","yes","576","legacy","31","31","3","C:/Users/alfie/OneDrive/Documents/UNI/Year 2/Cognition and Language/Assignment/subject-5219060.csv","legacy","Lentiform Loewenfeld","3.3.7","yes","yes","600bd7cfb6416f0113b04181","602110864497cf011d9c0822","0","f","NA","space","j","j","NA","f","616","NA","1661","19260","5468","NA","616","2","legacy","1024","2","48000","-16","task","5219060","even","NA","42872","46538","44875","118144","6822","31599","26131","118647","NA","118143","118648","118053","46538","119264","41232","117553","6782","106930","Lexical Decision Task","28","32560","36","yes","1024"
"3.140404328","10.66","9","deep","word","78.37837837837837","78.37837837837837","894.5945945945946","894.5945945945946","black","no","legacy","legacy","legacy","0","uniform","1","undefined","undefined","undefined","1","j","0","0","0","0","36","0","0","0","36","NA","32","36","32","0","32","3","36","0","36","Wed Feb 17 11:17:03 2021","The main experiment item","yes","Lexical_Decision_Task.osexp","C:/Users/alfie/OneDrive/Documents/UNI/Year 2/Cognition and Language/Assignment","no","Andale Mono","no","18","no","white","no","yes","576","legacy","32","32","3","C:/Users/alfie/OneDrive/Documents/UNI/Year 2/Cognition and Language/Assignment/subject-5219060.csv","legacy","Lentiform Loewenfeld","3.3.7","yes","yes","600bd7cfb6416f0113b04181","602110864497cf011d9c0822","0","j","NA","space","j","j","NA","j","540","NA","1661","19260","5468","NA","540","2","legacy","1024","2","48000","-16","task","5219060","even","NA","42872","46538","44875","120013","6822","31599","26131","120517","NA","120009","120520","119833","46538","121062","41232","119333","6782","106930","Lexical Decision Task","29","33100","37","yes","1024"
"3.282244367","0","6","fute","non-word","76.3157894736842","76.3157894736842","885.7631578947369","885.7631578947369","black","no","legacy","legacy","legacy","0","uniform","0","undefined","undefined","undefined","0","f","0","0","0","0","37","0","0","0","37","NA","33","37","33","0","33","3","37","0","37","Wed Feb 17 11:17:03 2021","The main experiment item","yes","Lexical_Decision_Task.osexp","C:/Users/alfie/OneDrive/Documents/UNI/Year 2/Cognition and Language/Assignment","no","Andale Mono","no","18","no","white","no","yes","576","legacy","33","33","3","C:/Users/alfie/OneDrive/Documents/UNI/Year 2/Cognition and Language/Assignment/subject-5219060.csv","legacy","Lentiform Loewenfeld","3.3.7","yes","yes","600bd7cfb6416f0113b04181","602110864497cf011d9c0822","0","j","NA","space","j","j","NA","j","559","NA","1661","19260","5468","NA","559","2","legacy","1024","2","48000","-16","task","5219060","even","NA","42872","46538","44875","121804","6822","31599","26131","122307","NA","121802","122307","121631","46538","122868","41232","121131","6782","106930","Lexical Decision Task","29","33659","38","yes","1024"
"2.821076612","0","4","lult","non-word","76.92307692307692","76.92307692307692","888.2564102564103","888.2564102564103","black","no","legacy","legacy","legacy","0","uniform","1","undefined","undefined","undefined","1","f","0","0","0","0","38","0","0","0","38","NA","34","38","34","0","34","3","38","0","38","Wed Feb 17 11:17:03 2021","The main experiment item","yes","Lexical_Decision_Task.osexp","C:/Users/alfie/OneDrive/Documents/UNI/Year 2/Cognition and Language/Assignment","no","Andale Mono","no","18","no","white","no","yes","576","legacy","34","34","3","C:/Users/alfie/OneDrive/Documents/UNI/Year 2/Cognition and Language/Assignment/subject-5219060.csv","legacy","Lentiform Loewenfeld","3.3.7","yes","yes","600bd7cfb6416f0113b04181","602110864497cf011d9c0822","0","f","NA","space","j","j","NA","f","983","NA","1661","19260","5468","NA","983","2","legacy","1024","2","48000","-16","task","5219060","even","NA","42872","46538","44875","124614","6822","31599","26131","125118","NA","124607","125118","124436","46538","126104","41232","121131","6782","122936","Lexical Decision Task","30","34642","39","yes","1024"
"2.966923697","5.4","2","fume","word","77.5","77.5","883.3","883.3","black","no","legacy","legacy","legacy","0","uniform","1","undefined","undefined","undefined","1","j","0","0","0","0","39","0","0","0","39","NA","35","39","35","0","35","3","39","0","39","Wed Feb 17 11:17:03 2021","The main experiment item","yes","Lexical_Decision_Task.osexp","C:/Users/alfie/OneDrive/Documents/UNI/Year 2/Cognition and Language/Assignment","no","Andale Mono","no","18","no","white","no","yes","576","legacy","35","35","3","C:/Users/alfie/OneDrive/Documents/UNI/Year 2/Cognition and Language/Assignment/subject-5219060.csv","legacy","Lentiform Loewenfeld","3.3.7","yes","yes","600bd7cfb6416f0113b04181","602110864497cf011d9c0822","0","j","NA","space","j","j","NA","j","690","NA","1661","19260","5468","NA","690","2","legacy","1024","2","48000","-16","task","5219060","even","NA","42872","46538","44875","126807","6822","31599","26131","127311","NA","126804","127313","126673","46538","128008","41232","126173","6782","122936","Lexical Decision Task","31","35332","40","yes","1024"
"3.137775856","7.39","5","comb","word","78.04878048780488","78.04878048780488","881.3414634146342","881.3414634146342","black","no","legacy","legacy","legacy","0","uniform","1","undefined","undefined","undefined","1","j","0","0","0","0","40","0","0","0","40","NA","36","40","36","0","36","3","40","0","40","Wed Feb 17 11:17:03 2021","The main experiment item","yes","Lexical_Decision_Task.osexp","C:/Users/alfie/OneDrive/Documents/UNI/Year 2/Cognition and Language/Assignment","no","Andale Mono","no","18","no","white","no","yes","576","legacy","36","36","3","C:/Users/alfie/OneDrive/Documents/UNI/Year 2/Cognition and Language/Assignment/subject-5219060.csv","legacy","Lentiform Loewenfeld","3.3.7","yes","yes","600bd7cfb6416f0113b04181","602110864497cf011d9c0822","0","j","NA","space","j","j","NA","j","803","NA","1661","19260","5468","NA","803","2","legacy","1024","2","48000","-16","task","5219060","even","NA","42872","46538","44875","128613","6822","31599","26131","129116","NA","128612","129117","128523","46538","129922","41232","128022","6782","122936","Lexical Decision Task","32","36135","41","yes","1024"
"3.368162872","0","4","ferk","non-word","78.57142857142857","78.57142857142857","877.9761904761905","877.9761904761905","black","no","legacy","legacy","legacy","0","uniform","1","undefined","undefined","undefined","1","f","0","0","0","0","41","0","0","0","41","NA","37","41","37","0","37","3","41","0","41","Wed Feb 17 11:17:03 2021","The main experiment item","yes","Lexical_Decision_Task.osexp","C:/Users/alfie/OneDrive/Documents/UNI/Year 2/Cognition and Language/Assignment","no","Andale Mono","no","18","no","white","no","yes","576","legacy","37","37","3","C:/Users/alfie/OneDrive/Documents/UNI/Year 2/Cognition and Language/Assignment/subject-5219060.csv","legacy","Lentiform Loewenfeld","3.3.7","yes","yes","600bd7cfb6416f0113b04181","602110864497cf011d9c0822","0","f","NA","space","j","j","NA","f","740","NA","1661","19260","5468","NA","740","2","legacy","1024","2","48000","-16","task","5219060","even","NA","42872","46538","44875","130674","6822","31599","26131","131176","NA","130669","131177","130496","46538","131918","41232","129996","6782","122936","Lexical Decision Task","33","36875","42","yes","1024"
"3.259832699","0","9","flar","non-word","79.06976744186046","79.06976744186046","884.6511627906976","884.6511627906976","black","no","legacy","legacy","legacy","0","uniform","1","undefined","undefined","undefined","1","f","0","0","0","0","42","0","0","0","42","NA","38","42","38","0","38","3","42","0","42","Wed Feb 17 11:17:03 2021","The main experiment item","yes","Lexical_Decision_Task.osexp","C:/Users/alfie/OneDrive/Documents/UNI/Year 2/Cognition and Language/Assignment","no","Andale Mono","no","18","no","white","no","yes","576","legacy","38","38","3","C:/Users/alfie/OneDrive/Documents/UNI/Year 2/Cognition and Language/Assignment/subject-5219060.csv","legacy","Lentiform Loewenfeld","3.3.7","yes","yes","600bd7cfb6416f0113b04181","602110864497cf011d9c0822","0","f","NA","space","j","j","NA","f","1165","NA","1661","19260","5468","NA","1165","2","legacy","1024","2","48000","-16","task","5219060","even","NA","42872","46538","44875","132602","6822","31599","26131","133105","NA","132599","133105","132478","46538","134272","41232","131978","6782","122936","Lexical Decision Task","34","38040","43","yes","1024"
"3.705778213","0","6","stin","non-word","77.27272727272727","77.27272727272727","887.8863636363636","887.8863636363636","black","no","legacy","legacy","legacy","0","uniform","0","undefined","undefined","undefined","0","f","0","0","0","0","43","0","0","0","43","NA","39","43","39","0","39","3","43","0","43","Wed Feb 17 11:17:03 2021","The main experiment item","yes","Lexical_Decision_Task.osexp","C:/Users/alfie/OneDrive/Documents/UNI/Year 2/Cognition and Language/Assignment","no","Andale Mono","no","18","no","white","no","yes","576","legacy","39","39","3","C:/Users/alfie/OneDrive/Documents/UNI/Year 2/Cognition and Language/Assignment/subject-5219060.csv","legacy","Lentiform Loewenfeld","3.3.7","yes","yes","600bd7cfb6416f0113b04181","602110864497cf011d9c0822","0","j","NA","space","j","j","NA","j","1027","NA","1661","19260","5468","NA","1027","2","legacy","1024","2","48000","-16","task","5219060","even","NA","42872","46538","44875","135014","6822","31599","26131","135518","NA","135008","135518","134833","46538","136547","41232","134331","6782","122936","Lexical Decision Task","34","39067","44","yes","1024"
"3.195807436","0","6","stup","non-word","77.77777777777777","77.77777777777777","893.2","893.2","black","no","legacy","legacy","legacy","0","uniform","1","undefined","undefined","undefined","1","f","0","0","0","0","44","0","0","0","44","NA","40","44","40","0","40","3","44","0","44","Wed Feb 17 11:17:03 2021","The main experiment item","yes","Lexical_Decision_Task.osexp","C:/Users/alfie/OneDrive/Documents/UNI/Year 2/Cognition and Language/Assignment","no","Andale Mono","no","18","no","white","no","yes","576","legacy","40","40","3","C:/Users/alfie/OneDrive/Documents/UNI/Year 2/Cognition and Language/Assignment/subject-5219060.csv","legacy","Lentiform Loewenfeld","3.3.7","yes","yes","600bd7cfb6416f0113b04181","602110864497cf011d9c0822","0","f","NA","space","j","j","NA","f","1127","NA","1661","19260","5468","NA","1127","2","legacy","1024","2","48000","-16","task","5219060","even","NA","42872","46538","44875","138247","6822","31599","26131","138751","NA","138242","138751","138107","46538","139880","41232","134331","6782","136607","Lexical Decision Task","35","40194","45","yes","1024"
"3.168890155","0","6","thet","non-word","78.26086956521739","78.26086956521739","893.7391304347826","893.7391304347826","black","no","legacy","legacy","legacy","0","uniform","1","undefined","undefined","undefined","1","f","0","0","0","0","45","0","0","0","45","NA","41","45","41","0","41","3","45","0","45","Wed Feb 17 11:17:03 2021","The main experiment item","yes","Lexical_Decision_Task.osexp","C:/Users/alfie/OneDrive/Documents/UNI/Year 2/Cognition and Language/Assignment","no","Andale Mono","no","18","no","white","no","yes","576","legacy","41","41","3","C:/Users/alfie/OneDrive/Documents/UNI/Year 2/Cognition and Language/Assignment/subject-5219060.csv","legacy","Lentiform Loewenfeld","3.3.7","yes","yes","600bd7cfb6416f0113b04181","602110864497cf011d9c0822","0","f","NA","space","j","j","NA","f","918","NA","1661","19260","5468","NA","918","2","legacy","1024","2","48000","-16","task","5219060","even","NA","42872","46538","44875","140558","6822","31599","26131","141061","NA","140556","141062","140444","46538","141984","41232","139944","6782","136607","Lexical Decision Task","36","41112","46","yes","1024"
"3.165936429","0","7","leps","non-word","76.59574468085107","76.59574468085107","894.5531914893617","894.5531914893617","black","no","legacy","legacy","legacy","0","uniform","0","undefined","undefined","undefined","0","f","0","0","0","0","46","0","0","0","46","NA","42","46","42","0","42","3","46","0","46","Wed Feb 17 11:17:03 2021","The main experiment item","yes","Lexical_Decision_Task.osexp","C:/Users/alfie/OneDrive/Documents/UNI/Year 2/Cognition and Language/Assignment","no","Andale Mono","no","18","no","white","no","yes","576","legacy","42","42","3","C:/Users/alfie/OneDrive/Documents/UNI/Year 2/Cognition and Language/Assignment/subject-5219060.csv","legacy","Lentiform Loewenfeld","3.3.7","yes","yes","600bd7cfb6416f0113b04181","602110864497cf011d9c0822","0","j","NA","space","j","j","NA","j","932","NA","1661","19260","5468","NA","932","2","legacy","1024","2","48000","-16","task","5219060","even","NA","42872","46538","44875","142696","6822","31599","26131","143198","NA","142691","143199","142548","46538","144131","41232","142048","6782","136607","Lexical Decision Task","36","42044","47","yes","1024"
"3.274157849","0","8","leet","non-word","77.08333333333333","77.08333333333333","898.3958333333334","898.3958333333334","black","no","legacy","legacy","legacy","0","uniform","1","undefined","undefined","undefined","1","f","0","0","0","0","47","0","0","0","47","NA","43","47","43","0","43","3","47","0","47","Wed Feb 17 11:17:03 2021","The main experiment item","yes","Lexical_Decision_Task.osexp","C:/Users/alfie/OneDrive/Documents/UNI/Year 2/Cognition and Language/Assignment","no","Andale Mono","no","18","no","white","no","yes","576","legacy","43","43","3","C:/Users/alfie/OneDrive/Documents/UNI/Year 2/Cognition and Language/Assignment/subject-5219060.csv","legacy","Lentiform Loewenfeld","3.3.7","yes","yes","600bd7cfb6416f0113b04181","602110864497cf011d9c0822","0","f","NA","space","j","j","NA","f","1079","NA","1661","19260","5468","NA","1079","2","legacy","1024","2","48000","-16","task","5219060","even","NA","42872","46538","44875","145870","6822","31599","26131","146374","NA","145865","146375","145693","46538","147457","41232","142048","6782","144193","Lexical Decision Task","37","43123","48","yes","1024"
"3.378276681","6.39","8","bran","word","77.55102040816327","77.55102040816327","905.0612244897959","905.0612244897959","black","no","legacy","legacy","legacy","0","uniform","1","undefined","undefined","undefined","1","j","0","0","0","0","48","0","0","0","48","NA","44","48","44","0","44","3","48","0","48","Wed Feb 17 11:17:03 2021","The main experiment item","yes","Lexical_Decision_Task.osexp","C:/Users/alfie/OneDrive/Documents/UNI/Year 2/Cognition and Language/Assignment","no","Andale Mono","no","18","no","white","no","yes","576","legacy","44","44","3","C:/Users/alfie/OneDrive/Documents/UNI/Year 2/Cognition and Language/Assignment/subject-5219060.csv","legacy","Lentiform Loewenfeld","3.3.7","yes","yes","600bd7cfb6416f0113b04181","602110864497cf011d9c0822","0","j","NA","space","j","j","NA","j","1225","NA","1661","19260","5468","NA","1225","2","legacy","1024","2","48000","-16","task","5219060","even","NA","42872","46538","44875","148210","6822","31599","26131","148714","NA","148204","148714","148024","46538","149941","41232","147524","6782","144193","Lexical Decision Task","38","44348","49","yes","1024"
"3.20871002","7.15","8","cram","word","78","78","901","901","black","no","legacy","legacy","legacy","0","uniform","1","undefined","undefined","undefined","1","j","0","0","0","0","49","0","0","0","49","NA","45","49","45","0","45","3","49","0","49","Wed Feb 17 11:17:03 2021","The main experiment item","yes","Lexical_Decision_Task.osexp","C:/Users/alfie/OneDrive/Documents/UNI/Year 2/Cognition and Language/Assignment","no","Andale Mono","no","18","no","white","no","yes","576","legacy","45","45","3","C:/Users/alfie/OneDrive/Documents/UNI/Year 2/Cognition and Language/Assignment/subject-5219060.csv","legacy","Lentiform Loewenfeld","3.3.7","yes","yes","600bd7cfb6416f0113b04181","602110864497cf011d9c0822","0","j","NA","space","j","j","NA","j","702","NA","1661","19260","5468","NA","702","2","legacy","1024","2","48000","-16","task","5219060","even","NA","42872","46538","44875","150663","6822","31599","26131","151168","NA","150657","151168","150506","46538","151871","41232","150006","6782","144193","Lexical Decision Task","39","45050","50","yes","1024"
"3.037294994","8.64","7","roof","word","78.43137254901961","78.43137254901961","897.6274509803922","897.6274509803922","black","no","legacy","legacy","legacy","0","uniform","1","undefined","undefined","undefined","1","j","0","0","0","0","50","0","0","0","50","NA","46","50","46","0","46","3","50","0","50","Wed Feb 17 11:17:03 2021","The main experiment item","yes","Lexical_Decision_Task.osexp","C:/Users/alfie/OneDrive/Documents/UNI/Year 2/Cognition and Language/Assignment","no","Andale Mono","no","18","no","white","no","yes","576","legacy","46","46","3","C:/Users/alfie/OneDrive/Documents/UNI/Year 2/Cognition and Language/Assignment/subject-5219060.csv","legacy","Lentiform Loewenfeld","3.3.7","yes","yes","600bd7cfb6416f0113b04181","602110864497cf011d9c0822","0","j","NA","space","j","j","NA","j","729","NA","1661","19260","5468","NA","729","2","legacy","1024","2","48000","-16","task","5219060","even","NA","42872","46538","44875","152642","6822","31599","26131","153144","NA","152637","153144","152443","46538","153875","41232","151943","6782","144193","Lexical Decision Task","40","45779","51","yes","1024"
"2.880623071","0","9","curp","non-word","76.92307692307692","76.92307692307692","896.6923076923077","896.6923076923077","black","no","legacy","legacy","legacy","0","uniform","0","undefined","undefined","undefined","0","f","0","0","0","0","51","0","0","0","51","NA","47","51","47","0","47","3","51","0","51","Wed Feb 17 11:17:03 2021","The main experiment item","yes","Lexical_Decision_Task.osexp","C:/Users/alfie/OneDrive/Documents/UNI/Year 2/Cognition and Language/Assignment","no","Andale Mono","no","18","no","white","no","yes","576","legacy","47","47","3","C:/Users/alfie/OneDrive/Documents/UNI/Year 2/Cognition and Language/Assignment/subject-5219060.csv","legacy","Lentiform Loewenfeld","3.3.7","yes","yes","600bd7cfb6416f0113b04181","602110864497cf011d9c0822","0","j","NA","space","j","j","NA","j","849","NA","1661","19260","5468","NA","849","2","legacy","1024","2","48000","-16","task","5219060","even","NA","42872","46538","44875","154558","6822","31599","26131","155062","NA","154556","155063","154444","46538","155915","41232","153943","6782","144193","Lexical Decision Task","40","46628","52","yes","1024"
"3.14849993","10.75","7","hour","word","77.35849056603773","77.35849056603773","899.1509433962265","899.1509433962265","black","no","legacy","legacy","legacy","0","uniform","1","undefined","undefined","undefined","1","j","0","0","0","0","52","0","0","0","52","NA","48","52","48","0","48","3","52","0","52","Wed Feb 17 11:17:03 2021","The main experiment item","yes","Lexical_Decision_Task.osexp","C:/Users/alfie/OneDrive/Documents/UNI/Year 2/Cognition and Language/Assignment","no","Andale Mono","no","18","no","white","no","yes","576","legacy","48","48","3","C:/Users/alfie/OneDrive/Documents/UNI/Year 2/Cognition and Language/Assignment/subject-5219060.csv","legacy","Lentiform Loewenfeld","3.3.7","yes","yes","600bd7cfb6416f0113b04181","602110864497cf011d9c0822","0","j","NA","space","j","j","NA","j","1027","NA","1661","19260","5468","NA","1027","2","legacy","1024","2","48000","-16","task","5219060","even","NA","42872","46538","44875","157671","6822","31599","26131","158174","NA","157665","158175","157487","46538","159204","41232","153943","6782","155986","Lexical Decision Task","41","47655","53","yes","1024"
"3.121778632","0","9","sark","non-word","75.92592592592592","75.92592592592592","900.574074074074","900.574074074074","black","no","legacy","legacy","legacy","0","uniform","0","undefined","undefined","undefined","0","f","0","0","0","0","53","0","0","0","53","NA","49","53","49","0","49","3","53","0","53","Wed Feb 17 11:17:03 2021","The main experiment item","yes","Lexical_Decision_Task.osexp","C:/Users/alfie/OneDrive/Documents/UNI/Year 2/Cognition and Language/Assignment","no","Andale Mono","no","18","no","white","no","yes","576","legacy","49","49","3","C:/Users/alfie/OneDrive/Documents/UNI/Year 2/Cognition and Language/Assignment/subject-5219060.csv","legacy","Lentiform Loewenfeld","3.3.7","yes","yes","600bd7cfb6416f0113b04181","602110864497cf011d9c0822","0","j","NA","space","j","j","NA","j","976","NA","1661","19260","5468","NA","976","2","legacy","1024","2","48000","-16","task","5219060","even","NA","42872","46538","44875","159890","6822","31599","26131","160393","NA","159886","160394","159774","46538","161372","41232","159274","6782","155986","Lexical Decision Task","41","48631","54","yes","1024"
"2.746890964","9.67","3","plug","word","76.36363636363636","76.36363636363636","895.3636363636364","895.3636363636364","black","no","legacy","legacy","legacy","0","uniform","1","undefined","undefined","undefined","1","j","0","0","0","0","54","0","0","0","54","0","50","54","50","0","50","3","54","0","54","Wed Feb 17 11:17:03 2021","The main experiment item","yes","Lexical_Decision_Task.osexp","C:/Users/alfie/OneDrive/Documents/UNI/Year 2/Cognition and Language/Assignment","no","Andale Mono","no","18","no","white","no","yes","576","legacy","50","50","3","C:/Users/alfie/OneDrive/Documents/UNI/Year 2/Cognition and Language/Assignment/subject-5219060.csv","legacy","Lentiform Loewenfeld","3.3.7","yes","yes","600bd7cfb6416f0113b04181","602110864497cf011d9c0822","0","j","NA","space","j","j","space","j","614","NA","1661","19260","5468","9180","614","2","legacy","1024","2","48000","-16","task","5219060","even","NA","42872","46538","44875","172402","6822","31599","26131","172905","163090","172399","172906","162944","46538","173523","41232","159274","6782","161444","Lexical Decision Task","42","49245","55","yes","1024"
"2.64476673","0","5","moft","non-word","76.78571428571429","76.78571428571429","892.2857142857143","892.2857142857143","black","no","legacy","legacy","legacy","0","uniform","1","undefined","undefined","undefined","1","f","0","0","0","0","55","0","0","0","55","0","51","55","51","0","51","3","55","0","55","Wed Feb 17 11:17:03 2021","The main experiment item","yes","Lexical_Decision_Task.osexp","C:/Users/alfie/OneDrive/Documents/UNI/Year 2/Cognition and Language/Assignment","no","Andale Mono","no","18","no","white","no","yes","576","legacy","51","51","3","C:/Users/alfie/OneDrive/Documents/UNI/Year 2/Cognition and Language/Assignment/subject-5219060.csv","legacy","Lentiform Loewenfeld","3.3.7","yes","yes","600bd7cfb6416f0113b04181","602110864497cf011d9c0822","0","f","NA","space","j","j","space","f","723","NA","1661","19260","5468","9180","723","2","legacy","1024","2","48000","-16","task","5219060","even","NA","42872","46538","44875","174269","6822","31599","26131","174773","163090","174264","174774","174085","46538","175500","41232","173585","6782","161444","Lexical Decision Task","43","49968","56","yes","1024"
"2.719886232","7.98","2","quiz","word","77.19298245614036","77.19298245614036","886.6315789473684","886.6315789473684","black","no","legacy","legacy","legacy","0","uniform","1","undefined","undefined","undefined","1","j","0","0","0","0","56","0","0","0","56","0","52","56","52","0","52","3","56","0","56","Wed Feb 17 11:17:03 2021","The main experiment item","yes","Lexical_Decision_Task.osexp","C:/Users/alfie/OneDrive/Documents/UNI/Year 2/Cognition and Language/Assignment","no","Andale Mono","no","18","no","white","no","yes","576","legacy","52","52","3","C:/Users/alfie/OneDrive/Documents/UNI/Year 2/Cognition and Language/Assignment/subject-5219060.csv","legacy","Lentiform Loewenfeld","3.3.7","yes","yes","600bd7cfb6416f0113b04181","602110864497cf011d9c0822","0","j","NA","space","j","j","space","j","570","NA","1661","19260","5468","9180","570","2","legacy","1024","2","48000","-16","task","5219060","even","NA","42872","46538","44875","176215","6822","31599","26131","176718","163090","176210","176718","176031","46538","177290","41232","175531","6782","161444","Lexical Decision Task","44","50538","57","yes","1024"
"2.67699827","0","6","hulf","non-word","75.86206896551724","75.86206896551724","882.6724137931035","882.6724137931035","black","no","legacy","legacy","legacy","0","uniform","0","undefined","undefined","undefined","0","f","0","0","0","0","57","0","0","0","57","0","53","57","53","0","53","3","57","0","57","Wed Feb 17 11:17:03 2021","The main experiment item","yes","Lexical_Decision_Task.osexp","C:/Users/alfie/OneDrive/Documents/UNI/Year 2/Cognition and Language/Assignment","no","Andale Mono","no","18","no","white","no","yes","576","legacy","53","53","3","C:/Users/alfie/OneDrive/Documents/UNI/Year 2/Cognition and Language/Assignment/subject-5219060.csv","legacy","Lentiform Loewenfeld","3.3.7","yes","yes","600bd7cfb6416f0113b04181","602110864497cf011d9c0822","0","j","NA","space","j","j","space","j","657","NA","1661","19260","5468","9180","657","2","legacy","1024","2","48000","-16","task","5219060","even","NA","42872","46538","44875","178042","6822","31599","26131","178547","163090","178041","178548","177856","46538","179208","41232","177356","6782","161444","Lexical Decision Task","44","51195","58","yes","1024"
"2.696356389","0","1","pizz","non-word","76.27118644067797","76.27118644067797","881.542372881356","881.542372881356","black","no","legacy","legacy","legacy","0","uniform","1","undefined","undefined","undefined","1","f","0","0","0","0","58","0","0","0","58","0","54","58","54","0","54","3","58","0","58","Wed Feb 17 11:17:03 2021","The main experiment item","yes","Lexical_Decision_Task.osexp","C:/Users/alfie/OneDrive/Documents/UNI/Year 2/Cognition and Language/Assignment","no","Andale Mono","no","18","no","white","no","yes","576","legacy","54","54","3","C:/Users/alfie/OneDrive/Documents/UNI/Year 2/Cognition and Language/Assignment/subject-5219060.csv","legacy","Lentiform Loewenfeld","3.3.7","yes","yes","600bd7cfb6416f0113b04181","602110864497cf011d9c0822","0","f","NA","space","j","j","space","f","816","NA","1661","19260","5468","9180","816","2","legacy","1024","2","48000","-16","task","5219060","even","NA","42872","46538","44875","180902","6822","31599","26131","181407","163090","180895","181407","180725","46538","182225","41232","177356","6782","179224","Lexical Decision Task","45","52011","59","yes","1024"
"2.80048796","0","8","pife","non-word","76.66666666666667","76.66666666666667","880.7166666666667","880.7166666666667","black","no","legacy","legacy","legacy","0","uniform","1","undefined","undefined","undefined","1","f","0","0","0","0","59","0","0","0","59","0","55","59","55","0","55","3","59","0","59","Wed Feb 17 11:17:03 2021","The main experiment item","yes","Lexical_Decision_Task.osexp","C:/Users/alfie/OneDrive/Documents/UNI/Year 2/Cognition and Language/Assignment","no","Andale Mono","no","18","no","white","no","yes","576","legacy","55","55","3","C:/Users/alfie/OneDrive/Documents/UNI/Year 2/Cognition and Language/Assignment/subject-5219060.csv","legacy","Lentiform Loewenfeld","3.3.7","yes","yes","600bd7cfb6416f0113b04181","602110864497cf011d9c0822","0","f","NA","space","j","j","space","f","832","NA","1661","19260","5468","9180","832","2","legacy","1024","2","48000","-16","task","5219060","even","NA","42872","46538","44875","182945","6822","31599","26131","183449","163090","182938","183450","182736","46538","184284","41232","182236","6782","179224","Lexical Decision Task","46","52843","60","yes","1024"
"2.812467698","0","7","hafe","non-word","77.04918032786885","77.04918032786885","879.1475409836065","879.1475409836065","black","no","legacy","legacy","legacy","0","uniform","1","undefined","undefined","undefined","1","f","0","0","0","0","60","0","0","0","60","0","56","60","56","0","56","3","60","0","60","Wed Feb 17 11:17:03 2021","The main experiment item","yes","Lexical_Decision_Task.osexp","C:/Users/alfie/OneDrive/Documents/UNI/Year 2/Cognition and Language/Assignment","no","Andale Mono","no","18","no","white","no","yes","576","legacy","56","56","3","C:/Users/alfie/OneDrive/Documents/UNI/Year 2/Cognition and Language/Assignment/subject-5219060.csv","legacy","Lentiform Loewenfeld","3.3.7","yes","yes","600bd7cfb6416f0113b04181","602110864497cf011d9c0822","0","f","NA","space","j","j","space","f","785","NA","1661","19260","5468","9180","785","2","legacy","1024","2","48000","-16","task","5219060","even","NA","42872","46538","44875","185037","6822","31599","26131","185540","163090","185032","185541","184851","46538","186329","41232","184351","6782","179224","Lexical Decision Task","47","53628","61","yes","1024"
"3.481012421","8.34","5","teen","word","77.41935483870968","77.41935483870968","874.741935483871","874.741935483871","black","no","legacy","legacy","legacy","0","uniform","1","undefined","undefined","undefined","1","j","0","0","0","0","61","0","0","0","61","0","57","61","57","0","57","3","61","0","61","Wed Feb 17 11:17:03 2021","The main experiment item","yes","Lexical_Decision_Task.osexp","C:/Users/alfie/OneDrive/Documents/UNI/Year 2/Cognition and Language/Assignment","no","Andale Mono","no","18","no","white","no","yes","576","legacy","57","57","3","C:/Users/alfie/OneDrive/Documents/UNI/Year 2/Cognition and Language/Assignment/subject-5219060.csv","legacy","Lentiform Loewenfeld","3.3.7","yes","yes","600bd7cfb6416f0113b04181","602110864497cf011d9c0822","0","j","NA","space","j","j","space","j","606","NA","1661","19260","5468","9180","606","2","legacy","1024","2","48000","-16","task","5219060","even","NA","42872","46538","44875","187103","6822","31599","26131","187607","163090","187098","187607","186900","46538","188217","41232","186399","6782","179224","Lexical Decision Task","48","54234","62","yes","1024"
"3.156347201","0","8","lasp","non-word","77.77777777777777","77.77777777777777","871.2063492063492","871.2063492063492","black","no","legacy","legacy","legacy","0","uniform","1","undefined","undefined","undefined","1","f","0","0","0","0","62","0","0","0","62","0","58","62","58","0","58","3","62","0","62","Wed Feb 17 11:17:03 2021","The main experiment item","yes","Lexical_Decision_Task.osexp","C:/Users/alfie/OneDrive/Documents/UNI/Year 2/Cognition and Language/Assignment","no","Andale Mono","no","18","no","white","no","yes","576","legacy","58","58","3","C:/Users/alfie/OneDrive/Documents/UNI/Year 2/Cognition and Language/Assignment/subject-5219060.csv","legacy","Lentiform Loewenfeld","3.3.7","yes","yes","600bd7cfb6416f0113b04181","602110864497cf011d9c0822","0","f","NA","space","j","j","space","f","652","NA","1661","19260","5468","9180","652","2","legacy","1024","2","48000","-16","task","5219060","even","NA","42872","46538","44875","188939","6822","31599","26131","189442","163090","188934","189443","188761","46538","190096","41232","188261","6782","179224","Lexical Decision Task","49","54886","63","yes","1024"
"3.488597715","0","9","nain","non-word","78.125","78.125","873.5","873.5","black","no","legacy","legacy","legacy","0","uniform","1","undefined","undefined","undefined","1","f","0","0","0","0","63","0","0","0","63","0","59","63","59","0","59","3","63","0","63","Wed Feb 17 11:17:03 2021","The main experiment item","yes","Lexical_Decision_Task.osexp","C:/Users/alfie/OneDrive/Documents/UNI/Year 2/Cognition and Language/Assignment","no","Andale Mono","no","18","no","white","no","yes","576","legacy","59","59","3","C:/Users/alfie/OneDrive/Documents/UNI/Year 2/Cognition and Language/Assignment/subject-5219060.csv","legacy","Lentiform Loewenfeld","3.3.7","yes","yes","600bd7cfb6416f0113b04181","602110864497cf011d9c0822","0","f","NA","space","j","j","space","f","1018","NA","1661","19260","5468","9180","1018","2","legacy","1024","2","48000","-16","task","5219060","even","NA","42872","46538","44875","190847","6822","31599","26131","191350","163090","190840","191352","190668","46538","192372","41232","190168","6782","179224","Lexical Decision Task","50","55904","64","yes","1024"
"2.675164031","8.57","6","glue","word","78.46153846153847","78.46153846153847","870.2615384615384","870.2615384615384","black","no","legacy","legacy","legacy","0","uniform","1","undefined","undefined","undefined","1","j","0","0","0","0","64","0","0","0","64","0","60","64","60","0","60","3","64","0","64","Wed Feb 17 11:17:03 2021","The main experiment item","yes","Lexical_Decision_Task.osexp","C:/Users/alfie/OneDrive/Documents/UNI/Year 2/Cognition and Language/Assignment","no","Andale Mono","no","18","no","white","no","yes","576","legacy","60","60","3","C:/Users/alfie/OneDrive/Documents/UNI/Year 2/Cognition and Language/Assignment/subject-5219060.csv","legacy","Lentiform Loewenfeld","3.3.7","yes","yes","600bd7cfb6416f0113b04181","602110864497cf011d9c0822","0","j","NA","space","j","j","space","j","663","NA","1661","19260","5468","9180","663","2","legacy","1024","2","48000","-16","task","5219060","even","NA","42872","46538","44875","193106","6822","31599","26131","193610","163090","193104","193610","192943","46538","194276","41232","192443","6782","179224","Lexical Decision Task","51","56567","65","yes","1024"
"2.709837904","6.85","8","skim","word","78.78787878787878","78.78787878787878","868.439393939394","868.439393939394","black","no","legacy","legacy","legacy","0","uniform","1","undefined","undefined","undefined","1","j","0","0","0","0","65","0","0","0","65","0","61","65","61","0","61","3","65","0","65","Wed Feb 17 11:17:03 2021","The main experiment item","yes","Lexical_Decision_Task.osexp","C:/Users/alfie/OneDrive/Documents/UNI/Year 2/Cognition and Language/Assignment","no","Andale Mono","no","18","no","white","no","yes","576","legacy","61","61","3","C:/Users/alfie/OneDrive/Documents/UNI/Year 2/Cognition and Language/Assignment/subject-5219060.csv","legacy","Lentiform Loewenfeld","3.3.7","yes","yes","600bd7cfb6416f0113b04181","602110864497cf011d9c0822","0","j","NA","space","j","j","space","j","750","NA","1661","19260","5468","9180","750","2","legacy","1024","2","48000","-16","task","5219060","even","NA","42872","46538","44875","194955","6822","31599","26131","195458","163090","194953","195458","194837","46538","196209","41232","194336","6782","179224","Lexical Decision Task","52","57317","66","yes","1024"
"3.131833513","7.66","4","limb","word","79.1044776119403","79.1044776119403","865.0746268656717","865.0746268656717","black","no","legacy","legacy","legacy","0","uniform","1","undefined","undefined","undefined","1","j","0","0","0","0","66","0","0","0","66","0","62","66","62","0","62","3","66","0","66","Wed Feb 17 11:17:03 2021","The main experiment item","yes","Lexical_Decision_Task.osexp","C:/Users/alfie/OneDrive/Documents/UNI/Year 2/Cognition and Language/Assignment","no","Andale Mono","no","18","no","white","no","yes","576","legacy","62","62","3","C:/Users/alfie/OneDrive/Documents/UNI/Year 2/Cognition and Language/Assignment/subject-5219060.csv","legacy","Lentiform Loewenfeld","3.3.7","yes","yes","600bd7cfb6416f0113b04181","602110864497cf011d9c0822","0","j","NA","space","j","j","space","j","643","NA","1661","19260","5468","9180","643","2","legacy","1024","2","48000","-16","task","5219060","even","NA","42872","46538","44875","196969","6822","31599","26131","197473","163090","196963","197473","196770","46538","198119","41232","196270","6782","179224","Lexical Decision Task","53","57960","67","yes","1024"
"2.996511672","0","7","hoil","non-word","77.94117647058823","77.94117647058823","860.5","860.5","black","no","legacy","legacy","legacy","0","uniform","0","undefined","undefined","undefined","0","f","0","0","0","0","67","0","0","0","67","0","63","67","63","0","63","3","67","0","67","Wed Feb 17 11:17:03 2021","The main experiment item","yes","Lexical_Decision_Task.osexp","C:/Users/alfie/OneDrive/Documents/UNI/Year 2/Cognition and Language/Assignment","no","Andale Mono","no","18","no","white","no","yes","576","legacy","63","63","3","C:/Users/alfie/OneDrive/Documents/UNI/Year 2/Cognition and Language/Assignment/subject-5219060.csv","legacy","Lentiform Loewenfeld","3.3.7","yes","yes","600bd7cfb6416f0113b04181","602110864497cf011d9c0822","0","j","NA","space","j","j","space","j","554","NA","1661","19260","5468","9180","554","2","legacy","1024","2","48000","-16","task","5219060","even","NA","42872","46538","44875","198822","6822","31599","26131","199323","163090","198819","199324","198681","46538","199880","41232","198181","6782","179224","Lexical Decision Task","53","58514","68","yes","1024"
"3.299579929","0","2","flis","non-word","78.26086956521739","78.26086956521739","856.3768115942029","856.3768115942029","black","no","legacy","legacy","legacy","0","uniform","1","undefined","undefined","undefined","1","f","0","0","0","0","68","0","0","0","68","0","64","68","64","0","64","3","68","0","68","Wed Feb 17 11:17:03 2021","The main experiment item","yes","Lexical_Decision_Task.osexp","C:/Users/alfie/OneDrive/Documents/UNI/Year 2/Cognition and Language/Assignment","no","Andale Mono","no","18","no","white","no","yes","576","legacy","64","64","3","C:/Users/alfie/OneDrive/Documents/UNI/Year 2/Cognition and Language/Assignment/subject-5219060.csv","legacy","Lentiform Loewenfeld","3.3.7","yes","yes","600bd7cfb6416f0113b04181","602110864497cf011d9c0822","0","f","NA","space","j","j","space","f","576","NA","1661","19260","5468","9180","576","2","legacy","1024","2","48000","-16","task","5219060","even","NA","42872","46538","44875","201501","6822","31599","26131","202004","163090","201499","202005","201386","46538","202584","41232","198181","6782","199886","Lexical Decision Task","54","59090","69","yes","1024"
"2.803231716","5.26","3","kiln","word","77.14285714285714","77.14285714285714","855.2142857142857","855.2142857142857","black","no","legacy","legacy","legacy","0","uniform","0","undefined","undefined","undefined","0","j","0","0","0","0","69","0","0","0","69","0","65","69","65","0","65","3","69","0","69","Wed Feb 17 11:17:03 2021","The main experiment item","yes","Lexical_Decision_Task.osexp","C:/Users/alfie/OneDrive/Documents/UNI/Year 2/Cognition and Language/Assignment","no","Andale Mono","no","18","no","white","no","yes","576","legacy","65","65","3","C:/Users/alfie/OneDrive/Documents/UNI/Year 2/Cognition and Language/Assignment/subject-5219060.csv","legacy","Lentiform Loewenfeld","3.3.7","yes","yes","600bd7cfb6416f0113b04181","602110864497cf011d9c0822","0","f","NA","space","j","j","space","f","775","NA","1661","19260","5468","9180","775","2","legacy","1024","2","48000","-16","task","5219060","even","NA","42872","46538","44875","203251","6822","31599","26131","203754","163090","203250","203754","203149","46538","204534","41232","202649","6782","199886","Lexical Decision Task","54","59865","70","yes","1024"
"3.091901331","0","9","nipe","non-word","76.05633802816901","76.05633802816901","850.2957746478874","850.2957746478874","black","no","legacy","legacy","legacy","0","uniform","0","undefined","undefined","undefined","0","f","0","0","0","0","70","0","0","0","70","0","66","70","66","0","66","3","70","0","70","Wed Feb 17 11:17:03 2021","The main experiment item","yes","Lexical_Decision_Task.osexp","C:/Users/alfie/OneDrive/Documents/UNI/Year 2/Cognition and Language/Assignment","no","Andale Mono","no","18","no","white","no","yes","576","legacy","66","66","3","C:/Users/alfie/OneDrive/Documents/UNI/Year 2/Cognition and Language/Assignment/subject-5219060.csv","legacy","Lentiform Loewenfeld","3.3.7","yes","yes","600bd7cfb6416f0113b04181","602110864497cf011d9c0822","0","j","NA","space","j","j","space","j","506","NA","1661","19260","5468","9180","506","2","legacy","1024","2","48000","-16","task","5219060","even","NA","42872","46538","44875","206282","6822","31599","26131","206784","163090","206279","206785","206096","46538","207293","41232","202649","6782","204596","Lexical Decision Task","54","60371","71","yes","1024"
"2.898725182","0","7","turl","non-word","76.38888888888889","76.38888888888889","849.4305555555555","849.4305555555555","black","no","legacy","legacy","legacy","0","uniform","1","undefined","undefined","undefined","1","f","0","0","0","0","71","0","0","0","71","0","67","71","67","0","67","3","71","0","71","Wed Feb 17 11:17:03 2021","The main experiment item","yes","Lexical_Decision_Task.osexp","C:/Users/alfie/OneDrive/Documents/UNI/Year 2/Cognition and Language/Assignment","no","Andale Mono","no","18","no","white","no","yes","576","legacy","67","67","3","C:/Users/alfie/OneDrive/Documents/UNI/Year 2/Cognition and Language/Assignment/subject-5219060.csv","legacy","Lentiform Loewenfeld","3.3.7","yes","yes","600bd7cfb6416f0113b04181","602110864497cf011d9c0822","0","f","NA","space","j","j","space","f","788","NA","1661","19260","5468","9180","788","2","legacy","1024","2","48000","-16","task","5219060","even","NA","42872","46538","44875","208932","6822","31599","26131","209432","163090","208930","209433","208857","46538","210224","41232","202649","6782","207356","Lexical Decision Task","55","61159","72","yes","1024"
"2.698387659","6.66","7","skid","word","76.71232876712328","76.71232876712328","846.945205479452","846.945205479452","black","no","legacy","legacy","legacy","0","uniform","1","undefined","undefined","undefined","1","j","0","0","0","0","72","0","0","0","72","0","68","72","68","0","68","3","72","0","72","Wed Feb 17 11:17:03 2021","The main experiment item","yes","Lexical_Decision_Task.osexp","C:/Users/alfie/OneDrive/Documents/UNI/Year 2/Cognition and Language/Assignment","no","Andale Mono","no","18","no","white","no","yes","576","legacy","68","68","3","C:/Users/alfie/OneDrive/Documents/UNI/Year 2/Cognition and Language/Assignment/subject-5219060.csv","legacy","Lentiform Loewenfeld","3.3.7","yes","yes","600bd7cfb6416f0113b04181","602110864497cf011d9c0822","0","j","NA","space","j","j","space","j","668","NA","1661","19260","5468","9180","668","2","legacy","1024","2","48000","-16","task","5219060","even","NA","42872","46538","44875","210952","6822","31599","26131","211456","163090","210948","211456","210790","46538","212128","41232","210290","6782","207356","Lexical Decision Task","56","61827","73","yes","1024"
"2.952953801","0","8","clax","non-word","77.02702702702703","77.02702702702703","846.3918918918919","846.3918918918919","black","no","legacy","legacy","legacy","0","uniform","1","undefined","undefined","undefined","1","f","0","0","0","0","73","0","0","0","73","0","69","73","69","0","69","3","73","0","73","Wed Feb 17 11:17:03 2021","The main experiment item","yes","Lexical_Decision_Task.osexp","C:/Users/alfie/OneDrive/Documents/UNI/Year 2/Cognition and Language/Assignment","no","Andale Mono","no","18","no","white","no","yes","576","legacy","69","69","3","C:/Users/alfie/OneDrive/Documents/UNI/Year 2/Cognition and Language/Assignment/subject-5219060.csv","legacy","Lentiform Loewenfeld","3.3.7","yes","yes","600bd7cfb6416f0113b04181","602110864497cf011d9c0822","0","f","NA","space","j","j","space","f","806","NA","1661","19260","5468","9180","806","2","legacy","1024","2","48000","-16","task","5219060","even","NA","42872","46538","44875","212881","6822","31599","26131","213384","163090","212877","213385","212696","46538","214195","41232","212196","6782","207356","Lexical Decision Task","57","62633","74","yes","1024"
"2.937852093","0","7","bamp","non-word","77.33333333333333","77.33333333333333","844.9066666666666","844.9066666666666","black","no","legacy","legacy","legacy","0","uniform","1","undefined","undefined","undefined","1","f","0","0","0","0","74","0","0","0","74","0","70","74","70","0","70","3","74","0","74","Wed Feb 17 11:17:03 2021","The main experiment item","yes","Lexical_Decision_Task.osexp","C:/Users/alfie/OneDrive/Documents/UNI/Year 2/Cognition and Language/Assignment","no","Andale Mono","no","18","no","white","no","yes","576","legacy","70","70","3","C:/Users/alfie/OneDrive/Documents/UNI/Year 2/Cognition and Language/Assignment/subject-5219060.csv","legacy","Lentiform Loewenfeld","3.3.7","yes","yes","600bd7cfb6416f0113b04181","602110864497cf011d9c0822","0","f","NA","space","j","j","space","f","735","NA","1661","19260","5468","9180","735","2","legacy","1024","2","48000","-16","task","5219060","even","NA","42872","46538","44875","214894","6822","31599","26131","215397","163090","214892","215399","214761","46538","216137","41232","214261","6782","207356","Lexical Decision Task","58","63368","75","yes","1024"
"2.714888338","0","3","brug","non-word","77.63157894736842","77.63157894736842","844.0657894736842","844.0657894736842","black","no","legacy","legacy","legacy","0","uniform","1","undefined","undefined","undefined","1","f","0","0","0","0","75","0","0","0","75","0","71","75","71","0","71","3","75","0","75","Wed Feb 17 11:17:03 2021","The main experiment item","yes","Lexical_Decision_Task.osexp","C:/Users/alfie/OneDrive/Documents/UNI/Year 2/Cognition and Language/Assignment","no","Andale Mono","no","18","no","white","no","yes","576","legacy","71","71","3","C:/Users/alfie/OneDrive/Documents/UNI/Year 2/Cognition and Language/Assignment/subject-5219060.csv","legacy","Lentiform Loewenfeld","3.3.7","yes","yes","600bd7cfb6416f0113b04181","602110864497cf011d9c0822","0","f","NA","space","j","j","space","f","781","NA","1661","19260","5468","9180","781","2","legacy","1024","2","48000","-16","task","5219060","even","NA","42872","46538","44875","216887","6822","31599","26131","217391","163090","216882","217392","216707","46538","218175","41232","216207","6782","207356","Lexical Decision Task","59","64149","76","yes","1024"
"2.616654026","9.37","5","gift","word","77.92207792207792","77.92207792207792","844.1298701298701","844.1298701298701","black","no","legacy","legacy","legacy","0","uniform","1","undefined","undefined","undefined","1","j","0","0","0","0","76","0","0","0","76","0","72","76","72","0","72","3","76","0","76","Wed Feb 17 11:17:03 2021","The main experiment item","yes","Lexical_Decision_Task.osexp","C:/Users/alfie/OneDrive/Documents/UNI/Year 2/Cognition and Language/Assignment","no","Andale Mono","no","18","no","white","no","yes","576","legacy","72","72","3","C:/Users/alfie/OneDrive/Documents/UNI/Year 2/Cognition and Language/Assignment/subject-5219060.csv","legacy","Lentiform Loewenfeld","3.3.7","yes","yes","600bd7cfb6416f0113b04181","602110864497cf011d9c0822","0","j","NA","space","j","j","space","j","849","NA","1661","19260","5468","9180","849","2","legacy","1024","2","48000","-16","task","5219060","even","NA","42872","46538","44875","218899","6822","31599","26131","219402","163090","218895","219404","218748","46538","220256","41232","218248","6782","207356","Lexical Decision Task","60","64998","77","yes","1024"
"2.972819734","0","4","scew","non-word","76.92307692307692","76.92307692307692","842.7564102564103","842.7564102564103","black","no","legacy","legacy","legacy","0","uniform","0","undefined","undefined","undefined","0","f","0","0","0","0","77","0","0","0","77","0","73","77","73","0","73","3","77","0","77","Wed Feb 17 11:17:03 2021","The main experiment item","yes","Lexical_Decision_Task.osexp","C:/Users/alfie/OneDrive/Documents/UNI/Year 2/Cognition and Language/Assignment","no","Andale Mono","no","18","no","white","no","yes","576","legacy","73","73","3","C:/Users/alfie/OneDrive/Documents/UNI/Year 2/Cognition and Language/Assignment/subject-5219060.csv","legacy","Lentiform Loewenfeld","3.3.7","yes","yes","600bd7cfb6416f0113b04181","602110864497cf011d9c0822","0","j","NA","space","j","j","space","j","737","NA","1661","19260","5468","9180","737","2","legacy","1024","2","48000","-16","task","5219060","even","NA","42872","46538","44875","220855","6822","31599","26131","221359","163090","220852","221359","220764","46538","222098","41232","220264","6782","207356","Lexical Decision Task","60","65735","78","yes","1024"
"3.003891166","8.05","2","frog","word","77.21518987341773","77.21518987341773","840.4303797468355","840.4303797468355","black","no","legacy","legacy","legacy","0","uniform","1","undefined","undefined","undefined","1","j","0","0","0","0","78","0","0","0","78","0","74","78","74","0","74","3","78","0","78","Wed Feb 17 11:17:03 2021","The main experiment item","yes","Lexical_Decision_Task.osexp","C:/Users/alfie/OneDrive/Documents/UNI/Year 2/Cognition and Language/Assignment","no","Andale Mono","no","18","no","white","no","yes","576","legacy","74","74","3","C:/Users/alfie/OneDrive/Documents/UNI/Year 2/Cognition and Language/Assignment/subject-5219060.csv","legacy","Lentiform Loewenfeld","3.3.7","yes","yes","600bd7cfb6416f0113b04181","602110864497cf011d9c0822","0","j","NA","space","j","j","space","j","659","NA","1661","19260","5468","9180","659","2","legacy","1024","2","48000","-16","task","5219060","even","NA","42872","46538","44875","223764","6822","31599","26131","224268","163090","223763","224269","223667","46538","224931","41232","220264","6782","222167","Lexical Decision Task","61","66394","79","yes","1024"
"3.261341392","5.08","8","reek","word","77.5","77.5","840.625","840.625","black","no","legacy","legacy","legacy","0","uniform","1","undefined","undefined","undefined","1","j","0","0","0","0","79","0","0","0","79","0","75","79","75","0","75","3","79","0","79","Wed Feb 17 11:17:03 2021","The main experiment item","yes","Lexical_Decision_Task.osexp","C:/Users/alfie/OneDrive/Documents/UNI/Year 2/Cognition and Language/Assignment","no","Andale Mono","no","18","no","white","no","yes","576","legacy","75","75","3","C:/Users/alfie/OneDrive/Documents/UNI/Year 2/Cognition and Language/Assignment/subject-5219060.csv","legacy","Lentiform Loewenfeld","3.3.7","yes","yes","600bd7cfb6416f0113b04181","602110864497cf011d9c0822","0","j","NA","space","j","j","space","j","856","NA","1661","19260","5468","9180","856","2","legacy","1024","2","48000","-16","task","5219060","even","NA","42872","46538","44875","225634","6822","31599","26131","226137","163090","225631","226139","225503","46538","226998","41232","225002","6782","222167","Lexical Decision Task","62","67250","80","yes","1024"
"2.698100546","0","9","mulk","non-word","77.77777777777777","77.77777777777777","842.1481481481482","842.1481481481482","black","no","legacy","legacy","legacy","0","uniform","1","undefined","undefined","undefined","1","f","0","0","0","0","80","0","0","0","80","0","76","80","76","0","76","3","80","0","80","Wed Feb 17 11:17:03 2021","The main experiment item","yes","Lexical_Decision_Task.osexp","C:/Users/alfie/OneDrive/Documents/UNI/Year 2/Cognition and Language/Assignment","no","Andale Mono","no","18","no","white","no","yes","576","legacy","76","76","3","C:/Users/alfie/OneDrive/Documents/UNI/Year 2/Cognition and Language/Assignment/subject-5219060.csv","legacy","Lentiform Loewenfeld","3.3.7","yes","yes","600bd7cfb6416f0113b04181","602110864497cf011d9c0822","0","f","NA","space","j","j","space","f","964","NA","1661","19260","5468","9180","964","2","legacy","1024","2","48000","-16","task","5219060","even","NA","42872","46538","44875","227736","6822","31599","26131","228240","163090","227731","228241","227557","46538","229207","41232","227056","6782","222167","Lexical Decision Task","63","68214","81","yes","1024"
"2.6599162","0","6","flug","non-word","78.04878048780488","78.04878048780488","842.6341463414634","842.6341463414634","black","no","legacy","legacy","legacy","0","uniform","1","undefined","undefined","undefined","1","f","0","0","0","0","81","0","0","0","81","0","77","81","77","0","77","3","81","0","81","Wed Feb 17 11:17:03 2021","The main experiment item","yes","Lexical_Decision_Task.osexp","C:/Users/alfie/OneDrive/Documents/UNI/Year 2/Cognition and Language/Assignment","no","Andale Mono","no","18","no","white","no","yes","576","legacy","77","77","3","C:/Users/alfie/OneDrive/Documents/UNI/Year 2/Cognition and Language/Assignment/subject-5219060.csv","legacy","Lentiform Loewenfeld","3.3.7","yes","yes","600bd7cfb6416f0113b04181","602110864497cf011d9c0822","0","f","NA","space","j","j","space","f","882","NA","1661","19260","5468","9180","882","2","legacy","1024","2","48000","-16","task","5219060","even","NA","42872","46538","44875","229896","6822","31599","26131","230399","163090","229893","230400","229767","46538","231286","41232","229267","6782","222167","Lexical Decision Task","64","69096","82","yes","1024"
"3.269668578","0","7","trag","non-word","78.3132530120482","78.3132530120482","844.1686746987951","844.1686746987951","black","no","legacy","legacy","legacy","0","uniform","1","undefined","undefined","undefined","1","f","0","0","0","0","82","0","0","0","82","0","78","82","78","0","78","3","82","0","82","Wed Feb 17 11:17:03 2021","The main experiment item","yes","Lexical_Decision_Task.osexp","C:/Users/alfie/OneDrive/Documents/UNI/Year 2/Cognition and Language/Assignment","no","Andale Mono","no","18","no","white","no","yes","576","legacy","78","78","3","C:/Users/alfie/OneDrive/Documents/UNI/Year 2/Cognition and Language/Assignment/subject-5219060.csv","legacy","Lentiform Loewenfeld","3.3.7","yes","yes","600bd7cfb6416f0113b04181","602110864497cf011d9c0822","0","f","NA","space","j","j","space","f","970","NA","1661","19260","5468","9180","970","2","legacy","1024","2","48000","-16","task","5219060","even","NA","42872","46538","44875","231891","6822","31599","26131","232395","163090","231889","232396","231799","46538","233370","41232","231299","6782","222167","Lexical Decision Task","65","70066","83","yes","1024"
"2.82129731","6.72","5","plum","word","78.57142857142857","78.57142857142857","843.6309523809524","843.6309523809524","black","no","legacy","legacy","legacy","0","uniform","1","undefined","undefined","undefined","1","j","0","0","0","0","83","0","0","0","83","0","79","83","79","0","79","3","83","0","83","Wed Feb 17 11:17:03 2021","The main experiment item","yes","Lexical_Decision_Task.osexp","C:/Users/alfie/OneDrive/Documents/UNI/Year 2/Cognition and Language/Assignment","no","Andale Mono","no","18","no","white","no","yes","576","legacy","79","79","3","C:/Users/alfie/OneDrive/Documents/UNI/Year 2/Cognition and Language/Assignment/subject-5219060.csv","legacy","Lentiform Loewenfeld","3.3.7","yes","yes","600bd7cfb6416f0113b04181","602110864497cf011d9c0822","0","j","NA","space","j","j","space","j","799","NA","1661","19260","5468","9180","799","2","legacy","1024","2","48000","-16","task","5219060","even","NA","42872","46538","44875","234101","6822","31599","26131","234605","163090","234098","234606","233931","46538","235408","41232","233431","6782","222167","Lexical Decision Task","66","70865","84","yes","1024"
"2.843025032","0","9","pusk","non-word","78.82352941176471","78.82352941176471","845.6","845.6","black","no","legacy","legacy","legacy","0","uniform","1","undefined","undefined","undefined","1","f","0","0","0","0","84","0","0","0","84","0","80","84","80","0","80","3","84","0","84","Wed Feb 17 11:17:03 2021","The main experiment item","yes","Lexical_Decision_Task.osexp","C:/Users/alfie/OneDrive/Documents/UNI/Year 2/Cognition and Language/Assignment","no","Andale Mono","no","18","no","white","no","yes","576","legacy","80","80","3","C:/Users/alfie/OneDrive/Documents/UNI/Year 2/Cognition and Language/Assignment/subject-5219060.csv","legacy","Lentiform Loewenfeld","3.3.7","yes","yes","600bd7cfb6416f0113b04181","602110864497cf011d9c0822","0","f","NA","space","j","j","space","f","1011","NA","1661","19260","5468","9180","1011","2","legacy","1024","2","48000","-16","task","5219060","even","NA","42872","46538","44875","236100","6822","31599","26131","236602","163090","236093","236602","235915","46538","237615","41232","235415","6782","222167","Lexical Decision Task","67","71876","85","yes","1024"
"2.875447132","0","9","jelt","non-word","77.90697674418605","77.90697674418605","844.8604651162791","844.8604651162791","black","no","legacy","legacy","legacy","0","uniform","0","undefined","undefined","undefined","0","f","0","0","0","0","85","0","0","0","85","0","81","85","81","0","81","3","85","0","85","Wed Feb 17 11:17:03 2021","The main experiment item","yes","Lexical_Decision_Task.osexp","C:/Users/alfie/OneDrive/Documents/UNI/Year 2/Cognition and Language/Assignment","no","Andale Mono","no","18","no","white","no","yes","576","legacy","81","81","3","C:/Users/alfie/OneDrive/Documents/UNI/Year 2/Cognition and Language/Assignment/subject-5219060.csv","legacy","Lentiform Loewenfeld","3.3.7","yes","yes","600bd7cfb6416f0113b04181","602110864497cf011d9c0822","0","j","NA","space","j","j","space","j","782","NA","1661","19260","5468","9180","782","2","legacy","1024","2","48000","-16","task","5219060","even","NA","42872","46538","44875","238385","6822","31599","26131","238888","163090","238379","238889","238180","46538","239672","41232","237680","6782","222167","Lexical Decision Task","67","72658","86","yes","1024"
"2.897810299","0","5","glur","non-word","78.16091954022988","78.16091954022988","844.1724137931035","844.1724137931035","black","no","legacy","legacy","legacy","0","uniform","1","undefined","undefined","undefined","1","f","0","0","0","0","86","0","0","0","86","0","82","86","82","0","82","3","86","0","86","Wed Feb 17 11:17:03 2021","The main experiment item","yes","Lexical_Decision_Task.osexp","C:/Users/alfie/OneDrive/Documents/UNI/Year 2/Cognition and Language/Assignment","no","Andale Mono","no","18","no","white","no","yes","576","legacy","82","82","3","C:/Users/alfie/OneDrive/Documents/UNI/Year 2/Cognition and Language/Assignment/subject-5219060.csv","legacy","Lentiform Loewenfeld","3.3.7","yes","yes","600bd7cfb6416f0113b04181","602110864497cf011d9c0822","0","f","NA","space","j","j","space","f","785","NA","1661","19260","5468","9180","785","2","legacy","1024","2","48000","-16","task","5219060","even","NA","42872","46538","44875","241416","6822","31599","26131","241920","163090","241412","241921","241237","46538","242709","41232","237680","6782","239736","Lexical Decision Task","68","73443","87","yes","1024"
"2.7084209","0","8","vump","non-word","78.4090909090909","78.4090909090909","843.5454545454545","843.5454545454545","black","no","legacy","legacy","legacy","0","uniform","1","undefined","undefined","undefined","1","f","0","0","0","0","87","0","0","0","87","0","83","87","83","0","83","3","87","0","87","Wed Feb 17 11:17:03 2021","The main experiment item","yes","Lexical_Decision_Task.osexp","C:/Users/alfie/OneDrive/Documents/UNI/Year 2/Cognition and Language/Assignment","no","Andale Mono","no","18","no","white","no","yes","576","legacy","83","83","3","C:/Users/alfie/OneDrive/Documents/UNI/Year 2/Cognition and Language/Assignment/subject-5219060.csv","legacy","Lentiform Loewenfeld","3.3.7","yes","yes","600bd7cfb6416f0113b04181","602110864497cf011d9c0822","0","f","NA","space","j","j","space","f","789","NA","1661","19260","5468","9180","789","2","legacy","1024","2","48000","-16","task","5219060","even","NA","42872","46538","44875","243427","6822","31599","26131","243930","163090","243425","243932","243273","46538","244725","41232","242773","6782","239736","Lexical Decision Task","69","74232","88","yes","1024"
"2.980911938","7.15","7","hoop","word","78.65168539325843","78.65168539325843","844.8876404494382","844.8876404494382","black","no","legacy","legacy","legacy","0","uniform","1","undefined","undefined","undefined","1","j","0","0","0","0","88","0","0","0","88","0","84","88","84","0","84","3","88","0","88","Wed Feb 17 11:17:03 2021","The main experiment item","yes","Lexical_Decision_Task.osexp","C:/Users/alfie/OneDrive/Documents/UNI/Year 2/Cognition and Language/Assignment","no","Andale Mono","no","18","no","white","no","yes","576","legacy","84","84","3","C:/Users/alfie/OneDrive/Documents/UNI/Year 2/Cognition and Language/Assignment/subject-5219060.csv","legacy","Lentiform Loewenfeld","3.3.7","yes","yes","600bd7cfb6416f0113b04181","602110864497cf011d9c0822","0","j","NA","space","j","j","space","j","963","NA","1661","19260","5468","9180","963","2","legacy","1024","2","48000","-16","task","5219060","even","NA","42872","46538","44875","245464","6822","31599","26131","245967","163090","245459","245967","245289","46538","246933","41232","244789","6782","239736","Lexical Decision Task","70","75195","89","yes","1024"
"2.893578687","8.69","3","surf","word","78.88888888888889","78.88888888888889","842.6","842.6","black","no","legacy","legacy","legacy","0","uniform","1","undefined","undefined","undefined","1","j","0","0","0","0","89","0","0","0","89","0","85","89","85","0","85","3","89","0","89","Wed Feb 17 11:17:03 2021","The main experiment item","yes","Lexical_Decision_Task.osexp","C:/Users/alfie/OneDrive/Documents/UNI/Year 2/Cognition and Language/Assignment","no","Andale Mono","no","18","no","white","no","yes","576","legacy","85","85","3","C:/Users/alfie/OneDrive/Documents/UNI/Year 2/Cognition and Language/Assignment/subject-5219060.csv","legacy","Lentiform Loewenfeld","3.3.7","yes","yes","600bd7cfb6416f0113b04181","602110864497cf011d9c0822","0","j","NA","space","j","j","space","j","639","NA","1661","19260","5468","9180","639","2","legacy","1024","2","48000","-16","task","5219060","even","NA","42872","46538","44875","247681","6822","31599","26131","248186","163090","247674","248186","247498","46538","248830","41232","246998","6782","239736","Lexical Decision Task","71","75834","90","yes","1024"
"2.990042563","6.64","9","plow","word","79.12087912087912","79.12087912087912","840.5824175824176","840.5824175824176","black","no","legacy","legacy","legacy","0","uniform","1","undefined","undefined","undefined","1","j","0","0","0","0","90","0","0","0","90","0","86","90","86","0","86","3","90","0","90","Wed Feb 17 11:17:03 2021","The main experiment item","yes","Lexical_Decision_Task.osexp","C:/Users/alfie/OneDrive/Documents/UNI/Year 2/Cognition and Language/Assignment","no","Andale Mono","no","18","no","white","no","yes","576","legacy","86","86","3","C:/Users/alfie/OneDrive/Documents/UNI/Year 2/Cognition and Language/Assignment/subject-5219060.csv","legacy","Lentiform Loewenfeld","3.3.7","yes","yes","600bd7cfb6416f0113b04181","602110864497cf011d9c0822","0","j","NA","space","j","j","space","j","659","NA","1661","19260","5468","9180","659","2","legacy","1024","2","48000","-16","task","5219060","even","NA","42872","46538","44875","249574","6822","31599","26131","250077","163090","249571","250078","249398","46538","250740","41232","248898","6782","239736","Lexical Decision Task","72","76493","91","yes","1024"
"2.68604012","0","3","mulb","non-word","79.34782608695652","79.34782608695652","838.5869565217391","838.5869565217391","black","no","legacy","legacy","legacy","0","uniform","1","undefined","undefined","undefined","1","f","0","0","0","0","91","0","0","0","91","0","87","91","87","0","87","3","91","0","91","Wed Feb 17 11:17:03 2021","The main experiment item","yes","Lexical_Decision_Task.osexp","C:/Users/alfie/OneDrive/Documents/UNI/Year 2/Cognition and Language/Assignment","no","Andale Mono","no","18","no","white","no","yes","576","legacy","87","87","3","C:/Users/alfie/OneDrive/Documents/UNI/Year 2/Cognition and Language/Assignment/subject-5219060.csv","legacy","Lentiform Loewenfeld","3.3.7","yes","yes","600bd7cfb6416f0113b04181","602110864497cf011d9c0822","0","f","NA","space","j","j","space","f","657","NA","1661","19260","5468","9180","657","2","legacy","1024","2","48000","-16","task","5219060","even","NA","42872","46538","44875","251486","6822","31599","26131","251989","163090","251481","251991","251305","46538","252651","41232","250805","6782","239736","Lexical Decision Task","73","77150","92","yes","1024"
