"Log_BG","Log_Freq_HAL","Ortho_N","Stimulus","Type","acc","accuracy","average_response_time","avg_rt","background","bidi","canvas_backend","clock_backend","color_backend","compensation","coordinates","correct","correct_Experimental_intro","correct_Introduction","correct_Practice_intro","correct_experimenter_kb","correct_response","count_End_Of_Experiment","count_End_Of_Practice","count_Experimental_Loop","count_Experimental_intro","count_Fixation","count_Introduction","count_Practice_Loop","count_Practice_intro","count_Stimulus","count_block_break_feedback","count_experimental_sequence","count_experimenter_kb","count_increment_trial_count","count_init_trial_count","count_logger","count_practice_sequence","count_right","count_task","count_wrong","datetime","description","disable_garbage_collection","experiment_file","experiment_path","font_bold","font_family","font_italic","font_size","font_underline","foreground","form_clicks","fullscreen","height","keyboard_backend","live_row","live_row_Experimental_Loop","live_row_Practice_Loop","logfile","mouse_backend","opensesame_codename","opensesame_version","osf_always_upload_data","osf_always_upload_experiment","osf_datanode_id","osf_id","repeat_cycle","response","response_End_Of_Experiment","response_Experimental_intro","response_Introduction","response_Practice_intro","response_block_break_feedback","response_experimenter_kb","response_time","response_time_End_Of_Experiment","response_time_Experimental_intro","response_time_Introduction","response_time_Practice_intro","response_time_block_break_feedback","response_time_experimenter_kb","round_decimals","sampler_backend","sound_buf_size","sound_channels","sound_freq","sound_sample_size","start","subject_nr","subject_parity","time_End_Of_Experiment","time_End_Of_Practice","time_Experimental_Loop","time_Experimental_intro","time_Fixation","time_Introduction","time_Practice_Loop","time_Practice_intro","time_Stimulus","time_block_break_feedback","time_experimental_sequence","time_experimenter_kb","time_increment_trial_count","time_init_trial_count","time_logger","time_practice_sequence","time_right","time_task","time_wrong","title","total_correct","total_response_time","total_responses","uniform_coordinates","width"
"2.983324025","9.56","2","debt","word","100","100","863.4","863.4","black","no","legacy","legacy","legacy","0","uniform","1","undefined","undefined","undefined","1","j","0","0","0","0","4","0","0","0","4","NA","0","4","0","0","0","3","4","0","4","Tue Feb 16 13:06:56 2021","The main experiment item","yes","Lexical_Decision_Task.osexp","C:/Users/Student/OneDrive/Documents/OpenSesame","no","Andale Mono","no","18","no","white","no","yes","576","legacy","0","0","3","C:/Users/Student/OneDrive/Documents/OpenSesame/subject-5206349.csv","legacy","Lentiform Loewenfeld","3.3.7","yes","yes","600bd7cfb6416f0113b04181","602110864497cf011d9c0822","0","j","NA","d","space","space","NA","j","1237","NA","4810","9677","1899","NA","1237","2","legacy","1024","2","48000","-16","task","5206349","odd","NA","22128","28944","24132","29017","3073","14653","12753","29520","NA","29015","29520","NA","28943","30757","20433","21599","3064","NA","Lexical Decision Task","5","4317","5","yes","1024"
"3.120025233","0","2","nyst","non-word","100","100","1026.8333333333333","1026.8333333333333","black","no","legacy","legacy","legacy","0","uniform","1","undefined","undefined","undefined","1","f","0","0","0","0","5","0","0","0","5","NA","1","5","1","0","1","3","5","0","5","Tue Feb 16 13:06:56 2021","The main experiment item","yes","Lexical_Decision_Task.osexp","C:/Users/Student/OneDrive/Documents/OpenSesame","no","Andale Mono","no","18","no","white","no","yes","576","legacy","1","1","3","C:/Users/Student/OneDrive/Documents/OpenSesame/subject-5206349.csv","legacy","Lentiform Loewenfeld","3.3.7","yes","yes","600bd7cfb6416f0113b04181","602110864497cf011d9c0822","0","f","NA","d","space","space","NA","f","1844","NA","4810","9677","1899","NA","1844","2","legacy","1024","2","48000","-16","task","5206349","odd","NA","22128","28944","24132","31356","3073","14653","12753","31858","NA","31355","31858","31264","28943","33703","20433","30764","3064","NA","Lexical Decision Task","6","6161","6","yes","1024"
"3.382617311","0","4","pret","non-word","100","100","979.8571428571429","979.8571428571429","black","no","legacy","legacy","legacy","0","uniform","1","undefined","undefined","undefined","1","f","0","0","0","0","6","0","0","0","6","NA","2","6","2","0","2","3","6","0","6","Tue Feb 16 13:06:56 2021","The main experiment item","yes","Lexical_Decision_Task.osexp","C:/Users/Student/OneDrive/Documents/OpenSesame","no","Andale Mono","no","18","no","white","no","yes","576","legacy","2","2","3","C:/Users/Student/OneDrive/Documents/OpenSesame/subject-5206349.csv","legacy","Lentiform Loewenfeld","3.3.7","yes","yes","600bd7cfb6416f0113b04181","602110864497cf011d9c0822","0","f","NA","d","space","space","NA","f","698","NA","4810","9677","1899","NA","698","2","legacy","1024","2","48000","-16","task","5206349","odd","NA","22128","28944","24132","34281","3073","14653","12753","34783","NA","34279","34784","34219","28943","35482","20433","33719","3064","NA","Lexical Decision Task","7","6859","7","yes","1024"
"2.794720352","0","9","koot","non-word","100","100","938.625","938.625","black","no","legacy","legacy","legacy","0","uniform","1","undefined","undefined","undefined","1","f","0","0","0","0","7","0","0","0","7","NA","3","7","3","0","3","3","7","0","7","Tue Feb 16 13:06:56 2021","The main experiment item","yes","Lexical_Decision_Task.osexp","C:/Users/Student/OneDrive/Documents/OpenSesame","no","Andale Mono","no","18","no","white","no","yes","576","legacy","3","3","3","C:/Users/Student/OneDrive/Documents/OpenSesame/subject-5206349.csv","legacy","Lentiform Loewenfeld","3.3.7","yes","yes","600bd7cfb6416f0113b04181","602110864497cf011d9c0822","0","f","NA","d","space","space","NA","f","650","NA","4810","9677","1899","NA","650","2","legacy","1024","2","48000","-16","task","5206349","odd","NA","22128","28944","24132","36045","3073","14653","12753","36547","NA","36044","36547","35985","28943","37198","20433","35485","3064","NA","Lexical Decision Task","8","7509","8","yes","1024"
"3.302475237","0","7","leel","non-word","100","100","905","905","black","no","legacy","legacy","legacy","0","uniform","1","undefined","undefined","undefined","1","f","0","0","0","0","8","0","0","0","8","NA","4","8","4","0","4","3","8","0","8","Tue Feb 16 13:06:56 2021","The main experiment item","yes","Lexical_Decision_Task.osexp","C:/Users/Student/OneDrive/Documents/OpenSesame","no","Andale Mono","no","18","no","white","no","yes","576","legacy","4","4","3","C:/Users/Student/OneDrive/Documents/OpenSesame/subject-5206349.csv","legacy","Lentiform Loewenfeld","3.3.7","yes","yes","600bd7cfb6416f0113b04181","602110864497cf011d9c0822","0","f","NA","d","space","space","NA","f","636","NA","4810","9677","1899","NA","636","2","legacy","1024","2","48000","-16","task","5206349","odd","NA","22128","28944","24132","37764","3073","14653","12753","38265","NA","37763","38265","37701","28943","38902","20433","37201","3064","NA","Lexical Decision Task","9","8145","9","yes","1024"
"2.668385917","5.48","4","twig","word","100","100","870.2","870.2","black","no","legacy","legacy","legacy","0","uniform","1","undefined","undefined","undefined","1","j","0","0","0","0","9","0","0","0","9","NA","5","9","5","0","5","3","9","0","9","Tue Feb 16 13:06:56 2021","The main experiment item","yes","Lexical_Decision_Task.osexp","C:/Users/Student/OneDrive/Documents/OpenSesame","no","Andale Mono","no","18","no","white","no","yes","576","legacy","5","5","3","C:/Users/Student/OneDrive/Documents/OpenSesame/subject-5206349.csv","legacy","Lentiform Loewenfeld","3.3.7","yes","yes","600bd7cfb6416f0113b04181","602110864497cf011d9c0822","0","j","NA","d","space","space","NA","j","557","NA","4810","9677","1899","NA","557","2","legacy","1024","2","48000","-16","task","5206349","odd","NA","22128","28944","24132","39479","3073","14653","12753","39980","NA","39478","39981","39405","28943","40538","20433","38905","3064","NA","Lexical Decision Task","10","8702","10","yes","1024"
"2.813801082","5.47","7","nook","word","100","100","860.7272727272727","860.7272727272727","black","no","legacy","legacy","legacy","0","uniform","1","undefined","undefined","undefined","1","j","0","0","0","0","10","0","0","0","10","NA","6","10","6","0","6","3","10","0","10","Tue Feb 16 13:06:56 2021","The main experiment item","yes","Lexical_Decision_Task.osexp","C:/Users/Student/OneDrive/Documents/OpenSesame","no","Andale Mono","no","18","no","white","no","yes","576","legacy","6","6","3","C:/Users/Student/OneDrive/Documents/OpenSesame/subject-5206349.csv","legacy","Lentiform Loewenfeld","3.3.7","yes","yes","600bd7cfb6416f0113b04181","602110864497cf011d9c0822","0","j","NA","d","space","space","NA","j","766","NA","4810","9677","1899","NA","766","2","legacy","1024","2","48000","-16","task","5206349","odd","NA","22128","28944","24132","41126","3073","14653","12753","41627","NA","41124","41627","41042","28943","42393","20433","40542","3064","NA","Lexical Decision Task","11","9468","11","yes","1024"
"3.120135028","0","3","vals","non-word","100","100","837.8333333333334","837.8333333333334","black","no","legacy","legacy","legacy","0","uniform","1","undefined","undefined","undefined","1","f","0","0","0","0","11","0","0","0","11","NA","7","11","7","0","7","3","11","0","11","Tue Feb 16 13:06:56 2021","The main experiment item","yes","Lexical_Decision_Task.osexp","C:/Users/Student/OneDrive/Documents/OpenSesame","no","Andale Mono","no","18","no","white","no","yes","576","legacy","7","7","3","C:/Users/Student/OneDrive/Documents/OpenSesame/subject-5206349.csv","legacy","Lentiform Loewenfeld","3.3.7","yes","yes","600bd7cfb6416f0113b04181","602110864497cf011d9c0822","0","f","NA","d","space","space","NA","f","586","NA","4810","9677","1899","NA","586","2","legacy","1024","2","48000","-16","task","5206349","odd","NA","22128","28944","24132","42975","3073","14653","12753","43477","NA","42972","43477","42910","28943","44063","20433","42410","3064","NA","Lexical Decision Task","12","10054","12","yes","1024"
"3.137775856","7.39","5","comb","word","100","100","812.1538461538462","812.1538461538462","black","no","legacy","legacy","legacy","0","uniform","1","undefined","undefined","undefined","1","j","0","0","0","0","12","0","0","0","12","NA","8","12","8","0","8","3","12","0","12","Tue Feb 16 13:06:56 2021","The main experiment item","yes","Lexical_Decision_Task.osexp","C:/Users/Student/OneDrive/Documents/OpenSesame","no","Andale Mono","no","18","no","white","no","yes","576","legacy","8","8","3","C:/Users/Student/OneDrive/Documents/OpenSesame/subject-5206349.csv","legacy","Lentiform Loewenfeld","3.3.7","yes","yes","600bd7cfb6416f0113b04181","602110864497cf011d9c0822","0","j","NA","d","space","space","NA","j","504","NA","4810","9677","1899","NA","504","2","legacy","1024","2","48000","-16","task","5206349","odd","NA","22128","28944","24132","44633","3073","14653","12753","45134","NA","44631","45134","44566","28943","45639","20433","44066","3064","NA","Lexical Decision Task","13","10558","13","yes","1024"
"3.165936429","0","7","leps","non-word","100","100","796.2857142857143","796.2857142857143","black","no","legacy","legacy","legacy","0","uniform","1","undefined","undefined","undefined","1","f","0","0","0","0","13","0","0","0","13","NA","9","13","9","0","9","3","13","0","13","Tue Feb 16 13:06:56 2021","The main experiment item","yes","Lexical_Decision_Task.osexp","C:/Users/Student/OneDrive/Documents/OpenSesame","no","Andale Mono","no","18","no","white","no","yes","576","legacy","9","9","3","C:/Users/Student/OneDrive/Documents/OpenSesame/subject-5206349.csv","legacy","Lentiform Loewenfeld","3.3.7","yes","yes","600bd7cfb6416f0113b04181","602110864497cf011d9c0822","0","f","NA","d","space","space","NA","f","590","NA","4810","9677","1899","NA","590","2","legacy","1024","2","48000","-16","task","5206349","odd","NA","22128","28944","24132","46238","3073","14653","12753","46740","NA","46236","46740","46155","28943","47331","20433","45655","3064","NA","Lexical Decision Task","14","11148","14","yes","1024"
"3.488597715","0","9","nain","non-word","100","100","785.4","785.4","black","no","legacy","legacy","legacy","0","uniform","1","undefined","undefined","undefined","1","f","0","0","0","0","14","0","0","0","14","NA","10","14","10","0","10","3","14","0","14","Tue Feb 16 13:06:56 2021","The main experiment item","yes","Lexical_Decision_Task.osexp","C:/Users/Student/OneDrive/Documents/OpenSesame","no","Andale Mono","no","18","no","white","no","yes","576","legacy","10","10","3","C:/Users/Student/OneDrive/Documents/OpenSesame/subject-5206349.csv","legacy","Lentiform Loewenfeld","3.3.7","yes","yes","600bd7cfb6416f0113b04181","602110864497cf011d9c0822","0","f","NA","d","space","space","NA","f","633","NA","4810","9677","1899","NA","633","2","legacy","1024","2","48000","-16","task","5206349","odd","NA","22128","28944","24132","47896","3073","14653","12753","48397","NA","47895","48397","47834","28943","49031","20433","47334","3064","NA","Lexical Decision Task","15","11781","15","yes","1024"
"3.168890155","0","6","thet","non-word","100","100","774.9375","774.9375","black","no","legacy","legacy","legacy","0","uniform","1","undefined","undefined","undefined","1","f","0","0","0","0","15","0","0","0","15","NA","11","15","11","0","11","3","15","0","15","Tue Feb 16 13:06:56 2021","The main experiment item","yes","Lexical_Decision_Task.osexp","C:/Users/Student/OneDrive/Documents/OpenSesame","no","Andale Mono","no","18","no","white","no","yes","576","legacy","11","11","3","C:/Users/Student/OneDrive/Documents/OpenSesame/subject-5206349.csv","legacy","Lentiform Loewenfeld","3.3.7","yes","yes","600bd7cfb6416f0113b04181","602110864497cf011d9c0822","0","f","NA","d","space","space","NA","f","618","NA","4810","9677","1899","NA","618","2","legacy","1024","2","48000","-16","task","5206349","odd","NA","22128","28944","24132","49593","3073","14653","12753","50094","NA","49591","50094","49534","28943","50713","20433","49034","3064","NA","Lexical Decision Task","16","12399","16","yes","1024"
"2.696356389","0","1","pizz","non-word","100","100","764.7647058823529","764.7647058823529","black","no","legacy","legacy","legacy","0","uniform","1","undefined","undefined","undefined","1","f","0","0","0","0","16","0","0","0","16","NA","12","16","12","0","12","3","16","0","16","Tue Feb 16 13:06:56 2021","The main experiment item","yes","Lexical_Decision_Task.osexp","C:/Users/Student/OneDrive/Documents/OpenSesame","no","Andale Mono","no","18","no","white","no","yes","576","legacy","12","12","3","C:/Users/Student/OneDrive/Documents/OpenSesame/subject-5206349.csv","legacy","Lentiform Loewenfeld","3.3.7","yes","yes","600bd7cfb6416f0113b04181","602110864497cf011d9c0822","0","f","NA","d","space","space","NA","f","602","NA","4810","9677","1899","NA","602","2","legacy","1024","2","48000","-16","task","5206349","odd","NA","22128","28944","24132","51298","3073","14653","12753","51800","NA","51297","51800","51221","28943","52403","20433","50721","3064","NA","Lexical Decision Task","17","13001","17","yes","1024"
"2.839268497","0","8","maft","non-word","100","100","754.9444444444445","754.9444444444445","black","no","legacy","legacy","legacy","0","uniform","1","undefined","undefined","undefined","1","f","0","0","0","0","17","0","0","0","17","NA","13","17","13","0","13","3","17","0","17","Tue Feb 16 13:06:56 2021","The main experiment item","yes","Lexical_Decision_Task.osexp","C:/Users/Student/OneDrive/Documents/OpenSesame","no","Andale Mono","no","18","no","white","no","yes","576","legacy","13","13","3","C:/Users/Student/OneDrive/Documents/OpenSesame/subject-5206349.csv","legacy","Lentiform Loewenfeld","3.3.7","yes","yes","600bd7cfb6416f0113b04181","602110864497cf011d9c0822","0","f","NA","d","space","space","NA","f","588","NA","4810","9677","1899","NA","588","2","legacy","1024","2","48000","-16","task","5206349","odd","NA","22128","28944","24132","52984","3073","14653","12753","53487","NA","52983","53487","52912","28943","54075","20433","52412","3064","NA","Lexical Decision Task","18","13589","18","yes","1024"
"2.706148589","0","4","hube","non-word","100","100","746.4736842105264","746.4736842105264","black","no","legacy","legacy","legacy","0","uniform","1","undefined","undefined","undefined","1","f","0","0","0","0","18","0","0","0","18","NA","14","18","14","0","14","3","18","0","18","Tue Feb 16 13:06:56 2021","The main experiment item","yes","Lexical_Decision_Task.osexp","C:/Users/Student/OneDrive/Documents/OpenSesame","no","Andale Mono","no","18","no","white","no","yes","576","legacy","14","14","3","C:/Users/Student/OneDrive/Documents/OpenSesame/subject-5206349.csv","legacy","Lentiform Loewenfeld","3.3.7","yes","yes","600bd7cfb6416f0113b04181","602110864497cf011d9c0822","0","f","NA","d","space","space","NA","f","594","NA","4810","9677","1899","NA","594","2","legacy","1024","2","48000","-16","task","5206349","odd","NA","22128","28944","24132","54649","3073","14653","12753","55150","NA","54647","55151","54584","28943","55746","20433","54084","3064","NA","Lexical Decision Task","19","14183","19","yes","1024"
"3.460446784","0","5","dess","non-word","100","100","736.05","736.05","black","no","legacy","legacy","legacy","0","uniform","1","undefined","undefined","undefined","1","f","0","0","0","0","19","0","0","0","19","NA","15","19","15","0","15","3","19","0","19","Tue Feb 16 13:06:56 2021","The main experiment item","yes","Lexical_Decision_Task.osexp","C:/Users/Student/OneDrive/Documents/OpenSesame","no","Andale Mono","no","18","no","white","no","yes","576","legacy","15","15","3","C:/Users/Student/OneDrive/Documents/OpenSesame/subject-5206349.csv","legacy","Lentiform Loewenfeld","3.3.7","yes","yes","600bd7cfb6416f0113b04181","602110864497cf011d9c0822","0","f","NA","d","space","space","NA","f","538","NA","4810","9677","1899","NA","538","2","legacy","1024","2","48000","-16","task","5206349","odd","NA","22128","28944","24132","56315","3073","14653","12753","56816","NA","56314","56817","56255","28943","57356","20433","55755","3064","NA","Lexical Decision Task","20","14721","20","yes","1024"
"3.132473155","0","4","glim","non-word","95.23809523809524","95.23809523809524","727.6666666666666","727.6666666666666","black","no","legacy","legacy","legacy","0","uniform","0","undefined","undefined","undefined","0","f","0","0","0","0","20","0","0","0","20","NA","16","20","16","0","16","3","20","0","20","Tue Feb 16 13:06:56 2021","The main experiment item","yes","Lexical_Decision_Task.osexp","C:/Users/Student/OneDrive/Documents/OpenSesame","no","Andale Mono","no","18","no","white","no","yes","576","legacy","16","16","3","C:/Users/Student/OneDrive/Documents/OpenSesame/subject-5206349.csv","legacy","Lentiform Loewenfeld","3.3.7","yes","yes","600bd7cfb6416f0113b04181","602110864497cf011d9c0822","0","j","NA","d","space","space","NA","j","560","NA","4810","9677","1899","NA","560","2","legacy","1024","2","48000","-16","task","5206349","odd","NA","22128","28944","24132","57930","3073","14653","12753","58432","NA","57928","58432","57873","28943","58992","20433","57373","3064","NA","Lexical Decision Task","20","15281","21","yes","1024"
"3.363486562","6.93","9","lush","word","95.45454545454545","95.45454545454545","722.6818181818181","722.6818181818181","black","no","legacy","legacy","legacy","0","uniform","1","undefined","undefined","undefined","1","j","0","0","0","0","21","0","0","0","21","NA","17","21","17","0","17","3","21","0","21","Tue Feb 16 13:06:56 2021","The main experiment item","yes","Lexical_Decision_Task.osexp","C:/Users/Student/OneDrive/Documents/OpenSesame","no","Andale Mono","no","18","no","white","no","yes","576","legacy","17","17","3","C:/Users/Student/OneDrive/Documents/OpenSesame/subject-5206349.csv","legacy","Lentiform Loewenfeld","3.3.7","yes","yes","600bd7cfb6416f0113b04181","602110864497cf011d9c0822","0","j","NA","d","space","space","NA","j","618","NA","4810","9677","1899","NA","618","2","legacy","1024","2","48000","-16","task","5206349","odd","NA","22128","28944","24132","60573","3073","14653","12753","61074","NA","60571","61074","60496","28943","61693","20433","57373","3064","58996","Lexical Decision Task","21","15899","22","yes","1024"
"3.039414119","0","9","meep","non-word","95.65217391304348","95.65217391304348","719.3913043478261","719.3913043478261","black","no","legacy","legacy","legacy","0","uniform","1","undefined","undefined","undefined","1","f","0","0","0","0","22","0","0","0","22","NA","18","22","18","0","18","3","22","0","22","Tue Feb 16 13:06:56 2021","The main experiment item","yes","Lexical_Decision_Task.osexp","C:/Users/Student/OneDrive/Documents/OpenSesame","no","Andale Mono","no","18","no","white","no","yes","576","legacy","18","18","3","C:/Users/Student/OneDrive/Documents/OpenSesame/subject-5206349.csv","legacy","Lentiform Loewenfeld","3.3.7","yes","yes","600bd7cfb6416f0113b04181","602110864497cf011d9c0822","0","f","NA","d","space","space","NA","f","647","NA","4810","9677","1899","NA","647","2","legacy","1024","2","48000","-16","task","5206349","odd","NA","22128","28944","24132","62251","3073","14653","12753","62752","NA","62251","62753","62195","28943","63400","20433","61695","3064","58996","Lexical Decision Task","22","16546","23","yes","1024"
"3.225825991","0","7","talm","non-word","95.83333333333333","95.83333333333333","712.5833333333334","712.5833333333334","black","no","legacy","legacy","legacy","0","uniform","1","undefined","undefined","undefined","1","f","0","0","0","0","23","0","0","0","23","NA","19","23","19","0","19","3","23","0","23","Tue Feb 16 13:06:56 2021","The main experiment item","yes","Lexical_Decision_Task.osexp","C:/Users/Student/OneDrive/Documents/OpenSesame","no","Andale Mono","no","18","no","white","no","yes","576","legacy","19","19","3","C:/Users/Student/OneDrive/Documents/OpenSesame/subject-5206349.csv","legacy","Lentiform Loewenfeld","3.3.7","yes","yes","600bd7cfb6416f0113b04181","602110864497cf011d9c0822","0","f","NA","d","space","space","NA","f","556","NA","4810","9677","1899","NA","556","2","legacy","1024","2","48000","-16","task","5206349","odd","NA","22128","28944","24132","63961","3073","14653","12753","64463","NA","63960","64463","63908","28943","65020","20433","63408","3064","58996","Lexical Decision Task","23","17102","24","yes","1024"
"3.257359335","8","6","brew","word","96","96","705.6","705.6","black","no","legacy","legacy","legacy","0","uniform","1","undefined","undefined","undefined","1","j","0","0","0","0","24","0","0","0","24","NA","20","24","20","0","20","3","24","0","24","Tue Feb 16 13:06:56 2021","The main experiment item","yes","Lexical_Decision_Task.osexp","C:/Users/Student/OneDrive/Documents/OpenSesame","no","Andale Mono","no","18","no","white","no","yes","576","legacy","20","20","3","C:/Users/Student/OneDrive/Documents/OpenSesame/subject-5206349.csv","legacy","Lentiform Loewenfeld","3.3.7","yes","yes","600bd7cfb6416f0113b04181","602110864497cf011d9c0822","0","j","NA","d","space","space","NA","j","538","NA","4810","9677","1899","NA","538","2","legacy","1024","2","48000","-16","task","5206349","odd","NA","22128","28944","24132","65583","3073","14653","12753","66086","NA","65582","66086","65528","28943","66624","20433","65028","3064","58996","Lexical Decision Task","24","17640","25","yes","1024"
"3.067193647","6.73","6","raft","word","96.15384615384616","96.15384615384616","702.5384615384615","702.5384615384615","black","no","legacy","legacy","legacy","0","uniform","1","undefined","undefined","undefined","1","j","0","0","0","0","25","0","0","0","25","NA","21","25","21","0","21","3","25","0","25","Tue Feb 16 13:06:56 2021","The main experiment item","yes","Lexical_Decision_Task.osexp","C:/Users/Student/OneDrive/Documents/OpenSesame","no","Andale Mono","no","18","no","white","no","yes","576","legacy","21","21","3","C:/Users/Student/OneDrive/Documents/OpenSesame/subject-5206349.csv","legacy","Lentiform Loewenfeld","3.3.7","yes","yes","600bd7cfb6416f0113b04181","602110864497cf011d9c0822","0","j","NA","d","space","space","NA","j","626","NA","4810","9677","1899","NA","626","2","legacy","1024","2","48000","-16","task","5206349","odd","NA","22128","28944","24132","67189","3073","14653","12753","67691","NA","67188","67691","67128","28943","68317","20433","66628","3064","58996","Lexical Decision Task","25","18266","26","yes","1024"
"2.86332286","6.71","2","feud","word","92.5925925925926","92.5925925925926","696.2222222222222","696.2222222222222","black","no","legacy","legacy","legacy","0","uniform","0","undefined","undefined","undefined","0","j","0","0","0","0","26","0","0","0","26","NA","22","26","22","0","22","3","26","0","26","Tue Feb 16 13:06:56 2021","The main experiment item","yes","Lexical_Decision_Task.osexp","C:/Users/Student/OneDrive/Documents/OpenSesame","no","Andale Mono","no","18","no","white","no","yes","576","legacy","22","22","3","C:/Users/Student/OneDrive/Documents/OpenSesame/subject-5206349.csv","legacy","Lentiform Loewenfeld","3.3.7","yes","yes","600bd7cfb6416f0113b04181","602110864497cf011d9c0822","0","f","NA","d","space","space","NA","f","532","NA","4810","9677","1899","NA","532","2","legacy","1024","2","48000","-16","task","5206349","odd","NA","22128","28944","24132","68882","3073","14653","12753","69383","NA","68881","69384","68820","28943","69917","20433","68320","3064","58996","Lexical Decision Task","25","18798","27","yes","1024"
"3.378276681","6.39","8","bran","word","89.28571428571429","89.28571428571429","696.25","696.25","black","no","legacy","legacy","legacy","0","uniform","0","undefined","undefined","undefined","0","j","0","0","0","0","27","0","0","0","27","NA","23","27","23","0","23","3","27","0","27","Tue Feb 16 13:06:56 2021","The main experiment item","yes","Lexical_Decision_Task.osexp","C:/Users/Student/OneDrive/Documents/OpenSesame","no","Andale Mono","no","18","no","white","no","yes","576","legacy","23","23","3","C:/Users/Student/OneDrive/Documents/OpenSesame/subject-5206349.csv","legacy","Lentiform Loewenfeld","3.3.7","yes","yes","600bd7cfb6416f0113b04181","602110864497cf011d9c0822","0","f","NA","d","space","space","NA","f","697","NA","4810","9677","1899","NA","697","2","legacy","1024","2","48000","-16","task","5206349","odd","NA","22128","28944","24132","71485","3073","14653","12753","71986","NA","71484","71986","71421","28943","72684","20433","68320","3064","69920","Lexical Decision Task","25","19495","28","yes","1024"
"3.14849993","10.75","7","hour","word","89.65517241379311","89.65517241379311","688.551724137931","688.551724137931","black","no","legacy","legacy","legacy","0","uniform","1","undefined","undefined","undefined","1","j","0","0","0","0","28","0","0","0","28","NA","24","28","24","0","24","3","28","0","28","Tue Feb 16 13:06:56 2021","The main experiment item","yes","Lexical_Decision_Task.osexp","C:/Users/Student/OneDrive/Documents/OpenSesame","no","Andale Mono","no","18","no","white","no","yes","576","legacy","24","24","3","C:/Users/Student/OneDrive/Documents/OpenSesame/subject-5206349.csv","legacy","Lentiform Loewenfeld","3.3.7","yes","yes","600bd7cfb6416f0113b04181","602110864497cf011d9c0822","0","j","NA","d","space","space","NA","j","473","NA","4810","9677","1899","NA","473","2","legacy","1024","2","48000","-16","task","5206349","odd","NA","22128","28944","24132","74259","3073","14653","12753","74761","NA","74258","74761","74187","28943","75234","20433","68320","3064","72687","Lexical Decision Task","26","19968","29","yes","1024"
"3.062080345","0","6","tomp","non-word","90","90","683.2666666666667","683.2666666666667","black","no","legacy","legacy","legacy","0","uniform","1","undefined","undefined","undefined","1","f","0","0","0","0","29","0","0","0","29","NA","25","29","25","0","25","3","29","0","29","Tue Feb 16 13:06:56 2021","The main experiment item","yes","Lexical_Decision_Task.osexp","C:/Users/Student/OneDrive/Documents/OpenSesame","no","Andale Mono","no","18","no","white","no","yes","576","legacy","25","25","3","C:/Users/Student/OneDrive/Documents/OpenSesame/subject-5206349.csv","legacy","Lentiform Loewenfeld","3.3.7","yes","yes","600bd7cfb6416f0113b04181","602110864497cf011d9c0822","0","f","NA","d","space","space","NA","f","530","NA","4810","9677","1899","NA","530","2","legacy","1024","2","48000","-16","task","5206349","odd","NA","22128","28944","24132","75812","3073","14653","12753","76313","NA","75811","76313","75750","28943","76844","20433","75250","3064","72687","Lexical Decision Task","27","20498","30","yes","1024"
"3.064581521","5.51","6","cask","word","87.09677419354838","87.09677419354838","684.2903225806451","684.2903225806451","black","no","legacy","legacy","legacy","0","uniform","0","undefined","undefined","undefined","0","j","0","0","0","0","30","0","0","0","30","NA","26","30","26","0","26","3","30","0","30","Tue Feb 16 13:06:56 2021","The main experiment item","yes","Lexical_Decision_Task.osexp","C:/Users/Student/OneDrive/Documents/OpenSesame","no","Andale Mono","no","18","no","white","no","yes","576","legacy","26","26","3","C:/Users/Student/OneDrive/Documents/OpenSesame/subject-5206349.csv","legacy","Lentiform Loewenfeld","3.3.7","yes","yes","600bd7cfb6416f0113b04181","602110864497cf011d9c0822","0","f","NA","d","space","space","NA","f","715","NA","4810","9677","1899","NA","715","2","legacy","1024","2","48000","-16","task","5206349","odd","NA","22128","28944","24132","77409","3073","14653","12753","77911","NA","77408","77911","77353","28943","78627","20433","76853","3064","72687","Lexical Decision Task","27","21213","31","yes","1024"
"2.937852093","0","7","bamp","non-word","87.5","87.5","688.25","688.25","black","no","legacy","legacy","legacy","0","uniform","1","undefined","undefined","undefined","1","f","0","0","0","0","31","0","0","0","31","NA","27","31","27","0","27","3","31","0","31","Tue Feb 16 13:06:56 2021","The main experiment item","yes","Lexical_Decision_Task.osexp","C:/Users/Student/OneDrive/Documents/OpenSesame","no","Andale Mono","no","18","no","white","no","yes","576","legacy","27","27","3","C:/Users/Student/OneDrive/Documents/OpenSesame/subject-5206349.csv","legacy","Lentiform Loewenfeld","3.3.7","yes","yes","600bd7cfb6416f0113b04181","602110864497cf011d9c0822","0","f","NA","d","space","space","NA","f","811","NA","4810","9677","1899","NA","811","2","legacy","1024","2","48000","-16","task","5206349","odd","NA","22128","28944","24132","80201","3073","14653","12753","80703","NA","80200","80703","80137","28943","81514","20433","76853","3064","78637","Lexical Decision Task","28","22024","32","yes","1024"
"2.782472624","10.55","2","huge","word","87.87878787878788","87.87878787878788","682.5757575757576","682.5757575757576","black","no","legacy","legacy","legacy","0","uniform","1","undefined","undefined","undefined","1","j","0","0","0","0","32","0","0","0","32","NA","28","32","28","0","28","3","32","0","32","Tue Feb 16 13:06:56 2021","The main experiment item","yes","Lexical_Decision_Task.osexp","C:/Users/Student/OneDrive/Documents/OpenSesame","no","Andale Mono","no","18","no","white","no","yes","576","legacy","28","28","3","C:/Users/Student/OneDrive/Documents/OpenSesame/subject-5206349.csv","legacy","Lentiform Loewenfeld","3.3.7","yes","yes","600bd7cfb6416f0113b04181","602110864497cf011d9c0822","0","j","NA","d","space","space","NA","j","501","NA","4810","9677","1899","NA","501","2","legacy","1024","2","48000","-16","task","5206349","odd","NA","22128","28944","24132","82077","3073","14653","12753","82579","NA","82076","82579","82023","28943","83081","20433","81523","3064","78637","Lexical Decision Task","29","22525","33","yes","1024"
"3.168400243","9.12","6","horn","word","88.23529411764706","88.23529411764706","678.4411764705883","678.4411764705883","black","no","legacy","legacy","legacy","0","uniform","1","undefined","undefined","undefined","1","j","0","0","0","0","33","0","0","0","33","NA","29","33","29","0","29","3","33","0","33","Tue Feb 16 13:06:56 2021","The main experiment item","yes","Lexical_Decision_Task.osexp","C:/Users/Student/OneDrive/Documents/OpenSesame","no","Andale Mono","no","18","no","white","no","yes","576","legacy","29","29","3","C:/Users/Student/OneDrive/Documents/OpenSesame/subject-5206349.csv","legacy","Lentiform Loewenfeld","3.3.7","yes","yes","600bd7cfb6416f0113b04181","602110864497cf011d9c0822","0","j","NA","d","space","space","NA","j","542","NA","4810","9677","1899","NA","542","2","legacy","1024","2","48000","-16","task","5206349","odd","NA","22128","28944","24132","83650","3073","14653","12753","84153","NA","83648","84153","83590","28943","84695","20433","83090","3064","78637","Lexical Decision Task","30","23067","34","yes","1024"
"2.709837904","6.85","8","skim","word","85.71428571428571","85.71428571428571","679.8571428571429","679.8571428571429","black","no","legacy","legacy","legacy","0","uniform","0","undefined","undefined","undefined","0","j","0","0","0","0","34","0","0","0","34","NA","30","34","30","0","30","3","34","0","34","Tue Feb 16 13:06:56 2021","The main experiment item","yes","Lexical_Decision_Task.osexp","C:/Users/Student/OneDrive/Documents/OpenSesame","no","Andale Mono","no","18","no","white","no","yes","576","legacy","30","30","3","C:/Users/Student/OneDrive/Documents/OpenSesame/subject-5206349.csv","legacy","Lentiform Loewenfeld","3.3.7","yes","yes","600bd7cfb6416f0113b04181","602110864497cf011d9c0822","0","f","NA","d","space","space","NA","f","728","NA","4810","9677","1899","NA","728","2","legacy","1024","2","48000","-16","task","5206349","odd","NA","22128","28944","24132","85286","3073","14653","12753","85788","NA","85284","85788","85213","28943","86517","20433","84713","3064","78637","Lexical Decision Task","30","23795","35","yes","1024"
"2.755364069","7.72","2","hoax","word","86.11111111111111","86.11111111111111","677.7777777777778","677.7777777777778","black","no","legacy","legacy","legacy","0","uniform","1","undefined","undefined","undefined","1","j","0","0","0","0","35","0","0","0","35","NA","31","35","31","0","31","3","35","0","35","Tue Feb 16 13:06:56 2021","The main experiment item","yes","Lexical_Decision_Task.osexp","C:/Users/Student/OneDrive/Documents/OpenSesame","no","Andale Mono","no","18","no","white","no","yes","576","legacy","31","31","3","C:/Users/Student/OneDrive/Documents/OpenSesame/subject-5206349.csv","legacy","Lentiform Loewenfeld","3.3.7","yes","yes","600bd7cfb6416f0113b04181","602110864497cf011d9c0822","0","j","NA","d","space","space","NA","j","605","NA","4810","9677","1899","NA","605","2","legacy","1024","2","48000","-16","task","5206349","odd","NA","22128","28944","24132","88083","3073","14653","12753","88584","NA","88082","88584","88024","28943","89189","20433","84713","3064","86524","Lexical Decision Task","31","24400","36","yes","1024"
"2.703007489","8.37","3","pulp","word","86.48648648648648","86.48648648648648","678.5675675675676","678.5675675675676","black","no","legacy","legacy","legacy","0","uniform","1","undefined","undefined","undefined","1","j","0","0","0","0","36","0","0","0","36","NA","32","36","32","0","32","3","36","0","36","Tue Feb 16 13:06:56 2021","The main experiment item","yes","Lexical_Decision_Task.osexp","C:/Users/Student/OneDrive/Documents/OpenSesame","no","Andale Mono","no","18","no","white","no","yes","576","legacy","32","32","3","C:/Users/Student/OneDrive/Documents/OpenSesame/subject-5206349.csv","legacy","Lentiform Loewenfeld","3.3.7","yes","yes","600bd7cfb6416f0113b04181","602110864497cf011d9c0822","0","j","NA","d","space","space","NA","j","707","NA","4810","9677","1899","NA","707","2","legacy","1024","2","48000","-16","task","5206349","odd","NA","22128","28944","24132","89756","3073","14653","12753","90258","NA","89755","90258","89698","28943","90966","20433","89198","3064","86524","Lexical Decision Task","32","25107","37","yes","1024"
"2.873320602","0","4","lurg","non-word","86.84210526315789","86.84210526315789","681.7894736842105","681.7894736842105","black","no","legacy","legacy","legacy","0","uniform","1","undefined","undefined","undefined","1","f","0","0","0","0","37","0","0","0","37","NA","33","37","33","0","33","3","37","0","37","Tue Feb 16 13:06:56 2021","The main experiment item","yes","Lexical_Decision_Task.osexp","C:/Users/Student/OneDrive/Documents/OpenSesame","no","Andale Mono","no","18","no","white","no","yes","576","legacy","33","33","3","C:/Users/Student/OneDrive/Documents/OpenSesame/subject-5206349.csv","legacy","Lentiform Loewenfeld","3.3.7","yes","yes","600bd7cfb6416f0113b04181","602110864497cf011d9c0822","0","f","NA","d","space","space","NA","f","801","NA","4810","9677","1899","NA","801","2","legacy","1024","2","48000","-16","task","5206349","odd","NA","22128","28944","24132","91531","3073","14653","12753","92032","NA","91530","92032","91476","28943","92834","20433","90975","3064","86524","Lexical Decision Task","33","25908","38","yes","1024"
"3.091901331","0","9","nipe","non-word","84.61538461538461","84.61538461538461","683.3846153846154","683.3846153846154","black","no","legacy","legacy","legacy","0","uniform","0","undefined","undefined","undefined","0","f","0","0","0","0","38","0","0","0","38","NA","34","38","34","0","34","3","38","0","38","Tue Feb 16 13:06:56 2021","The main experiment item","yes","Lexical_Decision_Task.osexp","C:/Users/Student/OneDrive/Documents/OpenSesame","no","Andale Mono","no","18","no","white","no","yes","576","legacy","34","34","3","C:/Users/Student/OneDrive/Documents/OpenSesame/subject-5206349.csv","legacy","Lentiform Loewenfeld","3.3.7","yes","yes","600bd7cfb6416f0113b04181","602110864497cf011d9c0822","0","j","NA","d","space","space","NA","j","744","NA","4810","9677","1899","NA","744","2","legacy","1024","2","48000","-16","task","5206349","odd","NA","22128","28944","24132","93409","3073","14653","12753","93911","NA","93408","93911","93353","28943","94656","20433","92852","3064","86524","Lexical Decision Task","33","26652","39","yes","1024"
"2.64476673","0","5","moft","non-word","85","85","682.175","682.175","black","no","legacy","legacy","legacy","0","uniform","1","undefined","undefined","undefined","1","f","0","0","0","0","39","0","0","0","39","NA","35","39","35","0","35","3","39","0","39","Tue Feb 16 13:06:56 2021","The main experiment item","yes","Lexical_Decision_Task.osexp","C:/Users/Student/OneDrive/Documents/OpenSesame","no","Andale Mono","no","18","no","white","no","yes","576","legacy","35","35","3","C:/Users/Student/OneDrive/Documents/OpenSesame/subject-5206349.csv","legacy","Lentiform Loewenfeld","3.3.7","yes","yes","600bd7cfb6416f0113b04181","602110864497cf011d9c0822","0","f","NA","d","space","space","NA","f","635","NA","4810","9677","1899","NA","635","2","legacy","1024","2","48000","-16","task","5206349","odd","NA","22128","28944","24132","96221","3073","14653","12753","96723","NA","96220","96723","96165","28943","97359","20433","92852","3064","94665","Lexical Decision Task","34","27287","40","yes","1024"
"2.899638141","0","3","hapt","non-word","85.36585365853658","85.36585365853658","678.1463414634146","678.1463414634146","black","no","legacy","legacy","legacy","0","uniform","1","undefined","undefined","undefined","1","f","0","0","0","0","40","0","0","0","40","NA","36","40","36","0","36","3","40","0","40","Tue Feb 16 13:06:56 2021","The main experiment item","yes","Lexical_Decision_Task.osexp","C:/Users/Student/OneDrive/Documents/OpenSesame","no","Andale Mono","no","18","no","white","no","yes","576","legacy","36","36","3","C:/Users/Student/OneDrive/Documents/OpenSesame/subject-5206349.csv","legacy","Lentiform Loewenfeld","3.3.7","yes","yes","600bd7cfb6416f0113b04181","602110864497cf011d9c0822","0","f","NA","d","space","space","NA","f","517","NA","4810","9677","1899","NA","517","2","legacy","1024","2","48000","-16","task","5206349","odd","NA","22128","28944","24132","97933","3073","14653","12753","98435","NA","97932","98435","97867","28943","98953","20433","97367","3064","94665","Lexical Decision Task","35","27804","41","yes","1024"
"3.010582609","0","2","drod","non-word","85.71428571428571","85.71428571428571","674.8571428571429","674.8571428571429","black","no","legacy","legacy","legacy","0","uniform","1","undefined","undefined","undefined","1","f","0","0","0","0","41","0","0","0","41","NA","37","41","37","0","37","3","41","0","41","Tue Feb 16 13:06:56 2021","The main experiment item","yes","Lexical_Decision_Task.osexp","C:/Users/Student/OneDrive/Documents/OpenSesame","no","Andale Mono","no","18","no","white","no","yes","576","legacy","37","37","3","C:/Users/Student/OneDrive/Documents/OpenSesame/subject-5206349.csv","legacy","Lentiform Loewenfeld","3.3.7","yes","yes","600bd7cfb6416f0113b04181","602110864497cf011d9c0822","0","f","NA","d","space","space","NA","f","540","NA","4810","9677","1899","NA","540","2","legacy","1024","2","48000","-16","task","5206349","odd","NA","22128","28944","24132","99516","3073","14653","12753","100017","NA","99515","100017","99462","28943","100558","20433","98962","3064","94665","Lexical Decision Task","36","28344","42","yes","1024"
"3.252447662","9.67","9","boat","word","86.04651162790698","86.04651162790698","670.9069767441861","670.9069767441861","black","no","legacy","legacy","legacy","0","uniform","1","undefined","undefined","undefined","1","j","0","0","0","0","42","0","0","0","42","NA","38","42","38","0","38","3","42","0","42","Tue Feb 16 13:06:56 2021","The main experiment item","yes","Lexical_Decision_Task.osexp","C:/Users/Student/OneDrive/Documents/OpenSesame","no","Andale Mono","no","18","no","white","no","yes","576","legacy","38","38","3","C:/Users/Student/OneDrive/Documents/OpenSesame/subject-5206349.csv","legacy","Lentiform Loewenfeld","3.3.7","yes","yes","600bd7cfb6416f0113b04181","602110864497cf011d9c0822","0","j","NA","d","space","space","NA","j","505","NA","4810","9677","1899","NA","505","2","legacy","1024","2","48000","-16","task","5206349","odd","NA","22128","28944","24132","101120","3073","14653","12753","101622","NA","101119","101622","101067","28943","102128","20433","100567","3064","94665","Lexical Decision Task","37","28849","43","yes","1024"
"3.088136089","8.32","9","worm","word","86.36363636363636","86.36363636363636","666.5227272727273","666.5227272727273","black","no","legacy","legacy","legacy","0","uniform","1","undefined","undefined","undefined","1","j","0","0","0","0","43","0","0","0","43","NA","39","43","39","0","39","3","43","0","43","Tue Feb 16 13:06:56 2021","The main experiment item","yes","Lexical_Decision_Task.osexp","C:/Users/Student/OneDrive/Documents/OpenSesame","no","Andale Mono","no","18","no","white","no","yes","576","legacy","39","39","3","C:/Users/Student/OneDrive/Documents/OpenSesame/subject-5206349.csv","legacy","Lentiform Loewenfeld","3.3.7","yes","yes","600bd7cfb6416f0113b04181","602110864497cf011d9c0822","0","j","NA","d","space","space","NA","j","478","NA","4810","9677","1899","NA","478","2","legacy","1024","2","48000","-16","task","5206349","odd","NA","22128","28944","24132","102698","3073","14653","12753","103200","NA","102697","103200","102636","28943","103679","20433","102136","3064","94665","Lexical Decision Task","38","29327","44","yes","1024"
"2.839898939","8.99","6","soap","word","86.66666666666667","86.66666666666667","662.1111111111111","662.1111111111111","black","no","legacy","legacy","legacy","0","uniform","1","undefined","undefined","undefined","1","j","0","0","0","0","44","0","0","0","44","NA","40","44","40","0","40","3","44","0","44","Tue Feb 16 13:06:56 2021","The main experiment item","yes","Lexical_Decision_Task.osexp","C:/Users/Student/OneDrive/Documents/OpenSesame","no","Andale Mono","no","18","no","white","no","yes","576","legacy","40","40","3","C:/Users/Student/OneDrive/Documents/OpenSesame/subject-5206349.csv","legacy","Lentiform Loewenfeld","3.3.7","yes","yes","600bd7cfb6416f0113b04181","602110864497cf011d9c0822","0","j","NA","d","space","space","NA","j","468","NA","4810","9677","1899","NA","468","2","legacy","1024","2","48000","-16","task","5206349","odd","NA","22128","28944","24132","104246","3073","14653","12753","104747","NA","104245","104748","104182","28943","105217","20433","103682","3064","94665","Lexical Decision Task","39","29795","45","yes","1024"
"3.081107167","0","6","chot","non-word","86.95652173913044","86.95652173913044","660.304347826087","660.304347826087","black","no","legacy","legacy","legacy","0","uniform","1","undefined","undefined","undefined","1","f","0","0","0","0","45","0","0","0","45","NA","41","45","41","0","41","3","45","0","45","Tue Feb 16 13:06:56 2021","The main experiment item","yes","Lexical_Decision_Task.osexp","C:/Users/Student/OneDrive/Documents/OpenSesame","no","Andale Mono","no","18","no","white","no","yes","576","legacy","41","41","3","C:/Users/Student/OneDrive/Documents/OpenSesame/subject-5206349.csv","legacy","Lentiform Loewenfeld","3.3.7","yes","yes","600bd7cfb6416f0113b04181","602110864497cf011d9c0822","0","f","NA","d","space","space","NA","f","579","NA","4810","9677","1899","NA","579","2","legacy","1024","2","48000","-16","task","5206349","odd","NA","22128","28944","24132","105790","3073","14653","12753","106293","NA","105789","106293","105733","28943","106873","20433","105233","3064","94665","Lexical Decision Task","40","30374","46","yes","1024"
"2.696644658","5.78","2","yolk","word","87.23404255319149","87.23404255319149","658.7021276595744","658.7021276595744","black","no","legacy","legacy","legacy","0","uniform","1","undefined","undefined","undefined","1","j","0","0","0","0","46","0","0","0","46","NA","42","46","42","0","42","3","46","0","46","Tue Feb 16 13:06:56 2021","The main experiment item","yes","Lexical_Decision_Task.osexp","C:/Users/Student/OneDrive/Documents/OpenSesame","no","Andale Mono","no","18","no","white","no","yes","576","legacy","42","42","3","C:/Users/Student/OneDrive/Documents/OpenSesame/subject-5206349.csv","legacy","Lentiform Loewenfeld","3.3.7","yes","yes","600bd7cfb6416f0113b04181","602110864497cf011d9c0822","0","j","NA","d","space","space","NA","j","585","NA","4810","9677","1899","NA","585","2","legacy","1024","2","48000","-16","task","5206349","odd","NA","22128","28944","24132","107437","3073","14653","12753","107939","NA","107436","107939","107382","28943","108525","20433","106882","3064","94665","Lexical Decision Task","41","30959","47","yes","1024"
"2.980911938","7.15","7","hoop","word","87.5","87.5","655.7916666666666","655.7916666666666","black","no","legacy","legacy","legacy","0","uniform","1","undefined","undefined","undefined","1","j","0","0","0","0","47","0","0","0","47","NA","43","47","43","0","43","3","47","0","47","Tue Feb 16 13:06:56 2021","The main experiment item","yes","Lexical_Decision_Task.osexp","C:/Users/Student/OneDrive/Documents/OpenSesame","no","Andale Mono","no","18","no","white","no","yes","576","legacy","43","43","3","C:/Users/Student/OneDrive/Documents/OpenSesame/subject-5206349.csv","legacy","Lentiform Loewenfeld","3.3.7","yes","yes","600bd7cfb6416f0113b04181","602110864497cf011d9c0822","0","j","NA","d","space","space","NA","j","519","NA","4810","9677","1899","NA","519","2","legacy","1024","2","48000","-16","task","5206349","odd","NA","22128","28944","24132","109087","3073","14653","12753","109589","NA","109086","109589","109033","28943","110108","20433","108533","3064","94665","Lexical Decision Task","42","31478","48","yes","1024"
"2.75025376","10.2","6","jump","word","87.75510204081633","87.75510204081633","654.4285714285714","654.4285714285714","black","no","legacy","legacy","legacy","0","uniform","1","undefined","undefined","undefined","1","j","0","0","0","0","48","0","0","0","48","NA","44","48","44","0","44","3","48","0","48","Tue Feb 16 13:06:56 2021","The main experiment item","yes","Lexical_Decision_Task.osexp","C:/Users/Student/OneDrive/Documents/OpenSesame","no","Andale Mono","no","18","no","white","no","yes","576","legacy","44","44","3","C:/Users/Student/OneDrive/Documents/OpenSesame/subject-5206349.csv","legacy","Lentiform Loewenfeld","3.3.7","yes","yes","600bd7cfb6416f0113b04181","602110864497cf011d9c0822","0","j","NA","d","space","space","NA","j","589","NA","4810","9677","1899","NA","589","2","legacy","1024","2","48000","-16","task","5206349","odd","NA","22128","28944","24132","110697","3073","14653","12753","111199","NA","110694","111199","110618","28943","111789","20433","110118","3064","94665","Lexical Decision Task","43","32067","49","yes","1024"
"3.068433376","8.09","2","bulb","word","88","88","651.3","651.3","black","no","legacy","legacy","legacy","0","uniform","1","undefined","undefined","undefined","1","j","0","0","0","0","49","0","0","0","49","NA","45","49","45","0","45","3","49","0","49","Tue Feb 16 13:06:56 2021","The main experiment item","yes","Lexical_Decision_Task.osexp","C:/Users/Student/OneDrive/Documents/OpenSesame","no","Andale Mono","no","18","no","white","no","yes","576","legacy","45","45","3","C:/Users/Student/OneDrive/Documents/OpenSesame/subject-5206349.csv","legacy","Lentiform Loewenfeld","3.3.7","yes","yes","600bd7cfb6416f0113b04181","602110864497cf011d9c0822","0","j","NA","d","space","space","NA","j","498","NA","4810","9677","1899","NA","498","2","legacy","1024","2","48000","-16","task","5206349","odd","NA","22128","28944","24132","112371","3073","14653","12753","112873","NA","112369","112873","112305","28943","113371","20433","111805","3064","94665","Lexical Decision Task","44","32565","50","yes","1024"
"2.719886232","7.98","2","quiz","word","88.23529411764706","88.23529411764706","648.6078431372549","648.6078431372549","black","no","legacy","legacy","legacy","0","uniform","1","undefined","undefined","undefined","1","j","0","0","0","0","50","0","0","0","50","NA","46","50","46","0","46","3","50","0","50","Tue Feb 16 13:06:56 2021","The main experiment item","yes","Lexical_Decision_Task.osexp","C:/Users/Student/OneDrive/Documents/OpenSesame","no","Andale Mono","no","18","no","white","no","yes","576","legacy","46","46","3","C:/Users/Student/OneDrive/Documents/OpenSesame/subject-5206349.csv","legacy","Lentiform Loewenfeld","3.3.7","yes","yes","600bd7cfb6416f0113b04181","602110864497cf011d9c0822","0","j","NA","d","space","space","NA","j","514","NA","4810","9677","1899","NA","514","2","legacy","1024","2","48000","-16","task","5206349","odd","NA","22128","28944","24132","113961","3073","14653","12753","114463","NA","113959","114463","113887","28943","114978","20433","113387","3064","94665","Lexical Decision Task","45","33079","51","yes","1024"
"3.440331212","7.35","6","stew","word","88.46153846153847","88.46153846153847","645.9423076923077","645.9423076923077","black","no","legacy","legacy","legacy","0","uniform","1","undefined","undefined","undefined","1","j","0","0","0","0","51","0","0","0","51","NA","47","51","47","0","47","3","51","0","51","Tue Feb 16 13:06:56 2021","The main experiment item","yes","Lexical_Decision_Task.osexp","C:/Users/Student/OneDrive/Documents/OpenSesame","no","Andale Mono","no","18","no","white","no","yes","576","legacy","47","47","3","C:/Users/Student/OneDrive/Documents/OpenSesame/subject-5206349.csv","legacy","Lentiform Loewenfeld","3.3.7","yes","yes","600bd7cfb6416f0113b04181","602110864497cf011d9c0822","0","j","NA","d","space","space","NA","j","510","NA","4810","9677","1899","NA","510","2","legacy","1024","2","48000","-16","task","5206349","odd","NA","22128","28944","24132","115567","3073","14653","12753","116068","NA","115565","116069","115487","28943","116580","20433","114987","3064","94665","Lexical Decision Task","46","33589","52","yes","1024"
"2.880623071","0","9","curp","non-word","88.67924528301887","88.67924528301887","646.4150943396227","646.4150943396227","black","no","legacy","legacy","legacy","0","uniform","1","undefined","undefined","undefined","1","f","0","0","0","0","52","0","0","0","52","NA","48","52","48","0","48","3","52","0","52","Tue Feb 16 13:06:56 2021","The main experiment item","yes","Lexical_Decision_Task.osexp","C:/Users/Student/OneDrive/Documents/OpenSesame","no","Andale Mono","no","18","no","white","no","yes","576","legacy","48","48","3","C:/Users/Student/OneDrive/Documents/OpenSesame/subject-5206349.csv","legacy","Lentiform Loewenfeld","3.3.7","yes","yes","600bd7cfb6416f0113b04181","602110864497cf011d9c0822","0","f","NA","d","space","space","NA","f","671","NA","4810","9677","1899","NA","671","2","legacy","1024","2","48000","-16","task","5206349","odd","NA","22128","28944","24132","117154","3073","14653","12753","117656","NA","117152","117656","117090","28943","118328","20433","116590","3064","94665","Lexical Decision Task","47","34260","53","yes","1024"
"2.664328519","0","4","plux","non-word","88.88888888888889","88.88888888888889","645.4814814814815","645.4814814814815","black","no","legacy","legacy","legacy","0","uniform","1","undefined","undefined","undefined","1","f","0","0","0","0","53","0","0","0","53","NA","49","53","49","0","49","3","53","0","53","Tue Feb 16 13:06:56 2021","The main experiment item","yes","Lexical_Decision_Task.osexp","C:/Users/Student/OneDrive/Documents/OpenSesame","no","Andale Mono","no","18","no","white","no","yes","576","legacy","49","49","3","C:/Users/Student/OneDrive/Documents/OpenSesame/subject-5206349.csv","legacy","Lentiform Loewenfeld","3.3.7","yes","yes","600bd7cfb6416f0113b04181","602110864497cf011d9c0822","0","f","NA","d","space","space","NA","f","596","NA","4810","9677","1899","NA","596","2","legacy","1024","2","48000","-16","task","5206349","odd","NA","22128","28944","24132","118900","3073","14653","12753","119401","NA","118899","119401","118837","28943","119998","20433","118337","3064","94665","Lexical Decision Task","48","34856","54","yes","1024"
"2.990042563","6.64","9","plow","word","87.27272727272727","87.27272727272727","645.4545454545455","645.4545454545455","black","no","legacy","legacy","legacy","0","uniform","0","undefined","undefined","undefined","0","j","0","0","0","0","54","0","0","0","54","0","50","54","50","0","50","3","54","0","54","Tue Feb 16 13:06:56 2021","The main experiment item","yes","Lexical_Decision_Task.osexp","C:/Users/Student/OneDrive/Documents/OpenSesame","no","Andale Mono","no","18","no","white","no","yes","576","legacy","50","50","3","C:/Users/Student/OneDrive/Documents/OpenSesame/subject-5206349.csv","legacy","Lentiform Loewenfeld","3.3.7","yes","yes","600bd7cfb6416f0113b04181","602110864497cf011d9c0822","0","f","NA","d","space","space","j","f","644","NA","4810","9677","1899","11725","644","2","legacy","1024","2","48000","-16","task","5206349","odd","NA","22128","28944","24132","132345","3073","14653","12753","132848","120562","132344","132848","120514","28943","133493","20433","120014","3064","94665","Lexical Decision Task","48","35500","55","yes","1024"
"2.868644438","10.52","4","town","word","87.5","87.5","643.4821428571429","643.4821428571429","black","no","legacy","legacy","legacy","0","uniform","1","undefined","undefined","undefined","1","j","0","0","0","0","55","0","0","0","55","0","51","55","51","0","51","3","55","0","55","Tue Feb 16 13:06:56 2021","The main experiment item","yes","Lexical_Decision_Task.osexp","C:/Users/Student/OneDrive/Documents/OpenSesame","no","Andale Mono","no","18","no","white","no","yes","576","legacy","51","51","3","C:/Users/Student/OneDrive/Documents/OpenSesame/subject-5206349.csv","legacy","Lentiform Loewenfeld","3.3.7","yes","yes","600bd7cfb6416f0113b04181","602110864497cf011d9c0822","0","j","NA","d","space","space","j","j","535","NA","4810","9677","1899","11725","535","2","legacy","1024","2","48000","-16","task","5206349","odd","NA","22128","28944","24132","135093","3073","14653","12753","135596","120562","135091","135596","135010","28943","136132","20433","120014","3064","133510","Lexical Decision Task","49","36035","56","yes","1024"
"3.353210739","0","9","reet","non-word","87.71929824561404","87.71929824561404","642.6666666666666","642.6666666666666","black","no","legacy","legacy","legacy","0","uniform","1","undefined","undefined","undefined","1","f","0","0","0","0","56","0","0","0","56","0","52","56","52","0","52","3","56","0","56","Tue Feb 16 13:06:56 2021","The main experiment item","yes","Lexical_Decision_Task.osexp","C:/Users/Student/OneDrive/Documents/OpenSesame","no","Andale Mono","no","18","no","white","no","yes","576","legacy","52","52","3","C:/Users/Student/OneDrive/Documents/OpenSesame/subject-5206349.csv","legacy","Lentiform Loewenfeld","3.3.7","yes","yes","600bd7cfb6416f0113b04181","602110864497cf011d9c0822","0","f","NA","d","space","space","j","f","597","NA","4810","9677","1899","11725","597","2","legacy","1024","2","48000","-16","task","5206349","odd","NA","22128","28944","24132","136714","3073","14653","12753","137216","120562","136713","137216","136642","28943","137814","20433","136142","3064","133510","Lexical Decision Task","50","36632","57","yes","1024"
"3.197740804","6.74","3","ache","word","87.93103448275862","87.93103448275862","640.3275862068965","640.3275862068965","black","no","legacy","legacy","legacy","0","uniform","1","undefined","undefined","undefined","1","j","0","0","0","0","57","0","0","0","57","0","53","57","53","0","53","3","57","0","57","Tue Feb 16 13:06:56 2021","The main experiment item","yes","Lexical_Decision_Task.osexp","C:/Users/Student/OneDrive/Documents/OpenSesame","no","Andale Mono","no","18","no","white","no","yes","576","legacy","53","53","3","C:/Users/Student/OneDrive/Documents/OpenSesame/subject-5206349.csv","legacy","Lentiform Loewenfeld","3.3.7","yes","yes","600bd7cfb6416f0113b04181","602110864497cf011d9c0822","0","j","NA","d","space","space","j","j","507","NA","4810","9677","1899","11725","507","2","legacy","1024","2","48000","-16","task","5206349","odd","NA","22128","28944","24132","138404","3073","14653","12753","138906","120562","138402","138906","138330","28943","139414","20433","137830","3064","133510","Lexical Decision Task","51","37139","58","yes","1024"
"3.066077331","0","7","vorn","non-word","88.13559322033899","88.13559322033899","638.4067796610169","638.4067796610169","black","no","legacy","legacy","legacy","0","uniform","1","undefined","undefined","undefined","1","f","0","0","0","0","58","0","0","0","58","0","54","58","54","0","54","3","58","0","58","Tue Feb 16 13:06:56 2021","The main experiment item","yes","Lexical_Decision_Task.osexp","C:/Users/Student/OneDrive/Documents/OpenSesame","no","Andale Mono","no","18","no","white","no","yes","576","legacy","54","54","3","C:/Users/Student/OneDrive/Documents/OpenSesame/subject-5206349.csv","legacy","Lentiform Loewenfeld","3.3.7","yes","yes","600bd7cfb6416f0113b04181","602110864497cf011d9c0822","0","f","NA","d","space","space","j","f","527","NA","4810","9677","1899","11725","527","2","legacy","1024","2","48000","-16","task","5206349","odd","NA","22128","28944","24132","139983","3073","14653","12753","140486","120562","139981","140486","139918","28943","141014","20433","139418","3064","133510","Lexical Decision Task","52","37666","59","yes","1024"
"3.076883066","0","8","mout","non-word","88.33333333333333","88.33333333333333","638.15","638.15","black","no","legacy","legacy","legacy","0","uniform","1","undefined","undefined","undefined","1","f","0","0","0","0","59","0","0","0","59","0","55","59","55","0","55","3","59","0","59","Tue Feb 16 13:06:56 2021","The main experiment item","yes","Lexical_Decision_Task.osexp","C:/Users/Student/OneDrive/Documents/OpenSesame","no","Andale Mono","no","18","no","white","no","yes","576","legacy","55","55","3","C:/Users/Student/OneDrive/Documents/OpenSesame/subject-5206349.csv","legacy","Lentiform Loewenfeld","3.3.7","yes","yes","600bd7cfb6416f0113b04181","602110864497cf011d9c0822","0","f","NA","d","space","space","j","f","623","NA","4810","9677","1899","11725","623","2","legacy","1024","2","48000","-16","task","5206349","odd","NA","22128","28944","24132","141595","3073","14653","12753","142097","120562","141594","142097","141523","28943","142721","20433","141023","3064","133510","Lexical Decision Task","53","38289","60","yes","1024"
"3.16326079","0","5","parg","non-word","88.52459016393442","88.52459016393442","635.4262295081967","635.4262295081967","black","no","legacy","legacy","legacy","0","uniform","1","undefined","undefined","undefined","1","f","0","0","0","0","60","0","0","0","60","0","56","60","56","0","56","3","60","0","60","Tue Feb 16 13:06:56 2021","The main experiment item","yes","Lexical_Decision_Task.osexp","C:/Users/Student/OneDrive/Documents/OpenSesame","no","Andale Mono","no","18","no","white","no","yes","576","legacy","56","56","3","C:/Users/Student/OneDrive/Documents/OpenSesame/subject-5206349.csv","legacy","Lentiform Loewenfeld","3.3.7","yes","yes","600bd7cfb6416f0113b04181","602110864497cf011d9c0822","0","f","NA","d","space","space","j","f","472","NA","4810","9677","1899","11725","472","2","legacy","1024","2","48000","-16","task","5206349","odd","NA","22128","28944","24132","143297","3073","14653","12753","143799","120562","143296","143799","143229","28943","144272","20433","142729","3064","133510","Lexical Decision Task","54","38761","61","yes","1024"
"2.892836167","10.01","5","soft","word","88.70967741935483","88.70967741935483","633.483870967742","633.483870967742","black","no","legacy","legacy","legacy","0","uniform","1","undefined","undefined","undefined","1","j","0","0","0","0","61","0","0","0","61","0","57","61","57","0","57","3","61","0","61","Tue Feb 16 13:06:56 2021","The main experiment item","yes","Lexical_Decision_Task.osexp","C:/Users/Student/OneDrive/Documents/OpenSesame","no","Andale Mono","no","18","no","white","no","yes","576","legacy","57","57","3","C:/Users/Student/OneDrive/Documents/OpenSesame/subject-5206349.csv","legacy","Lentiform Loewenfeld","3.3.7","yes","yes","600bd7cfb6416f0113b04181","602110864497cf011d9c0822","0","j","NA","d","space","space","j","j","515","NA","4810","9677","1899","11725","515","2","legacy","1024","2","48000","-16","task","5206349","odd","NA","22128","28944","24132","144853","3073","14653","12753","145355","120562","144851","145355","144781","28943","145870","20433","144280","3064","133510","Lexical Decision Task","55","39276","62","yes","1024"
"3.303771854","0","9","dath","non-word","88.88888888888889","88.88888888888889","633.936507936508","633.936507936508","black","no","legacy","legacy","legacy","0","uniform","1","undefined","undefined","undefined","1","f","0","0","0","0","62","0","0","0","62","0","58","62","58","0","58","3","62","0","62","Tue Feb 16 13:06:56 2021","The main experiment item","yes","Lexical_Decision_Task.osexp","C:/Users/Student/OneDrive/Documents/OpenSesame","no","Andale Mono","no","18","no","white","no","yes","576","legacy","58","58","3","C:/Users/Student/OneDrive/Documents/OpenSesame/subject-5206349.csv","legacy","Lentiform Loewenfeld","3.3.7","yes","yes","600bd7cfb6416f0113b04181","602110864497cf011d9c0822","0","f","NA","d","space","space","j","f","662","NA","4810","9677","1899","11725","662","2","legacy","1024","2","48000","-16","task","5206349","odd","NA","22128","28944","24132","146453","3073","14653","12753","146955","120562","146451","146955","146387","28943","147618","20433","145887","3064","133510","Lexical Decision Task","56","39938","63","yes","1024"
"3.29439347","8.6","9","wand","word","89.0625","89.0625","632.09375","632.09375","black","no","legacy","legacy","legacy","0","uniform","1","undefined","undefined","undefined","1","j","0","0","0","0","63","0","0","0","63","0","59","63","59","0","59","3","63","0","63","Tue Feb 16 13:06:56 2021","The main experiment item","yes","Lexical_Decision_Task.osexp","C:/Users/Student/OneDrive/Documents/OpenSesame","no","Andale Mono","no","18","no","white","no","yes","576","legacy","59","59","3","C:/Users/Student/OneDrive/Documents/OpenSesame/subject-5206349.csv","legacy","Lentiform Loewenfeld","3.3.7","yes","yes","600bd7cfb6416f0113b04181","602110864497cf011d9c0822","0","j","NA","d","space","space","j","j","516","NA","4810","9677","1899","11725","516","2","legacy","1024","2","48000","-16","task","5206349","odd","NA","22128","28944","24132","148196","3073","14653","12753","148698","120562","148194","148698","148122","28943","149216","20433","147622","3064","133510","Lexical Decision Task","57","40454","64","yes","1024"
"2.981215883","10.66","5","hair","word","89.23076923076923","89.23076923076923","629.5230769230769","629.5230769230769","black","no","legacy","legacy","legacy","0","uniform","1","undefined","undefined","undefined","1","j","0","0","0","0","64","0","0","0","64","0","60","64","60","0","60","3","64","0","64","Tue Feb 16 13:06:56 2021","The main experiment item","yes","Lexical_Decision_Task.osexp","C:/Users/Student/OneDrive/Documents/OpenSesame","no","Andale Mono","no","18","no","white","no","yes","576","legacy","60","60","3","C:/Users/Student/OneDrive/Documents/OpenSesame/subject-5206349.csv","legacy","Lentiform Loewenfeld","3.3.7","yes","yes","600bd7cfb6416f0113b04181","602110864497cf011d9c0822","0","j","NA","d","space","space","j","j","465","NA","4810","9677","1899","11725","465","2","legacy","1024","2","48000","-16","task","5206349","odd","NA","22128","28944","24132","149794","3073","14653","12753","150296","120562","149793","150296","149724","28943","150763","20433","149224","3064","133510","Lexical Decision Task","58","40919","65","yes","1024"
"2.9737419","7.69","7","claw","word","89.39393939393939","89.39393939393939","626.8181818181819","626.8181818181819","black","no","legacy","legacy","legacy","0","uniform","1","undefined","undefined","undefined","1","j","0","0","0","0","65","0","0","0","65","0","61","65","61","0","61","3","65","0","65","Tue Feb 16 13:06:56 2021","The main experiment item","yes","Lexical_Decision_Task.osexp","C:/Users/Student/OneDrive/Documents/OpenSesame","no","Andale Mono","no","18","no","white","no","yes","576","legacy","61","61","3","C:/Users/Student/OneDrive/Documents/OpenSesame/subject-5206349.csv","legacy","Lentiform Loewenfeld","3.3.7","yes","yes","600bd7cfb6416f0113b04181","602110864497cf011d9c0822","0","j","NA","d","space","space","j","j","451","NA","4810","9677","1899","11725","451","2","legacy","1024","2","48000","-16","task","5206349","odd","NA","22128","28944","24132","151333","3073","14653","12753","151835","120562","151331","151835","151272","28943","152288","20433","150772","3064","133510","Lexical Decision Task","59","41370","66","yes","1024"
"3.049218023","7.4","9","robe","word","89.55223880597015","89.55223880597015","625.6119402985074","625.6119402985074","black","no","legacy","legacy","legacy","0","uniform","1","undefined","undefined","undefined","1","j","0","0","0","0","66","0","0","0","66","0","62","66","62","0","62","3","66","0","66","Tue Feb 16 13:06:56 2021","The main experiment item","yes","Lexical_Decision_Task.osexp","C:/Users/Student/OneDrive/Documents/OpenSesame","no","Andale Mono","no","18","no","white","no","yes","576","legacy","62","62","3","C:/Users/Student/OneDrive/Documents/OpenSesame/subject-5206349.csv","legacy","Lentiform Loewenfeld","3.3.7","yes","yes","600bd7cfb6416f0113b04181","602110864497cf011d9c0822","0","j","NA","d","space","space","j","j","546","NA","4810","9677","1899","11725","546","2","legacy","1024","2","48000","-16","task","5206349","odd","NA","22128","28944","24132","152865","3073","14653","12753","153367","120562","152864","153367","152790","28943","153914","20433","152290","3064","133510","Lexical Decision Task","60","41916","67","yes","1024"
"3.156347201","0","8","lasp","non-word","88.23529411764706","88.23529411764706","623.1617647058823","623.1617647058823","black","no","legacy","legacy","legacy","0","uniform","0","undefined","undefined","undefined","0","f","0","0","0","0","67","0","0","0","67","0","63","67","63","0","63","3","67","0","67","Tue Feb 16 13:06:56 2021","The main experiment item","yes","Lexical_Decision_Task.osexp","C:/Users/Student/OneDrive/Documents/OpenSesame","no","Andale Mono","no","18","no","white","no","yes","576","legacy","63","63","3","C:/Users/Student/OneDrive/Documents/OpenSesame/subject-5206349.csv","legacy","Lentiform Loewenfeld","3.3.7","yes","yes","600bd7cfb6416f0113b04181","602110864497cf011d9c0822","0","j","NA","d","space","space","j","j","459","NA","4810","9677","1899","11725","459","2","legacy","1024","2","48000","-16","task","5206349","odd","NA","22128","28944","24132","154486","3073","14653","12753","154988","120562","154484","154988","154424","28943","155447","20433","153924","3064","133510","Lexical Decision Task","60","42375","68","yes","1024"
"3.259832699","0","9","flar","non-word","88.40579710144928","88.40579710144928","624.7246376811594","624.7246376811594","black","no","legacy","legacy","legacy","0","uniform","1","undefined","undefined","undefined","1","f","0","0","0","0","68","0","0","0","68","0","64","68","64","0","64","3","68","0","68","Tue Feb 16 13:06:56 2021","The main experiment item","yes","Lexical_Decision_Task.osexp","C:/Users/Student/OneDrive/Documents/OpenSesame","no","Andale Mono","no","18","no","white","no","yes","576","legacy","64","64","3","C:/Users/Student/OneDrive/Documents/OpenSesame/subject-5206349.csv","legacy","Lentiform Loewenfeld","3.3.7","yes","yes","600bd7cfb6416f0113b04181","602110864497cf011d9c0822","0","f","NA","d","space","space","j","f","731","NA","4810","9677","1899","11725","731","2","legacy","1024","2","48000","-16","task","5206349","odd","NA","22128","28944","24132","157030","3073","14653","12753","157532","120562","157029","157533","156963","28943","158265","20433","153924","3064","155463","Lexical Decision Task","61","43106","69","yes","1024"
"3.374198258","0","8","vist","non-word","87.14285714285714","87.14285714285714","625.1571428571428","625.1571428571428","black","no","legacy","legacy","legacy","0","uniform","0","undefined","undefined","undefined","0","f","0","0","0","0","69","0","0","0","69","0","65","69","65","0","65","3","69","0","69","Tue Feb 16 13:06:56 2021","The main experiment item","yes","Lexical_Decision_Task.osexp","C:/Users/Student/OneDrive/Documents/OpenSesame","no","Andale Mono","no","18","no","white","no","yes","576","legacy","65","65","3","C:/Users/Student/OneDrive/Documents/OpenSesame/subject-5206349.csv","legacy","Lentiform Loewenfeld","3.3.7","yes","yes","600bd7cfb6416f0113b04181","602110864497cf011d9c0822","0","j","NA","d","space","space","j","j","655","NA","4810","9677","1899","11725","655","2","legacy","1024","2","48000","-16","task","5206349","odd","NA","22128","28944","24132","158846","3073","14653","12753","159348","120562","158844","159348","158781","28943","160004","20433","158281","3064","155463","Lexical Decision Task","61","43761","70","yes","1024"
"3.529815197","0","3","lerm","non-word","87.32394366197182","87.32394366197182","628.0704225352113","628.0704225352113","black","no","legacy","legacy","legacy","0","uniform","1","undefined","undefined","undefined","1","f","0","0","0","0","70","0","0","0","70","0","66","70","66","0","66","3","70","0","70","Tue Feb 16 13:06:56 2021","The main experiment item","yes","Lexical_Decision_Task.osexp","C:/Users/Student/OneDrive/Documents/OpenSesame","no","Andale Mono","no","18","no","white","no","yes","576","legacy","66","66","3","C:/Users/Student/OneDrive/Documents/OpenSesame/subject-5206349.csv","legacy","Lentiform Loewenfeld","3.3.7","yes","yes","600bd7cfb6416f0113b04181","602110864497cf011d9c0822","0","f","NA","d","space","space","j","f","832","NA","4810","9677","1899","11725","832","2","legacy","1024","2","48000","-16","task","5206349","odd","NA","22128","28944","24132","161580","3073","14653","12753","162082","120562","161579","162082","161514","28943","162915","20433","158281","3064","160013","Lexical Decision Task","62","44593","71","yes","1024"
"2.594027722","9.08","8","skip","word","87.5","87.5","625.4444444444445","625.4444444444445","black","no","legacy","legacy","legacy","0","uniform","1","undefined","undefined","undefined","1","j","0","0","0","0","71","0","0","0","71","0","67","71","67","0","67","3","71","0","71","Tue Feb 16 13:06:56 2021","The main experiment item","yes","Lexical_Decision_Task.osexp","C:/Users/Student/OneDrive/Documents/OpenSesame","no","Andale Mono","no","18","no","white","no","yes","576","legacy","67","67","3","C:/Users/Student/OneDrive/Documents/OpenSesame/subject-5206349.csv","legacy","Lentiform Loewenfeld","3.3.7","yes","yes","600bd7cfb6416f0113b04181","602110864497cf011d9c0822","0","j","NA","d","space","space","j","j","439","NA","4810","9677","1899","11725","439","2","legacy","1024","2","48000","-16","task","5206349","odd","NA","22128","28944","24132","163485","3073","14653","12753","163987","120562","163484","163988","163424","28943","164428","20433","162924","3064","160013","Lexical Decision Task","63","45032","72","yes","1024"
"3.105055783","0","2","norp","non-word","87.67123287671232","87.67123287671232","623.4794520547945","623.4794520547945","black","no","legacy","legacy","legacy","0","uniform","1","undefined","undefined","undefined","1","f","0","0","0","0","72","0","0","0","72","0","68","72","68","0","68","3","72","0","72","Tue Feb 16 13:06:56 2021","The main experiment item","yes","Lexical_Decision_Task.osexp","C:/Users/Student/OneDrive/Documents/OpenSesame","no","Andale Mono","no","18","no","white","no","yes","576","legacy","68","68","3","C:/Users/Student/OneDrive/Documents/OpenSesame/subject-5206349.csv","legacy","Lentiform Loewenfeld","3.3.7","yes","yes","600bd7cfb6416f0113b04181","602110864497cf011d9c0822","0","f","NA","d","space","space","j","f","482","NA","4810","9677","1899","11725","482","2","legacy","1024","2","48000","-16","task","5206349","odd","NA","22128","28944","24132","165001","3073","14653","12753","165505","120562","165000","165505","164936","28943","165988","20433","164436","3064","160013","Lexical Decision Task","64","45514","73","yes","1024"
"3.531734309","0","6","lerd","non-word","87.83783783783784","87.83783783783784","623.1891891891892","623.1891891891892","black","no","legacy","legacy","legacy","0","uniform","1","undefined","undefined","undefined","1","f","0","0","0","0","73","0","0","0","73","0","69","73","69","0","69","3","73","0","73","Tue Feb 16 13:06:56 2021","The main experiment item","yes","Lexical_Decision_Task.osexp","C:/Users/Student/OneDrive/Documents/OpenSesame","no","Andale Mono","no","18","no","white","no","yes","576","legacy","69","69","3","C:/Users/Student/OneDrive/Documents/OpenSesame/subject-5206349.csv","legacy","Lentiform Loewenfeld","3.3.7","yes","yes","600bd7cfb6416f0113b04181","602110864497cf011d9c0822","0","f","NA","d","space","space","j","f","602","NA","4810","9677","1899","11725","602","2","legacy","1024","2","48000","-16","task","5206349","odd","NA","22128","28944","24132","166576","3073","14653","12753","167078","120562","166573","167078","166497","28943","167681","20433","165997","3064","160013","Lexical Decision Task","65","46116","74","yes","1024"
"3.397302518","7.01","2","knit","word","88","88","622.1733333333333","622.1733333333333","black","no","legacy","legacy","legacy","0","uniform","1","undefined","undefined","undefined","1","j","0","0","0","0","74","0","0","0","74","0","70","74","70","0","70","3","74","0","74","Tue Feb 16 13:06:56 2021","The main experiment item","yes","Lexical_Decision_Task.osexp","C:/Users/Student/OneDrive/Documents/OpenSesame","no","Andale Mono","no","18","no","white","no","yes","576","legacy","70","70","3","C:/Users/Student/OneDrive/Documents/OpenSesame/subject-5206349.csv","legacy","Lentiform Loewenfeld","3.3.7","yes","yes","600bd7cfb6416f0113b04181","602110864497cf011d9c0822","0","j","NA","d","space","space","j","j","547","NA","4810","9677","1899","11725","547","2","legacy","1024","2","48000","-16","task","5206349","odd","NA","22128","28944","24132","168263","3073","14653","12753","168766","120562","168262","168766","168197","28943","169313","20433","167697","3064","160013","Lexical Decision Task","66","46663","75","yes","1024"
"3.149629599","0","2","cleb","non-word","88.15789473684211","88.15789473684211","620.1973684210526","620.1973684210526","black","no","legacy","legacy","legacy","0","uniform","1","undefined","undefined","undefined","1","f","0","0","0","0","75","0","0","0","75","0","71","75","71","0","71","3","75","0","75","Tue Feb 16 13:06:56 2021","The main experiment item","yes","Lexical_Decision_Task.osexp","C:/Users/Student/OneDrive/Documents/OpenSesame","no","Andale Mono","no","18","no","white","no","yes","576","legacy","71","71","3","C:/Users/Student/OneDrive/Documents/OpenSesame/subject-5206349.csv","legacy","Lentiform Loewenfeld","3.3.7","yes","yes","600bd7cfb6416f0113b04181","602110864497cf011d9c0822","0","f","NA","d","space","space","j","f","472","NA","4810","9677","1899","11725","472","2","legacy","1024","2","48000","-16","task","5206349","odd","NA","22128","28944","24132","169906","3073","14653","12753","170408","120562","169904","170408","169831","28943","170881","20433","169331","3064","160013","Lexical Decision Task","67","47135","76","yes","1024"
"2.695770526","7.34","6","pawn","word","88.31168831168831","88.31168831168831","618.5714285714286","618.5714285714286","black","no","legacy","legacy","legacy","0","uniform","1","undefined","undefined","undefined","1","j","0","0","0","0","76","0","0","0","76","0","72","76","72","0","72","3","76","0","76","Tue Feb 16 13:06:56 2021","The main experiment item","yes","Lexical_Decision_Task.osexp","C:/Users/Student/OneDrive/Documents/OpenSesame","no","Andale Mono","no","18","no","white","no","yes","576","legacy","72","72","3","C:/Users/Student/OneDrive/Documents/OpenSesame/subject-5206349.csv","legacy","Lentiform Loewenfeld","3.3.7","yes","yes","600bd7cfb6416f0113b04181","602110864497cf011d9c0822","0","j","NA","d","space","space","j","j","495","NA","4810","9677","1899","11725","495","2","legacy","1024","2","48000","-16","task","5206349","odd","NA","22128","28944","24132","171458","3073","14653","12753","171960","120562","171457","171961","171390","28943","172457","20433","170890","3064","160013","Lexical Decision Task","68","47630","77","yes","1024"
"2.771097306","0","9","jold","non-word","88.46153846153847","88.46153846153847","617.8589743589744","617.8589743589744","black","no","legacy","legacy","legacy","0","uniform","1","undefined","undefined","undefined","1","f","0","0","0","0","77","0","0","0","77","0","73","77","73","0","73","3","77","0","77","Tue Feb 16 13:06:56 2021","The main experiment item","yes","Lexical_Decision_Task.osexp","C:/Users/Student/OneDrive/Documents/OpenSesame","no","Andale Mono","no","18","no","white","no","yes","576","legacy","73","73","3","C:/Users/Student/OneDrive/Documents/OpenSesame/subject-5206349.csv","legacy","Lentiform Loewenfeld","3.3.7","yes","yes","600bd7cfb6416f0113b04181","602110864497cf011d9c0822","0","f","NA","d","space","space","j","f","563","NA","4810","9677","1899","11725","563","2","legacy","1024","2","48000","-16","task","5206349","odd","NA","22128","28944","24132","173039","3073","14653","12753","173541","120562","173038","173541","172967","28943","174105","20433","172467","3064","160013","Lexical Decision Task","69","48193","78","yes","1024"
"3.705778213","0","6","stin","non-word","88.60759493670886","88.60759493670886","617.0886075949367","617.0886075949367","black","no","legacy","legacy","legacy","0","uniform","1","undefined","undefined","undefined","1","f","0","0","0","0","78","0","0","0","78","0","74","78","74","0","74","3","78","0","78","Tue Feb 16 13:06:56 2021","The main experiment item","yes","Lexical_Decision_Task.osexp","C:/Users/Student/OneDrive/Documents/OpenSesame","no","Andale Mono","no","18","no","white","no","yes","576","legacy","74","74","3","C:/Users/Student/OneDrive/Documents/OpenSesame/subject-5206349.csv","legacy","Lentiform Loewenfeld","3.3.7","yes","yes","600bd7cfb6416f0113b04181","602110864497cf011d9c0822","0","f","NA","d","space","space","j","f","557","NA","4810","9677","1899","11725","557","2","legacy","1024","2","48000","-16","task","5206349","odd","NA","22128","28944","24132","174682","3073","14653","12753","175185","120562","174680","175185","174614","28943","175743","20433","174114","3064","160013","Lexical Decision Task","70","48750","79","yes","1024"
"2.82129731","6.72","5","plum","word","88.75","88.75","615.1625","615.1625","black","no","legacy","legacy","legacy","0","uniform","1","undefined","undefined","undefined","1","j","0","0","0","0","79","0","0","0","79","0","75","79","75","0","75","3","79","0","79","Tue Feb 16 13:06:56 2021","The main experiment item","yes","Lexical_Decision_Task.osexp","C:/Users/Student/OneDrive/Documents/OpenSesame","no","Andale Mono","no","18","no","white","no","yes","576","legacy","75","75","3","C:/Users/Student/OneDrive/Documents/OpenSesame/subject-5206349.csv","legacy","Lentiform Loewenfeld","3.3.7","yes","yes","600bd7cfb6416f0113b04181","602110864497cf011d9c0822","0","j","NA","d","space","space","j","j","463","NA","4810","9677","1899","11725","463","2","legacy","1024","2","48000","-16","task","5206349","odd","NA","22128","28944","24132","176313","3073","14653","12753","176815","120562","176312","176815","176252","28943","177279","20433","175752","3064","160013","Lexical Decision Task","71","49213","80","yes","1024"
"3.043885998","0","9","gome","non-word","88.88888888888889","88.88888888888889","618.0493827160494","618.0493827160494","black","no","legacy","legacy","legacy","0","uniform","1","undefined","undefined","undefined","1","f","0","0","0","0","80","0","0","0","80","0","76","80","76","0","76","3","80","0","80","Tue Feb 16 13:06:56 2021","The main experiment item","yes","Lexical_Decision_Task.osexp","C:/Users/Student/OneDrive/Documents/OpenSesame","no","Andale Mono","no","18","no","white","no","yes","576","legacy","76","76","3","C:/Users/Student/OneDrive/Documents/OpenSesame/subject-5206349.csv","legacy","Lentiform Loewenfeld","3.3.7","yes","yes","600bd7cfb6416f0113b04181","602110864497cf011d9c0822","0","f","NA","d","space","space","j","f","849","NA","4810","9677","1899","11725","849","2","legacy","1024","2","48000","-16","task","5206349","odd","NA","22128","28944","24132","177845","3073","14653","12753","178347","120562","177844","178347","177783","28943","179196","20433","177283","3064","160013","Lexical Decision Task","72","50062","81","yes","1024"
"2.698100546","0","9","mulk","non-word","89.02439024390245","89.02439024390245","619.109756097561","619.109756097561","black","no","legacy","legacy","legacy","0","uniform","1","undefined","undefined","undefined","1","f","0","0","0","0","81","0","0","0","81","0","77","81","77","0","77","3","81","0","81","Tue Feb 16 13:06:56 2021","The main experiment item","yes","Lexical_Decision_Task.osexp","C:/Users/Student/OneDrive/Documents/OpenSesame","no","Andale Mono","no","18","no","white","no","yes","576","legacy","77","77","3","C:/Users/Student/OneDrive/Documents/OpenSesame/subject-5206349.csv","legacy","Lentiform Loewenfeld","3.3.7","yes","yes","600bd7cfb6416f0113b04181","602110864497cf011d9c0822","0","f","NA","d","space","space","j","f","705","NA","4810","9677","1899","11725","705","2","legacy","1024","2","48000","-16","task","5206349","odd","NA","22128","28944","24132","179783","3073","14653","12753","180286","120562","179782","180286","179705","28943","180992","20433","179205","3064","160013","Lexical Decision Task","73","50767","82","yes","1024"
"2.858136002","0","4","phip","non-word","89.1566265060241","89.1566265060241","617.3253012048193","617.3253012048193","black","no","legacy","legacy","legacy","0","uniform","1","undefined","undefined","undefined","1","f","0","0","0","0","82","0","0","0","82","0","78","82","78","0","78","3","82","0","82","Tue Feb 16 13:06:56 2021","The main experiment item","yes","Lexical_Decision_Task.osexp","C:/Users/Student/OneDrive/Documents/OpenSesame","no","Andale Mono","no","18","no","white","no","yes","576","legacy","78","78","3","C:/Users/Student/OneDrive/Documents/OpenSesame/subject-5206349.csv","legacy","Lentiform Loewenfeld","3.3.7","yes","yes","600bd7cfb6416f0113b04181","602110864497cf011d9c0822","0","f","NA","d","space","space","j","f","471","NA","4810","9677","1899","11725","471","2","legacy","1024","2","48000","-16","task","5206349","odd","NA","22128","28944","24132","181568","3073","14653","12753","182071","120562","181567","182071","181501","28943","182544","20433","181001","3064","160013","Lexical Decision Task","74","51238","83","yes","1024"
"2.664011697","8.19","4","hawk","word","89.28571428571429","89.28571428571429","617.1071428571429","617.1071428571429","black","no","legacy","legacy","legacy","0","uniform","1","undefined","undefined","undefined","1","j","0","0","0","0","83","0","0","0","83","0","79","83","79","0","79","3","83","0","83","Tue Feb 16 13:06:56 2021","The main experiment item","yes","Lexical_Decision_Task.osexp","C:/Users/Student/OneDrive/Documents/OpenSesame","no","Andale Mono","no","18","no","white","no","yes","576","legacy","79","79","3","C:/Users/Student/OneDrive/Documents/OpenSesame/subject-5206349.csv","legacy","Lentiform Loewenfeld","3.3.7","yes","yes","600bd7cfb6416f0113b04181","602110864497cf011d9c0822","0","j","NA","d","space","space","j","j","599","NA","4810","9677","1899","11725","599","2","legacy","1024","2","48000","-16","task","5206349","odd","NA","22128","28944","24132","183121","3073","14653","12753","183623","120562","183120","183624","183055","28943","184224","20433","182553","3064","160013","Lexical Decision Task","75","51837","84","yes","1024"
"2.971428938","9.86","7","spot","word","89.41176470588235","89.41176470588235","615.2235294117647","615.2235294117647","black","no","legacy","legacy","legacy","0","uniform","1","undefined","undefined","undefined","1","j","0","0","0","0","84","0","0","0","84","0","80","84","80","0","80","3","84","0","84","Tue Feb 16 13:06:56 2021","The main experiment item","yes","Lexical_Decision_Task.osexp","C:/Users/Student/OneDrive/Documents/OpenSesame","no","Andale Mono","no","18","no","white","no","yes","576","legacy","80","80","3","C:/Users/Student/OneDrive/Documents/OpenSesame/subject-5206349.csv","legacy","Lentiform Loewenfeld","3.3.7","yes","yes","600bd7cfb6416f0113b04181","602110864497cf011d9c0822","0","j","NA","d","space","space","j","j","457","NA","4810","9677","1899","11725","457","2","legacy","1024","2","48000","-16","task","5206349","odd","NA","22128","28944","24132","184817","3073","14653","12753","185319","120562","184815","185319","184740","28943","185777","20433","184240","3064","160013","Lexical Decision Task","76","52294","85","yes","1024"
"2.996511672","0","7","hoil","non-word","89.53488372093024","89.53488372093024","617.5116279069767","617.5116279069767","black","no","legacy","legacy","legacy","0","uniform","1","undefined","undefined","undefined","1","f","0","0","0","0","85","0","0","0","85","0","81","85","81","0","81","3","85","0","85","Tue Feb 16 13:06:56 2021","The main experiment item","yes","Lexical_Decision_Task.osexp","C:/Users/Student/OneDrive/Documents/OpenSesame","no","Andale Mono","no","18","no","white","no","yes","576","legacy","81","81","3","C:/Users/Student/OneDrive/Documents/OpenSesame/subject-5206349.csv","legacy","Lentiform Loewenfeld","3.3.7","yes","yes","600bd7cfb6416f0113b04181","602110864497cf011d9c0822","0","f","NA","d","space","space","j","f","812","NA","4810","9677","1899","11725","812","2","legacy","1024","2","48000","-16","task","5206349","odd","NA","22128","28944","24132","186355","3073","14653","12753","186857","120562","186354","186857","186281","28943","187670","20433","185781","3064","160013","Lexical Decision Task","77","53106","86","yes","1024"
"2.728085817","10.02","9","bike","word","89.65517241379311","89.65517241379311","615.6321839080459","615.6321839080459","black","no","legacy","legacy","legacy","0","uniform","1","undefined","undefined","undefined","1","j","0","0","0","0","86","0","0","0","86","0","82","86","82","0","82","3","86","0","86","Tue Feb 16 13:06:56 2021","The main experiment item","yes","Lexical_Decision_Task.osexp","C:/Users/Student/OneDrive/Documents/OpenSesame","no","Andale Mono","no","18","no","white","no","yes","576","legacy","82","82","3","C:/Users/Student/OneDrive/Documents/OpenSesame/subject-5206349.csv","legacy","Lentiform Loewenfeld","3.3.7","yes","yes","600bd7cfb6416f0113b04181","602110864497cf011d9c0822","0","j","NA","d","space","space","j","j","454","NA","4810","9677","1899","11725","454","2","legacy","1024","2","48000","-16","task","5206349","odd","NA","22128","28944","24132","188244","3073","14653","12753","188747","120562","188243","188747","188181","28943","189201","20433","187681","3064","160013","Lexical Decision Task","78","53560","87","yes","1024"
"3.2757719","0","5","slea","non-word","89.77272727272727","89.77272727272727","614.1818181818181","614.1818181818181","black","no","legacy","legacy","legacy","0","uniform","1","undefined","undefined","undefined","1","f","0","0","0","0","87","0","0","0","87","0","83","87","83","0","83","3","87","0","87","Tue Feb 16 13:06:56 2021","The main experiment item","yes","Lexical_Decision_Task.osexp","C:/Users/Student/OneDrive/Documents/OpenSesame","no","Andale Mono","no","18","no","white","no","yes","576","legacy","83","83","3","C:/Users/Student/OneDrive/Documents/OpenSesame/subject-5206349.csv","legacy","Lentiform Loewenfeld","3.3.7","yes","yes","600bd7cfb6416f0113b04181","602110864497cf011d9c0822","0","f","NA","d","space","space","j","f","488","NA","4810","9677","1899","11725","488","2","legacy","1024","2","48000","-16","task","5206349","odd","NA","22128","28944","24132","189778","3073","14653","12753","190281","120562","189777","190282","189711","28943","190771","20433","189211","3064","160013","Lexical Decision Task","79","54048","88","yes","1024"
"2.809559715","8.44","4","volt","word","89.88764044943821","89.88764044943821","616.5730337078652","616.5730337078652","black","no","legacy","legacy","legacy","0","uniform","1","undefined","undefined","undefined","1","j","0","0","0","0","88","0","0","0","88","0","84","88","84","0","84","3","88","0","88","Tue Feb 16 13:06:56 2021","The main experiment item","yes","Lexical_Decision_Task.osexp","C:/Users/Student/OneDrive/Documents/OpenSesame","no","Andale Mono","no","18","no","white","no","yes","576","legacy","84","84","3","C:/Users/Student/OneDrive/Documents/OpenSesame/subject-5206349.csv","legacy","Lentiform Loewenfeld","3.3.7","yes","yes","600bd7cfb6416f0113b04181","602110864497cf011d9c0822","0","j","NA","d","space","space","j","j","827","NA","4810","9677","1899","11725","827","2","legacy","1024","2","48000","-16","task","5206349","odd","NA","22128","28944","24132","191348","3073","14653","12753","191851","120562","191347","191851","191278","28943","192678","20433","190778","3064","160013","Lexical Decision Task","80","54875","89","yes","1024"
"2.807758206","6.25","4","hurl","word","88.88888888888889","88.88888888888889","617.1444444444444","617.1444444444444","black","no","legacy","legacy","legacy","0","uniform","0","undefined","undefined","undefined","0","j","0","0","0","0","89","0","0","0","89","0","85","89","85","0","85","3","89","0","89","Tue Feb 16 13:06:56 2021","The main experiment item","yes","Lexical_Decision_Task.osexp","C:/Users/Student/OneDrive/Documents/OpenSesame","no","Andale Mono","no","18","no","white","no","yes","576","legacy","85","85","3","C:/Users/Student/OneDrive/Documents/OpenSesame/subject-5206349.csv","legacy","Lentiform Loewenfeld","3.3.7","yes","yes","600bd7cfb6416f0113b04181","602110864497cf011d9c0822","0","f","NA","d","space","space","j","f","668","NA","4810","9677","1899","11725","668","2","legacy","1024","2","48000","-16","task","5206349","odd","NA","22128","28944","24132","193264","3073","14653","12753","193766","120562","193262","193766","193187","28943","194435","20433","192687","3064","160013","Lexical Decision Task","80","55543","90","yes","1024"
"3.276537627","9.15","5","trap","word","89.01098901098901","89.01098901098901","616.2197802197802","616.2197802197802","black","no","legacy","legacy","legacy","0","uniform","1","undefined","undefined","undefined","1","j","0","0","0","0","90","0","0","0","90","0","86","90","86","0","86","3","90","0","90","Tue Feb 16 13:06:56 2021","The main experiment item","yes","Lexical_Decision_Task.osexp","C:/Users/Student/OneDrive/Documents/OpenSesame","no","Andale Mono","no","18","no","white","no","yes","576","legacy","86","86","3","C:/Users/Student/OneDrive/Documents/OpenSesame/subject-5206349.csv","legacy","Lentiform Loewenfeld","3.3.7","yes","yes","600bd7cfb6416f0113b04181","602110864497cf011d9c0822","0","j","NA","d","space","space","j","j","533","NA","4810","9677","1899","11725","533","2","legacy","1024","2","48000","-16","task","5206349","odd","NA","22128","28944","24132","196021","3073","14653","12753","196524","120562","196020","196524","195943","28943","197057","20433","192687","3064","194443","Lexical Decision Task","81","56076","91","yes","1024"
"3.140404328","10.66","9","deep","word","89.1304347826087","89.1304347826087","619.4782608695652","619.4782608695652","black","no","legacy","legacy","legacy","0","uniform","1","undefined","undefined","undefined","1","j","0","0","0","0","91","0","0","0","91","0","87","91","87","0","87","3","91","0","91","Tue Feb 16 13:06:56 2021","The main experiment item","yes","Lexical_Decision_Task.osexp","C:/Users/Student/OneDrive/Documents/OpenSesame","no","Andale Mono","no","18","no","white","no","yes","576","legacy","87","87","3","C:/Users/Student/OneDrive/Documents/OpenSesame/subject-5206349.csv","legacy","Lentiform Loewenfeld","3.3.7","yes","yes","600bd7cfb6416f0113b04181","602110864497cf011d9c0822","0","j","NA","d","space","space","j","j","916","NA","4810","9677","1899","11725","916","2","legacy","1024","2","48000","-16","task","5206349","odd","NA","22128","28944","24132","197637","3073","14653","12753","198140","120562","197635","198140","197566","28943","199057","20433","197066","3064","194443","Lexical Decision Task","82","56992","92","yes","1024"
"3.133964479","0","8","graw","non-word","89.24731182795699","89.24731182795699","619.0215053763441","619.0215053763441","black","no","legacy","legacy","legacy","0","uniform","1","undefined","undefined","undefined","1","f","0","0","0","0","92","0","0","0","92","0","88","92","88","0","88","3","92","0","92","Tue Feb 16 13:06:56 2021","The main experiment item","yes","Lexical_Decision_Task.osexp","C:/Users/Student/OneDrive/Documents/OpenSesame","no","Andale Mono","no","18","no","white","no","yes","576","legacy","88","88","3","C:/Users/Student/OneDrive/Documents/OpenSesame/subject-5206349.csv","legacy","Lentiform Loewenfeld","3.3.7","yes","yes","600bd7cfb6416f0113b04181","602110864497cf011d9c0822","0","f","NA","d","space","space","j","f","577","NA","4810","9677","1899","11725","577","2","legacy","1024","2","48000","-16","task","5206349","odd","NA","22128","28944","24132","199629","3073","14653","12753","200132","120562","199628","200132","199573","28943","200709","20433","199073","3064","194443","Lexical Decision Task","83","57569","93","yes","1024"
"3.374137706","10.21","4","tree","word","89.36170212765957","89.36170212765957","617.9787234042553","617.9787234042553","black","no","legacy","legacy","legacy","0","uniform","1","undefined","undefined","undefined","1","j","0","0","0","0","93","0","0","0","93","0","89","93","89","0","89","3","93","0","93","Tue Feb 16 13:06:56 2021","The main experiment item","yes","Lexical_Decision_Task.osexp","C:/Users/Student/OneDrive/Documents/OpenSesame","no","Andale Mono","no","18","no","white","no","yes","576","legacy","89","89","3","C:/Users/Student/OneDrive/Documents/OpenSesame/subject-5206349.csv","legacy","Lentiform Loewenfeld","3.3.7","yes","yes","600bd7cfb6416f0113b04181","602110864497cf011d9c0822","0","j","NA","d","space","space","j","j","521","NA","4810","9677","1899","11725","521","2","legacy","1024","2","48000","-16","task","5206349","odd","NA","22128","28944","24132","201287","3073","14653","12753","201789","120562","201286","201789","201225","28943","202311","20433","200725","3064","194443","Lexical Decision Task","84","58090","94","yes","1024"
"2.576725172","0","8","gowl","non-word","89.47368421052632","89.47368421052632","617.3368421052631","617.3368421052631","black","no","legacy","legacy","legacy","0","uniform","1","undefined","undefined","undefined","1","f","0","0","0","0","94","0","0","0","94","0","90","94","90","0","90","3","94","0","94","Tue Feb 16 13:06:56 2021","The main experiment item","yes","Lexical_Decision_Task.osexp","C:/Users/Student/OneDrive/Documents/OpenSesame","no","Andale Mono","no","18","no","white","no","yes","576","legacy","90","90","3","C:/Users/Student/OneDrive/Documents/OpenSesame/subject-5206349.csv","legacy","Lentiform Loewenfeld","3.3.7","yes","yes","600bd7cfb6416f0113b04181","602110864497cf011d9c0822","0","f","NA","d","space","space","j","f","557","NA","4810","9677","1899","11725","557","2","legacy","1024","2","48000","-16","task","5206349","odd","NA","22128","28944","24132","202883","3073","14653","12753","203385","120562","202880","203385","202814","28943","203944","20433","202314","3064","194443","Lexical Decision Task","85","58647","95","yes","1024"
"2.68604012","0","4","pumb","non-word","89.58333333333333","89.58333333333333","619.1041666666666","619.1041666666666","black","no","legacy","legacy","legacy","0","uniform","1","undefined","undefined","undefined","1","f","0","0","0","0","95","0","0","0","95","0","91","95","91","0","91","3","95","0","95","Tue Feb 16 13:06:56 2021","The main experiment item","yes","Lexical_Decision_Task.osexp","C:/Users/Student/OneDrive/Documents/OpenSesame","no","Andale Mono","no","18","no","white","no","yes","576","legacy","91","91","3","C:/Users/Student/OneDrive/Documents/OpenSesame/subject-5206349.csv","legacy","Lentiform Loewenfeld","3.3.7","yes","yes","600bd7cfb6416f0113b04181","602110864497cf011d9c0822","0","f","NA","d","space","space","j","f","787","NA","4810","9677","1899","11725","787","2","legacy","1024","2","48000","-16","task","5206349","odd","NA","22128","28944","24132","204527","3073","14653","12753","205030","120562","204526","205030","204452","28943","205818","20433","203952","3064","194443","Lexical Decision Task","86","59434","96","yes","1024"
"2.67699827","0","6","hulf","non-word","88.65979381443299","88.65979381443299","617.5257731958762","617.5257731958762","black","no","legacy","legacy","legacy","0","uniform","0","undefined","undefined","undefined","0","f","0","0","0","0","96","0","0","0","96","0","92","96","92","0","92","3","96","0","96","Tue Feb 16 13:06:56 2021","The main experiment item","yes","Lexical_Decision_Task.osexp","C:/Users/Student/OneDrive/Documents/OpenSesame","no","Andale Mono","no","18","no","white","no","yes","576","legacy","92","92","3","C:/Users/Student/OneDrive/Documents/OpenSesame/subject-5206349.csv","legacy","Lentiform Loewenfeld","3.3.7","yes","yes","600bd7cfb6416f0113b04181","602110864497cf011d9c0822","0","j","NA","d","space","space","j","j","466","NA","4810","9677","1899","11725","466","2","legacy","1024","2","48000","-16","task","5206349","odd","NA","22128","28944","24132","206386","3073","14653","12753","206888","120562","206385","206888","206325","28943","207355","20433","205825","3064","194443","Lexical Decision Task","86","59900","97","yes","1024"
