"Log_BG","Log_Freq_HAL","Ortho_N","Stimulus","Type","acc","accuracy","average_response_time","avg_rt","background","bidi","canvas_backend","clock_backend","color_backend","compensation","coordinates","correct","correct_Experimental_intro","correct_Introduction","correct_Practice_intro","correct_experimenter_kb","correct_response","count_End_Of_Experiment","count_End_Of_Practice","count_Experimental_Loop","count_Experimental_intro","count_Fixation","count_Introduction","count_Practice_Loop","count_Practice_intro","count_Stimulus","count_block_break_feedback","count_experimental_sequence","count_experimenter_kb","count_increment_trial_count","count_init_trial_count","count_logger","count_practice_sequence","count_right","count_task","count_wrong","datetime","description","disable_garbage_collection","experiment_file","experiment_path","font_bold","font_family","font_italic","font_size","font_underline","foreground","form_clicks","fullscreen","height","keyboard_backend","live_row","live_row_Experimental_Loop","live_row_Practice_Loop","logfile","mouse_backend","opensesame_codename","opensesame_version","osf_always_upload_data","osf_always_upload_experiment","osf_datanode_id","osf_id","repeat_cycle","response","response_End_Of_Experiment","response_Experimental_intro","response_Introduction","response_Practice_intro","response_block_break_feedback","response_experimenter_kb","response_time","response_time_End_Of_Experiment","response_time_Experimental_intro","response_time_Introduction","response_time_Practice_intro","response_time_block_break_feedback","response_time_experimenter_kb","round_decimals","sampler_backend","sound_buf_size","sound_channels","sound_freq","sound_sample_size","start","subject_nr","subject_parity","time_End_Of_Experiment","time_End_Of_Practice","time_Experimental_Loop","time_Experimental_intro","time_Fixation","time_Introduction","time_Practice_Loop","time_Practice_intro","time_Stimulus","time_block_break_feedback","time_experimental_sequence","time_experimenter_kb","time_increment_trial_count","time_init_trial_count","time_logger","time_practice_sequence","time_right","time_task","time_wrong","title","total_correct","total_response_time","total_responses","uniform_coordinates","width"
"3.082307743","9.68","8","camp","word","100","100","966.6","966.6","black","no","legacy","legacy","legacy","0","uniform","1","undefined","undefined","undefined","1","j","0","0","0","0","4","0","0","0","4","NA","0","4","0","0","0","3","4","0","4","Fri Feb 19 15:04:47 2021","The main experiment item","yes","Lexical_Decision_Task.osexp","/Users/francescamasili","no","Andale Mono","no","18","no","white","no","yes","576","legacy","0","0","3","/Users/francescamasili/subject-5226303.csv","legacy","Lentiform Loewenfeld","3.3.7","yes","yes","600bd7cfb6416f0113b04181","602110864497cf011d9c0822","0","j","NA","space","space","space","NA","j","558","NA","722","4504","887","NA","558","2","legacy","1024","2","48000","-16","task","5226303","odd","NA","17604","20331","19608","20368","3615","9026","8136","20872","NA","20366","20872","NA","20331","21431","16052","17073","3605","NA","Lexical Decision Task","5","4833","5","yes","1024"
"3.081107167","0","6","chot","non-word","100","100","929.6666666666666","929.6666666666666","black","no","legacy","legacy","legacy","0","uniform","1","undefined","undefined","undefined","1","f","0","0","0","0","5","0","0","0","5","NA","1","5","1","0","1","3","5","0","5","Fri Feb 19 15:04:47 2021","The main experiment item","yes","Lexical_Decision_Task.osexp","/Users/francescamasili","no","Andale Mono","no","18","no","white","no","yes","576","legacy","1","1","3","/Users/francescamasili/subject-5226303.csv","legacy","Lentiform Loewenfeld","3.3.7","yes","yes","600bd7cfb6416f0113b04181","602110864497cf011d9c0822","0","f","NA","space","space","space","NA","f","745","NA","722","4504","887","NA","745","2","legacy","1024","2","48000","-16","task","5226303","odd","NA","17604","20331","19608","22002","3615","9026","8136","22505","NA","22000","22505","21937","20331","23251","16052","21437","3605","NA","Lexical Decision Task","6","5578","6","yes","1024"
"3.15462682","0","6","noal","non-word","100","100","919.8571428571429","919.8571428571429","black","no","legacy","legacy","legacy","0","uniform","1","undefined","undefined","undefined","1","f","0","0","0","0","6","0","0","0","6","NA","2","6","2","0","2","3","6","0","6","Fri Feb 19 15:04:47 2021","The main experiment item","yes","Lexical_Decision_Task.osexp","/Users/francescamasili","no","Andale Mono","no","18","no","white","no","yes","576","legacy","2","2","3","/Users/francescamasili/subject-5226303.csv","legacy","Lentiform Loewenfeld","3.3.7","yes","yes","600bd7cfb6416f0113b04181","602110864497cf011d9c0822","0","f","NA","space","space","space","NA","f","861","NA","722","4504","887","NA","861","2","legacy","1024","2","48000","-16","task","5226303","odd","NA","17604","20331","19608","23814","3615","9026","8136","24317","NA","23811","24317","23754","20331","25178","16052","23254","3605","NA","Lexical Decision Task","7","6439","7","yes","1024"
"3.276537627","9.15","5","trap","word","100","100","873.375","873.375","black","no","legacy","legacy","legacy","0","uniform","1","undefined","undefined","undefined","1","j","0","0","0","0","7","0","0","0","7","NA","3","7","3","0","3","3","7","0","7","Fri Feb 19 15:04:47 2021","The main experiment item","yes","Lexical_Decision_Task.osexp","/Users/francescamasili","no","Andale Mono","no","18","no","white","no","yes","576","legacy","3","3","3","/Users/francescamasili/subject-5226303.csv","legacy","Lentiform Loewenfeld","3.3.7","yes","yes","600bd7cfb6416f0113b04181","602110864497cf011d9c0822","0","j","NA","space","space","space","NA","j","548","NA","722","4504","887","NA","548","2","legacy","1024","2","48000","-16","task","5226303","odd","NA","17604","20331","19608","25741","3615","9026","8136","26244","NA","25739","26244","25682","20331","26792","16052","25182","3605","NA","Lexical Decision Task","8","6987","8","yes","1024"
"3.252447662","9.67","9","boat","word","100","100","853.4444444444445","853.4444444444445","black","no","legacy","legacy","legacy","0","uniform","1","undefined","undefined","undefined","1","j","0","0","0","0","8","0","0","0","8","NA","4","8","4","0","4","3","8","0","8","Fri Feb 19 15:04:47 2021","The main experiment item","yes","Lexical_Decision_Task.osexp","/Users/francescamasili","no","Andale Mono","no","18","no","white","no","yes","576","legacy","4","4","3","/Users/francescamasili/subject-5226303.csv","legacy","Lentiform Loewenfeld","3.3.7","yes","yes","600bd7cfb6416f0113b04181","602110864497cf011d9c0822","0","j","NA","space","space","space","NA","j","694","NA","722","4504","887","NA","694","2","legacy","1024","2","48000","-16","task","5226303","odd","NA","17604","20331","19608","27356","3615","9026","8136","27859","NA","27353","27859","27296","20331","28554","16052","26796","3605","NA","Lexical Decision Task","9","7681","9","yes","1024"
"3.216517684","10.87","3","film","word","100","100","824.3","824.3","black","no","legacy","legacy","legacy","0","uniform","1","undefined","undefined","undefined","1","j","0","0","0","0","9","0","0","0","9","NA","5","9","5","0","5","3","9","0","9","Fri Feb 19 15:04:47 2021","The main experiment item","yes","Lexical_Decision_Task.osexp","/Users/francescamasili","no","Andale Mono","no","18","no","white","no","yes","576","legacy","5","5","3","/Users/francescamasili/subject-5226303.csv","legacy","Lentiform Loewenfeld","3.3.7","yes","yes","600bd7cfb6416f0113b04181","602110864497cf011d9c0822","0","j","NA","space","space","space","NA","j","562","NA","722","4504","887","NA","562","2","legacy","1024","2","48000","-16","task","5226303","odd","NA","17604","20331","19608","29118","3615","9026","8136","29621","NA","29115","29622","29058","20331","30184","16052","28558","3605","NA","Lexical Decision Task","10","8243","10","yes","1024"
"3.168890155","0","6","thet","non-word","100","100","807.2727272727273","807.2727272727273","black","no","legacy","legacy","legacy","0","uniform","1","undefined","undefined","undefined","1","f","0","0","0","0","10","0","0","0","10","NA","6","10","6","0","6","3","10","0","10","Fri Feb 19 15:04:47 2021","The main experiment item","yes","Lexical_Decision_Task.osexp","/Users/francescamasili","no","Andale Mono","no","18","no","white","no","yes","576","legacy","6","6","3","/Users/francescamasili/subject-5226303.csv","legacy","Lentiform Loewenfeld","3.3.7","yes","yes","600bd7cfb6416f0113b04181","602110864497cf011d9c0822","0","f","NA","space","space","space","NA","f","637","NA","722","4504","887","NA","637","2","legacy","1024","2","48000","-16","task","5226303","odd","NA","17604","20331","19608","30748","3615","9026","8136","31251","NA","30746","31251","30688","20331","31888","16052","30188","3605","NA","Lexical Decision Task","11","8880","11","yes","1024"
"3.208978517","10.33","4","fish","word","100","100","787.8333333333334","787.8333333333334","black","no","legacy","legacy","legacy","0","uniform","1","undefined","undefined","undefined","1","j","0","0","0","0","11","0","0","0","11","NA","7","11","7","0","7","3","11","0","11","Fri Feb 19 15:04:47 2021","The main experiment item","yes","Lexical_Decision_Task.osexp","/Users/francescamasili","no","Andale Mono","no","18","no","white","no","yes","576","legacy","7","7","3","/Users/francescamasili/subject-5226303.csv","legacy","Lentiform Loewenfeld","3.3.7","yes","yes","600bd7cfb6416f0113b04181","602110864497cf011d9c0822","0","j","NA","space","space","space","NA","j","574","NA","722","4504","887","NA","574","2","legacy","1024","2","48000","-16","task","5226303","odd","NA","17604","20331","19608","32452","3615","9026","8136","32955","NA","32449","32955","32392","20331","33529","16052","31892","3605","NA","Lexical Decision Task","12","9454","12","yes","1024"
"2.899092422","7.27","6","snag","word","100","100","777.2307692307693","777.2307692307693","black","no","legacy","legacy","legacy","0","uniform","1","undefined","undefined","undefined","1","j","0","0","0","0","12","0","0","0","12","NA","8","12","8","0","8","3","12","0","12","Fri Feb 19 15:04:47 2021","The main experiment item","yes","Lexical_Decision_Task.osexp","/Users/francescamasili","no","Andale Mono","no","18","no","white","no","yes","576","legacy","8","8","3","/Users/francescamasili/subject-5226303.csv","legacy","Lentiform Loewenfeld","3.3.7","yes","yes","600bd7cfb6416f0113b04181","602110864497cf011d9c0822","0","j","NA","space","space","space","NA","j","650","NA","722","4504","887","NA","650","2","legacy","1024","2","48000","-16","task","5226303","odd","NA","17604","20331","19608","34092","3615","9026","8136","34596","NA","34090","34596","34033","20331","35246","16052","33533","3605","NA","Lexical Decision Task","13","10104","13","yes","1024"
"3.049218023","7.4","9","robe","word","100","100","756.6428571428571","756.6428571428571","black","no","legacy","legacy","legacy","0","uniform","1","undefined","undefined","undefined","1","j","0","0","0","0","13","0","0","0","13","NA","9","13","9","0","9","3","13","0","13","Fri Feb 19 15:04:47 2021","The main experiment item","yes","Lexical_Decision_Task.osexp","/Users/francescamasili","no","Andale Mono","no","18","no","white","no","yes","576","legacy","9","9","3","/Users/francescamasili/subject-5226303.csv","legacy","Lentiform Loewenfeld","3.3.7","yes","yes","600bd7cfb6416f0113b04181","602110864497cf011d9c0822","0","j","NA","space","space","space","NA","j","489","NA","722","4504","887","NA","489","2","legacy","1024","2","48000","-16","task","5226303","odd","NA","17604","20331","19608","35809","3615","9026","8136","36312","NA","35807","36312","35750","20331","36802","16052","35250","3605","NA","Lexical Decision Task","14","10593","14","yes","1024"
"2.782472624","10.55","2","huge","word","100","100","750.6","750.6","black","no","legacy","legacy","legacy","0","uniform","1","undefined","undefined","undefined","1","j","0","0","0","0","14","0","0","0","14","NA","10","14","10","0","10","3","14","0","14","Fri Feb 19 15:04:47 2021","The main experiment item","yes","Lexical_Decision_Task.osexp","/Users/francescamasili","no","Andale Mono","no","18","no","white","no","yes","576","legacy","10","10","3","/Users/francescamasili/subject-5226303.csv","legacy","Lentiform Loewenfeld","3.3.7","yes","yes","600bd7cfb6416f0113b04181","602110864497cf011d9c0822","0","j","NA","space","space","space","NA","j","666","NA","722","4504","887","NA","666","2","legacy","1024","2","48000","-16","task","5226303","odd","NA","17604","20331","19608","37364","3615","9026","8136","37867","NA","37362","37867","37305","20331","38534","16052","36805","3605","NA","Lexical Decision Task","15","11259","15","yes","1024"
"3.397302518","7.01","2","knit","word","100","100","741","741","black","no","legacy","legacy","legacy","0","uniform","1","undefined","undefined","undefined","1","j","0","0","0","0","15","0","0","0","15","NA","11","15","11","0","11","3","15","0","15","Fri Feb 19 15:04:47 2021","The main experiment item","yes","Lexical_Decision_Task.osexp","/Users/francescamasili","no","Andale Mono","no","18","no","white","no","yes","576","legacy","11","11","3","/Users/francescamasili/subject-5226303.csv","legacy","Lentiform Loewenfeld","3.3.7","yes","yes","600bd7cfb6416f0113b04181","602110864497cf011d9c0822","0","j","NA","space","space","space","NA","j","597","NA","722","4504","887","NA","597","2","legacy","1024","2","48000","-16","task","5226303","odd","NA","17604","20331","19608","39097","3615","9026","8136","39600","NA","39094","39600","39037","20331","40198","16052","38537","3605","NA","Lexical Decision Task","16","11856","16","yes","1024"
"2.819763221","0","2","durp","non-word","100","100","730.7058823529412","730.7058823529412","black","no","legacy","legacy","legacy","0","uniform","1","undefined","undefined","undefined","1","f","0","0","0","0","16","0","0","0","16","NA","12","16","12","0","12","3","16","0","16","Fri Feb 19 15:04:47 2021","The main experiment item","yes","Lexical_Decision_Task.osexp","/Users/francescamasili","no","Andale Mono","no","18","no","white","no","yes","576","legacy","12","12","3","/Users/francescamasili/subject-5226303.csv","legacy","Lentiform Loewenfeld","3.3.7","yes","yes","600bd7cfb6416f0113b04181","602110864497cf011d9c0822","0","f","NA","space","space","space","NA","f","566","NA","722","4504","887","NA","566","2","legacy","1024","2","48000","-16","task","5226303","odd","NA","17604","20331","19608","40760","3615","9026","8136","41264","NA","40758","41264","40701","20331","41831","16052","40201","3605","NA","Lexical Decision Task","17","12422","17","yes","1024"
"3.132473155","0","4","glim","non-word","100","100","742.3333333333334","742.3333333333334","black","no","legacy","legacy","legacy","0","uniform","1","undefined","undefined","undefined","1","f","0","0","0","0","17","0","0","0","17","NA","13","17","13","0","13","3","17","0","17","Fri Feb 19 15:04:47 2021","The main experiment item","yes","Lexical_Decision_Task.osexp","/Users/francescamasili","no","Andale Mono","no","18","no","white","no","yes","576","legacy","13","13","3","/Users/francescamasili/subject-5226303.csv","legacy","Lentiform Loewenfeld","3.3.7","yes","yes","600bd7cfb6416f0113b04181","602110864497cf011d9c0822","0","f","NA","space","space","space","NA","f","940","NA","722","4504","887","NA","940","2","legacy","1024","2","48000","-16","task","5226303","odd","NA","17604","20331","19608","42394","3615","9026","8136","42897","NA","42392","42897","42335","20331","43838","16052","41835","3605","NA","Lexical Decision Task","18","13362","18","yes","1024"
"3.156347201","0","8","lasp","non-word","100","100","746.8421052631579","746.8421052631579","black","no","legacy","legacy","legacy","0","uniform","1","undefined","undefined","undefined","1","f","0","0","0","0","18","0","0","0","18","NA","14","18","14","0","14","3","18","0","18","Fri Feb 19 15:04:47 2021","The main experiment item","yes","Lexical_Decision_Task.osexp","/Users/francescamasili","no","Andale Mono","no","18","no","white","no","yes","576","legacy","14","14","3","/Users/francescamasili/subject-5226303.csv","legacy","Lentiform Loewenfeld","3.3.7","yes","yes","600bd7cfb6416f0113b04181","602110864497cf011d9c0822","0","f","NA","space","space","space","NA","f","828","NA","722","4504","887","NA","828","2","legacy","1024","2","48000","-16","task","5226303","odd","NA","17604","20331","19608","44401","3615","9026","8136","44904","NA","44399","44904","44342","20331","45733","16052","43842","3605","NA","Lexical Decision Task","19","14190","19","yes","1024"
"2.86332286","6.71","2","feud","word","100","100","767.75","767.75","black","no","legacy","legacy","legacy","0","uniform","1","undefined","undefined","undefined","1","j","0","0","0","0","19","0","0","0","19","NA","15","19","15","0","15","3","19","0","19","Fri Feb 19 15:04:47 2021","The main experiment item","yes","Lexical_Decision_Task.osexp","/Users/francescamasili","no","Andale Mono","no","18","no","white","no","yes","576","legacy","15","15","3","/Users/francescamasili/subject-5226303.csv","legacy","Lentiform Loewenfeld","3.3.7","yes","yes","600bd7cfb6416f0113b04181","602110864497cf011d9c0822","0","j","NA","space","space","space","NA","j","1165","NA","722","4504","887","NA","1165","2","legacy","1024","2","48000","-16","task","5226303","odd","NA","17604","20331","19608","46296","3615","9026","8136","46799","NA","46294","46799","46237","20331","47965","16052","45737","3605","NA","Lexical Decision Task","20","15355","20","yes","1024"
"2.594027722","9.08","8","skip","word","100","100","766.047619047619","766.047619047619","black","no","legacy","legacy","legacy","0","uniform","1","undefined","undefined","undefined","1","j","0","0","0","0","20","0","0","0","20","NA","16","20","16","0","16","3","20","0","20","Fri Feb 19 15:04:47 2021","The main experiment item","yes","Lexical_Decision_Task.osexp","/Users/francescamasili","no","Andale Mono","no","18","no","white","no","yes","576","legacy","16","16","3","/Users/francescamasili/subject-5226303.csv","legacy","Lentiform Loewenfeld","3.3.7","yes","yes","600bd7cfb6416f0113b04181","602110864497cf011d9c0822","0","j","NA","space","space","space","NA","j","732","NA","722","4504","887","NA","732","2","legacy","1024","2","48000","-16","task","5226303","odd","NA","17604","20331","19608","48527","3615","9026","8136","49030","NA","48525","49030","48468","20331","49763","16052","47968","3605","NA","Lexical Decision Task","21","16087","21","yes","1024"
"3.068433376","8.09","2","bulb","word","100","100","758.0454545454545","758.0454545454545","black","no","legacy","legacy","legacy","0","uniform","1","undefined","undefined","undefined","1","j","0","0","0","0","21","0","0","0","21","NA","17","21","17","0","17","3","21","0","21","Fri Feb 19 15:04:47 2021","The main experiment item","yes","Lexical_Decision_Task.osexp","/Users/francescamasili","no","Andale Mono","no","18","no","white","no","yes","576","legacy","17","17","3","/Users/francescamasili/subject-5226303.csv","legacy","Lentiform Loewenfeld","3.3.7","yes","yes","600bd7cfb6416f0113b04181","602110864497cf011d9c0822","0","j","NA","space","space","space","NA","j","590","NA","722","4504","887","NA","590","2","legacy","1024","2","48000","-16","task","5226303","odd","NA","17604","20331","19608","50325","3615","9026","8136","50829","NA","50323","50829","50266","20331","51420","16052","49766","3605","NA","Lexical Decision Task","22","16677","22","yes","1024"
"3.064581521","5.51","6","cask","word","95.65217391304348","95.65217391304348","779.9130434782609","779.9130434782609","black","no","legacy","legacy","legacy","0","uniform","0","undefined","undefined","undefined","0","j","0","0","0","0","22","0","0","0","22","NA","18","22","18","0","18","3","22","0","22","Fri Feb 19 15:04:47 2021","The main experiment item","yes","Lexical_Decision_Task.osexp","/Users/francescamasili","no","Andale Mono","no","18","no","white","no","yes","576","legacy","18","18","3","/Users/francescamasili/subject-5226303.csv","legacy","Lentiform Loewenfeld","3.3.7","yes","yes","600bd7cfb6416f0113b04181","602110864497cf011d9c0822","0","f","NA","space","space","space","NA","f","1261","NA","722","4504","887","NA","1261","2","legacy","1024","2","48000","-16","task","5226303","odd","NA","17604","20331","19608","51983","3615","9026","8136","52486","NA","51980","52486","51924","20331","53748","16052","51424","3605","NA","Lexical Decision Task","22","17938","23","yes","1024"
"2.875447132","0","9","jelt","non-word","95.83333333333333","95.83333333333333","784.3333333333334","784.3333333333334","black","no","legacy","legacy","legacy","0","uniform","1","undefined","undefined","undefined","1","f","0","0","0","0","23","0","0","0","23","NA","19","23","19","0","19","3","23","0","23","Fri Feb 19 15:04:47 2021","The main experiment item","yes","Lexical_Decision_Task.osexp","/Users/francescamasili","no","Andale Mono","no","18","no","white","no","yes","576","legacy","19","19","3","/Users/francescamasili/subject-5226303.csv","legacy","Lentiform Loewenfeld","3.3.7","yes","yes","600bd7cfb6416f0113b04181","602110864497cf011d9c0822","0","f","NA","space","space","space","NA","f","886","NA","722","4504","887","NA","886","2","legacy","1024","2","48000","-16","task","5226303","odd","NA","17604","20331","19608","55314","3615","9026","8136","55817","NA","55311","55817","55252","20331","56703","16052","51424","3605","53752","Lexical Decision Task","23","18824","24","yes","1024"
"3.374198258","0","8","vist","non-word","92","92","779.04","779.04","black","no","legacy","legacy","legacy","0","uniform","0","undefined","undefined","undefined","0","f","0","0","0","0","24","0","0","0","24","NA","20","24","20","0","20","3","24","0","24","Fri Feb 19 15:04:47 2021","The main experiment item","yes","Lexical_Decision_Task.osexp","/Users/francescamasili","no","Andale Mono","no","18","no","white","no","yes","576","legacy","20","20","3","/Users/francescamasili/subject-5226303.csv","legacy","Lentiform Loewenfeld","3.3.7","yes","yes","600bd7cfb6416f0113b04181","602110864497cf011d9c0822","0","j","NA","space","space","space","NA","j","652","NA","722","4504","887","NA","652","2","legacy","1024","2","48000","-16","task","5226303","odd","NA","17604","20331","19608","57266","3615","9026","8136","57769","NA","57264","57769","57207","20331","58422","16052","56707","3605","53752","Lexical Decision Task","23","19476","25","yes","1024"
"2.794720352","0","9","koot","non-word","92.3076923076923","92.3076923076923","774.7307692307693","774.7307692307693","black","no","legacy","legacy","legacy","0","uniform","1","undefined","undefined","undefined","1","f","0","0","0","0","25","0","0","0","25","NA","21","25","21","0","21","3","25","0","25","Fri Feb 19 15:04:47 2021","The main experiment item","yes","Lexical_Decision_Task.osexp","/Users/francescamasili","no","Andale Mono","no","18","no","white","no","yes","576","legacy","21","21","3","/Users/francescamasili/subject-5226303.csv","legacy","Lentiform Loewenfeld","3.3.7","yes","yes","600bd7cfb6416f0113b04181","602110864497cf011d9c0822","0","f","NA","space","space","space","NA","f","667","NA","722","4504","887","NA","667","2","legacy","1024","2","48000","-16","task","5226303","odd","NA","17604","20331","19608","59989","3615","9026","8136","60492","NA","59985","60493","59925","20331","61161","16052","56707","3605","58425","Lexical Decision Task","24","20143","26","yes","1024"
"3.259832699","0","9","flar","non-word","92.5925925925926","92.5925925925926","783.074074074074","783.074074074074","black","no","legacy","legacy","legacy","0","uniform","1","undefined","undefined","undefined","1","f","0","0","0","0","26","0","0","0","26","NA","22","26","22","0","22","3","26","0","26","Fri Feb 19 15:04:47 2021","The main experiment item","yes","Lexical_Decision_Task.osexp","/Users/francescamasili","no","Andale Mono","no","18","no","white","no","yes","576","legacy","22","22","3","/Users/francescamasili/subject-5226303.csv","legacy","Lentiform Loewenfeld","3.3.7","yes","yes","600bd7cfb6416f0113b04181","602110864497cf011d9c0822","0","f","NA","space","space","space","NA","f","1000","NA","722","4504","887","NA","1000","2","legacy","1024","2","48000","-16","task","5226303","odd","NA","17604","20331","19608","61725","3615","9026","8136","62228","NA","61722","62228","61664","20331","63229","16052","61164","3605","58425","Lexical Decision Task","25","21143","27","yes","1024"
"2.698100546","0","9","mulk","non-word","92.85714285714286","92.85714285714286","779.6428571428571","779.6428571428571","black","no","legacy","legacy","legacy","0","uniform","1","undefined","undefined","undefined","1","f","0","0","0","0","27","0","0","0","27","NA","23","27","23","0","23","3","27","0","27","Fri Feb 19 15:04:47 2021","The main experiment item","yes","Lexical_Decision_Task.osexp","/Users/francescamasili","no","Andale Mono","no","18","no","white","no","yes","576","legacy","23","23","3","/Users/francescamasili/subject-5226303.csv","legacy","Lentiform Loewenfeld","3.3.7","yes","yes","600bd7cfb6416f0113b04181","602110864497cf011d9c0822","0","f","NA","space","space","space","NA","f","687","NA","722","4504","887","NA","687","2","legacy","1024","2","48000","-16","task","5226303","odd","NA","17604","20331","19608","63792","3615","9026","8136","64295","NA","63789","64295","63732","20331","64982","16052","63232","3605","58425","Lexical Decision Task","26","21830","28","yes","1024"
"2.899638141","0","3","hapt","non-word","93.10344827586206","93.10344827586206","777.2413793103449","777.2413793103449","black","no","legacy","legacy","legacy","0","uniform","1","undefined","undefined","undefined","1","f","0","0","0","0","28","0","0","0","28","NA","24","28","24","0","24","3","28","0","28","Fri Feb 19 15:04:47 2021","The main experiment item","yes","Lexical_Decision_Task.osexp","/Users/francescamasili","no","Andale Mono","no","18","no","white","no","yes","576","legacy","24","24","3","/Users/francescamasili/subject-5226303.csv","legacy","Lentiform Loewenfeld","3.3.7","yes","yes","600bd7cfb6416f0113b04181","602110864497cf011d9c0822","0","f","NA","space","space","space","NA","f","710","NA","722","4504","887","NA","710","2","legacy","1024","2","48000","-16","task","5226303","odd","NA","17604","20331","19608","65547","3615","9026","8136","66050","NA","65544","66050","65486","20331","66760","16052","64986","3605","58425","Lexical Decision Task","27","22540","29","yes","1024"
"3.010582609","0","2","drod","non-word","93.33333333333333","93.33333333333333","774.3666666666667","774.3666666666667","black","no","legacy","legacy","legacy","0","uniform","1","undefined","undefined","undefined","1","f","0","0","0","0","29","0","0","0","29","NA","25","29","25","0","25","3","29","0","29","Fri Feb 19 15:04:47 2021","The main experiment item","yes","Lexical_Decision_Task.osexp","/Users/francescamasili","no","Andale Mono","no","18","no","white","no","yes","576","legacy","25","25","3","/Users/francescamasili/subject-5226303.csv","legacy","Lentiform Loewenfeld","3.3.7","yes","yes","600bd7cfb6416f0113b04181","602110864497cf011d9c0822","0","f","NA","space","space","space","NA","f","691","NA","722","4504","887","NA","691","2","legacy","1024","2","48000","-16","task","5226303","odd","NA","17604","20331","19608","67323","3615","9026","8136","67826","NA","67321","67826","67264","20331","68518","16052","66764","3605","58425","Lexical Decision Task","28","23231","30","yes","1024"
"3.153104174","10.89","6","door","word","93.54838709677419","93.54838709677419","783.483870967742","783.483870967742","black","no","legacy","legacy","legacy","0","uniform","1","undefined","undefined","undefined","1","j","0","0","0","0","30","0","0","0","30","NA","26","30","26","0","26","3","30","0","30","Fri Feb 19 15:04:47 2021","The main experiment item","yes","Lexical_Decision_Task.osexp","/Users/francescamasili","no","Andale Mono","no","18","no","white","no","yes","576","legacy","26","26","3","/Users/francescamasili/subject-5226303.csv","legacy","Lentiform Loewenfeld","3.3.7","yes","yes","600bd7cfb6416f0113b04181","602110864497cf011d9c0822","0","j","NA","space","space","space","NA","j","1057","NA","722","4504","887","NA","1057","2","legacy","1024","2","48000","-16","task","5226303","odd","NA","17604","20331","19608","69080","3615","9026","8136","69583","NA","69078","69583","69021","20331","70640","16052","68521","3605","58425","Lexical Decision Task","29","24288","31","yes","1024"
"3.003891166","8.05","2","frog","word","93.75","93.75","783.4375","783.4375","black","no","legacy","legacy","legacy","0","uniform","1","undefined","undefined","undefined","1","j","0","0","0","0","31","0","0","0","31","NA","27","31","27","0","27","3","31","0","31","Fri Feb 19 15:04:47 2021","The main experiment item","yes","Lexical_Decision_Task.osexp","/Users/francescamasili","no","Andale Mono","no","18","no","white","no","yes","576","legacy","27","27","3","/Users/francescamasili/subject-5226303.csv","legacy","Lentiform Loewenfeld","3.3.7","yes","yes","600bd7cfb6416f0113b04181","602110864497cf011d9c0822","0","j","NA","space","space","space","NA","j","782","NA","722","4504","887","NA","782","2","legacy","1024","2","48000","-16","task","5226303","odd","NA","17604","20331","19608","71203","3615","9026","8136","71706","NA","71200","71706","71144","20331","72489","16052","70644","3605","58425","Lexical Decision Task","30","25070","32","yes","1024"
"3.492014979","0","9","yine","non-word","93.93939393939394","93.93939393939394","808.4545454545455","808.4545454545455","black","no","legacy","legacy","legacy","0","uniform","1","undefined","undefined","undefined","1","f","0","0","0","0","32","0","0","0","32","NA","28","32","28","0","28","3","32","0","32","Fri Feb 19 15:04:47 2021","The main experiment item","yes","Lexical_Decision_Task.osexp","/Users/francescamasili","no","Andale Mono","no","18","no","white","no","yes","576","legacy","28","28","3","/Users/francescamasili/subject-5226303.csv","legacy","Lentiform Loewenfeld","3.3.7","yes","yes","600bd7cfb6416f0113b04181","602110864497cf011d9c0822","0","f","NA","space","space","space","NA","f","1609","NA","722","4504","887","NA","1609","2","legacy","1024","2","48000","-16","task","5226303","odd","NA","17604","20331","19608","73052","3615","9026","8136","73555","NA","73049","73555","72993","20331","75165","16052","72493","3605","58425","Lexical Decision Task","31","26679","33","yes","1024"
"3.440331212","7.35","6","stew","word","94.11764705882354","94.11764705882354","810.9411764705883","810.9411764705883","black","no","legacy","legacy","legacy","0","uniform","1","undefined","undefined","undefined","1","j","0","0","0","0","33","0","0","0","33","NA","29","33","29","0","29","3","33","0","33","Fri Feb 19 15:04:47 2021","The main experiment item","yes","Lexical_Decision_Task.osexp","/Users/francescamasili","no","Andale Mono","no","18","no","white","no","yes","576","legacy","29","29","3","/Users/francescamasili/subject-5226303.csv","legacy","Lentiform Loewenfeld","3.3.7","yes","yes","600bd7cfb6416f0113b04181","602110864497cf011d9c0822","0","j","NA","space","space","space","NA","j","893","NA","722","4504","887","NA","893","2","legacy","1024","2","48000","-16","task","5226303","odd","NA","17604","20331","19608","75728","3615","9026","8136","76231","NA","75725","76231","75669","20331","77125","16052","75169","3605","58425","Lexical Decision Task","32","27572","34","yes","1024"
"3.263399331","0","8","cour","non-word","94.28571428571429","94.28571428571429","813.8285714285714","813.8285714285714","black","no","legacy","legacy","legacy","0","uniform","1","undefined","undefined","undefined","1","f","0","0","0","0","34","0","0","0","34","NA","30","34","30","0","30","3","34","0","34","Fri Feb 19 15:04:47 2021","The main experiment item","yes","Lexical_Decision_Task.osexp","/Users/francescamasili","no","Andale Mono","no","18","no","white","no","yes","576","legacy","30","30","3","/Users/francescamasili/subject-5226303.csv","legacy","Lentiform Loewenfeld","3.3.7","yes","yes","600bd7cfb6416f0113b04181","602110864497cf011d9c0822","0","f","NA","space","space","space","NA","f","912","NA","722","4504","887","NA","912","2","legacy","1024","2","48000","-16","task","5226303","odd","NA","17604","20331","19608","77688","3615","9026","8136","78191","NA","77686","78191","77629","20331","79104","16052","77129","3605","58425","Lexical Decision Task","33","28484","35","yes","1024"
"2.895974732","6.65","5","sift","word","94.44444444444444","94.44444444444444","810.5555555555555","810.5555555555555","black","no","legacy","legacy","legacy","0","uniform","1","undefined","undefined","undefined","1","j","0","0","0","0","35","0","0","0","35","NA","31","35","31","0","31","3","35","0","35","Fri Feb 19 15:04:47 2021","The main experiment item","yes","Lexical_Decision_Task.osexp","/Users/francescamasili","no","Andale Mono","no","18","no","white","no","yes","576","legacy","31","31","3","/Users/francescamasili/subject-5226303.csv","legacy","Lentiform Loewenfeld","3.3.7","yes","yes","600bd7cfb6416f0113b04181","602110864497cf011d9c0822","0","j","NA","space","space","space","NA","j","696","NA","722","4504","887","NA","696","2","legacy","1024","2","48000","-16","task","5226303","odd","NA","17604","20331","19608","79666","3615","9026","8136","80169","NA","79664","80169","79607","20331","80866","16052","79107","3605","58425","Lexical Decision Task","34","29180","36","yes","1024"
"2.95456409","0","4","taud","non-word","94.5945945945946","94.5945945945946","809.6216216216217","809.6216216216217","black","no","legacy","legacy","legacy","0","uniform","1","undefined","undefined","undefined","1","f","0","0","0","0","36","0","0","0","36","NA","32","36","32","0","32","3","36","0","36","Fri Feb 19 15:04:47 2021","The main experiment item","yes","Lexical_Decision_Task.osexp","/Users/francescamasili","no","Andale Mono","no","18","no","white","no","yes","576","legacy","32","32","3","/Users/francescamasili/subject-5226303.csv","legacy","Lentiform Loewenfeld","3.3.7","yes","yes","600bd7cfb6416f0113b04181","602110864497cf011d9c0822","0","f","NA","space","space","space","NA","f","776","NA","722","4504","887","NA","776","2","legacy","1024","2","48000","-16","task","5226303","odd","NA","17604","20331","19608","81429","3615","9026","8136","81932","NA","81427","81932","81370","20331","82709","16052","80870","3605","58425","Lexical Decision Task","35","29956","37","yes","1024"
"3.077974404","10.41","8","tool","word","94.73684210526316","94.73684210526316","850.6315789473684","850.6315789473684","black","no","legacy","legacy","legacy","0","uniform","1","undefined","undefined","undefined","1","j","0","0","0","0","37","0","0","0","37","NA","33","37","33","0","33","3","37","0","37","Fri Feb 19 15:04:47 2021","The main experiment item","yes","Lexical_Decision_Task.osexp","/Users/francescamasili","no","Andale Mono","no","18","no","white","no","yes","576","legacy","33","33","3","/Users/francescamasili/subject-5226303.csv","legacy","Lentiform Loewenfeld","3.3.7","yes","yes","600bd7cfb6416f0113b04181","602110864497cf011d9c0822","0","j","NA","space","space","space","NA","j","2368","NA","722","4504","887","NA","2368","2","legacy","1024","2","48000","-16","task","5226303","odd","NA","17604","20331","19608","83273","3615","9026","8136","83776","NA","83270","83776","83213","20331","86144","16052","82713","3605","58425","Lexical Decision Task","36","32324","38","yes","1024"
"3.303771854","0","9","dath","non-word","94.87179487179488","94.87179487179488","852.5897435897435","852.5897435897435","black","no","legacy","legacy","legacy","0","uniform","1","undefined","undefined","undefined","1","f","0","0","0","0","38","0","0","0","38","NA","34","38","34","0","34","3","38","0","38","Fri Feb 19 15:04:47 2021","The main experiment item","yes","Lexical_Decision_Task.osexp","/Users/francescamasili","no","Andale Mono","no","18","no","white","no","yes","576","legacy","34","34","3","/Users/francescamasili/subject-5226303.csv","legacy","Lentiform Loewenfeld","3.3.7","yes","yes","600bd7cfb6416f0113b04181","602110864497cf011d9c0822","0","f","NA","space","space","space","NA","f","927","NA","722","4504","887","NA","927","2","legacy","1024","2","48000","-16","task","5226303","odd","NA","17604","20331","19608","86707","3615","9026","8136","87210","NA","86704","87210","86648","20331","88138","16052","86148","3605","58425","Lexical Decision Task","37","33251","39","yes","1024"
"2.576725172","0","8","gowl","non-word","92.5","92.5","860.925","860.925","black","no","legacy","legacy","legacy","0","uniform","0","undefined","undefined","undefined","0","f","0","0","0","0","39","0","0","0","39","NA","35","39","35","0","35","3","39","0","39","Fri Feb 19 15:04:47 2021","The main experiment item","yes","Lexical_Decision_Task.osexp","/Users/francescamasili","no","Andale Mono","no","18","no","white","no","yes","576","legacy","35","35","3","/Users/francescamasili/subject-5226303.csv","legacy","Lentiform Loewenfeld","3.3.7","yes","yes","600bd7cfb6416f0113b04181","602110864497cf011d9c0822","0","j","NA","space","space","space","NA","j","1186","NA","722","4504","887","NA","1186","2","legacy","1024","2","48000","-16","task","5226303","odd","NA","17604","20331","19608","88701","3615","9026","8136","89204","NA","88699","89204","88642","20331","90390","16052","88142","3605","58425","Lexical Decision Task","37","34437","40","yes","1024"
"2.814027728","8.2","4","foam","word","92.6829268292683","92.6829268292683","858.0975609756098","858.0975609756098","black","no","legacy","legacy","legacy","0","uniform","1","undefined","undefined","undefined","1","j","0","0","0","0","40","0","0","0","40","NA","36","40","36","0","36","3","40","0","40","Fri Feb 19 15:04:47 2021","The main experiment item","yes","Lexical_Decision_Task.osexp","/Users/francescamasili","no","Andale Mono","no","18","no","white","no","yes","576","legacy","36","36","3","/Users/francescamasili/subject-5226303.csv","legacy","Lentiform Loewenfeld","3.3.7","yes","yes","600bd7cfb6416f0113b04181","602110864497cf011d9c0822","0","j","NA","space","space","space","NA","j","745","NA","722","4504","887","NA","745","2","legacy","1024","2","48000","-16","task","5226303","odd","NA","17604","20331","19608","91958","3615","9026","8136","92460","NA","91954","92461","91894","20331","93206","16052","88142","3605","90394","Lexical Decision Task","38","35182","41","yes","1024"
"2.990042563","6.64","9","plow","word","92.85714285714286","92.85714285714286","855.6428571428571","855.6428571428571","black","no","legacy","legacy","legacy","0","uniform","1","undefined","undefined","undefined","1","j","0","0","0","0","41","0","0","0","41","NA","37","41","37","0","37","3","41","0","41","Fri Feb 19 15:04:47 2021","The main experiment item","yes","Lexical_Decision_Task.osexp","/Users/francescamasili","no","Andale Mono","no","18","no","white","no","yes","576","legacy","37","37","3","/Users/francescamasili/subject-5226303.csv","legacy","Lentiform Loewenfeld","3.3.7","yes","yes","600bd7cfb6416f0113b04181","602110864497cf011d9c0822","0","j","NA","space","space","space","NA","j","755","NA","722","4504","887","NA","755","2","legacy","1024","2","48000","-16","task","5226303","odd","NA","17604","20331","19608","93769","3615","9026","8136","94272","NA","93767","94272","93710","20331","95028","16052","93210","3605","90394","Lexical Decision Task","39","35937","42","yes","1024"
"3.1430148","7.92","8","bald","word","93.02325581395348","93.02325581395348","857.5813953488372","857.5813953488372","black","no","legacy","legacy","legacy","0","uniform","1","undefined","undefined","undefined","1","j","0","0","0","0","42","0","0","0","42","NA","38","42","38","0","38","3","42","0","42","Fri Feb 19 15:04:47 2021","The main experiment item","yes","Lexical_Decision_Task.osexp","/Users/francescamasili","no","Andale Mono","no","18","no","white","no","yes","576","legacy","38","38","3","/Users/francescamasili/subject-5226303.csv","legacy","Lentiform Loewenfeld","3.3.7","yes","yes","600bd7cfb6416f0113b04181","602110864497cf011d9c0822","0","j","NA","space","space","space","NA","j","939","NA","722","4504","887","NA","939","2","legacy","1024","2","48000","-16","task","5226303","odd","NA","17604","20331","19608","95590","3615","9026","8136","96093","NA","95588","96093","95531","20331","97033","16052","95031","3605","90394","Lexical Decision Task","40","36876","43","yes","1024"
"2.771097306","0","9","jold","non-word","93.18181818181819","93.18181818181819","872.2045454545455","872.2045454545455","black","no","legacy","legacy","legacy","0","uniform","1","undefined","undefined","undefined","1","f","0","0","0","0","43","0","0","0","43","NA","39","43","39","0","39","3","43","0","43","Fri Feb 19 15:04:47 2021","The main experiment item","yes","Lexical_Decision_Task.osexp","/Users/francescamasili","no","Andale Mono","no","18","no","white","no","yes","576","legacy","39","39","3","/Users/francescamasili/subject-5226303.csv","legacy","Lentiform Loewenfeld","3.3.7","yes","yes","600bd7cfb6416f0113b04181","602110864497cf011d9c0822","0","f","NA","space","space","space","NA","f","1501","NA","722","4504","887","NA","1501","2","legacy","1024","2","48000","-16","task","5226303","odd","NA","17604","20331","19608","97596","3615","9026","8136","98099","NA","97593","98099","97537","20331","99601","16052","97037","3605","90394","Lexical Decision Task","41","38377","44","yes","1024"
"2.839268497","0","8","maft","non-word","93.33333333333333","93.33333333333333","882.4444444444445","882.4444444444445","black","no","legacy","legacy","legacy","0","uniform","1","undefined","undefined","undefined","1","f","0","0","0","0","44","0","0","0","44","NA","40","44","40","0","40","3","44","0","44","Fri Feb 19 15:04:47 2021","The main experiment item","yes","Lexical_Decision_Task.osexp","/Users/francescamasili","no","Andale Mono","no","18","no","white","no","yes","576","legacy","40","40","3","/Users/francescamasili/subject-5226303.csv","legacy","Lentiform Loewenfeld","3.3.7","yes","yes","600bd7cfb6416f0113b04181","602110864497cf011d9c0822","0","f","NA","space","space","space","NA","f","1333","NA","722","4504","887","NA","1333","2","legacy","1024","2","48000","-16","task","5226303","odd","NA","17604","20331","19608","100162","3615","9026","8136","100666","NA","100160","100666","100104","20331","102000","16052","99604","3605","90394","Lexical Decision Task","42","39710","45","yes","1024"
"2.793790385","5.67","9","swab","word","91.30434782608695","91.30434782608695","928.4782608695652","928.4782608695652","black","no","legacy","legacy","legacy","0","uniform","0","undefined","undefined","undefined","0","j","0","0","0","0","45","0","0","0","45","NA","41","45","41","0","41","3","45","0","45","Fri Feb 19 15:04:47 2021","The main experiment item","yes","Lexical_Decision_Task.osexp","/Users/francescamasili","no","Andale Mono","no","18","no","white","no","yes","576","legacy","41","41","3","/Users/francescamasili/subject-5226303.csv","legacy","Lentiform Loewenfeld","3.3.7","yes","yes","600bd7cfb6416f0113b04181","602110864497cf011d9c0822","0","None","NA","space","space","space","NA","None","3000","NA","722","4504","887","NA","3000","2","legacy","1024","2","48000","-16","task","5226303","odd","NA","17604","20331","19608","102562","3615","9026","8136","103065","NA","102559","103065","102503","20331","106065","16052","102003","3605","90394","Lexical Decision Task","42","42710","46","yes","1024"
"3.261341392","5.08","8","reek","word","91.48936170212765","91.48936170212765","929.7659574468086","929.7659574468086","black","no","legacy","legacy","legacy","0","uniform","1","undefined","undefined","undefined","1","j","0","0","0","0","46","0","0","0","46","NA","42","46","42","0","42","3","46","0","46","Fri Feb 19 15:04:47 2021","The main experiment item","yes","Lexical_Decision_Task.osexp","/Users/francescamasili","no","Andale Mono","no","18","no","white","no","yes","576","legacy","42","42","3","/Users/francescamasili/subject-5226303.csv","legacy","Lentiform Loewenfeld","3.3.7","yes","yes","600bd7cfb6416f0113b04181","602110864497cf011d9c0822","0","j","NA","space","space","space","NA","j","989","NA","722","4504","887","NA","989","2","legacy","1024","2","48000","-16","task","5226303","odd","NA","17604","20331","19608","107632","3615","9026","8136","108135","NA","107628","108135","107569","20331","109125","16052","102003","3605","106069","Lexical Decision Task","43","43699","47","yes","1024"
"3.137775856","7.39","5","comb","word","91.66666666666667","91.66666666666667","934.5208333333334","934.5208333333334","black","no","legacy","legacy","legacy","0","uniform","1","undefined","undefined","undefined","1","j","0","0","0","0","47","0","0","0","47","NA","43","47","43","0","43","3","47","0","47","Fri Feb 19 15:04:47 2021","The main experiment item","yes","Lexical_Decision_Task.osexp","/Users/francescamasili","no","Andale Mono","no","18","no","white","no","yes","576","legacy","43","43","3","/Users/francescamasili/subject-5226303.csv","legacy","Lentiform Loewenfeld","3.3.7","yes","yes","600bd7cfb6416f0113b04181","602110864497cf011d9c0822","0","j","NA","space","space","space","NA","j","1158","NA","722","4504","887","NA","1158","2","legacy","1024","2","48000","-16","task","5226303","odd","NA","17604","20331","19608","109688","3615","9026","8136","110191","NA","109685","110191","109628","20331","111350","16052","109128","3605","106069","Lexical Decision Task","44","44857","48","yes","1024"
"3.20871002","7.15","8","cram","word","91.83673469387755","91.83673469387755","929.1020408163265","929.1020408163265","black","no","legacy","legacy","legacy","0","uniform","1","undefined","undefined","undefined","1","j","0","0","0","0","48","0","0","0","48","NA","44","48","44","0","44","3","48","0","48","Fri Feb 19 15:04:47 2021","The main experiment item","yes","Lexical_Decision_Task.osexp","/Users/francescamasili","no","Andale Mono","no","18","no","white","no","yes","576","legacy","44","44","3","/Users/francescamasili/subject-5226303.csv","legacy","Lentiform Loewenfeld","3.3.7","yes","yes","600bd7cfb6416f0113b04181","602110864497cf011d9c0822","0","j","NA","space","space","space","NA","j","669","NA","722","4504","887","NA","669","2","legacy","1024","2","48000","-16","task","5226303","odd","NA","17604","20331","19608","111913","3615","9026","8136","112416","NA","111911","112416","111853","20331","113086","16052","111353","3605","106069","Lexical Decision Task","45","45526","49","yes","1024"
"3.120135028","0","3","vals","non-word","92","92","929.16","929.16","black","no","legacy","legacy","legacy","0","uniform","1","undefined","undefined","undefined","1","f","0","0","0","0","49","0","0","0","49","NA","45","49","45","0","45","3","49","0","49","Fri Feb 19 15:04:47 2021","The main experiment item","yes","Lexical_Decision_Task.osexp","/Users/francescamasili","no","Andale Mono","no","18","no","white","no","yes","576","legacy","45","45","3","/Users/francescamasili/subject-5226303.csv","legacy","Lentiform Loewenfeld","3.3.7","yes","yes","600bd7cfb6416f0113b04181","602110864497cf011d9c0822","0","f","NA","space","space","space","NA","f","932","NA","722","4504","887","NA","932","2","legacy","1024","2","48000","-16","task","5226303","odd","NA","17604","20331","19608","113651","3615","9026","8136","114154","NA","113648","114154","113590","20331","115086","16052","113090","3605","106069","Lexical Decision Task","46","46458","50","yes","1024"
"2.812467698","0","7","hafe","non-word","92.15686274509804","92.15686274509804","939.7450980392157","939.7450980392157","black","no","legacy","legacy","legacy","0","uniform","1","undefined","undefined","undefined","1","f","0","0","0","0","50","0","0","0","50","NA","46","50","46","0","46","3","50","0","50","Fri Feb 19 15:04:47 2021","The main experiment item","yes","Lexical_Decision_Task.osexp","/Users/francescamasili","no","Andale Mono","no","18","no","white","no","yes","576","legacy","46","46","3","/Users/francescamasili/subject-5226303.csv","legacy","Lentiform Loewenfeld","3.3.7","yes","yes","600bd7cfb6416f0113b04181","602110864497cf011d9c0822","0","f","NA","space","space","space","NA","f","1469","NA","722","4504","887","NA","1469","2","legacy","1024","2","48000","-16","task","5226303","odd","NA","17604","20331","19608","115650","3615","9026","8136","116153","NA","115647","116153","115591","20331","117623","16052","115090","3605","106069","Lexical Decision Task","47","47927","51","yes","1024"
"2.924968096","0","4","phim","non-word","92.3076923076923","92.3076923076923","932.7307692307693","932.7307692307693","black","no","legacy","legacy","legacy","0","uniform","1","undefined","undefined","undefined","1","f","0","0","0","0","51","0","0","0","51","NA","47","51","47","0","47","3","51","0","51","Fri Feb 19 15:04:47 2021","The main experiment item","yes","Lexical_Decision_Task.osexp","/Users/francescamasili","no","Andale Mono","no","18","no","white","no","yes","576","legacy","47","47","3","/Users/francescamasili/subject-5226303.csv","legacy","Lentiform Loewenfeld","3.3.7","yes","yes","600bd7cfb6416f0113b04181","602110864497cf011d9c0822","0","f","NA","space","space","space","NA","f","575","NA","722","4504","887","NA","575","2","legacy","1024","2","48000","-16","task","5226303","odd","NA","17604","20331","19608","118187","3615","9026","8136","118690","NA","118184","118690","118127","20331","119266","16052","117627","3605","106069","Lexical Decision Task","48","48502","52","yes","1024"
"2.966923697","5.4","2","fume","word","92.45283018867924","92.45283018867924","937.6415094339623","937.6415094339623","black","no","legacy","legacy","legacy","0","uniform","1","undefined","undefined","undefined","1","j","0","0","0","0","52","0","0","0","52","NA","48","52","48","0","48","3","52","0","52","Fri Feb 19 15:04:47 2021","The main experiment item","yes","Lexical_Decision_Task.osexp","/Users/francescamasili","no","Andale Mono","no","18","no","white","no","yes","576","legacy","48","48","3","/Users/francescamasili/subject-5226303.csv","legacy","Lentiform Loewenfeld","3.3.7","yes","yes","600bd7cfb6416f0113b04181","602110864497cf011d9c0822","0","j","NA","space","space","space","NA","j","1193","NA","722","4504","887","NA","1193","2","legacy","1024","2","48000","-16","task","5226303","odd","NA","17604","20331","19608","119829","3615","9026","8136","120332","NA","119827","120332","119770","20331","121526","16052","119270","3605","106069","Lexical Decision Task","49","49695","53","yes","1024"
"2.7084209","0","8","vump","non-word","92.5925925925926","92.5925925925926","945.425925925926","945.425925925926","black","no","legacy","legacy","legacy","0","uniform","1","undefined","undefined","undefined","1","f","0","0","0","0","53","0","0","0","53","NA","49","53","49","0","49","3","53","0","53","Fri Feb 19 15:04:47 2021","The main experiment item","yes","Lexical_Decision_Task.osexp","/Users/francescamasili","no","Andale Mono","no","18","no","white","no","yes","576","legacy","49","49","3","/Users/francescamasili/subject-5226303.csv","legacy","Lentiform Loewenfeld","3.3.7","yes","yes","600bd7cfb6416f0113b04181","602110864497cf011d9c0822","0","f","NA","space","space","space","NA","f","1358","NA","722","4504","887","NA","1358","2","legacy","1024","2","48000","-16","task","5226303","odd","NA","17604","20331","19608","122089","3615","9026","8136","122592","NA","122087","122592","122030","20331","123951","16052","121530","3605","106069","Lexical Decision Task","50","51053","54","yes","1024"
"3.174641193","0","3","ramb","non-word","90.9090909090909","90.9090909090909","953.5272727272727","953.5272727272727","black","no","legacy","legacy","legacy","0","uniform","0","undefined","undefined","undefined","0","f","0","0","0","0","54","0","0","0","54","0","50","54","50","0","50","3","54","0","54","Fri Feb 19 15:04:47 2021","The main experiment item","yes","Lexical_Decision_Task.osexp","/Users/francescamasili","no","Andale Mono","no","18","no","white","no","yes","576","legacy","50","50","3","/Users/francescamasili/subject-5226303.csv","legacy","Lentiform Loewenfeld","3.3.7","yes","yes","600bd7cfb6416f0113b04181","602110864497cf011d9c0822","0","j","NA","space","space","space","space","j","1391","NA","722","4504","887","1341","1391","2","legacy","1024","2","48000","-16","task","5226303","odd","NA","17604","20331","19608","125877","3615","9026","8136","126380","124483","125875","126381","124454","20331","127773","16052","123954","3605","106069","Lexical Decision Task","50","52444","55","yes","1024"
"2.803231716","5.26","3","kiln","word","89.28571428571429","89.28571428571429","949.2321428571429","949.2321428571429","black","no","legacy","legacy","legacy","0","uniform","0","undefined","undefined","undefined","0","j","0","0","0","0","55","0","0","0","55","0","51","55","51","0","51","3","55","0","55","Fri Feb 19 15:04:47 2021","The main experiment item","yes","Lexical_Decision_Task.osexp","/Users/francescamasili","no","Andale Mono","no","18","no","white","no","yes","576","legacy","51","51","3","/Users/francescamasili/subject-5226303.csv","legacy","Lentiform Loewenfeld","3.3.7","yes","yes","600bd7cfb6416f0113b04181","602110864497cf011d9c0822","0","f","NA","space","space","space","space","f","713","NA","722","4504","887","1341","713","2","legacy","1024","2","48000","-16","task","5226303","odd","NA","17604","20331","19608","129339","3615","9026","8136","129842","124483","129336","129842","129276","20331","130555","16052","123954","3605","127776","Lexical Decision Task","50","53157","56","yes","1024"
"3.460446784","0","5","dess","non-word","87.71929824561404","87.71929824561404","940.6140350877193","940.6140350877193","black","no","legacy","legacy","legacy","0","uniform","0","undefined","undefined","undefined","0","f","0","0","0","0","56","0","0","0","56","0","52","56","52","0","52","3","56","0","56","Fri Feb 19 15:04:47 2021","The main experiment item","yes","Lexical_Decision_Task.osexp","/Users/francescamasili","no","Andale Mono","no","18","no","white","no","yes","576","legacy","52","52","3","/Users/francescamasili/subject-5226303.csv","legacy","Lentiform Loewenfeld","3.3.7","yes","yes","600bd7cfb6416f0113b04181","602110864497cf011d9c0822","0","j","NA","space","space","space","space","j","458","NA","722","4504","887","1341","458","2","legacy","1024","2","48000","-16","task","5226303","odd","NA","17604","20331","19608","132121","3615","9026","8136","132624","124483","132118","132624","132059","20331","133083","16052","123954","3605","130559","Lexical Decision Task","50","53615","57","yes","1024"
"2.920123326","7.43","4","duel","word","87.93103448275862","87.93103448275862","953.7931034482758","953.7931034482758","black","no","legacy","legacy","legacy","0","uniform","1","undefined","undefined","undefined","1","j","0","0","0","0","57","0","0","0","57","0","53","57","53","0","53","3","57","0","57","Fri Feb 19 15:04:47 2021","The main experiment item","yes","Lexical_Decision_Task.osexp","/Users/francescamasili","no","Andale Mono","no","18","no","white","no","yes","576","legacy","53","53","3","/Users/francescamasili/subject-5226303.csv","legacy","Lentiform Loewenfeld","3.3.7","yes","yes","600bd7cfb6416f0113b04181","602110864497cf011d9c0822","0","j","NA","space","space","space","space","j","1705","NA","722","4504","887","1341","1705","2","legacy","1024","2","48000","-16","task","5226303","odd","NA","17604","20331","19608","134649","3615","9026","8136","135152","124483","134646","135152","134587","20331","136858","16052","123954","3605","133087","Lexical Decision Task","51","55320","58","yes","1024"
"2.703007489","8.37","3","pulp","word","88.13559322033899","88.13559322033899","947.8135593220339","947.8135593220339","black","no","legacy","legacy","legacy","0","uniform","1","undefined","undefined","undefined","1","j","0","0","0","0","58","0","0","0","58","0","54","58","54","0","54","3","58","0","58","Fri Feb 19 15:04:47 2021","The main experiment item","yes","Lexical_Decision_Task.osexp","/Users/francescamasili","no","Andale Mono","no","18","no","white","no","yes","576","legacy","54","54","3","/Users/francescamasili/subject-5226303.csv","legacy","Lentiform Loewenfeld","3.3.7","yes","yes","600bd7cfb6416f0113b04181","602110864497cf011d9c0822","0","j","NA","space","space","space","space","j","601","NA","722","4504","887","1341","601","2","legacy","1024","2","48000","-16","task","5226303","odd","NA","17604","20331","19608","137421","3615","9026","8136","137924","124483","137418","137924","137362","20331","138525","16052","136862","3605","133087","Lexical Decision Task","52","55921","59","yes","1024"
"2.953276337","6.32","4","thaw","word","86.66666666666667","86.66666666666667","941.9833333333333","941.9833333333333","black","no","legacy","legacy","legacy","0","uniform","0","undefined","undefined","undefined","0","j","0","0","0","0","59","0","0","0","59","0","55","59","55","0","55","3","59","0","59","Fri Feb 19 15:04:47 2021","The main experiment item","yes","Lexical_Decision_Task.osexp","/Users/francescamasili","no","Andale Mono","no","18","no","white","no","yes","576","legacy","55","55","3","/Users/francescamasili/subject-5226303.csv","legacy","Lentiform Loewenfeld","3.3.7","yes","yes","600bd7cfb6416f0113b04181","602110864497cf011d9c0822","0","f","NA","space","space","space","space","f","598","NA","722","4504","887","1341","598","2","legacy","1024","2","48000","-16","task","5226303","odd","NA","17604","20331","19608","139089","3615","9026","8136","139592","124483","139086","139592","139029","20331","140191","16052","138529","3605","133087","Lexical Decision Task","52","56519","60","yes","1024"
"3.100255637","0","6","brax","non-word","86.88524590163935","86.88524590163935","943.6065573770492","943.6065573770492","black","no","legacy","legacy","legacy","0","uniform","1","undefined","undefined","undefined","1","f","0","0","0","0","60","0","0","0","60","0","56","60","56","0","56","3","60","0","60","Fri Feb 19 15:04:47 2021","The main experiment item","yes","Lexical_Decision_Task.osexp","/Users/francescamasili","no","Andale Mono","no","18","no","white","no","yes","576","legacy","56","56","3","/Users/francescamasili/subject-5226303.csv","legacy","Lentiform Loewenfeld","3.3.7","yes","yes","600bd7cfb6416f0113b04181","602110864497cf011d9c0822","0","f","NA","space","space","space","space","f","1041","NA","722","4504","887","1341","1041","2","legacy","1024","2","48000","-16","task","5226303","odd","NA","17604","20331","19608","141758","3615","9026","8136","142261","124483","141755","142261","141695","20331","143303","16052","138529","3605","140195","Lexical Decision Task","53","57560","61","yes","1024"
"2.695770526","7.34","6","pawn","word","87.09677419354838","87.09677419354838","948.516129032258","948.516129032258","black","no","legacy","legacy","legacy","0","uniform","1","undefined","undefined","undefined","1","j","0","0","0","0","61","0","0","0","61","0","57","61","57","0","57","3","61","0","61","Fri Feb 19 15:04:47 2021","The main experiment item","yes","Lexical_Decision_Task.osexp","/Users/francescamasili","no","Andale Mono","no","18","no","white","no","yes","576","legacy","57","57","3","/Users/francescamasili/subject-5226303.csv","legacy","Lentiform Loewenfeld","3.3.7","yes","yes","600bd7cfb6416f0113b04181","602110864497cf011d9c0822","0","j","NA","space","space","space","space","j","1248","NA","722","4504","887","1341","1248","2","legacy","1024","2","48000","-16","task","5226303","odd","NA","17604","20331","19608","143867","3615","9026","8136","144370","124483","143864","144370","143807","20331","145619","16052","143307","3605","140195","Lexical Decision Task","54","58808","62","yes","1024"
"2.616654026","9.37","5","gift","word","87.3015873015873","87.3015873015873","953.9047619047619","953.9047619047619","black","no","legacy","legacy","legacy","0","uniform","1","undefined","undefined","undefined","1","j","0","0","0","0","62","0","0","0","62","0","58","62","58","0","58","3","62","0","62","Fri Feb 19 15:04:47 2021","The main experiment item","yes","Lexical_Decision_Task.osexp","/Users/francescamasili","no","Andale Mono","no","18","no","white","no","yes","576","legacy","58","58","3","/Users/francescamasili/subject-5226303.csv","legacy","Lentiform Loewenfeld","3.3.7","yes","yes","600bd7cfb6416f0113b04181","602110864497cf011d9c0822","0","j","NA","space","space","space","space","j","1288","NA","722","4504","887","1341","1288","2","legacy","1024","2","48000","-16","task","5226303","odd","NA","17604","20331","19608","146186","3615","9026","8136","146689","124483","146183","146689","146123","20331","147978","16052","145623","3605","140195","Lexical Decision Task","55","60096","63","yes","1024"
"2.69019608","9.01","2","myth","word","87.5","87.5","948.359375","948.359375","black","no","legacy","legacy","legacy","0","uniform","1","undefined","undefined","undefined","1","j","0","0","0","0","63","0","0","0","63","0","59","63","59","0","59","3","63","0","63","Fri Feb 19 15:04:47 2021","The main experiment item","yes","Lexical_Decision_Task.osexp","/Users/francescamasili","no","Andale Mono","no","18","no","white","no","yes","576","legacy","59","59","3","/Users/francescamasili/subject-5226303.csv","legacy","Lentiform Loewenfeld","3.3.7","yes","yes","600bd7cfb6416f0113b04181","602110864497cf011d9c0822","0","j","NA","space","space","space","space","j","599","NA","722","4504","887","1341","599","2","legacy","1024","2","48000","-16","task","5226303","odd","NA","17604","20331","19608","148541","3615","9026","8136","149044","124483","148538","149044","148482","20331","149644","16052","147982","3605","140195","Lexical Decision Task","56","60695","64","yes","1024"
"2.75025376","10.2","6","jump","word","87.6923076923077","87.6923076923077","941.6769230769231","941.6769230769231","black","no","legacy","legacy","legacy","0","uniform","1","undefined","undefined","undefined","1","j","0","0","0","0","64","0","0","0","64","0","60","64","60","0","60","3","64","0","64","Fri Feb 19 15:04:47 2021","The main experiment item","yes","Lexical_Decision_Task.osexp","/Users/francescamasili","no","Andale Mono","no","18","no","white","no","yes","576","legacy","60","60","3","/Users/francescamasili/subject-5226303.csv","legacy","Lentiform Loewenfeld","3.3.7","yes","yes","600bd7cfb6416f0113b04181","602110864497cf011d9c0822","0","j","NA","space","space","space","space","j","514","NA","722","4504","887","1341","514","2","legacy","1024","2","48000","-16","task","5226303","odd","NA","17604","20331","19608","150206","3615","9026","8136","150709","124483","150203","150709","150147","20331","151224","16052","149647","3605","140195","Lexical Decision Task","57","61209","65","yes","1024"
"3.028977705","0","7","frow","non-word","87.87878787878788","87.87878787878788","939.0757575757576","939.0757575757576","black","no","legacy","legacy","legacy","0","uniform","1","undefined","undefined","undefined","1","f","0","0","0","0","65","0","0","0","65","0","61","65","61","0","61","3","65","0","65","Fri Feb 19 15:04:47 2021","The main experiment item","yes","Lexical_Decision_Task.osexp","/Users/francescamasili","no","Andale Mono","no","18","no","white","no","yes","576","legacy","61","61","3","/Users/francescamasili/subject-5226303.csv","legacy","Lentiform Loewenfeld","3.3.7","yes","yes","600bd7cfb6416f0113b04181","602110864497cf011d9c0822","0","f","NA","space","space","space","space","f","770","NA","722","4504","887","1341","770","2","legacy","1024","2","48000","-16","task","5226303","odd","NA","17604","20331","19608","151786","3615","9026","8136","152289","124483","151783","152289","151728","20331","153059","16052","151228","3605","140195","Lexical Decision Task","58","61979","66","yes","1024"
"2.664011697","8.19","4","hawk","word","88.05970149253731","88.05970149253731","937.3134328358209","937.3134328358209","black","no","legacy","legacy","legacy","0","uniform","1","undefined","undefined","undefined","1","j","0","0","0","0","66","0","0","0","66","0","62","66","62","0","62","3","66","0","66","Fri Feb 19 15:04:47 2021","The main experiment item","yes","Lexical_Decision_Task.osexp","/Users/francescamasili","no","Andale Mono","no","18","no","white","no","yes","576","legacy","62","62","3","/Users/francescamasili/subject-5226303.csv","legacy","Lentiform Loewenfeld","3.3.7","yes","yes","600bd7cfb6416f0113b04181","602110864497cf011d9c0822","0","j","NA","space","space","space","space","j","821","NA","722","4504","887","1341","821","2","legacy","1024","2","48000","-16","task","5226303","odd","NA","17604","20331","19608","153625","3615","9026","8136","154129","124483","153622","154130","153563","20331","154952","16052","153063","3605","140195","Lexical Decision Task","59","62800","67","yes","1024"
"2.884795364","0","6","flob","non-word","88.23529411764706","88.23529411764706","935.1911764705883","935.1911764705883","black","no","legacy","legacy","legacy","0","uniform","1","undefined","undefined","undefined","1","f","0","0","0","0","67","0","0","0","67","0","63","67","63","0","63","3","67","0","67","Fri Feb 19 15:04:47 2021","The main experiment item","yes","Lexical_Decision_Task.osexp","/Users/francescamasili","no","Andale Mono","no","18","no","white","no","yes","576","legacy","63","63","3","/Users/francescamasili/subject-5226303.csv","legacy","Lentiform Loewenfeld","3.3.7","yes","yes","600bd7cfb6416f0113b04181","602110864497cf011d9c0822","0","f","NA","space","space","space","space","f","793","NA","722","4504","887","1341","793","2","legacy","1024","2","48000","-16","task","5226303","odd","NA","17604","20331","19608","155514","3615","9026","8136","156017","124483","155512","156017","155455","20331","156811","16052","154955","3605","140195","Lexical Decision Task","60","63593","68","yes","1024"
"3.248054965","7.86","5","glow","word","88.40579710144928","88.40579710144928","931.2028985507246","931.2028985507246","black","no","legacy","legacy","legacy","0","uniform","1","undefined","undefined","undefined","1","j","0","0","0","0","68","0","0","0","68","0","64","68","64","0","64","3","68","0","68","Fri Feb 19 15:04:47 2021","The main experiment item","yes","Lexical_Decision_Task.osexp","/Users/francescamasili","no","Andale Mono","no","18","no","white","no","yes","576","legacy","64","64","3","/Users/francescamasili/subject-5226303.csv","legacy","Lentiform Loewenfeld","3.3.7","yes","yes","600bd7cfb6416f0113b04181","602110864497cf011d9c0822","0","j","NA","space","space","space","space","j","660","NA","722","4504","887","1341","660","2","legacy","1024","2","48000","-16","task","5226303","odd","NA","17604","20331","19608","157362","3615","9026","8136","157865","124483","157359","157865","157314","20331","158526","16052","156814","3605","140195","Lexical Decision Task","61","64253","69","yes","1024"
"3.067193647","6.73","6","raft","word","88.57142857142857","88.57142857142857","931.4428571428572","931.4428571428572","black","no","legacy","legacy","legacy","0","uniform","1","undefined","undefined","undefined","1","j","0","0","0","0","69","0","0","0","69","0","65","69","65","0","65","3","69","0","69","Fri Feb 19 15:04:47 2021","The main experiment item","yes","Lexical_Decision_Task.osexp","/Users/francescamasili","no","Andale Mono","no","18","no","white","no","yes","576","legacy","65","65","3","/Users/francescamasili/subject-5226303.csv","legacy","Lentiform Loewenfeld","3.3.7","yes","yes","600bd7cfb6416f0113b04181","602110864497cf011d9c0822","0","j","NA","space","space","space","space","j","948","NA","722","4504","887","1341","948","2","legacy","1024","2","48000","-16","task","5226303","odd","NA","17604","20331","19608","159092","3615","9026","8136","159595","124483","159090","159595","159030","20331","160544","16052","158530","3605","140195","Lexical Decision Task","62","65201","70","yes","1024"
"3.274157849","0","8","leet","non-word","88.73239436619718","88.73239436619718","929.056338028169","929.056338028169","black","no","legacy","legacy","legacy","0","uniform","1","undefined","undefined","undefined","1","f","0","0","0","0","70","0","0","0","70","0","66","70","66","0","66","3","70","0","70","Fri Feb 19 15:04:47 2021","The main experiment item","yes","Lexical_Decision_Task.osexp","/Users/francescamasili","no","Andale Mono","no","18","no","white","no","yes","576","legacy","66","66","3","/Users/francescamasili/subject-5226303.csv","legacy","Lentiform Loewenfeld","3.3.7","yes","yes","600bd7cfb6416f0113b04181","602110864497cf011d9c0822","0","f","NA","space","space","space","space","f","762","NA","722","4504","887","1341","762","2","legacy","1024","2","48000","-16","task","5226303","odd","NA","17604","20331","19608","161108","3615","9026","8136","161611","124483","161106","161611","161048","20331","162374","16052","160548","3605","140195","Lexical Decision Task","63","65963","71","yes","1024"
"2.813801082","5.47","7","nook","word","88.88888888888889","88.88888888888889","931.4027777777778","931.4027777777778","black","no","legacy","legacy","legacy","0","uniform","1","undefined","undefined","undefined","1","j","0","0","0","0","71","0","0","0","71","0","67","71","67","0","67","3","71","0","71","Fri Feb 19 15:04:47 2021","The main experiment item","yes","Lexical_Decision_Task.osexp","/Users/francescamasili","no","Andale Mono","no","18","no","white","no","yes","576","legacy","67","67","3","/Users/francescamasili/subject-5226303.csv","legacy","Lentiform Loewenfeld","3.3.7","yes","yes","600bd7cfb6416f0113b04181","602110864497cf011d9c0822","0","j","NA","space","space","space","space","j","1098","NA","722","4504","887","1341","1098","2","legacy","1024","2","48000","-16","task","5226303","odd","NA","17604","20331","19608","162936","3615","9026","8136","163440","124483","162934","163440","162877","20331","164539","16052","162377","3605","140195","Lexical Decision Task","64","67061","72","yes","1024"
"3.16326079","0","5","parg","non-word","89.04109589041096","89.04109589041096","929.9589041095891","929.9589041095891","black","no","legacy","legacy","legacy","0","uniform","1","undefined","undefined","undefined","1","f","0","0","0","0","72","0","0","0","72","0","68","72","68","0","68","3","72","0","72","Fri Feb 19 15:04:47 2021","The main experiment item","yes","Lexical_Decision_Task.osexp","/Users/francescamasili","no","Andale Mono","no","18","no","white","no","yes","576","legacy","68","68","3","/Users/francescamasili/subject-5226303.csv","legacy","Lentiform Loewenfeld","3.3.7","yes","yes","600bd7cfb6416f0113b04181","602110864497cf011d9c0822","0","f","NA","space","space","space","space","f","826","NA","722","4504","887","1341","826","2","legacy","1024","2","48000","-16","task","5226303","odd","NA","17604","20331","19608","165103","3615","9026","8136","165606","124483","165100","165606","165043","20331","166433","16052","164543","3605","140195","Lexical Decision Task","65","67887","73","yes","1024"
"2.755364069","7.72","2","hoax","word","89.1891891891892","89.1891891891892","925.9054054054054","925.9054054054054","black","no","legacy","legacy","legacy","0","uniform","1","undefined","undefined","undefined","1","j","0","0","0","0","73","0","0","0","73","0","69","73","69","0","69","3","73","0","73","Fri Feb 19 15:04:47 2021","The main experiment item","yes","Lexical_Decision_Task.osexp","/Users/francescamasili","no","Andale Mono","no","18","no","white","no","yes","576","legacy","69","69","3","/Users/francescamasili/subject-5226303.csv","legacy","Lentiform Loewenfeld","3.3.7","yes","yes","600bd7cfb6416f0113b04181","602110864497cf011d9c0822","0","j","NA","space","space","space","space","j","630","NA","722","4504","887","1341","630","2","legacy","1024","2","48000","-16","task","5226303","odd","NA","17604","20331","19608","166998","3615","9026","8136","167501","124483","166996","167501","166937","20331","168132","16052","166437","3605","140195","Lexical Decision Task","66","68517","74","yes","1024"
"2.708989954","9.28","9","bowl","word","89.33333333333333","89.33333333333333","926.08","926.08","black","no","legacy","legacy","legacy","0","uniform","1","undefined","undefined","undefined","1","j","0","0","0","0","74","0","0","0","74","0","70","74","70","0","70","3","74","0","74","Fri Feb 19 15:04:47 2021","The main experiment item","yes","Lexical_Decision_Task.osexp","/Users/francescamasili","no","Andale Mono","no","18","no","white","no","yes","576","legacy","70","70","3","/Users/francescamasili/subject-5226303.csv","legacy","Lentiform Loewenfeld","3.3.7","yes","yes","600bd7cfb6416f0113b04181","602110864497cf011d9c0822","0","j","NA","space","space","space","space","j","939","NA","722","4504","887","1341","939","2","legacy","1024","2","48000","-16","task","5226303","odd","NA","17604","20331","19608","168695","3615","9026","8136","169198","124483","168693","169198","168636","20331","170138","16052","168136","3605","140195","Lexical Decision Task","67","69456","75","yes","1024"
"2.809559715","8.44","4","volt","word","89.47368421052632","89.47368421052632","925.9605263157895","925.9605263157895","black","no","legacy","legacy","legacy","0","uniform","1","undefined","undefined","undefined","1","j","0","0","0","0","75","0","0","0","75","0","71","75","71","0","71","3","75","0","75","Fri Feb 19 15:04:47 2021","The main experiment item","yes","Lexical_Decision_Task.osexp","/Users/francescamasili","no","Andale Mono","no","18","no","white","no","yes","576","legacy","71","71","3","/Users/francescamasili/subject-5226303.csv","legacy","Lentiform Loewenfeld","3.3.7","yes","yes","600bd7cfb6416f0113b04181","602110864497cf011d9c0822","0","j","NA","space","space","space","space","j","917","NA","722","4504","887","1341","917","2","legacy","1024","2","48000","-16","task","5226303","odd","NA","17604","20331","19608","170701","3615","9026","8136","171204","124483","170698","171204","170642","20331","172122","16052","170142","3605","140195","Lexical Decision Task","68","70373","76","yes","1024"
"3.14849993","10.75","7","hour","word","89.6103896103896","89.6103896103896","921.6363636363636","921.6363636363636","black","no","legacy","legacy","legacy","0","uniform","1","undefined","undefined","undefined","1","j","0","0","0","0","76","0","0","0","76","0","72","76","72","0","72","3","76","0","76","Fri Feb 19 15:04:47 2021","The main experiment item","yes","Lexical_Decision_Task.osexp","/Users/francescamasili","no","Andale Mono","no","18","no","white","no","yes","576","legacy","72","72","3","/Users/francescamasili/subject-5226303.csv","legacy","Lentiform Loewenfeld","3.3.7","yes","yes","600bd7cfb6416f0113b04181","602110864497cf011d9c0822","0","j","NA","space","space","space","space","j","593","NA","722","4504","887","1341","593","2","legacy","1024","2","48000","-16","task","5226303","odd","NA","17604","20331","19608","172683","3615","9026","8136","173187","124483","172681","173187","172626","20331","173781","16052","172126","3605","140195","Lexical Decision Task","69","70966","77","yes","1024"
"2.67699827","0","6","hulf","non-word","89.74358974358974","89.74358974358974","920.5641025641025","920.5641025641025","black","no","legacy","legacy","legacy","0","uniform","1","undefined","undefined","undefined","1","f","0","0","0","0","77","0","0","0","77","0","73","77","73","0","73","3","77","0","77","Fri Feb 19 15:04:47 2021","The main experiment item","yes","Lexical_Decision_Task.osexp","/Users/francescamasili","no","Andale Mono","no","18","no","white","no","yes","576","legacy","73","73","3","/Users/francescamasili/subject-5226303.csv","legacy","Lentiform Loewenfeld","3.3.7","yes","yes","600bd7cfb6416f0113b04181","602110864497cf011d9c0822","0","f","NA","space","space","space","space","f","838","NA","722","4504","887","1341","838","2","legacy","1024","2","48000","-16","task","5226303","odd","NA","17604","20331","19608","174344","3615","9026","8136","174847","124483","174342","174847","174285","20331","175686","16052","173785","3605","140195","Lexical Decision Task","70","71804","78","yes","1024"
"2.714888338","0","3","brug","non-word","89.87341772151899","89.87341772151899","919.126582278481","919.126582278481","black","no","legacy","legacy","legacy","0","uniform","1","undefined","undefined","undefined","1","f","0","0","0","0","78","0","0","0","78","0","74","78","74","0","74","3","78","0","78","Fri Feb 19 15:04:47 2021","The main experiment item","yes","Lexical_Decision_Task.osexp","/Users/francescamasili","no","Andale Mono","no","18","no","white","no","yes","576","legacy","74","74","3","/Users/francescamasili/subject-5226303.csv","legacy","Lentiform Loewenfeld","3.3.7","yes","yes","600bd7cfb6416f0113b04181","602110864497cf011d9c0822","0","f","NA","space","space","space","space","f","807","NA","722","4504","887","1341","807","2","legacy","1024","2","48000","-16","task","5226303","odd","NA","17604","20331","19608","176249","3615","9026","8136","176752","124483","176247","176752","176190","20331","177560","16052","175690","3605","140195","Lexical Decision Task","71","72611","79","yes","1024"
"3.145920145","8.51","8","flew","word","90","90","915.7375","915.7375","black","no","legacy","legacy","legacy","0","uniform","1","undefined","undefined","undefined","1","j","0","0","0","0","79","0","0","0","79","0","75","79","75","0","75","3","79","0","79","Fri Feb 19 15:04:47 2021","The main experiment item","yes","Lexical_Decision_Task.osexp","/Users/francescamasili","no","Andale Mono","no","18","no","white","no","yes","576","legacy","75","75","3","/Users/francescamasili/subject-5226303.csv","legacy","Lentiform Loewenfeld","3.3.7","yes","yes","600bd7cfb6416f0113b04181","602110864497cf011d9c0822","0","j","NA","space","space","space","space","j","648","NA","722","4504","887","1341","648","2","legacy","1024","2","48000","-16","task","5226303","odd","NA","17604","20331","19608","178124","3615","9026","8136","178627","124483","178121","178627","178064","20331","179275","16052","177564","3605","140195","Lexical Decision Task","72","73259","80","yes","1024"
"3.039414119","0","9","meep","non-word","90.12345679012346","90.12345679012346","914.7283950617284","914.7283950617284","black","no","legacy","legacy","legacy","0","uniform","1","undefined","undefined","undefined","1","f","0","0","0","0","80","0","0","0","80","0","76","80","76","0","76","3","80","0","80","Fri Feb 19 15:04:47 2021","The main experiment item","yes","Lexical_Decision_Task.osexp","/Users/francescamasili","no","Andale Mono","no","18","no","white","no","yes","576","legacy","76","76","3","/Users/francescamasili/subject-5226303.csv","legacy","Lentiform Loewenfeld","3.3.7","yes","yes","600bd7cfb6416f0113b04181","602110864497cf011d9c0822","0","f","NA","space","space","space","space","f","834","NA","722","4504","887","1341","834","2","legacy","1024","2","48000","-16","task","5226303","odd","NA","17604","20331","19608","179839","3615","9026","8136","180342","124483","179837","180342","179779","20331","181177","16052","179279","3605","140195","Lexical Decision Task","73","74093","81","yes","1024"
"2.843025032","0","9","pusk","non-word","90.2439024390244","90.2439024390244","911.4634146341464","911.4634146341464","black","no","legacy","legacy","legacy","0","uniform","1","undefined","undefined","undefined","1","f","0","0","0","0","81","0","0","0","81","0","77","81","77","0","77","3","81","0","81","Fri Feb 19 15:04:47 2021","The main experiment item","yes","Lexical_Decision_Task.osexp","/Users/francescamasili","no","Andale Mono","no","18","no","white","no","yes","576","legacy","77","77","3","/Users/francescamasili/subject-5226303.csv","legacy","Lentiform Loewenfeld","3.3.7","yes","yes","600bd7cfb6416f0113b04181","602110864497cf011d9c0822","0","f","NA","space","space","space","space","f","647","NA","722","4504","887","1341","647","2","legacy","1024","2","48000","-16","task","5226303","odd","NA","17604","20331","19608","181740","3615","9026","8136","182243","124483","181737","182243","181680","20331","182891","16052","181180","3605","140195","Lexical Decision Task","74","74740","82","yes","1024"
"2.898725182","0","7","turl","non-word","90.36144578313252","90.36144578313252","909.6746987951807","909.6746987951807","black","no","legacy","legacy","legacy","0","uniform","1","undefined","undefined","undefined","1","f","0","0","0","0","82","0","0","0","82","0","78","82","78","0","78","3","82","0","82","Fri Feb 19 15:04:47 2021","The main experiment item","yes","Lexical_Decision_Task.osexp","/Users/francescamasili","no","Andale Mono","no","18","no","white","no","yes","576","legacy","78","78","3","/Users/francescamasili/subject-5226303.csv","legacy","Lentiform Loewenfeld","3.3.7","yes","yes","600bd7cfb6416f0113b04181","602110864497cf011d9c0822","0","f","NA","space","space","space","space","f","763","NA","722","4504","887","1341","763","2","legacy","1024","2","48000","-16","task","5226303","odd","NA","17604","20331","19608","183454","3615","9026","8136","183957","124483","183452","183957","183395","20331","184721","16052","182894","3605","140195","Lexical Decision Task","75","75503","83","yes","1024"
"2.744553742","0","2","nawk","non-word","90.47619047619048","90.47619047619048","910.1309523809524","910.1309523809524","black","no","legacy","legacy","legacy","0","uniform","1","undefined","undefined","undefined","1","f","0","0","0","0","83","0","0","0","83","0","79","83","79","0","79","3","83","0","83","Fri Feb 19 15:04:47 2021","The main experiment item","yes","Lexical_Decision_Task.osexp","/Users/francescamasili","no","Andale Mono","no","18","no","white","no","yes","576","legacy","79","79","3","/Users/francescamasili/subject-5226303.csv","legacy","Lentiform Loewenfeld","3.3.7","yes","yes","600bd7cfb6416f0113b04181","602110864497cf011d9c0822","0","f","NA","space","space","space","space","f","948","NA","722","4504","887","1341","948","2","legacy","1024","2","48000","-16","task","5226303","odd","NA","17604","20331","19608","185284","3615","9026","8136","185787","124483","185282","185787","185225","20331","186736","16052","184724","3605","140195","Lexical Decision Task","76","76451","84","yes","1024"
"2.713490543","0","3","feps","non-word","90.58823529411765","90.58823529411765","906.9058823529411","906.9058823529411","black","no","legacy","legacy","legacy","0","uniform","1","undefined","undefined","undefined","1","f","0","0","0","0","84","0","0","0","84","0","80","84","80","0","80","3","84","0","84","Fri Feb 19 15:04:47 2021","The main experiment item","yes","Lexical_Decision_Task.osexp","/Users/francescamasili","no","Andale Mono","no","18","no","white","no","yes","576","legacy","80","80","3","/Users/francescamasili/subject-5226303.csv","legacy","Lentiform Loewenfeld","3.3.7","yes","yes","600bd7cfb6416f0113b04181","602110864497cf011d9c0822","0","f","NA","space","space","space","space","f","636","NA","722","4504","887","1341","636","2","legacy","1024","2","48000","-16","task","5226303","odd","NA","17604","20331","19608","187298","3615","9026","8136","187801","124483","187296","187801","187239","20331","188438","16052","186739","3605","140195","Lexical Decision Task","77","77087","85","yes","1024"
"2.838639236","0","4","furg","non-word","90.69767441860465","90.69767441860465","903.2325581395348","903.2325581395348","black","no","legacy","legacy","legacy","0","uniform","1","undefined","undefined","undefined","1","f","0","0","0","0","85","0","0","0","85","0","81","85","81","0","81","3","85","0","85","Fri Feb 19 15:04:47 2021","The main experiment item","yes","Lexical_Decision_Task.osexp","/Users/francescamasili","no","Andale Mono","no","18","no","white","no","yes","576","legacy","81","81","3","/Users/francescamasili/subject-5226303.csv","legacy","Lentiform Loewenfeld","3.3.7","yes","yes","600bd7cfb6416f0113b04181","602110864497cf011d9c0822","0","f","NA","space","space","space","space","f","591","NA","722","4504","887","1341","591","2","legacy","1024","2","48000","-16","task","5226303","odd","NA","17604","20331","19608","189001","3615","9026","8136","189504","124483","188999","189504","188942","20331","190097","16052","188441","3605","140195","Lexical Decision Task","78","77678","86","yes","1024"
"3.230789326","5.38","5","prim","word","90.80459770114942","90.80459770114942","899.735632183908","899.735632183908","black","no","legacy","legacy","legacy","0","uniform","1","undefined","undefined","undefined","1","j","0","0","0","0","86","0","0","0","86","0","82","86","82","0","82","3","86","0","86","Fri Feb 19 15:04:47 2021","The main experiment item","yes","Lexical_Decision_Task.osexp","/Users/francescamasili","no","Andale Mono","no","18","no","white","no","yes","576","legacy","82","82","3","/Users/francescamasili/subject-5226303.csv","legacy","Lentiform Loewenfeld","3.3.7","yes","yes","600bd7cfb6416f0113b04181","602110864497cf011d9c0822","0","j","NA","space","space","space","space","j","599","NA","722","4504","887","1341","599","2","legacy","1024","2","48000","-16","task","5226303","odd","NA","17604","20331","19608","190659","3615","9026","8136","191162","124483","190657","191162","190600","20331","191762","16052","190100","3605","140195","Lexical Decision Task","79","78277","87","yes","1024"
"2.907588697","8.91","9","mood","word","90.9090909090909","90.9090909090909","895.6931818181819","895.6931818181819","black","no","legacy","legacy","legacy","0","uniform","1","undefined","undefined","undefined","1","j","0","0","0","0","87","0","0","0","87","0","83","87","83","0","83","3","87","0","87","Fri Feb 19 15:04:47 2021","The main experiment item","yes","Lexical_Decision_Task.osexp","/Users/francescamasili","no","Andale Mono","no","18","no","white","no","yes","576","legacy","83","83","3","/Users/francescamasili/subject-5226303.csv","legacy","Lentiform Loewenfeld","3.3.7","yes","yes","600bd7cfb6416f0113b04181","602110864497cf011d9c0822","0","j","NA","space","space","space","space","j","544","NA","722","4504","887","1341","544","2","legacy","1024","2","48000","-16","task","5226303","odd","NA","17604","20331","19608","192325","3615","9026","8136","192828","124483","192322","192828","192266","20331","193373","16052","191766","3605","140195","Lexical Decision Task","80","78821","88","yes","1024"
"3.374137706","10.21","4","tree","word","91.01123595505618","91.01123595505618","893.3932584269663","893.3932584269663","black","no","legacy","legacy","legacy","0","uniform","1","undefined","undefined","undefined","1","j","0","0","0","0","88","0","0","0","88","0","84","88","84","0","84","3","88","0","88","Fri Feb 19 15:04:47 2021","The main experiment item","yes","Lexical_Decision_Task.osexp","/Users/francescamasili","no","Andale Mono","no","18","no","white","no","yes","576","legacy","84","84","3","/Users/francescamasili/subject-5226303.csv","legacy","Lentiform Loewenfeld","3.3.7","yes","yes","600bd7cfb6416f0113b04181","602110864497cf011d9c0822","0","j","NA","space","space","space","space","j","691","NA","722","4504","887","1341","691","2","legacy","1024","2","48000","-16","task","5226303","odd","NA","17604","20331","19608","193936","3615","9026","8136","194439","124483","193934","194439","193877","20331","195131","16052","193377","3605","140195","Lexical Decision Task","81","79512","89","yes","1024"
"3.529815197","0","3","lerm","non-word","91.11111111111111","91.11111111111111","892.3222222222222","892.3222222222222","black","no","legacy","legacy","legacy","0","uniform","1","undefined","undefined","undefined","1","f","0","0","0","0","89","0","0","0","89","0","85","89","85","0","85","3","89","0","89","Fri Feb 19 15:04:47 2021","The main experiment item","yes","Lexical_Decision_Task.osexp","/Users/francescamasili","no","Andale Mono","no","18","no","white","no","yes","576","legacy","85","85","3","/Users/francescamasili/subject-5226303.csv","legacy","Lentiform Loewenfeld","3.3.7","yes","yes","600bd7cfb6416f0113b04181","602110864497cf011d9c0822","0","f","NA","space","space","space","space","f","797","NA","722","4504","887","1341","797","2","legacy","1024","2","48000","-16","task","5226303","odd","NA","17604","20331","19608","195694","3615","9026","8136","196197","124483","195692","196197","195635","20331","196995","16052","195134","3605","140195","Lexical Decision Task","82","80309","90","yes","1024"
"3.133964479","0","8","graw","non-word","91.20879120879121","91.20879120879121","892.5164835164835","892.5164835164835","black","no","legacy","legacy","legacy","0","uniform","1","undefined","undefined","undefined","1","f","0","0","0","0","90","0","0","0","90","0","86","90","86","0","86","3","90","0","90","Fri Feb 19 15:04:47 2021","The main experiment item","yes","Lexical_Decision_Task.osexp","/Users/francescamasili","no","Andale Mono","no","18","no","white","no","yes","576","legacy","86","86","3","/Users/francescamasili/subject-5226303.csv","legacy","Lentiform Loewenfeld","3.3.7","yes","yes","600bd7cfb6416f0113b04181","602110864497cf011d9c0822","0","f","NA","space","space","space","space","f","910","NA","722","4504","887","1341","910","2","legacy","1024","2","48000","-16","task","5226303","odd","NA","17604","20331","19608","197558","3615","9026","8136","198061","124483","197556","198061","197499","20331","198972","16052","196999","3605","140195","Lexical Decision Task","83","81219","91","yes","1024"
"3.218535505","7.85","7","goat","word","91.30434782608695","91.30434782608695","889.1413043478261","889.1413043478261","black","no","legacy","legacy","legacy","0","uniform","1","undefined","undefined","undefined","1","j","0","0","0","0","91","0","0","0","91","0","87","91","87","0","87","3","91","0","91","Fri Feb 19 15:04:47 2021","The main experiment item","yes","Lexical_Decision_Task.osexp","/Users/francescamasili","no","Andale Mono","no","18","no","white","no","yes","576","legacy","87","87","3","/Users/francescamasili/subject-5226303.csv","legacy","Lentiform Loewenfeld","3.3.7","yes","yes","600bd7cfb6416f0113b04181","602110864497cf011d9c0822","0","j","NA","space","space","space","space","j","582","NA","722","4504","887","1341","582","2","legacy","1024","2","48000","-16","task","5226303","odd","NA","17604","20331","19608","199535","3615","9026","8136","200038","124483","199533","200038","199476","20331","200622","16052","198976","3605","140195","Lexical Decision Task","84","81801","92","yes","1024"
"3.311895072","0","9","gung","non-word","91.39784946236558","91.39784946236558","886.2688172043011","886.2688172043011","black","no","legacy","legacy","legacy","0","uniform","1","undefined","undefined","undefined","1","f","0","0","0","0","92","0","0","0","92","0","88","92","88","0","88","3","92","0","92","Fri Feb 19 15:04:47 2021","The main experiment item","yes","Lexical_Decision_Task.osexp","/Users/francescamasili","no","Andale Mono","no","18","no","white","no","yes","576","legacy","88","88","3","/Users/francescamasili/subject-5226303.csv","legacy","Lentiform Loewenfeld","3.3.7","yes","yes","600bd7cfb6416f0113b04181","602110864497cf011d9c0822","0","f","NA","space","space","space","space","f","622","NA","722","4504","887","1341","622","2","legacy","1024","2","48000","-16","task","5226303","odd","NA","17604","20331","19608","201184","3615","9026","8136","201688","124483","201182","201688","201125","20331","202312","16052","200625","3605","140195","Lexical Decision Task","85","82423","93","yes","1024"
"3.443783828","7.65","3","verb","word","91.48936170212765","91.48936170212765","881.9574468085107","881.9574468085107","black","no","legacy","legacy","legacy","0","uniform","1","undefined","undefined","undefined","1","j","0","0","0","0","93","0","0","0","93","0","89","93","89","0","89","3","93","0","93","Fri Feb 19 15:04:47 2021","The main experiment item","yes","Lexical_Decision_Task.osexp","/Users/francescamasili","no","Andale Mono","no","18","no","white","no","yes","576","legacy","89","89","3","/Users/francescamasili/subject-5226303.csv","legacy","Lentiform Loewenfeld","3.3.7","yes","yes","600bd7cfb6416f0113b04181","602110864497cf011d9c0822","0","j","NA","space","space","space","space","j","481","NA","722","4504","887","1341","481","2","legacy","1024","2","48000","-16","task","5226303","odd","NA","17604","20331","19608","202875","3615","9026","8136","203378","124483","202872","203378","202815","20331","203860","16052","202315","3605","140195","Lexical Decision Task","86","82904","94","yes","1024"
"2.706148589","0","4","hube","non-word","91.57894736842105","91.57894736842105","880.5052631578948","880.5052631578948","black","no","legacy","legacy","legacy","0","uniform","1","undefined","undefined","undefined","1","f","0","0","0","0","94","0","0","0","94","0","90","94","90","0","90","3","94","0","94","Fri Feb 19 15:04:47 2021","The main experiment item","yes","Lexical_Decision_Task.osexp","/Users/francescamasili","no","Andale Mono","no","18","no","white","no","yes","576","legacy","90","90","3","/Users/francescamasili/subject-5226303.csv","legacy","Lentiform Loewenfeld","3.3.7","yes","yes","600bd7cfb6416f0113b04181","602110864497cf011d9c0822","0","f","NA","space","space","space","space","f","744","NA","722","4504","887","1341","744","2","legacy","1024","2","48000","-16","task","5226303","odd","NA","17604","20331","19608","204424","3615","9026","8136","204927","124483","204421","204927","204364","20331","205672","16052","203864","3605","140195","Lexical Decision Task","87","83648","95","yes","1024"
"2.6599162","0","2","saff","non-word","91.66666666666667","91.66666666666667","878.9375","878.9375","black","no","legacy","legacy","legacy","0","uniform","1","undefined","undefined","undefined","1","f","0","0","0","0","95","0","0","0","95","0","91","95","91","0","91","3","95","0","95","Fri Feb 19 15:04:47 2021","The main experiment item","yes","Lexical_Decision_Task.osexp","/Users/francescamasili","no","Andale Mono","no","18","no","white","no","yes","576","legacy","91","91","3","/Users/francescamasili/subject-5226303.csv","legacy","Lentiform Loewenfeld","3.3.7","yes","yes","600bd7cfb6416f0113b04181","602110864497cf011d9c0822","0","f","NA","space","space","space","space","f","730","NA","722","4504","887","1341","730","2","legacy","1024","2","48000","-16","task","5226303","odd","NA","17604","20331","19608","206236","3615","9026","8136","206739","124483","206233","206739","206176","20331","207471","16052","205676","3605","140195","Lexical Decision Task","88","84378","96","yes","1024"
"3.121778632","0","9","sark","non-word","91.75257731958763","91.75257731958763","876.2680412371134","876.2680412371134","black","no","legacy","legacy","legacy","0","uniform","1","undefined","undefined","undefined","1","f","0","0","0","0","96","0","0","0","96","0","92","96","92","0","92","3","96","0","96","Fri Feb 19 15:04:47 2021","The main experiment item","yes","Lexical_Decision_Task.osexp","/Users/francescamasili","no","Andale Mono","no","18","no","white","no","yes","576","legacy","92","92","3","/Users/francescamasili/subject-5226303.csv","legacy","Lentiform Loewenfeld","3.3.7","yes","yes","600bd7cfb6416f0113b04181","602110864497cf011d9c0822","0","f","NA","space","space","space","space","f","620","NA","722","4504","887","1341","620","2","legacy","1024","2","48000","-16","task","5226303","odd","NA","17604","20331","19608","208033","3615","9026","8136","208536","124483","208031","208536","207974","20331","209157","16052","207474","3605","140195","Lexical Decision Task","89","84998","97","yes","1024"
"2.709837904","6.85","8","skim","word","91.83673469387755","91.83673469387755","874.9795918367347","874.9795918367347","black","no","legacy","legacy","legacy","0","uniform","1","undefined","undefined","undefined","1","j","0","0","0","0","97","0","0","0","97","0","93","97","93","0","93","3","97","0","97","Fri Feb 19 15:04:47 2021","The main experiment item","yes","Lexical_Decision_Task.osexp","/Users/francescamasili","no","Andale Mono","no","18","no","white","no","yes","576","legacy","93","93","3","/Users/francescamasili/subject-5226303.csv","legacy","Lentiform Loewenfeld","3.3.7","yes","yes","600bd7cfb6416f0113b04181","602110864497cf011d9c0822","0","j","NA","space","space","space","space","j","750","NA","722","4504","887","1341","750","2","legacy","1024","2","48000","-16","task","5226303","odd","NA","17604","20331","19608","209720","3615","9026","8136","210223","124483","209718","210223","209661","20331","210974","16052","209161","3605","140195","Lexical Decision Task","90","85748","98","yes","1024"
"3.307211407","6.07","7","honk","word","91.91919191919192","91.91919191919192","873.2727272727273","873.2727272727273","black","no","legacy","legacy","legacy","0","uniform","1","undefined","undefined","undefined","1","j","0","0","0","0","98","0","0","0","98","0","94","98","94","0","94","3","98","0","98","Fri Feb 19 15:04:47 2021","The main experiment item","yes","Lexical_Decision_Task.osexp","/Users/francescamasili","no","Andale Mono","no","18","no","white","no","yes","576","legacy","94","94","3","/Users/francescamasili/subject-5226303.csv","legacy","Lentiform Loewenfeld","3.3.7","yes","yes","600bd7cfb6416f0113b04181","602110864497cf011d9c0822","0","j","NA","space","space","space","space","j","706","NA","722","4504","887","1341","706","2","legacy","1024","2","48000","-16","task","5226303","odd","NA","17604","20331","19608","211537","3615","9026","8136","212040","124483","211535","212040","211478","20331","212747","16052","210978","3605","140195","Lexical Decision Task","91","86454","99","yes","1024"
"3.705778213","0","6","stin","non-word","92","92","873.32","873.32","black","no","legacy","legacy","legacy","0","uniform","1","undefined","undefined","undefined","1","f","0","0","0","0","99","0","0","0","99","0","95","99","95","0","95","3","99","0","99","Fri Feb 19 15:04:47 2021","The main experiment item","yes","Lexical_Decision_Task.osexp","/Users/francescamasili","no","Andale Mono","no","18","no","white","no","yes","576","legacy","95","95","3","/Users/francescamasili/subject-5226303.csv","legacy","Lentiform Loewenfeld","3.3.7","yes","yes","600bd7cfb6416f0113b04181","602110864497cf011d9c0822","0","f","NA","space","space","space","space","f","878","NA","722","4504","887","1341","878","2","legacy","1024","2","48000","-16","task","5226303","odd","NA","17604","20331","19608","213311","3615","9026","8136","213815","124483","213309","213815","213251","20331","214694","16052","212750","3605","140195","Lexical Decision Task","92","87332","100","yes","1024"
"3.347850856","10.51","2","rich","word","92.07920792079207","92.07920792079207","870.960396039604","870.960396039604","black","no","legacy","legacy","legacy","0","uniform","1","undefined","undefined","undefined","1","j","0","0","0","0","100","0","0","0","100","0","96","100","96","0","96","3","100","0","100","Fri Feb 19 15:04:47 2021","The main experiment item","yes","Lexical_Decision_Task.osexp","/Users/francescamasili","no","Andale Mono","no","18","no","white","no","yes","576","legacy","96","96","3","/Users/francescamasili/subject-5226303.csv","legacy","Lentiform Loewenfeld","3.3.7","yes","yes","600bd7cfb6416f0113b04181","602110864497cf011d9c0822","0","j","NA","space","space","space","space","j","635","NA","722","4504","887","1341","635","2","legacy","1024","2","48000","-16","task","5226303","odd","NA","17604","20331","19608","215257","3615","9026","8136","215760","124483","215254","215760","215198","20331","216396","16052","214698","3605","140195","Lexical Decision Task","93","87967","101","yes","1024"
"3.302475237","0","7","leel","non-word","92.15686274509804","92.15686274509804","868.7647058823529","868.7647058823529","black","no","legacy","legacy","legacy","0","uniform","1","undefined","undefined","undefined","1","f","0","0","0","0","101","0","0","0","101","0","97","101","97","0","97","3","101","0","101","Fri Feb 19 15:04:47 2021","The main experiment item","yes","Lexical_Decision_Task.osexp","/Users/francescamasili","no","Andale Mono","no","18","no","white","no","yes","576","legacy","97","97","3","/Users/francescamasili/subject-5226303.csv","legacy","Lentiform Loewenfeld","3.3.7","yes","yes","600bd7cfb6416f0113b04181","602110864497cf011d9c0822","0","f","NA","space","space","space","space","f","647","NA","722","4504","887","1341","647","2","legacy","1024","2","48000","-16","task","5226303","odd","NA","17604","20331","19608","216958","3615","9026","8136","217461","124483","216956","217461","216899","20331","218109","16052","216399","3605","140195","Lexical Decision Task","94","88614","102","yes","1024"
