"Log_BG","Log_Freq_HAL","Ortho_N","Stimulus","Type","acc","accuracy","average_response_time","avg_rt","background","bidi","canvas_backend","clock_backend","color_backend","compensation","coordinates","correct","correct_Experimental_intro","correct_Introduction","correct_Practice_intro","correct_experimenter_kb","correct_response","count_End_Of_Experiment","count_End_Of_Practice","count_Experimental_Loop","count_Experimental_intro","count_Fixation","count_Introduction","count_Practice_Loop","count_Practice_intro","count_Stimulus","count_block_break_feedback","count_experimental_sequence","count_experimenter_kb","count_increment_trial_count","count_init_trial_count","count_logger","count_practice_sequence","count_right","count_task","count_wrong","datetime","description","disable_garbage_collection","experiment_file","experiment_path","font_bold","font_family","font_italic","font_size","font_underline","foreground","form_clicks","fullscreen","height","keyboard_backend","live_row","live_row_Experimental_Loop","live_row_Practice_Loop","logfile","mouse_backend","opensesame_codename","opensesame_version","osf_always_upload_data","osf_always_upload_experiment","osf_datanode_id","osf_id","repeat_cycle","response","response_End_Of_Experiment","response_Experimental_intro","response_Introduction","response_Practice_intro","response_block_break_feedback","response_experimenter_kb","response_time","response_time_End_Of_Experiment","response_time_Experimental_intro","response_time_Introduction","response_time_Practice_intro","response_time_block_break_feedback","response_time_experimenter_kb","round_decimals","sampler_backend","sound_buf_size","sound_channels","sound_freq","sound_sample_size","start","subject_nr","subject_parity","time_End_Of_Experiment","time_End_Of_Practice","time_Experimental_Loop","time_Experimental_intro","time_Fixation","time_Introduction","time_Practice_Loop","time_Practice_intro","time_Stimulus","time_block_break_feedback","time_experimental_sequence","time_experimenter_kb","time_increment_trial_count","time_init_trial_count","time_logger","time_practice_sequence","time_right","time_task","time_wrong","title","total_correct","total_response_time","total_responses","uniform_coordinates","width"
"2.986323777","10.85","8","ship","word","100","100","657.8","657.8","black","no","legacy","legacy","legacy","0","uniform","1","undefined","undefined","undefined","1","j","0","0","0","0","4","0","0","0","4","NA","0","4","0","0","0","3","4","0","4","Wed Feb 17 10:22:38 2021","The main experiment item","yes","Lexical_Decision_Task.osexp","C:/Users/Admin","no","Andale Mono","no","18","no","white","no","yes","576","legacy","0","0","3","C:/Users/Admin/subject-5110691.csv","legacy","Lentiform Loewenfeld","3.3.7","yes","yes","600bd7cfb6416f0113b04181","602110864497cf011d9c0822","0","j","NA","space","space","space","NA","j","645","NA","3149","9631","5414","NA","645","2","legacy","1024","2","48000","-16","task","5110691","odd","NA","24299","29453","26304","29497","2214","17261","11847","29999","NA","29495","29999","NA","29453","30645","22688","23751","2210","NA","Lexical Decision Task","5","3289","5","yes","1024"
"3.443783828","7.65","3","verb","word","100","100","648.3333333333334","648.3333333333334","black","no","legacy","legacy","legacy","0","uniform","1","undefined","undefined","undefined","1","j","0","0","0","0","5","0","0","0","5","NA","1","5","1","0","1","3","5","0","5","Wed Feb 17 10:22:38 2021","The main experiment item","yes","Lexical_Decision_Task.osexp","C:/Users/Admin","no","Andale Mono","no","18","no","white","no","yes","576","legacy","1","1","3","C:/Users/Admin/subject-5110691.csv","legacy","Lentiform Loewenfeld","3.3.7","yes","yes","600bd7cfb6416f0113b04181","602110864497cf011d9c0822","0","j","NA","space","space","space","NA","j","601","NA","3149","9631","5414","NA","601","2","legacy","1024","2","48000","-16","task","5110691","odd","NA","24299","29453","26304","31260","2214","17261","11847","31763","NA","31258","31763","31153","29453","32365","22688","30652","2210","NA","Lexical Decision Task","6","3890","6","yes","1024"
"2.793790385","5.67","9","swab","word","100","100","638.2857142857143","638.2857142857143","black","no","legacy","legacy","legacy","0","uniform","1","undefined","undefined","undefined","1","j","0","0","0","0","6","0","0","0","6","NA","2","6","2","0","2","3","6","0","6","Wed Feb 17 10:22:38 2021","The main experiment item","yes","Lexical_Decision_Task.osexp","C:/Users/Admin","no","Andale Mono","no","18","no","white","no","yes","576","legacy","2","2","3","C:/Users/Admin/subject-5110691.csv","legacy","Lentiform Loewenfeld","3.3.7","yes","yes","600bd7cfb6416f0113b04181","602110864497cf011d9c0822","0","j","NA","space","space","space","NA","j","578","NA","3149","9631","5414","NA","578","2","legacy","1024","2","48000","-16","task","5110691","odd","NA","24299","29453","26304","32954","2214","17261","11847","33458","NA","32952","33458","32868","29453","34037","22688","32368","2210","NA","Lexical Decision Task","7","4468","7","yes","1024"
"3.145920145","8.51","8","flew","word","100","100","624","624","black","no","legacy","legacy","legacy","0","uniform","1","undefined","undefined","undefined","1","j","0","0","0","0","7","0","0","0","7","NA","3","7","3","0","3","3","7","0","7","Wed Feb 17 10:22:38 2021","The main experiment item","yes","Lexical_Decision_Task.osexp","C:/Users/Admin","no","Andale Mono","no","18","no","white","no","yes","576","legacy","3","3","3","C:/Users/Admin/subject-5110691.csv","legacy","Lentiform Loewenfeld","3.3.7","yes","yes","600bd7cfb6416f0113b04181","602110864497cf011d9c0822","0","j","NA","space","space","space","NA","j","524","NA","3149","9631","5414","NA","524","2","legacy","1024","2","48000","-16","task","5110691","odd","NA","24299","29453","26304","34635","2214","17261","11847","35137","NA","34634","35137","34540","29453","35661","22688","34039","2210","NA","Lexical Decision Task","8","4992","8","yes","1024"
"3.195807436","0","6","stup","non-word","88.88888888888889","88.88888888888889","622.1111111111111","622.1111111111111","black","no","legacy","legacy","legacy","0","uniform","0","undefined","undefined","undefined","0","f","0","0","0","0","8","0","0","0","8","NA","4","8","4","0","4","3","8","0","8","Wed Feb 17 10:22:38 2021","The main experiment item","yes","Lexical_Decision_Task.osexp","C:/Users/Admin","no","Andale Mono","no","18","no","white","no","yes","576","legacy","4","4","3","C:/Users/Admin/subject-5110691.csv","legacy","Lentiform Loewenfeld","3.3.7","yes","yes","600bd7cfb6416f0113b04181","602110864497cf011d9c0822","0","j","NA","space","space","space","NA","j","607","NA","3149","9631","5414","NA","607","2","legacy","1024","2","48000","-16","task","5110691","odd","NA","24299","29453","26304","36253","2214","17261","11847","36757","NA","36251","36757","36164","29453","37365","22688","35664","2210","NA","Lexical Decision Task","8","5599","9","yes","1024"
"3.094121596","0","8","fode","non-word","90","90","624.1","624.1","black","no","legacy","legacy","legacy","0","uniform","1","undefined","undefined","undefined","1","f","0","0","0","0","9","0","0","0","9","NA","5","9","5","0","5","3","9","0","9","Wed Feb 17 10:22:38 2021","The main experiment item","yes","Lexical_Decision_Task.osexp","C:/Users/Admin","no","Andale Mono","no","18","no","white","no","yes","576","legacy","5","5","3","C:/Users/Admin/subject-5110691.csv","legacy","Lentiform Loewenfeld","3.3.7","yes","yes","600bd7cfb6416f0113b04181","602110864497cf011d9c0822","0","f","NA","space","space","space","NA","f","642","NA","3149","9631","5414","NA","642","2","legacy","1024","2","48000","-16","task","5110691","odd","NA","24299","29453","26304","38955","2214","17261","11847","39458","NA","38954","39458","38868","29453","40101","22688","35664","2210","37368","Lexical Decision Task","9","6241","10","yes","1024"
"3.121778632","0","9","sark","non-word","90.9090909090909","90.9090909090909","612.1818181818181","612.1818181818181","black","no","legacy","legacy","legacy","0","uniform","1","undefined","undefined","undefined","1","f","0","0","0","0","10","0","0","0","10","NA","6","10","6","0","6","3","10","0","10","Wed Feb 17 10:22:38 2021","The main experiment item","yes","Lexical_Decision_Task.osexp","C:/Users/Admin","no","Andale Mono","no","18","no","white","no","yes","576","legacy","6","6","3","C:/Users/Admin/subject-5110691.csv","legacy","Lentiform Loewenfeld","3.3.7","yes","yes","600bd7cfb6416f0113b04181","602110864497cf011d9c0822","0","f","NA","space","space","space","NA","f","493","NA","3149","9631","5414","NA","493","2","legacy","1024","2","48000","-16","task","5110691","odd","NA","24299","29453","26304","40689","2214","17261","11847","41191","NA","40687","41191","40604","29453","41685","22688","40103","2210","37368","Lexical Decision Task","10","6734","11","yes","1024"
"3.2757719","0","5","slea","non-word","91.66666666666667","91.66666666666667","608.25","608.25","black","no","legacy","legacy","legacy","0","uniform","1","undefined","undefined","undefined","1","f","0","0","0","0","11","0","0","0","11","NA","7","11","7","0","7","3","11","0","11","Wed Feb 17 10:22:38 2021","The main experiment item","yes","Lexical_Decision_Task.osexp","C:/Users/Admin","no","Andale Mono","no","18","no","white","no","yes","576","legacy","7","7","3","C:/Users/Admin/subject-5110691.csv","legacy","Lentiform Loewenfeld","3.3.7","yes","yes","600bd7cfb6416f0113b04181","602110864497cf011d9c0822","0","f","NA","space","space","space","NA","f","565","NA","3149","9631","5414","NA","565","2","legacy","1024","2","48000","-16","task","5110691","odd","NA","24299","29453","26304","42279","2214","17261","11847","42783","NA","42277","42783","42188","29453","43349","22688","41688","2210","37368","Lexical Decision Task","11","7299","12","yes","1024"
"2.843025032","0","9","pusk","non-word","92.3076923076923","92.3076923076923","600.8461538461538","600.8461538461538","black","no","legacy","legacy","legacy","0","uniform","1","undefined","undefined","undefined","1","f","0","0","0","0","12","0","0","0","12","NA","8","12","8","0","8","3","12","0","12","Wed Feb 17 10:22:38 2021","The main experiment item","yes","Lexical_Decision_Task.osexp","C:/Users/Admin","no","Andale Mono","no","18","no","white","no","yes","576","legacy","8","8","3","C:/Users/Admin/subject-5110691.csv","legacy","Lentiform Loewenfeld","3.3.7","yes","yes","600bd7cfb6416f0113b04181","602110864497cf011d9c0822","0","f","NA","space","space","space","NA","f","512","NA","3149","9631","5414","NA","512","2","legacy","1024","2","48000","-16","task","5110691","odd","NA","24299","29453","26304","43924","2214","17261","11847","44428","NA","43923","44428","43852","29453","44941","22688","43352","2210","37368","Lexical Decision Task","12","7811","13","yes","1024"
"3.156347201","0","8","lasp","non-word","92.85714285714286","92.85714285714286","615.3571428571429","615.3571428571429","black","no","legacy","legacy","legacy","0","uniform","1","undefined","undefined","undefined","1","f","0","0","0","0","13","0","0","0","13","NA","9","13","9","0","9","3","13","0","13","Wed Feb 17 10:22:38 2021","The main experiment item","yes","Lexical_Decision_Task.osexp","C:/Users/Admin","no","Andale Mono","no","18","no","white","no","yes","576","legacy","9","9","3","C:/Users/Admin/subject-5110691.csv","legacy","Lentiform Loewenfeld","3.3.7","yes","yes","600bd7cfb6416f0113b04181","602110864497cf011d9c0822","0","f","NA","space","space","space","NA","f","804","NA","3149","9631","5414","NA","804","2","legacy","1024","2","48000","-16","task","5110691","odd","NA","24299","29453","26304","45514","2214","17261","11847","46017","NA","45513","46017","45443","29453","46821","22688","44943","2210","37368","Lexical Decision Task","13","8615","14","yes","1024"
"2.778633532","0","3","jurp","non-word","93.33333333333333","93.33333333333333","611.8666666666667","611.8666666666667","black","no","legacy","legacy","legacy","0","uniform","1","undefined","undefined","undefined","1","f","0","0","0","0","14","0","0","0","14","NA","10","14","10","0","10","3","14","0","14","Wed Feb 17 10:22:38 2021","The main experiment item","yes","Lexical_Decision_Task.osexp","C:/Users/Admin","no","Andale Mono","no","18","no","white","no","yes","576","legacy","10","10","3","C:/Users/Admin/subject-5110691.csv","legacy","Lentiform Loewenfeld","3.3.7","yes","yes","600bd7cfb6416f0113b04181","602110864497cf011d9c0822","0","f","NA","space","space","space","NA","f","563","NA","3149","9631","5414","NA","563","2","legacy","1024","2","48000","-16","task","5110691","odd","NA","24299","29453","26304","47412","2214","17261","11847","47914","NA","47411","47914","47324","29453","48477","22688","46824","2210","37368","Lexical Decision Task","14","9178","15","yes","1024"
"2.845304797","0","6","buct","non-word","93.75","93.75","605.5625","605.5625","black","no","legacy","legacy","legacy","0","uniform","1","undefined","undefined","undefined","1","f","0","0","0","0","15","0","0","0","15","NA","11","15","11","0","11","3","15","0","15","Wed Feb 17 10:22:38 2021","The main experiment item","yes","Lexical_Decision_Task.osexp","C:/Users/Admin","no","Andale Mono","no","18","no","white","no","yes","576","legacy","11","11","3","C:/Users/Admin/subject-5110691.csv","legacy","Lentiform Loewenfeld","3.3.7","yes","yes","600bd7cfb6416f0113b04181","602110864497cf011d9c0822","0","f","NA","space","space","space","NA","f","511","NA","3149","9631","5414","NA","511","2","legacy","1024","2","48000","-16","task","5110691","odd","NA","24299","29453","26304","49053","2214","17261","11847","49557","NA","49052","49557","48980","29453","50069","22688","48480","2210","37368","Lexical Decision Task","15","9689","16","yes","1024"
"3.274543461","7.46","7","scar","word","94.11764705882354","94.11764705882354","601.1764705882352","601.1764705882352","black","no","legacy","legacy","legacy","0","uniform","1","undefined","undefined","undefined","1","j","0","0","0","0","16","0","0","0","16","NA","12","16","12","0","12","3","16","0","16","Wed Feb 17 10:22:38 2021","The main experiment item","yes","Lexical_Decision_Task.osexp","C:/Users/Admin","no","Andale Mono","no","18","no","white","no","yes","576","legacy","12","12","3","C:/Users/Admin/subject-5110691.csv","legacy","Lentiform Loewenfeld","3.3.7","yes","yes","600bd7cfb6416f0113b04181","602110864497cf011d9c0822","0","j","NA","space","space","space","NA","j","531","NA","3149","9631","5414","NA","531","2","legacy","1024","2","48000","-16","task","5110691","odd","NA","24299","29453","26304","50643","2214","17261","11847","51146","NA","50642","51146","50572","29453","51677","22688","50072","2210","37368","Lexical Decision Task","16","10220","17","yes","1024"
"2.693726949","5.08","3","swig","word","94.44444444444444","94.44444444444444","600.3333333333334","600.3333333333334","black","no","legacy","legacy","legacy","0","uniform","1","undefined","undefined","undefined","1","j","0","0","0","0","17","0","0","0","17","NA","13","17","13","0","13","3","17","0","17","Wed Feb 17 10:22:38 2021","The main experiment item","yes","Lexical_Decision_Task.osexp","C:/Users/Admin","no","Andale Mono","no","18","no","white","no","yes","576","legacy","13","13","3","C:/Users/Admin/subject-5110691.csv","legacy","Lentiform Loewenfeld","3.3.7","yes","yes","600bd7cfb6416f0113b04181","602110864497cf011d9c0822","0","j","NA","space","space","space","NA","j","586","NA","3149","9631","5414","NA","586","2","legacy","1024","2","48000","-16","task","5110691","odd","NA","24299","29453","26304","52274","2214","17261","11847","52778","NA","52272","52778","52180","29453","53365","22688","51680","2210","37368","Lexical Decision Task","17","10806","18","yes","1024"
"2.664011697","8.19","4","hawk","word","89.47368421052632","89.47368421052632","599.2105263157895","599.2105263157895","black","no","legacy","legacy","legacy","0","uniform","0","undefined","undefined","undefined","0","j","0","0","0","0","18","0","0","0","18","NA","14","18","14","0","14","3","18","0","18","Wed Feb 17 10:22:38 2021","The main experiment item","yes","Lexical_Decision_Task.osexp","C:/Users/Admin","no","Andale Mono","no","18","no","white","no","yes","576","legacy","14","14","3","C:/Users/Admin/subject-5110691.csv","legacy","Lentiform Loewenfeld","3.3.7","yes","yes","600bd7cfb6416f0113b04181","602110864497cf011d9c0822","0","f","NA","space","space","space","NA","f","579","NA","3149","9631","5414","NA","579","2","legacy","1024","2","48000","-16","task","5110691","odd","NA","24299","29453","26304","53937","2214","17261","11847","54441","NA","53936","54441","53868","29453","55021","22688","53368","2210","37368","Lexical Decision Task","17","11385","19","yes","1024"
"2.839898939","8.99","6","soap","word","90","90","597.75","597.75","black","no","legacy","legacy","legacy","0","uniform","1","undefined","undefined","undefined","1","j","0","0","0","0","19","0","0","0","19","NA","15","19","15","0","15","3","19","0","19","Wed Feb 17 10:22:38 2021","The main experiment item","yes","Lexical_Decision_Task.osexp","C:/Users/Admin","no","Andale Mono","no","18","no","white","no","yes","576","legacy","15","15","3","C:/Users/Admin/subject-5110691.csv","legacy","Lentiform Loewenfeld","3.3.7","yes","yes","600bd7cfb6416f0113b04181","602110864497cf011d9c0822","0","j","NA","space","space","space","NA","j","570","NA","3149","9631","5414","NA","570","2","legacy","1024","2","48000","-16","task","5110691","odd","NA","24299","29453","26304","56618","2214","17261","11847","57123","NA","56617","57123","56525","29453","57693","22688","53368","2210","55025","Lexical Decision Task","18","11955","20","yes","1024"
"2.952953801","0","8","clax","non-word","85.71428571428571","85.71428571428571","605.047619047619","605.047619047619","black","no","legacy","legacy","legacy","0","uniform","0","undefined","undefined","undefined","0","f","0","0","0","0","20","0","0","0","20","NA","16","20","16","0","16","3","20","0","20","Wed Feb 17 10:22:38 2021","The main experiment item","yes","Lexical_Decision_Task.osexp","C:/Users/Admin","no","Andale Mono","no","18","no","white","no","yes","576","legacy","16","16","3","C:/Users/Admin/subject-5110691.csv","legacy","Lentiform Loewenfeld","3.3.7","yes","yes","600bd7cfb6416f0113b04181","602110864497cf011d9c0822","0","j","NA","space","space","space","NA","j","751","NA","3149","9631","5414","NA","751","2","legacy","1024","2","48000","-16","task","5110691","odd","NA","24299","29453","26304","58269","2214","17261","11847","58773","NA","58267","58773","58196","29453","59525","22688","57696","2210","55025","Lexical Decision Task","18","12706","21","yes","1024"
"3.174641193","0","3","ramb","non-word","86.36363636363636","86.36363636363636","625.6363636363636","625.6363636363636","black","no","legacy","legacy","legacy","0","uniform","1","undefined","undefined","undefined","1","f","0","0","0","0","21","0","0","0","21","NA","17","21","17","0","17","3","21","0","21","Wed Feb 17 10:22:38 2021","The main experiment item","yes","Lexical_Decision_Task.osexp","C:/Users/Admin","no","Andale Mono","no","18","no","white","no","yes","576","legacy","17","17","3","C:/Users/Admin/subject-5110691.csv","legacy","Lentiform Loewenfeld","3.3.7","yes","yes","600bd7cfb6416f0113b04181","602110864497cf011d9c0822","0","f","NA","space","space","space","NA","f","1058","NA","3149","9631","5414","NA","1058","2","legacy","1024","2","48000","-16","task","5110691","odd","NA","24299","29453","26304","61122","2214","17261","11847","61626","NA","61121","61626","61028","29453","62684","22688","57696","2210","59528","Lexical Decision Task","19","13764","22","yes","1024"
"2.784379519","0","2","snaf","non-word","86.95652173913044","86.95652173913044","629.1739130434783","629.1739130434783","black","no","legacy","legacy","legacy","0","uniform","1","undefined","undefined","undefined","1","f","0","0","0","0","22","0","0","0","22","NA","18","22","18","0","18","3","22","0","22","Wed Feb 17 10:22:38 2021","The main experiment item","yes","Lexical_Decision_Task.osexp","C:/Users/Admin","no","Andale Mono","no","18","no","white","no","yes","576","legacy","18","18","3","C:/Users/Admin/subject-5110691.csv","legacy","Lentiform Loewenfeld","3.3.7","yes","yes","600bd7cfb6416f0113b04181","602110864497cf011d9c0822","0","f","NA","space","space","space","NA","f","707","NA","3149","9631","5414","NA","707","2","legacy","1024","2","48000","-16","task","5110691","odd","NA","24299","29453","26304","63275","2214","17261","11847","63777","NA","63273","63777","63188","29453","64485","22688","62688","2210","59528","Lexical Decision Task","20","14471","23","yes","1024"
"2.709837904","6.85","8","skim","word","87.5","87.5","630.5","630.5","black","no","legacy","legacy","legacy","0","uniform","1","undefined","undefined","undefined","1","j","0","0","0","0","23","0","0","0","23","NA","19","23","19","0","19","3","23","0","23","Wed Feb 17 10:22:38 2021","The main experiment item","yes","Lexical_Decision_Task.osexp","C:/Users/Admin","no","Andale Mono","no","18","no","white","no","yes","576","legacy","19","19","3","C:/Users/Admin/subject-5110691.csv","legacy","Lentiform Loewenfeld","3.3.7","yes","yes","600bd7cfb6416f0113b04181","602110864497cf011d9c0822","0","j","NA","space","space","space","NA","j","661","NA","3149","9631","5414","NA","661","2","legacy","1024","2","48000","-16","task","5110691","odd","NA","24299","29453","26304","65080","2214","17261","11847","65584","NA","65078","65584","64988","29453","66245","22688","64488","2210","59528","Lexical Decision Task","21","15132","24","yes","1024"
"3.382617311","0","4","pret","non-word","84","84","632.08","632.08","black","no","legacy","legacy","legacy","0","uniform","0","undefined","undefined","undefined","0","f","0","0","0","0","24","0","0","0","24","NA","20","24","20","0","20","3","24","0","24","Wed Feb 17 10:22:38 2021","The main experiment item","yes","Lexical_Decision_Task.osexp","C:/Users/Admin","no","Andale Mono","no","18","no","white","no","yes","576","legacy","20","20","3","C:/Users/Admin/subject-5110691.csv","legacy","Lentiform Loewenfeld","3.3.7","yes","yes","600bd7cfb6416f0113b04181","602110864497cf011d9c0822","0","j","NA","space","space","space","NA","j","670","NA","3149","9631","5414","NA","670","2","legacy","1024","2","48000","-16","task","5110691","odd","NA","24299","29453","26304","66824","2214","17261","11847","67326","NA","66822","67326","66748","29453","67997","22688","66248","2210","59528","Lexical Decision Task","21","15802","25","yes","1024"
"3.299579929","0","2","flis","non-word","84.61538461538461","84.61538461538461","634.3076923076923","634.3076923076923","black","no","legacy","legacy","legacy","0","uniform","1","undefined","undefined","undefined","1","f","0","0","0","0","25","0","0","0","25","NA","21","25","21","0","21","3","25","0","25","Wed Feb 17 10:22:38 2021","The main experiment item","yes","Lexical_Decision_Task.osexp","C:/Users/Admin","no","Andale Mono","no","18","no","white","no","yes","576","legacy","21","21","3","C:/Users/Admin/subject-5110691.csv","legacy","Lentiform Loewenfeld","3.3.7","yes","yes","600bd7cfb6416f0113b04181","602110864497cf011d9c0822","0","f","NA","space","space","space","NA","f","690","NA","3149","9631","5414","NA","690","2","legacy","1024","2","48000","-16","task","5110691","odd","NA","24299","29453","26304","69586","2214","17261","11847","70090","NA","69585","70090","69499","29453","70780","22688","66248","2210","67999","Lexical Decision Task","22","16492","26","yes","1024"
"3.028977705","0","7","frow","non-word","85.18518518518519","85.18518518518519","636.0370370370371","636.0370370370371","black","no","legacy","legacy","legacy","0","uniform","1","undefined","undefined","undefined","1","f","0","0","0","0","26","0","0","0","26","NA","22","26","22","0","22","3","26","0","26","Wed Feb 17 10:22:38 2021","The main experiment item","yes","Lexical_Decision_Task.osexp","C:/Users/Admin","no","Andale Mono","no","18","no","white","no","yes","576","legacy","22","22","3","C:/Users/Admin/subject-5110691.csv","legacy","Lentiform Loewenfeld","3.3.7","yes","yes","600bd7cfb6416f0113b04181","602110864497cf011d9c0822","0","f","NA","space","space","space","NA","f","681","NA","3149","9631","5414","NA","681","2","legacy","1024","2","48000","-16","task","5110691","odd","NA","24299","29453","26304","71364","2214","17261","11847","71867","NA","71363","71867","71283","29453","72549","22688","70783","2210","67999","Lexical Decision Task","23","17173","27","yes","1024"
"3.261341392","5.08","8","reek","word","85.71428571428571","85.71428571428571","658.1428571428571","658.1428571428571","black","no","legacy","legacy","legacy","0","uniform","1","undefined","undefined","undefined","1","j","0","0","0","0","27","0","0","0","27","NA","23","27","23","0","23","3","27","0","27","Wed Feb 17 10:22:38 2021","The main experiment item","yes","Lexical_Decision_Task.osexp","C:/Users/Admin","no","Andale Mono","no","18","no","white","no","yes","576","legacy","23","23","3","C:/Users/Admin/subject-5110691.csv","legacy","Lentiform Loewenfeld","3.3.7","yes","yes","600bd7cfb6416f0113b04181","602110864497cf011d9c0822","0","j","NA","space","space","space","NA","j","1255","NA","3149","9631","5414","NA","1255","2","legacy","1024","2","48000","-16","task","5110691","odd","NA","24299","29453","26304","73127","2214","17261","11847","73630","NA","73126","73630","73052","29453","74885","22688","72551","2210","67999","Lexical Decision Task","24","18428","28","yes","1024"
"3.29439347","8.6","9","wand","word","86.20689655172414","86.20689655172414","653.4137931034483","653.4137931034483","black","no","legacy","legacy","legacy","0","uniform","1","undefined","undefined","undefined","1","j","0","0","0","0","28","0","0","0","28","NA","24","28","24","0","24","3","28","0","28","Wed Feb 17 10:22:38 2021","The main experiment item","yes","Lexical_Decision_Task.osexp","C:/Users/Admin","no","Andale Mono","no","18","no","white","no","yes","576","legacy","24","24","3","C:/Users/Admin/subject-5110691.csv","legacy","Lentiform Loewenfeld","3.3.7","yes","yes","600bd7cfb6416f0113b04181","602110864497cf011d9c0822","0","j","NA","space","space","space","NA","j","521","NA","3149","9631","5414","NA","521","2","legacy","1024","2","48000","-16","task","5110691","odd","NA","24299","29453","26304","75460","2214","17261","11847","75963","NA","75458","75963","75388","29453","76485","22688","74888","2210","67999","Lexical Decision Task","25","18949","29","yes","1024"
"3.276537627","9.15","5","trap","word","86.66666666666667","86.66666666666667","650.3333333333334","650.3333333333334","black","no","legacy","legacy","legacy","0","uniform","1","undefined","undefined","undefined","1","j","0","0","0","0","29","0","0","0","29","NA","25","29","25","0","25","3","29","0","29","Wed Feb 17 10:22:38 2021","The main experiment item","yes","Lexical_Decision_Task.osexp","C:/Users/Admin","no","Andale Mono","no","18","no","white","no","yes","576","legacy","25","25","3","C:/Users/Admin/subject-5110691.csv","legacy","Lentiform Loewenfeld","3.3.7","yes","yes","600bd7cfb6416f0113b04181","602110864497cf011d9c0822","0","j","NA","space","space","space","NA","j","561","NA","3149","9631","5414","NA","561","2","legacy","1024","2","48000","-16","task","5110691","odd","NA","24299","29453","26304","77075","2214","17261","11847","77579","NA","77073","77579","76987","29453","78141","22688","76487","2210","67999","Lexical Decision Task","26","19510","30","yes","1024"
"3.149629599","0","2","cleb","non-word","87.09677419354838","87.09677419354838","649.8064516129032","649.8064516129032","black","no","legacy","legacy","legacy","0","uniform","1","undefined","undefined","undefined","1","f","0","0","0","0","30","0","0","0","30","NA","26","30","26","0","26","3","30","0","30","Wed Feb 17 10:22:38 2021","The main experiment item","yes","Lexical_Decision_Task.osexp","C:/Users/Admin","no","Andale Mono","no","18","no","white","no","yes","576","legacy","26","26","3","C:/Users/Admin/subject-5110691.csv","legacy","Lentiform Loewenfeld","3.3.7","yes","yes","600bd7cfb6416f0113b04181","602110864497cf011d9c0822","0","f","NA","space","space","space","NA","f","634","NA","3149","9631","5414","NA","634","2","legacy","1024","2","48000","-16","task","5110691","odd","NA","24299","29453","26304","78731","2214","17261","11847","79234","NA","78730","79234","78644","29453","79869","22688","78144","2210","67999","Lexical Decision Task","27","20144","31","yes","1024"
"3.119255889","6.63","2","itch","word","87.5","87.5","647.90625","647.90625","black","no","legacy","legacy","legacy","0","uniform","1","undefined","undefined","undefined","1","j","0","0","0","0","31","0","0","0","31","NA","27","31","27","0","27","3","31","0","31","Wed Feb 17 10:22:38 2021","The main experiment item","yes","Lexical_Decision_Task.osexp","C:/Users/Admin","no","Andale Mono","no","18","no","white","no","yes","576","legacy","27","27","3","C:/Users/Admin/subject-5110691.csv","legacy","Lentiform Loewenfeld","3.3.7","yes","yes","600bd7cfb6416f0113b04181","602110864497cf011d9c0822","0","j","NA","space","space","space","NA","j","589","NA","3149","9631","5414","NA","589","2","legacy","1024","2","48000","-16","task","5110691","odd","NA","24299","29453","26304","80447","2214","17261","11847","80951","NA","80446","80951","80372","29453","81541","22688","79872","2210","67999","Lexical Decision Task","28","20733","32","yes","1024"
"3.230789326","5.38","5","prim","word","87.87878787878788","87.87878787878788","643.6060606060606","643.6060606060606","black","no","legacy","legacy","legacy","0","uniform","1","undefined","undefined","undefined","1","j","0","0","0","0","32","0","0","0","32","NA","28","32","28","0","28","3","32","0","32","Wed Feb 17 10:22:38 2021","The main experiment item","yes","Lexical_Decision_Task.osexp","C:/Users/Admin","no","Andale Mono","no","18","no","white","no","yes","576","legacy","28","28","3","C:/Users/Admin/subject-5110691.csv","legacy","Lentiform Loewenfeld","3.3.7","yes","yes","600bd7cfb6416f0113b04181","602110864497cf011d9c0822","0","j","NA","space","space","space","NA","j","506","NA","3149","9631","5414","NA","506","2","legacy","1024","2","48000","-16","task","5110691","odd","NA","24299","29453","26304","82116","2214","17261","11847","82618","NA","82114","82618","82044","29453","83125","22688","81544","2210","67999","Lexical Decision Task","29","21239","33","yes","1024"
"3.049218023","7.4","9","robe","word","88.23529411764706","88.23529411764706","641.4411764705883","641.4411764705883","black","no","legacy","legacy","legacy","0","uniform","1","undefined","undefined","undefined","1","j","0","0","0","0","33","0","0","0","33","NA","29","33","29","0","29","3","33","0","33","Wed Feb 17 10:22:38 2021","The main experiment item","yes","Lexical_Decision_Task.osexp","C:/Users/Admin","no","Andale Mono","no","18","no","white","no","yes","576","legacy","29","29","3","C:/Users/Admin/subject-5110691.csv","legacy","Lentiform Loewenfeld","3.3.7","yes","yes","600bd7cfb6416f0113b04181","602110864497cf011d9c0822","0","j","NA","space","space","space","NA","j","570","NA","3149","9631","5414","NA","570","2","legacy","1024","2","48000","-16","task","5110691","odd","NA","24299","29453","26304","83715","2214","17261","11847","84218","NA","83713","84218","83628","29453","84789","22688","83128","2210","67999","Lexical Decision Task","30","21809","34","yes","1024"
"2.880623071","0","9","curp","non-word","88.57142857142857","88.57142857142857","642.2571428571429","642.2571428571429","black","no","legacy","legacy","legacy","0","uniform","1","undefined","undefined","undefined","1","f","0","0","0","0","34","0","0","0","34","NA","30","34","30","0","30","3","34","0","34","Wed Feb 17 10:22:38 2021","The main experiment item","yes","Lexical_Decision_Task.osexp","C:/Users/Admin","no","Andale Mono","no","18","no","white","no","yes","576","legacy","30","30","3","C:/Users/Admin/subject-5110691.csv","legacy","Lentiform Loewenfeld","3.3.7","yes","yes","600bd7cfb6416f0113b04181","602110864497cf011d9c0822","0","f","NA","space","space","space","NA","f","670","NA","3149","9631","5414","NA","670","2","legacy","1024","2","48000","-16","task","5110691","odd","NA","24299","29453","26304","85367","2214","17261","11847","85870","NA","85366","85870","85292","29453","86541","22688","84792","2210","67999","Lexical Decision Task","31","22479","35","yes","1024"
"2.8162413","0","5","nusk","non-word","88.88888888888889","88.88888888888889","644.0833333333334","644.0833333333334","black","no","legacy","legacy","legacy","0","uniform","1","undefined","undefined","undefined","1","f","0","0","0","0","35","0","0","0","35","NA","31","35","31","0","31","3","35","0","35","Wed Feb 17 10:22:38 2021","The main experiment item","yes","Lexical_Decision_Task.osexp","C:/Users/Admin","no","Andale Mono","no","18","no","white","no","yes","576","legacy","31","31","3","C:/Users/Admin/subject-5110691.csv","legacy","Lentiform Loewenfeld","3.3.7","yes","yes","600bd7cfb6416f0113b04181","602110864497cf011d9c0822","0","f","NA","space","space","space","NA","f","708","NA","3149","9631","5414","NA","708","2","legacy","1024","2","48000","-16","task","5110691","odd","NA","24299","29453","26304","87115","2214","17261","11847","87617","NA","87114","87617","87044","29453","88325","22688","86544","2210","67999","Lexical Decision Task","32","23187","36","yes","1024"
"2.664328519","0","4","plux","non-word","89.1891891891892","89.1891891891892","652.4054054054054","652.4054054054054","black","no","legacy","legacy","legacy","0","uniform","1","undefined","undefined","undefined","1","f","0","0","0","0","36","0","0","0","36","NA","32","36","32","0","32","3","36","0","36","Wed Feb 17 10:22:38 2021","The main experiment item","yes","Lexical_Decision_Task.osexp","C:/Users/Admin","no","Andale Mono","no","18","no","white","no","yes","576","legacy","32","32","3","C:/Users/Admin/subject-5110691.csv","legacy","Lentiform Loewenfeld","3.3.7","yes","yes","600bd7cfb6416f0113b04181","602110864497cf011d9c0822","0","f","NA","space","space","space","NA","f","952","NA","3149","9631","5414","NA","952","2","legacy","1024","2","48000","-16","task","5110691","odd","NA","24299","29453","26304","88901","2214","17261","11847","89404","NA","88899","89404","88829","29453","90357","22688","88329","2210","67999","Lexical Decision Task","33","24139","37","yes","1024"
"3.165936429","0","7","leps","non-word","89.47368421052632","89.47368421052632","650.578947368421","650.578947368421","black","no","legacy","legacy","legacy","0","uniform","1","undefined","undefined","undefined","1","f","0","0","0","0","37","0","0","0","37","NA","33","37","33","0","33","3","37","0","37","Wed Feb 17 10:22:38 2021","The main experiment item","yes","Lexical_Decision_Task.osexp","C:/Users/Admin","no","Andale Mono","no","18","no","white","no","yes","576","legacy","33","33","3","C:/Users/Admin/subject-5110691.csv","legacy","Lentiform Loewenfeld","3.3.7","yes","yes","600bd7cfb6416f0113b04181","602110864497cf011d9c0822","0","f","NA","space","space","space","NA","f","583","NA","3149","9631","5414","NA","583","2","legacy","1024","2","48000","-16","task","5110691","odd","NA","24299","29453","26304","90944","2214","17261","11847","91446","NA","90943","91446","90860","29453","92029","22688","90360","2210","67999","Lexical Decision Task","34","24722","38","yes","1024"
"3.1430148","7.92","8","bald","word","89.74358974358974","89.74358974358974","653.8205128205128","653.8205128205128","black","no","legacy","legacy","legacy","0","uniform","1","undefined","undefined","undefined","1","j","0","0","0","0","38","0","0","0","38","NA","34","38","34","0","34","3","38","0","38","Wed Feb 17 10:22:38 2021","The main experiment item","yes","Lexical_Decision_Task.osexp","C:/Users/Admin","no","Andale Mono","no","18","no","white","no","yes","576","legacy","34","34","3","C:/Users/Admin/subject-5110691.csv","legacy","Lentiform Loewenfeld","3.3.7","yes","yes","600bd7cfb6416f0113b04181","602110864497cf011d9c0822","0","j","NA","space","space","space","NA","j","777","NA","3149","9631","5414","NA","777","2","legacy","1024","2","48000","-16","task","5110691","odd","NA","24299","29453","26304","92622","2214","17261","11847","93124","NA","92620","93124","92532","29453","93901","22688","92032","2210","67999","Lexical Decision Task","35","25499","39","yes","1024"
"3.16326079","0","5","parg","non-word","90","90","656.675","656.675","black","no","legacy","legacy","legacy","0","uniform","1","undefined","undefined","undefined","1","f","0","0","0","0","39","0","0","0","39","NA","35","39","35","0","35","3","39","0","39","Wed Feb 17 10:22:38 2021","The main experiment item","yes","Lexical_Decision_Task.osexp","C:/Users/Admin","no","Andale Mono","no","18","no","white","no","yes","576","legacy","35","35","3","C:/Users/Admin/subject-5110691.csv","legacy","Lentiform Loewenfeld","3.3.7","yes","yes","600bd7cfb6416f0113b04181","602110864497cf011d9c0822","0","f","NA","space","space","space","NA","f","768","NA","3149","9631","5414","NA","768","2","legacy","1024","2","48000","-16","task","5110691","odd","NA","24299","29453","26304","94476","2214","17261","11847","94980","NA","94474","94980","94404","29453","95749","22688","93904","2210","67999","Lexical Decision Task","36","26267","40","yes","1024"
"3.303771854","0","9","dath","non-word","90.2439024390244","90.2439024390244","657.9268292682926","657.9268292682926","black","no","legacy","legacy","legacy","0","uniform","1","undefined","undefined","undefined","1","f","0","0","0","0","40","0","0","0","40","NA","36","40","36","0","36","3","40","0","40","Wed Feb 17 10:22:38 2021","The main experiment item","yes","Lexical_Decision_Task.osexp","C:/Users/Admin","no","Andale Mono","no","18","no","white","no","yes","576","legacy","36","36","3","C:/Users/Admin/subject-5110691.csv","legacy","Lentiform Loewenfeld","3.3.7","yes","yes","600bd7cfb6416f0113b04181","602110864497cf011d9c0822","0","f","NA","space","space","space","NA","f","708","NA","3149","9631","5414","NA","708","2","legacy","1024","2","48000","-16","task","5110691","odd","NA","24299","29453","26304","96328","2214","17261","11847","96832","NA","96326","96832","96253","29453","97540","22688","95753","2210","67999","Lexical Decision Task","37","26975","41","yes","1024"
"3.274157849","0","8","leet","non-word","90.47619047619048","90.47619047619048","657.4761904761905","657.4761904761905","black","no","legacy","legacy","legacy","0","uniform","1","undefined","undefined","undefined","1","f","0","0","0","0","41","0","0","0","41","NA","37","41","37","0","37","3","41","0","41","Wed Feb 17 10:22:38 2021","The main experiment item","yes","Lexical_Decision_Task.osexp","C:/Users/Admin","no","Andale Mono","no","18","no","white","no","yes","576","legacy","37","37","3","C:/Users/Admin/subject-5110691.csv","legacy","Lentiform Loewenfeld","3.3.7","yes","yes","600bd7cfb6416f0113b04181","602110864497cf011d9c0822","0","f","NA","space","space","space","NA","f","639","NA","3149","9631","5414","NA","639","2","legacy","1024","2","48000","-16","task","5110691","odd","NA","24299","29453","26304","98118","2214","17261","11847","98621","NA","98117","98621","98043","29453","99261","22688","97543","2210","67999","Lexical Decision Task","38","27614","42","yes","1024"
"2.64476673","0","5","moft","non-word","90.69767441860465","90.69767441860465","666.1162790697674","666.1162790697674","black","no","legacy","legacy","legacy","0","uniform","1","undefined","undefined","undefined","1","f","0","0","0","0","42","0","0","0","42","NA","38","42","38","0","38","3","42","0","42","Wed Feb 17 10:22:38 2021","The main experiment item","yes","Lexical_Decision_Task.osexp","C:/Users/Admin","no","Andale Mono","no","18","no","white","no","yes","576","legacy","38","38","3","C:/Users/Admin/subject-5110691.csv","legacy","Lentiform Loewenfeld","3.3.7","yes","yes","600bd7cfb6416f0113b04181","602110864497cf011d9c0822","0","f","NA","space","space","space","NA","f","1029","NA","3149","9631","5414","NA","1029","2","legacy","1024","2","48000","-16","task","5110691","odd","NA","24299","29453","26304","99838","2214","17261","11847","100343","NA","99837","100343","99764","29453","101372","22688","99264","2210","67999","Lexical Decision Task","39","28643","43","yes","1024"
"3.105055783","0","2","norp","non-word","90.9090909090909","90.9090909090909","661.1590909090909","661.1590909090909","black","no","legacy","legacy","legacy","0","uniform","1","undefined","undefined","undefined","1","f","0","0","0","0","43","0","0","0","43","NA","39","43","39","0","39","3","43","0","43","Wed Feb 17 10:22:38 2021","The main experiment item","yes","Lexical_Decision_Task.osexp","C:/Users/Admin","no","Andale Mono","no","18","no","white","no","yes","576","legacy","39","39","3","C:/Users/Admin/subject-5110691.csv","legacy","Lentiform Loewenfeld","3.3.7","yes","yes","600bd7cfb6416f0113b04181","602110864497cf011d9c0822","0","f","NA","space","space","space","NA","f","448","NA","3149","9631","5414","NA","448","2","legacy","1024","2","48000","-16","task","5110691","odd","NA","24299","29453","26304","101958","2214","17261","11847","102460","NA","101957","102460","101876","29453","102909","22688","101376","2210","67999","Lexical Decision Task","40","29091","44","yes","1024"
"2.594027722","9.08","8","skip","word","91.11111111111111","91.11111111111111","659.4444444444445","659.4444444444445","black","no","legacy","legacy","legacy","0","uniform","1","undefined","undefined","undefined","1","j","0","0","0","0","44","0","0","0","44","NA","40","44","40","0","40","3","44","0","44","Wed Feb 17 10:22:38 2021","The main experiment item","yes","Lexical_Decision_Task.osexp","C:/Users/Admin","no","Andale Mono","no","18","no","white","no","yes","576","legacy","40","40","3","C:/Users/Admin/subject-5110691.csv","legacy","Lentiform Loewenfeld","3.3.7","yes","yes","600bd7cfb6416f0113b04181","602110864497cf011d9c0822","0","j","NA","space","space","space","NA","j","584","NA","3149","9631","5414","NA","584","2","legacy","1024","2","48000","-16","task","5110691","odd","NA","24299","29453","26304","103485","2214","17261","11847","103989","NA","103483","103989","103412","29453","104573","22688","102912","2210","67999","Lexical Decision Task","41","29675","45","yes","1024"
"3.495914186","0","4","peng","non-word","89.1304347826087","89.1304347826087","661.9782608695652","661.9782608695652","black","no","legacy","legacy","legacy","0","uniform","0","undefined","undefined","undefined","0","f","0","0","0","0","45","0","0","0","45","NA","41","45","41","0","41","3","45","0","45","Wed Feb 17 10:22:38 2021","The main experiment item","yes","Lexical_Decision_Task.osexp","C:/Users/Admin","no","Andale Mono","no","18","no","white","no","yes","576","legacy","41","41","3","C:/Users/Admin/subject-5110691.csv","legacy","Lentiform Loewenfeld","3.3.7","yes","yes","600bd7cfb6416f0113b04181","602110864497cf011d9c0822","0","j","NA","space","space","space","NA","j","776","NA","3149","9631","5414","NA","776","2","legacy","1024","2","48000","-16","task","5110691","odd","NA","24299","29453","26304","105163","2214","17261","11847","105668","NA","105162","105668","105076","29453","106445","22688","104576","2210","67999","Lexical Decision Task","41","30451","46","yes","1024"
"3.064581521","5.51","6","cask","word","87.23404255319149","87.23404255319149","662.9787234042553","662.9787234042553","black","no","legacy","legacy","legacy","0","uniform","0","undefined","undefined","undefined","0","j","0","0","0","0","46","0","0","0","46","NA","42","46","42","0","42","3","46","0","46","Wed Feb 17 10:22:38 2021","The main experiment item","yes","Lexical_Decision_Task.osexp","C:/Users/Admin","no","Andale Mono","no","18","no","white","no","yes","576","legacy","42","42","3","C:/Users/Admin/subject-5110691.csv","legacy","Lentiform Loewenfeld","3.3.7","yes","yes","600bd7cfb6416f0113b04181","602110864497cf011d9c0822","0","f","NA","space","space","space","NA","f","709","NA","3149","9631","5414","NA","709","2","legacy","1024","2","48000","-16","task","5110691","odd","NA","24299","29453","26304","108039","2214","17261","11847","108543","NA","108038","108543","107948","29453","109253","22688","104576","2210","106448","Lexical Decision Task","41","31160","47","yes","1024"
"2.744553742","0","2","nawk","non-word","87.5","87.5","667.8958333333334","667.8958333333334","black","no","legacy","legacy","legacy","0","uniform","1","undefined","undefined","undefined","1","f","0","0","0","0","47","0","0","0","47","NA","43","47","43","0","43","3","47","0","47","Wed Feb 17 10:22:38 2021","The main experiment item","yes","Lexical_Decision_Task.osexp","C:/Users/Admin","no","Andale Mono","no","18","no","white","no","yes","576","legacy","43","43","3","C:/Users/Admin/subject-5110691.csv","legacy","Lentiform Loewenfeld","3.3.7","yes","yes","600bd7cfb6416f0113b04181","602110864497cf011d9c0822","0","f","NA","space","space","space","NA","f","899","NA","3149","9631","5414","NA","899","2","legacy","1024","2","48000","-16","task","5110691","odd","NA","24299","29453","26304","110841","2214","17261","11847","111345","NA","110840","111345","110756","29453","112245","22688","104576","2210","109256","Lexical Decision Task","42","32059","48","yes","1024"
"3.374137706","10.21","4","tree","word","87.75510204081633","87.75510204081633","666.3061224489796","666.3061224489796","black","no","legacy","legacy","legacy","0","uniform","1","undefined","undefined","undefined","1","j","0","0","0","0","48","0","0","0","48","NA","44","48","44","0","44","3","48","0","48","Wed Feb 17 10:22:38 2021","The main experiment item","yes","Lexical_Decision_Task.osexp","C:/Users/Admin","no","Andale Mono","no","18","no","white","no","yes","576","legacy","44","44","3","C:/Users/Admin/subject-5110691.csv","legacy","Lentiform Loewenfeld","3.3.7","yes","yes","600bd7cfb6416f0113b04181","602110864497cf011d9c0822","0","j","NA","space","space","space","NA","j","590","NA","3149","9631","5414","NA","590","2","legacy","1024","2","48000","-16","task","5110691","odd","NA","24299","29453","26304","112840","2214","17261","11847","113342","NA","112838","113342","112748","29453","113933","22688","112248","2210","109256","Lexical Decision Task","43","32649","49","yes","1024"
"3.22685757","9.99","7","roll","word","88","88","669.96","669.96","black","no","legacy","legacy","legacy","0","uniform","1","undefined","undefined","undefined","1","j","0","0","0","0","49","0","0","0","49","NA","45","49","45","0","45","3","49","0","49","Wed Feb 17 10:22:38 2021","The main experiment item","yes","Lexical_Decision_Task.osexp","C:/Users/Admin","no","Andale Mono","no","18","no","white","no","yes","576","legacy","45","45","3","C:/Users/Admin/subject-5110691.csv","legacy","Lentiform Loewenfeld","3.3.7","yes","yes","600bd7cfb6416f0113b04181","602110864497cf011d9c0822","0","j","NA","space","space","space","NA","j","849","NA","3149","9631","5414","NA","849","2","legacy","1024","2","48000","-16","task","5110691","odd","NA","24299","29453","26304","114523","2214","17261","11847","115027","NA","114521","115027","114436","29453","115877","22688","113936","2210","109256","Lexical Decision Task","44","33498","50","yes","1024"
"3.194328374","9.42","6","harm","word","88.23529411764706","88.23529411764706","668.2549019607843","668.2549019607843","black","no","legacy","legacy","legacy","0","uniform","1","undefined","undefined","undefined","1","j","0","0","0","0","50","0","0","0","50","NA","46","50","46","0","46","3","50","0","50","Wed Feb 17 10:22:38 2021","The main experiment item","yes","Lexical_Decision_Task.osexp","C:/Users/Admin","no","Andale Mono","no","18","no","white","no","yes","576","legacy","46","46","3","C:/Users/Admin/subject-5110691.csv","legacy","Lentiform Loewenfeld","3.3.7","yes","yes","600bd7cfb6416f0113b04181","602110864497cf011d9c0822","0","j","NA","space","space","space","NA","j","583","NA","3149","9631","5414","NA","583","2","legacy","1024","2","48000","-16","task","5110691","odd","NA","24299","29453","26304","116470","2214","17261","11847","116973","NA","116468","116973","116380","29453","117557","22688","115880","2210","109256","Lexical Decision Task","45","34081","51","yes","1024"
"3.269668578","0","7","trag","non-word","88.46153846153847","88.46153846153847","677.0192307692307","677.0192307692307","black","no","legacy","legacy","legacy","0","uniform","1","undefined","undefined","undefined","1","f","0","0","0","0","51","0","0","0","51","NA","47","51","47","0","47","3","51","0","51","Wed Feb 17 10:22:38 2021","The main experiment item","yes","Lexical_Decision_Task.osexp","C:/Users/Admin","no","Andale Mono","no","18","no","white","no","yes","576","legacy","47","47","3","C:/Users/Admin/subject-5110691.csv","legacy","Lentiform Loewenfeld","3.3.7","yes","yes","600bd7cfb6416f0113b04181","602110864497cf011d9c0822","0","f","NA","space","space","space","NA","f","1124","NA","3149","9631","5414","NA","1124","2","legacy","1024","2","48000","-16","task","5110691","odd","NA","24299","29453","26304","118145","2214","17261","11847","118648","NA","118143","118648","118060","29453","119773","22688","117560","2210","109256","Lexical Decision Task","46","35205","52","yes","1024"
"3.363486562","6.93","9","lush","word","88.67924528301887","88.67924528301887","675.3018867924528","675.3018867924528","black","no","legacy","legacy","legacy","0","uniform","1","undefined","undefined","undefined","1","j","0","0","0","0","52","0","0","0","52","NA","48","52","48","0","48","3","52","0","52","Wed Feb 17 10:22:38 2021","The main experiment item","yes","Lexical_Decision_Task.osexp","C:/Users/Admin","no","Andale Mono","no","18","no","white","no","yes","576","legacy","48","48","3","C:/Users/Admin/subject-5110691.csv","legacy","Lentiform Loewenfeld","3.3.7","yes","yes","600bd7cfb6416f0113b04181","602110864497cf011d9c0822","0","j","NA","space","space","space","NA","j","586","NA","3149","9631","5414","NA","586","2","legacy","1024","2","48000","-16","task","5110691","odd","NA","24299","29453","26304","120354","2214","17261","11847","120858","NA","120352","120858","120276","29453","121445","22688","119776","2210","109256","Lexical Decision Task","47","35791","53","yes","1024"
"2.6599162","0","6","flug","non-word","88.88888888888889","88.88888888888889","676.5185185185185","676.5185185185185","black","no","legacy","legacy","legacy","0","uniform","1","undefined","undefined","undefined","1","f","0","0","0","0","53","0","0","0","53","NA","49","53","49","0","49","3","53","0","53","Wed Feb 17 10:22:38 2021","The main experiment item","yes","Lexical_Decision_Task.osexp","C:/Users/Admin","no","Andale Mono","no","18","no","white","no","yes","576","legacy","49","49","3","C:/Users/Admin/subject-5110691.csv","legacy","Lentiform Loewenfeld","3.3.7","yes","yes","600bd7cfb6416f0113b04181","602110864497cf011d9c0822","0","f","NA","space","space","space","NA","f","741","NA","3149","9631","5414","NA","741","2","legacy","1024","2","48000","-16","task","5110691","odd","NA","24299","29453","26304","122024","2214","17261","11847","122527","NA","122022","122527","121947","29453","123269","22688","121447","2210","109256","Lexical Decision Task","48","36532","54","yes","1024"
"2.966923697","5.4","2","fume","word","89.0909090909091","89.0909090909091","683.1818181818181","683.1818181818181","black","no","legacy","legacy","legacy","0","uniform","1","undefined","undefined","undefined","1","j","0","0","0","0","54","0","0","0","54","0","50","54","50","0","50","3","54","0","54","Wed Feb 17 10:22:38 2021","The main experiment item","yes","Lexical_Decision_Task.osexp","C:/Users/Admin","no","Andale Mono","no","18","no","white","no","yes","576","legacy","50","50","3","C:/Users/Admin/subject-5110691.csv","legacy","Lentiform Loewenfeld","3.3.7","yes","yes","600bd7cfb6416f0113b04181","602110864497cf011d9c0822","0","j","NA","space","space","space","space","j","1043","NA","3149","9631","5414","7861","1043","2","legacy","1024","2","48000","-16","task","5110691","odd","NA","24299","29453","26304","131752","2214","17261","11847","132256","123824","131751","132257","123772","29453","133301","22688","123272","2210","109256","Lexical Decision Task","49","37575","55","yes","1024"
"3.120025233","0","2","nyst","non-word","89.28571428571429","89.28571428571429","681.8214285714286","681.8214285714286","black","no","legacy","legacy","legacy","0","uniform","1","undefined","undefined","undefined","1","f","0","0","0","0","55","0","0","0","55","0","51","55","51","0","51","3","55","0","55","Wed Feb 17 10:22:38 2021","The main experiment item","yes","Lexical_Decision_Task.osexp","C:/Users/Admin","no","Andale Mono","no","18","no","white","no","yes","576","legacy","51","51","3","C:/Users/Admin/subject-5110691.csv","legacy","Lentiform Loewenfeld","3.3.7","yes","yes","600bd7cfb6416f0113b04181","602110864497cf011d9c0822","0","f","NA","space","space","space","space","f","607","NA","3149","9631","5414","7861","607","2","legacy","1024","2","48000","-16","task","5110691","odd","NA","24299","29453","26304","133880","2214","17261","11847","134382","123824","133878","134382","133804","29453","134989","22688","133304","2210","109256","Lexical Decision Task","50","38182","56","yes","1024"
"3.307211407","6.07","7","honk","word","89.47368421052632","89.47368421052632","679.1228070175439","679.1228070175439","black","no","legacy","legacy","legacy","0","uniform","1","undefined","undefined","undefined","1","j","0","0","0","0","56","0","0","0","56","0","52","56","52","0","52","3","56","0","56","Wed Feb 17 10:22:38 2021","The main experiment item","yes","Lexical_Decision_Task.osexp","C:/Users/Admin","no","Andale Mono","no","18","no","white","no","yes","576","legacy","52","52","3","C:/Users/Admin/subject-5110691.csv","legacy","Lentiform Loewenfeld","3.3.7","yes","yes","600bd7cfb6416f0113b04181","602110864497cf011d9c0822","0","j","NA","space","space","space","space","j","528","NA","3149","9631","5414","7861","528","2","legacy","1024","2","48000","-16","task","5110691","odd","NA","24299","29453","26304","135582","2214","17261","11847","136084","123824","135581","136084","135492","29453","136613","22688","134992","2210","109256","Lexical Decision Task","51","38710","57","yes","1024"
"2.706148589","0","4","hube","non-word","89.65517241379311","89.65517241379311","683.3275862068965","683.3275862068965","black","no","legacy","legacy","legacy","0","uniform","1","undefined","undefined","undefined","1","f","0","0","0","0","57","0","0","0","57","0","53","57","53","0","53","3","57","0","57","Wed Feb 17 10:22:38 2021","The main experiment item","yes","Lexical_Decision_Task.osexp","C:/Users/Admin","no","Andale Mono","no","18","no","white","no","yes","576","legacy","53","53","3","C:/Users/Admin/subject-5110691.csv","legacy","Lentiform Loewenfeld","3.3.7","yes","yes","600bd7cfb6416f0113b04181","602110864497cf011d9c0822","0","f","NA","space","space","space","space","f","923","NA","3149","9631","5414","7861","923","2","legacy","1024","2","48000","-16","task","5110691","odd","NA","24299","29453","26304","137202","2214","17261","11847","137705","123824","137201","137705","137116","29453","138629","22688","136616","2210","109256","Lexical Decision Task","52","39633","58","yes","1024"
"3.225825991","0","7","talm","non-word","89.83050847457628","89.83050847457628","680.6610169491526","680.6610169491526","black","no","legacy","legacy","legacy","0","uniform","1","undefined","undefined","undefined","1","f","0","0","0","0","58","0","0","0","58","0","54","58","54","0","54","3","58","0","58","Wed Feb 17 10:22:38 2021","The main experiment item","yes","Lexical_Decision_Task.osexp","C:/Users/Admin","no","Andale Mono","no","18","no","white","no","yes","576","legacy","54","54","3","C:/Users/Admin/subject-5110691.csv","legacy","Lentiform Loewenfeld","3.3.7","yes","yes","600bd7cfb6416f0113b04181","602110864497cf011d9c0822","0","f","NA","space","space","space","space","f","526","NA","3149","9631","5414","7861","526","2","legacy","1024","2","48000","-16","task","5110691","odd","NA","24299","29453","26304","139216","2214","17261","11847","139718","123824","139214","139718","139132","29453","140244","22688","138632","2210","109256","Lexical Decision Task","53","40159","59","yes","1024"
"3.282244367","0","6","fute","non-word","90","90","677.4666666666667","677.4666666666667","black","no","legacy","legacy","legacy","0","uniform","1","undefined","undefined","undefined","1","f","0","0","0","0","59","0","0","0","59","0","55","59","55","0","55","3","59","0","59","Wed Feb 17 10:22:38 2021","The main experiment item","yes","Lexical_Decision_Task.osexp","C:/Users/Admin","no","Andale Mono","no","18","no","white","no","yes","576","legacy","55","55","3","C:/Users/Admin/subject-5110691.csv","legacy","Lentiform Loewenfeld","3.3.7","yes","yes","600bd7cfb6416f0113b04181","602110864497cf011d9c0822","0","f","NA","space","space","space","space","f","489","NA","3149","9631","5414","7861","489","2","legacy","1024","2","48000","-16","task","5110691","odd","NA","24299","29453","26304","140819","2214","17261","11847","141323","123824","140818","141323","140747","29453","141813","22688","140247","2210","109256","Lexical Decision Task","54","40648","60","yes","1024"
"2.705007959","6.01","4","wept","word","90.1639344262295","90.1639344262295","676.1803278688525","676.1803278688525","black","no","legacy","legacy","legacy","0","uniform","1","undefined","undefined","undefined","1","j","0","0","0","0","60","0","0","0","60","0","56","60","56","0","56","3","60","0","60","Wed Feb 17 10:22:38 2021","The main experiment item","yes","Lexical_Decision_Task.osexp","C:/Users/Admin","no","Andale Mono","no","18","no","white","no","yes","576","legacy","56","56","3","C:/Users/Admin/subject-5110691.csv","legacy","Lentiform Loewenfeld","3.3.7","yes","yes","600bd7cfb6416f0113b04181","602110864497cf011d9c0822","0","j","NA","space","space","space","space","j","599","NA","3149","9631","5414","7861","599","2","legacy","1024","2","48000","-16","task","5110691","odd","NA","24299","29453","26304","142397","2214","17261","11847","142901","123824","142395","142901","142316","29453","143501","22688","141816","2210","109256","Lexical Decision Task","55","41247","61","yes","1024"
"3.140404328","10.66","9","deep","word","90.3225806451613","90.3225806451613","672.7741935483871","672.7741935483871","black","no","legacy","legacy","legacy","0","uniform","1","undefined","undefined","undefined","1","j","0","0","0","0","61","0","0","0","61","0","57","61","57","0","57","3","61","0","61","Wed Feb 17 10:22:38 2021","The main experiment item","yes","Lexical_Decision_Task.osexp","C:/Users/Admin","no","Andale Mono","no","18","no","white","no","yes","576","legacy","57","57","3","C:/Users/Admin/subject-5110691.csv","legacy","Lentiform Loewenfeld","3.3.7","yes","yes","600bd7cfb6416f0113b04181","602110864497cf011d9c0822","0","j","NA","space","space","space","space","j","465","NA","3149","9631","5414","7861","465","2","legacy","1024","2","48000","-16","task","5110691","odd","NA","24299","29453","26304","144077","2214","17261","11847","144579","123824","144075","144579","144004","29453","145045","22688","143504","2210","109256","Lexical Decision Task","56","41712","62","yes","1024"
"2.728085817","10.02","9","bike","word","88.88888888888889","88.88888888888889","670.3968253968254","670.3968253968254","black","no","legacy","legacy","legacy","0","uniform","0","undefined","undefined","undefined","0","j","0","0","0","0","62","0","0","0","62","0","58","62","58","0","58","3","62","0","62","Wed Feb 17 10:22:38 2021","The main experiment item","yes","Lexical_Decision_Task.osexp","C:/Users/Admin","no","Andale Mono","no","18","no","white","no","yes","576","legacy","58","58","3","C:/Users/Admin/subject-5110691.csv","legacy","Lentiform Loewenfeld","3.3.7","yes","yes","600bd7cfb6416f0113b04181","602110864497cf011d9c0822","0","f","NA","space","space","space","space","f","523","NA","3149","9631","5414","7861","523","2","legacy","1024","2","48000","-16","task","5110691","odd","NA","24299","29453","26304","145634","2214","17261","11847","146137","123824","145633","146137","145548","29453","146661","22688","145048","2210","109256","Lexical Decision Task","56","42235","63","yes","1024"
"3.14849993","10.75","7","hour","word","89.0625","89.0625","680.4375","680.4375","black","no","legacy","legacy","legacy","0","uniform","1","undefined","undefined","undefined","1","j","0","0","0","0","63","0","0","0","63","0","59","63","59","0","59","3","63","0","63","Wed Feb 17 10:22:38 2021","The main experiment item","yes","Lexical_Decision_Task.osexp","C:/Users/Admin","no","Andale Mono","no","18","no","white","no","yes","576","legacy","59","59","3","C:/Users/Admin/subject-5110691.csv","legacy","Lentiform Loewenfeld","3.3.7","yes","yes","600bd7cfb6416f0113b04181","602110864497cf011d9c0822","0","j","NA","space","space","space","space","j","1313","NA","3149","9631","5414","7861","1313","2","legacy","1024","2","48000","-16","task","5110691","odd","NA","24299","29453","26304","148250","2214","17261","11847","148754","123824","148248","148755","148164","29453","150069","22688","145048","2210","146664","Lexical Decision Task","57","43548","64","yes","1024"
"2.893578687","8.69","3","surf","word","89.23076923076923","89.23076923076923","678.4615384615385","678.4615384615385","black","no","legacy","legacy","legacy","0","uniform","1","undefined","undefined","undefined","1","j","0","0","0","0","64","0","0","0","64","0","60","64","60","0","60","3","64","0","64","Wed Feb 17 10:22:38 2021","The main experiment item","yes","Lexical_Decision_Task.osexp","C:/Users/Admin","no","Andale Mono","no","18","no","white","no","yes","576","legacy","60","60","3","C:/Users/Admin/subject-5110691.csv","legacy","Lentiform Loewenfeld","3.3.7","yes","yes","600bd7cfb6416f0113b04181","602110864497cf011d9c0822","0","j","NA","space","space","space","space","j","552","NA","3149","9631","5414","7861","552","2","legacy","1024","2","48000","-16","task","5110691","odd","NA","24299","29453","26304","150645","2214","17261","11847","151148","123824","150644","151148","150572","29453","151701","22688","150072","2210","146664","Lexical Decision Task","58","44100","65","yes","1024"
"2.807758206","6.25","4","hurl","word","89.39393939393939","89.39393939393939","676.7878787878788","676.7878787878788","black","no","legacy","legacy","legacy","0","uniform","1","undefined","undefined","undefined","1","j","0","0","0","0","65","0","0","0","65","0","61","65","61","0","61","3","65","0","65","Wed Feb 17 10:22:38 2021","The main experiment item","yes","Lexical_Decision_Task.osexp","C:/Users/Admin","no","Andale Mono","no","18","no","white","no","yes","576","legacy","61","61","3","C:/Users/Admin/subject-5110691.csv","legacy","Lentiform Loewenfeld","3.3.7","yes","yes","600bd7cfb6416f0113b04181","602110864497cf011d9c0822","0","j","NA","space","space","space","space","j","568","NA","3149","9631","5414","7861","568","2","legacy","1024","2","48000","-16","task","5110691","odd","NA","24299","29453","26304","152291","2214","17261","11847","152796","123824","152290","152796","152204","29453","153365","22688","151704","2210","146664","Lexical Decision Task","59","44668","66","yes","1024"
"3.088136089","8.32","9","worm","word","89.55223880597015","89.55223880597015","674.2835820895523","674.2835820895523","black","no","legacy","legacy","legacy","0","uniform","1","undefined","undefined","undefined","1","j","0","0","0","0","66","0","0","0","66","0","62","66","62","0","62","3","66","0","66","Wed Feb 17 10:22:38 2021","The main experiment item","yes","Lexical_Decision_Task.osexp","C:/Users/Admin","no","Andale Mono","no","18","no","white","no","yes","576","legacy","62","62","3","C:/Users/Admin/subject-5110691.csv","legacy","Lentiform Loewenfeld","3.3.7","yes","yes","600bd7cfb6416f0113b04181","602110864497cf011d9c0822","0","j","NA","space","space","space","space","j","509","NA","3149","9631","5414","7861","509","2","legacy","1024","2","48000","-16","task","5110691","odd","NA","24299","29453","26304","153943","2214","17261","11847","154447","123824","153942","154447","153868","29453","154957","22688","153368","2210","146664","Lexical Decision Task","60","45177","67","yes","1024"
"3.316948329","0","1","besc","non-word","89.70588235294117","89.70588235294117","674.3676470588235","674.3676470588235","black","no","legacy","legacy","legacy","0","uniform","1","undefined","undefined","undefined","1","f","0","0","0","0","67","0","0","0","67","0","63","67","63","0","63","3","67","0","67","Wed Feb 17 10:22:38 2021","The main experiment item","yes","Lexical_Decision_Task.osexp","C:/Users/Admin","no","Andale Mono","no","18","no","white","no","yes","576","legacy","63","63","3","C:/Users/Admin/subject-5110691.csv","legacy","Lentiform Loewenfeld","3.3.7","yes","yes","600bd7cfb6416f0113b04181","602110864497cf011d9c0822","0","f","NA","space","space","space","space","f","680","NA","3149","9631","5414","7861","680","2","legacy","1024","2","48000","-16","task","5110691","odd","NA","24299","29453","26304","155534","2214","17261","11847","156036","123824","155533","156036","155460","29453","156717","22688","154960","2210","146664","Lexical Decision Task","61","45857","68","yes","1024"
"3.037294994","8.64","7","roof","word","89.85507246376811","89.85507246376811","672.463768115942","672.463768115942","black","no","legacy","legacy","legacy","0","uniform","1","undefined","undefined","undefined","1","j","0","0","0","0","68","0","0","0","68","0","64","68","64","0","64","3","68","0","68","Wed Feb 17 10:22:38 2021","The main experiment item","yes","Lexical_Decision_Task.osexp","C:/Users/Admin","no","Andale Mono","no","18","no","white","no","yes","576","legacy","64","64","3","C:/Users/Admin/subject-5110691.csv","legacy","Lentiform Loewenfeld","3.3.7","yes","yes","600bd7cfb6416f0113b04181","602110864497cf011d9c0822","0","j","NA","space","space","space","space","j","543","NA","3149","9631","5414","7861","543","2","legacy","1024","2","48000","-16","task","5110691","odd","NA","24299","29453","26304","157293","2214","17261","11847","157797","123824","157291","157797","157220","29453","158340","22688","156720","2210","146664","Lexical Decision Task","62","46400","69","yes","1024"
"2.95456409","0","4","taud","non-word","90","90","671.3571428571429","671.3571428571429","black","no","legacy","legacy","legacy","0","uniform","1","undefined","undefined","undefined","1","f","0","0","0","0","69","0","0","0","69","0","65","69","65","0","65","3","69","0","69","Wed Feb 17 10:22:38 2021","The main experiment item","yes","Lexical_Decision_Task.osexp","C:/Users/Admin","no","Andale Mono","no","18","no","white","no","yes","576","legacy","65","65","3","C:/Users/Admin/subject-5110691.csv","legacy","Lentiform Loewenfeld","3.3.7","yes","yes","600bd7cfb6416f0113b04181","602110864497cf011d9c0822","0","f","NA","space","space","space","space","f","595","NA","3149","9631","5414","7861","595","2","legacy","1024","2","48000","-16","task","5110691","odd","NA","24299","29453","26304","158929","2214","17261","11847","159433","123824","158928","159433","158843","29453","160029","22688","158343","2210","146664","Lexical Decision Task","63","46995","70","yes","1024"
"2.972819734","0","4","scew","non-word","88.73239436619718","88.73239436619718","674.9577464788732","674.9577464788732","black","no","legacy","legacy","legacy","0","uniform","0","undefined","undefined","undefined","0","f","0","0","0","0","70","0","0","0","70","0","66","70","66","0","66","3","70","0","70","Wed Feb 17 10:22:38 2021","The main experiment item","yes","Lexical_Decision_Task.osexp","C:/Users/Admin","no","Andale Mono","no","18","no","white","no","yes","576","legacy","66","66","3","C:/Users/Admin/subject-5110691.csv","legacy","Lentiform Loewenfeld","3.3.7","yes","yes","600bd7cfb6416f0113b04181","602110864497cf011d9c0822","0","j","NA","space","space","space","space","j","927","NA","3149","9631","5414","7861","927","2","legacy","1024","2","48000","-16","task","5110691","odd","NA","24299","29453","26304","160613","2214","17261","11847","161116","123824","160611","161117","160532","29453","162044","22688","160032","2210","146664","Lexical Decision Task","63","47922","71","yes","1024"
"3.090140555","5.81","8","pout","word","88.88888888888889","88.88888888888889","675.2083333333334","675.2083333333334","black","no","legacy","legacy","legacy","0","uniform","1","undefined","undefined","undefined","1","j","0","0","0","0","71","0","0","0","71","0","67","71","67","0","67","3","71","0","71","Wed Feb 17 10:22:38 2021","The main experiment item","yes","Lexical_Decision_Task.osexp","C:/Users/Admin","no","Andale Mono","no","18","no","white","no","yes","576","legacy","67","67","3","C:/Users/Admin/subject-5110691.csv","legacy","Lentiform Loewenfeld","3.3.7","yes","yes","600bd7cfb6416f0113b04181","602110864497cf011d9c0822","0","j","NA","space","space","space","space","j","693","NA","3149","9631","5414","7861","693","2","legacy","1024","2","48000","-16","task","5110691","odd","NA","24299","29453","26304","163621","2214","17261","11847","164127","123824","163620","164127","163547","29453","164821","22688","160032","2210","162047","Lexical Decision Task","64","48615","72","yes","1024"
"2.80048796","0","8","pife","non-word","89.04109589041096","89.04109589041096","674.8356164383562","674.8356164383562","black","no","legacy","legacy","legacy","0","uniform","1","undefined","undefined","undefined","1","f","0","0","0","0","72","0","0","0","72","0","68","72","68","0","68","3","72","0","72","Wed Feb 17 10:22:38 2021","The main experiment item","yes","Lexical_Decision_Task.osexp","C:/Users/Admin","no","Andale Mono","no","18","no","white","no","yes","576","legacy","68","68","3","C:/Users/Admin/subject-5110691.csv","legacy","Lentiform Loewenfeld","3.3.7","yes","yes","600bd7cfb6416f0113b04181","602110864497cf011d9c0822","0","f","NA","space","space","space","space","f","648","NA","3149","9631","5414","7861","648","2","legacy","1024","2","48000","-16","task","5110691","odd","NA","24299","29453","26304","165396","2214","17261","11847","165900","123824","165394","165900","165324","29453","166549","22688","164824","2210","162047","Lexical Decision Task","65","49263","73","yes","1024"
"2.703007489","8.37","3","pulp","word","89.1891891891892","89.1891891891892","675.6486486486486","675.6486486486486","black","no","legacy","legacy","legacy","0","uniform","1","undefined","undefined","undefined","1","j","0","0","0","0","73","0","0","0","73","0","69","73","69","0","69","3","73","0","73","Wed Feb 17 10:22:38 2021","The main experiment item","yes","Lexical_Decision_Task.osexp","C:/Users/Admin","no","Andale Mono","no","18","no","white","no","yes","576","legacy","69","69","3","C:/Users/Admin/subject-5110691.csv","legacy","Lentiform Loewenfeld","3.3.7","yes","yes","600bd7cfb6416f0113b04181","602110864497cf011d9c0822","0","j","NA","space","space","space","space","j","735","NA","3149","9631","5414","7861","735","2","legacy","1024","2","48000","-16","task","5110691","odd","NA","24299","29453","26304","167134","2214","17261","11847","167637","123824","167132","167637","167057","29453","168373","22688","166557","2210","162047","Lexical Decision Task","66","49998","74","yes","1024"
"2.981215883","10.66","5","hair","word","89.33333333333333","89.33333333333333","672.8666666666667","672.8666666666667","black","no","legacy","legacy","legacy","0","uniform","1","undefined","undefined","undefined","1","j","0","0","0","0","74","0","0","0","74","0","70","74","70","0","70","3","74","0","74","Wed Feb 17 10:22:38 2021","The main experiment item","yes","Lexical_Decision_Task.osexp","C:/Users/Admin","no","Andale Mono","no","18","no","white","no","yes","576","legacy","70","70","3","C:/Users/Admin/subject-5110691.csv","legacy","Lentiform Loewenfeld","3.3.7","yes","yes","600bd7cfb6416f0113b04181","602110864497cf011d9c0822","0","j","NA","space","space","space","space","j","467","NA","3149","9631","5414","7861","467","2","legacy","1024","2","48000","-16","task","5110691","odd","NA","24299","29453","26304","168953","2214","17261","11847","169457","123824","168951","169457","168876","29453","169925","22688","168376","2210","162047","Lexical Decision Task","67","50465","75","yes","1024"
"3.168400243","9.12","6","horn","word","89.47368421052632","89.47368421052632","671.5131578947369","671.5131578947369","black","no","legacy","legacy","legacy","0","uniform","1","undefined","undefined","undefined","1","j","0","0","0","0","75","0","0","0","75","0","71","75","71","0","71","3","75","0","75","Wed Feb 17 10:22:38 2021","The main experiment item","yes","Lexical_Decision_Task.osexp","C:/Users/Admin","no","Andale Mono","no","18","no","white","no","yes","576","legacy","71","71","3","C:/Users/Admin/subject-5110691.csv","legacy","Lentiform Loewenfeld","3.3.7","yes","yes","600bd7cfb6416f0113b04181","602110864497cf011d9c0822","0","j","NA","space","space","space","space","j","570","NA","3149","9631","5414","7861","570","2","legacy","1024","2","48000","-16","task","5110691","odd","NA","24299","29453","26304","170499","2214","17261","11847","171002","123824","170497","171002","170427","29453","171573","22688","169927","2210","162047","Lexical Decision Task","68","51035","76","yes","1024"
"3.102203805","7.21","3","drip","word","89.6103896103896","89.6103896103896","668.8831168831168","668.8831168831168","black","no","legacy","legacy","legacy","0","uniform","1","undefined","undefined","undefined","1","j","0","0","0","0","76","0","0","0","76","0","72","76","72","0","72","3","76","0","76","Wed Feb 17 10:22:38 2021","The main experiment item","yes","Lexical_Decision_Task.osexp","C:/Users/Admin","no","Andale Mono","no","18","no","white","no","yes","576","legacy","72","72","3","C:/Users/Admin/subject-5110691.csv","legacy","Lentiform Loewenfeld","3.3.7","yes","yes","600bd7cfb6416f0113b04181","602110864497cf011d9c0822","0","j","NA","space","space","space","space","j","469","NA","3149","9631","5414","7861","469","2","legacy","1024","2","48000","-16","task","5110691","odd","NA","24299","29453","26304","172151","2214","17261","11847","172655","123824","172150","172655","172076","29453","173125","22688","171576","2210","162047","Lexical Decision Task","69","51504","77","yes","1024"
"3.259832699","0","9","flar","non-word","89.74358974358974","89.74358974358974","669.0897435897435","669.0897435897435","black","no","legacy","legacy","legacy","0","uniform","1","undefined","undefined","undefined","1","f","0","0","0","0","77","0","0","0","77","0","73","77","73","0","73","3","77","0","77","Wed Feb 17 10:22:38 2021","The main experiment item","yes","Lexical_Decision_Task.osexp","C:/Users/Admin","no","Andale Mono","no","18","no","white","no","yes","576","legacy","73","73","3","C:/Users/Admin/subject-5110691.csv","legacy","Lentiform Loewenfeld","3.3.7","yes","yes","600bd7cfb6416f0113b04181","602110864497cf011d9c0822","0","f","NA","space","space","space","space","f","685","NA","3149","9631","5414","7861","685","2","legacy","1024","2","48000","-16","task","5110691","odd","NA","24299","29453","26304","173712","2214","17261","11847","174215","123824","173711","174215","173628","29453","174901","22688","173128","2210","162047","Lexical Decision Task","70","52189","78","yes","1024"
"3.043885998","0","9","gome","non-word","89.87341772151899","89.87341772151899","667.632911392405","667.632911392405","black","no","legacy","legacy","legacy","0","uniform","1","undefined","undefined","undefined","1","f","0","0","0","0","78","0","0","0","78","0","74","78","74","0","74","3","78","0","78","Wed Feb 17 10:22:38 2021","The main experiment item","yes","Lexical_Decision_Task.osexp","C:/Users/Admin","no","Andale Mono","no","18","no","white","no","yes","576","legacy","74","74","3","C:/Users/Admin/subject-5110691.csv","legacy","Lentiform Loewenfeld","3.3.7","yes","yes","600bd7cfb6416f0113b04181","602110864497cf011d9c0822","0","f","NA","space","space","space","space","f","554","NA","3149","9631","5414","7861","554","2","legacy","1024","2","48000","-16","task","5110691","odd","NA","24299","29453","26304","175490","2214","17261","11847","175994","123824","175489","175994","175404","29453","176549","22688","174904","2210","162047","Lexical Decision Task","71","52743","79","yes","1024"
"2.7084209","0","8","vump","non-word","90","90","667.3625","667.3625","black","no","legacy","legacy","legacy","0","uniform","1","undefined","undefined","undefined","1","f","0","0","0","0","79","0","0","0","79","0","75","79","75","0","75","3","79","0","79","Wed Feb 17 10:22:38 2021","The main experiment item","yes","Lexical_Decision_Task.osexp","C:/Users/Admin","no","Andale Mono","no","18","no","white","no","yes","576","legacy","75","75","3","C:/Users/Admin/subject-5110691.csv","legacy","Lentiform Loewenfeld","3.3.7","yes","yes","600bd7cfb6416f0113b04181","602110864497cf011d9c0822","0","f","NA","space","space","space","space","f","646","NA","3149","9631","5414","7861","646","2","legacy","1024","2","48000","-16","task","5110691","odd","NA","24299","29453","26304","177128","2214","17261","11847","177630","123824","177126","177630","177052","29453","178277","22688","176552","2210","162047","Lexical Decision Task","72","53389","80","yes","1024"
"3.378276681","6.39","8","bran","word","88.88888888888889","88.88888888888889","667.8148148148148","667.8148148148148","black","no","legacy","legacy","legacy","0","uniform","0","undefined","undefined","undefined","0","j","0","0","0","0","80","0","0","0","80","0","76","80","76","0","76","3","80","0","80","Wed Feb 17 10:22:38 2021","The main experiment item","yes","Lexical_Decision_Task.osexp","C:/Users/Admin","no","Andale Mono","no","18","no","white","no","yes","576","legacy","76","76","3","C:/Users/Admin/subject-5110691.csv","legacy","Lentiform Loewenfeld","3.3.7","yes","yes","600bd7cfb6416f0113b04181","602110864497cf011d9c0822","0","f","NA","space","space","space","space","f","704","NA","3149","9631","5414","7861","704","2","legacy","1024","2","48000","-16","task","5110691","odd","NA","24299","29453","26304","178878","2214","17261","11847","179380","123824","178876","179380","178780","29453","180085","22688","178280","2210","162047","Lexical Decision Task","72","54093","81","yes","1024"
"2.713490543","0","3","feps","non-word","89.02439024390245","89.02439024390245","667.5365853658536","667.5365853658536","black","no","legacy","legacy","legacy","0","uniform","1","undefined","undefined","undefined","1","f","0","0","0","0","81","0","0","0","81","0","77","81","77","0","77","3","81","0","81","Wed Feb 17 10:22:38 2021","The main experiment item","yes","Lexical_Decision_Task.osexp","C:/Users/Admin","no","Andale Mono","no","18","no","white","no","yes","576","legacy","77","77","3","C:/Users/Admin/subject-5110691.csv","legacy","Lentiform Loewenfeld","3.3.7","yes","yes","600bd7cfb6416f0113b04181","602110864497cf011d9c0822","0","f","NA","space","space","space","space","f","645","NA","3149","9631","5414","7861","645","2","legacy","1024","2","48000","-16","task","5110691","odd","NA","24299","29453","26304","181671","2214","17261","11847","182175","123824","181669","182175","181588","29453","182821","22688","178280","2210","180088","Lexical Decision Task","73","54738","82","yes","1024"
"2.755364069","7.72","2","hoax","word","89.1566265060241","89.1566265060241","666.8192771084338","666.8192771084338","black","no","legacy","legacy","legacy","0","uniform","1","undefined","undefined","undefined","1","j","0","0","0","0","82","0","0","0","82","0","78","82","78","0","78","3","82","0","82","Wed Feb 17 10:22:38 2021","The main experiment item","yes","Lexical_Decision_Task.osexp","C:/Users/Admin","no","Andale Mono","no","18","no","white","no","yes","576","legacy","78","78","3","C:/Users/Admin/subject-5110691.csv","legacy","Lentiform Loewenfeld","3.3.7","yes","yes","600bd7cfb6416f0113b04181","602110864497cf011d9c0822","0","j","NA","space","space","space","space","j","608","NA","3149","9631","5414","7861","608","2","legacy","1024","2","48000","-16","task","5110691","odd","NA","24299","29453","26304","183398","2214","17261","11847","183900","123824","183397","183900","183324","29453","184509","22688","182824","2210","180088","Lexical Decision Task","74","55346","83","yes","1024"
"2.990042563","6.64","9","plow","word","89.28571428571429","89.28571428571429","668.8928571428571","668.8928571428571","black","no","legacy","legacy","legacy","0","uniform","1","undefined","undefined","undefined","1","j","0","0","0","0","83","0","0","0","83","0","79","83","79","0","79","3","83","0","83","Wed Feb 17 10:22:38 2021","The main experiment item","yes","Lexical_Decision_Task.osexp","C:/Users/Admin","no","Andale Mono","no","18","no","white","no","yes","576","legacy","79","79","3","C:/Users/Admin/subject-5110691.csv","legacy","Lentiform Loewenfeld","3.3.7","yes","yes","600bd7cfb6416f0113b04181","602110864497cf011d9c0822","0","j","NA","space","space","space","space","j","841","NA","3149","9631","5414","7861","841","2","legacy","1024","2","48000","-16","task","5110691","odd","NA","24299","29453","26304","185091","2214","17261","11847","185595","123824","185089","185595","185013","29453","186437","22688","184512","2210","180088","Lexical Decision Task","75","56187","84","yes","1024"
"3.20871002","7.15","8","cram","word","89.41176470588235","89.41176470588235","667.8823529411765","667.8823529411765","black","no","legacy","legacy","legacy","0","uniform","1","undefined","undefined","undefined","1","j","0","0","0","0","84","0","0","0","84","0","80","84","80","0","80","3","84","0","84","Wed Feb 17 10:22:38 2021","The main experiment item","yes","Lexical_Decision_Task.osexp","C:/Users/Admin","no","Andale Mono","no","18","no","white","no","yes","576","legacy","80","80","3","C:/Users/Admin/subject-5110691.csv","legacy","Lentiform Loewenfeld","3.3.7","yes","yes","600bd7cfb6416f0113b04181","602110864497cf011d9c0822","0","j","NA","space","space","space","space","j","583","NA","3149","9631","5414","7861","583","2","legacy","1024","2","48000","-16","task","5110691","odd","NA","24299","29453","26304","187030","2214","17261","11847","187533","123824","187029","187533","186940","29453","188117","22688","186440","2210","180088","Lexical Decision Task","76","56770","85","yes","1024"
"3.353210739","0","9","reet","non-word","88.37209302325581","88.37209302325581","666.2325581395348","666.2325581395348","black","no","legacy","legacy","legacy","0","uniform","0","undefined","undefined","undefined","0","f","0","0","0","0","85","0","0","0","85","0","81","85","81","0","81","3","85","0","85","Wed Feb 17 10:22:38 2021","The main experiment item","yes","Lexical_Decision_Task.osexp","C:/Users/Admin","no","Andale Mono","no","18","no","white","no","yes","576","legacy","81","81","3","C:/Users/Admin/subject-5110691.csv","legacy","Lentiform Loewenfeld","3.3.7","yes","yes","600bd7cfb6416f0113b04181","602110864497cf011d9c0822","0","j","NA","space","space","space","space","j","526","NA","3149","9631","5414","7861","526","2","legacy","1024","2","48000","-16","task","5110691","odd","NA","24299","29453","26304","188710","2214","17261","11847","189214","123824","188708","189214","188620","29453","189741","22688","188120","2210","180088","Lexical Decision Task","76","57296","86","yes","1024"
"2.819763221","0","2","durp","non-word","88.50574712643679","88.50574712643679","666.3218390804598","666.3218390804598","black","no","legacy","legacy","legacy","0","uniform","1","undefined","undefined","undefined","1","f","0","0","0","0","86","0","0","0","86","0","82","86","82","0","82","3","86","0","86","Wed Feb 17 10:22:38 2021","The main experiment item","yes","Lexical_Decision_Task.osexp","C:/Users/Admin","no","Andale Mono","no","18","no","white","no","yes","576","legacy","82","82","3","C:/Users/Admin/subject-5110691.csv","legacy","Lentiform Loewenfeld","3.3.7","yes","yes","600bd7cfb6416f0113b04181","602110864497cf011d9c0822","0","f","NA","space","space","space","space","f","674","NA","3149","9631","5414","7861","674","2","legacy","1024","2","48000","-16","task","5110691","odd","NA","24299","29453","26304","191330","2214","17261","11847","191834","123824","191328","191834","191244","29453","192509","22688","188120","2210","189744","Lexical Decision Task","77","57970","87","yes","1024"
"2.996511672","0","7","hoil","non-word","88.63636363636364","88.63636363636364","666.1136363636364","666.1136363636364","black","no","legacy","legacy","legacy","0","uniform","1","undefined","undefined","undefined","1","f","0","0","0","0","87","0","0","0","87","0","83","87","83","0","83","3","87","0","87","Wed Feb 17 10:22:38 2021","The main experiment item","yes","Lexical_Decision_Task.osexp","C:/Users/Admin","no","Andale Mono","no","18","no","white","no","yes","576","legacy","83","83","3","C:/Users/Admin/subject-5110691.csv","legacy","Lentiform Loewenfeld","3.3.7","yes","yes","600bd7cfb6416f0113b04181","602110864497cf011d9c0822","0","f","NA","space","space","space","space","f","648","NA","3149","9631","5414","7861","648","2","legacy","1024","2","48000","-16","task","5110691","odd","NA","24299","29453","26304","193084","2214","17261","11847","193587","123824","193082","193587","193013","29453","194236","22688","192513","2210","189744","Lexical Decision Task","78","58618","88","yes","1024"
"3.218535505","7.85","7","goat","word","88.76404494382022","88.76404494382022","665.2696629213483","665.2696629213483","black","no","legacy","legacy","legacy","0","uniform","1","undefined","undefined","undefined","1","j","0","0","0","0","88","0","0","0","88","0","84","88","84","0","84","3","88","0","88","Wed Feb 17 10:22:38 2021","The main experiment item","yes","Lexical_Decision_Task.osexp","C:/Users/Admin","no","Andale Mono","no","18","no","white","no","yes","576","legacy","84","84","3","C:/Users/Admin/subject-5110691.csv","legacy","Lentiform Loewenfeld","3.3.7","yes","yes","600bd7cfb6416f0113b04181","602110864497cf011d9c0822","0","j","NA","space","space","space","space","j","591","NA","3149","9631","5414","7861","591","2","legacy","1024","2","48000","-16","task","5110691","odd","NA","24299","29453","26304","194829","2214","17261","11847","195333","123824","194828","195333","194739","29453","195925","22688","194239","2210","189744","Lexical Decision Task","79","59209","89","yes","1024"
"2.698387659","6.66","7","skid","word","88.88888888888889","88.88888888888889","666.2666666666667","666.2666666666667","black","no","legacy","legacy","legacy","0","uniform","1","undefined","undefined","undefined","1","j","0","0","0","0","89","0","0","0","89","0","85","89","85","0","85","3","89","0","89","Wed Feb 17 10:22:38 2021","The main experiment item","yes","Lexical_Decision_Task.osexp","C:/Users/Admin","no","Andale Mono","no","18","no","white","no","yes","576","legacy","85","85","3","C:/Users/Admin/subject-5110691.csv","legacy","Lentiform Loewenfeld","3.3.7","yes","yes","600bd7cfb6416f0113b04181","602110864497cf011d9c0822","0","j","NA","space","space","space","space","j","755","NA","3149","9631","5414","7861","755","2","legacy","1024","2","48000","-16","task","5110691","odd","NA","24299","29453","26304","196506","2214","17261","11847","197009","123824","196504","197009","196428","29453","197765","22688","195928","2210","189744","Lexical Decision Task","80","59964","90","yes","1024"
"2.708989954","9.28","9","bowl","word","89.01098901098901","89.01098901098901","666","666","black","no","legacy","legacy","legacy","0","uniform","1","undefined","undefined","undefined","1","j","0","0","0","0","90","0","0","0","90","0","86","90","86","0","86","3","90","0","90","Wed Feb 17 10:22:38 2021","The main experiment item","yes","Lexical_Decision_Task.osexp","C:/Users/Admin","no","Andale Mono","no","18","no","white","no","yes","576","legacy","86","86","3","C:/Users/Admin/subject-5110691.csv","legacy","Lentiform Loewenfeld","3.3.7","yes","yes","600bd7cfb6416f0113b04181","602110864497cf011d9c0822","0","j","NA","space","space","space","space","j","642","NA","3149","9631","5414","7861","642","2","legacy","1024","2","48000","-16","task","5110691","odd","NA","24299","29453","26304","198339","2214","17261","11847","198842","123824","198337","198842","198268","29453","199485","22688","197768","2210","189744","Lexical Decision Task","81","60606","91","yes","1024"
"2.842815106","7.86","8","lump","word","89.1304347826087","89.1304347826087","664.1195652173913","664.1195652173913","black","no","legacy","legacy","legacy","0","uniform","1","undefined","undefined","undefined","1","j","0","0","0","0","91","0","0","0","91","0","87","91","87","0","87","3","91","0","91","Wed Feb 17 10:22:38 2021","The main experiment item","yes","Lexical_Decision_Task.osexp","C:/Users/Admin","no","Andale Mono","no","18","no","white","no","yes","576","legacy","87","87","3","C:/Users/Admin/subject-5110691.csv","legacy","Lentiform Loewenfeld","3.3.7","yes","yes","600bd7cfb6416f0113b04181","602110864497cf011d9c0822","0","j","NA","space","space","space","space","j","493","NA","3149","9631","5414","7861","493","2","legacy","1024","2","48000","-16","task","5110691","odd","NA","24299","29453","26304","200079","2214","17261","11847","200583","123824","200078","200583","199988","29453","201077","22688","199488","2210","189744","Lexical Decision Task","82","61099","92","yes","1024"
"2.899638141","0","3","hapt","non-word","89.24731182795699","89.24731182795699","664.1935483870968","664.1935483870968","black","no","legacy","legacy","legacy","0","uniform","1","undefined","undefined","undefined","1","f","0","0","0","0","92","0","0","0","92","0","88","92","88","0","88","3","92","0","92","Wed Feb 17 10:22:38 2021","The main experiment item","yes","Lexical_Decision_Task.osexp","C:/Users/Admin","no","Andale Mono","no","18","no","white","no","yes","576","legacy","88","88","3","C:/Users/Admin/subject-5110691.csv","legacy","Lentiform Loewenfeld","3.3.7","yes","yes","600bd7cfb6416f0113b04181","602110864497cf011d9c0822","0","f","NA","space","space","space","space","f","671","NA","3149","9631","5414","7861","671","2","legacy","1024","2","48000","-16","task","5110691","odd","NA","24299","29453","26304","201671","2214","17261","11847","202173","123824","201669","202173","201580","29453","202845","22688","201080","2210","189744","Lexical Decision Task","83","61770","93","yes","1024"
"2.75025376","10.2","6","jump","word","89.36170212765957","89.36170212765957","665.6170212765958","665.6170212765958","black","no","legacy","legacy","legacy","0","uniform","1","undefined","undefined","undefined","1","j","0","0","0","0","93","0","0","0","93","0","89","93","89","0","89","3","93","0","93","Wed Feb 17 10:22:38 2021","The main experiment item","yes","Lexical_Decision_Task.osexp","C:/Users/Admin","no","Andale Mono","no","18","no","white","no","yes","576","legacy","89","89","3","C:/Users/Admin/subject-5110691.csv","legacy","Lentiform Loewenfeld","3.3.7","yes","yes","600bd7cfb6416f0113b04181","602110864497cf011d9c0822","0","j","NA","space","space","space","space","j","798","NA","3149","9631","5414","7861","798","2","legacy","1024","2","48000","-16","task","5110691","odd","NA","24299","29453","26304","203439","2214","17261","11847","203942","123824","203438","203942","203348","29453","204741","22688","202848","2210","189744","Lexical Decision Task","84","62568","94","yes","1024"
"3.263399331","0","8","cour","non-word","89.47368421052632","89.47368421052632","667.5894736842105","667.5894736842105","black","no","legacy","legacy","legacy","0","uniform","1","undefined","undefined","undefined","1","f","0","0","0","0","94","0","0","0","94","0","90","94","90","0","90","3","94","0","94","Wed Feb 17 10:22:38 2021","The main experiment item","yes","Lexical_Decision_Task.osexp","C:/Users/Admin","no","Andale Mono","no","18","no","white","no","yes","576","legacy","90","90","3","C:/Users/Admin/subject-5110691.csv","legacy","Lentiform Loewenfeld","3.3.7","yes","yes","600bd7cfb6416f0113b04181","602110864497cf011d9c0822","0","f","NA","space","space","space","space","f","853","NA","3149","9631","5414","7861","853","2","legacy","1024","2","48000","-16","task","5110691","odd","NA","24299","29453","26304","205312","2214","17261","11847","205814","123824","205311","205815","205244","29453","206669","22688","204744","2210","189744","Lexical Decision Task","85","63421","95","yes","1024"
"3.368162872","0","4","ferk","non-word","89.58333333333333","89.58333333333333","669.3854166666666","669.3854166666666","black","no","legacy","legacy","legacy","0","uniform","1","undefined","undefined","undefined","1","f","0","0","0","0","95","0","0","0","95","0","91","95","91","0","91","3","95","0","95","Wed Feb 17 10:22:38 2021","The main experiment item","yes","Lexical_Decision_Task.osexp","C:/Users/Admin","no","Andale Mono","no","18","no","white","no","yes","576","legacy","91","91","3","C:/Users/Admin/subject-5110691.csv","legacy","Lentiform Loewenfeld","3.3.7","yes","yes","600bd7cfb6416f0113b04181","602110864497cf011d9c0822","0","f","NA","space","space","space","space","f","840","NA","3149","9631","5414","7861","840","2","legacy","1024","2","48000","-16","task","5110691","odd","NA","24299","29453","26304","207244","2214","17261","11847","207748","123824","207242","207748","207172","29453","208589","22688","206672","2210","189744","Lexical Decision Task","86","64261","96","yes","1024"
"3.209246849","0","7","slem","non-word","89.69072164948453","89.69072164948453","668.8144329896908","668.8144329896908","black","no","legacy","legacy","legacy","0","uniform","1","undefined","undefined","undefined","1","f","0","0","0","0","96","0","0","0","96","0","92","96","92","0","92","3","96","0","96","Wed Feb 17 10:22:38 2021","The main experiment item","yes","Lexical_Decision_Task.osexp","C:/Users/Admin","no","Andale Mono","no","18","no","white","no","yes","576","legacy","92","92","3","C:/Users/Admin/subject-5110691.csv","legacy","Lentiform Loewenfeld","3.3.7","yes","yes","600bd7cfb6416f0113b04181","602110864497cf011d9c0822","0","f","NA","space","space","space","space","f","614","NA","3149","9631","5414","7861","614","2","legacy","1024","2","48000","-16","task","5110691","odd","NA","24299","29453","26304","209174","2214","17261","11847","209678","123824","209173","209678","209092","29453","210293","22688","208592","2210","189744","Lexical Decision Task","87","64875","97","yes","1024"
"3.066077331","0","7","vorn","non-word","89.79591836734694","89.79591836734694","667.8571428571429","667.8571428571429","black","no","legacy","legacy","legacy","0","uniform","1","undefined","undefined","undefined","1","f","0","0","0","0","97","0","0","0","97","0","93","97","93","0","93","3","97","0","97","Wed Feb 17 10:22:38 2021","The main experiment item","yes","Lexical_Decision_Task.osexp","C:/Users/Admin","no","Andale Mono","no","18","no","white","no","yes","576","legacy","93","93","3","C:/Users/Admin/subject-5110691.csv","legacy","Lentiform Loewenfeld","3.3.7","yes","yes","600bd7cfb6416f0113b04181","602110864497cf011d9c0822","0","f","NA","space","space","space","space","f","575","NA","3149","9631","5414","7861","575","2","legacy","1024","2","48000","-16","task","5110691","odd","NA","24299","29453","26304","210878","2214","17261","11847","211381","123824","210876","211381","210796","29453","211957","22688","210296","2210","189744","Lexical Decision Task","88","65450","98","yes","1024"
"3.120135028","0","3","vals","non-word","89.8989898989899","89.8989898989899","665.1919191919192","665.1919191919192","black","no","legacy","legacy","legacy","0","uniform","1","undefined","undefined","undefined","1","f","0","0","0","0","98","0","0","0","98","0","94","98","94","0","94","3","98","0","98","Wed Feb 17 10:22:38 2021","The main experiment item","yes","Lexical_Decision_Task.osexp","C:/Users/Admin","no","Andale Mono","no","18","no","white","no","yes","576","legacy","94","94","3","C:/Users/Admin/subject-5110691.csv","legacy","Lentiform Loewenfeld","3.3.7","yes","yes","600bd7cfb6416f0113b04181","602110864497cf011d9c0822","0","f","NA","space","space","space","space","f","404","NA","3149","9631","5414","7861","404","2","legacy","1024","2","48000","-16","task","5110691","odd","NA","24299","29453","26304","212530","2214","17261","11847","213032","123824","212529","213032","212460","29453","213437","22688","211959","2210","189744","Lexical Decision Task","89","65854","99","yes","1024"
"2.799799878","0","4","ciff","non-word","89","89","665.07","665.07","black","no","legacy","legacy","legacy","0","uniform","0","undefined","undefined","undefined","0","f","0","0","0","0","99","0","0","0","99","0","95","99","95","0","95","3","99","0","99","Wed Feb 17 10:22:38 2021","The main experiment item","yes","Lexical_Decision_Task.osexp","C:/Users/Admin","no","Andale Mono","no","18","no","white","no","yes","576","legacy","95","95","3","C:/Users/Admin/subject-5110691.csv","legacy","Lentiform Loewenfeld","3.3.7","yes","yes","600bd7cfb6416f0113b04181","602110864497cf011d9c0822","0","j","NA","space","space","space","space","j","653","NA","3149","9631","5414","7861","653","2","legacy","1024","2","48000","-16","task","5110691","odd","NA","24299","29453","26304","214016","2214","17261","11847","214518","123824","214015","214518","213940","29453","215172","22688","213440","2210","189744","Lexical Decision Task","89","66507","100","yes","1024"
"3.082307743","9.68","8","camp","word","89.10891089108911","89.10891089108911","664.4455445544554","664.4455445544554","black","no","legacy","legacy","legacy","0","uniform","1","undefined","undefined","undefined","1","j","0","0","0","0","100","0","0","0","100","0","96","100","96","0","96","3","100","0","100","Wed Feb 17 10:22:38 2021","The main experiment item","yes","Lexical_Decision_Task.osexp","C:/Users/Admin","no","Andale Mono","no","18","no","white","no","yes","576","legacy","96","96","3","C:/Users/Admin/subject-5110691.csv","legacy","Lentiform Loewenfeld","3.3.7","yes","yes","600bd7cfb6416f0113b04181","602110864497cf011d9c0822","0","j","NA","space","space","space","space","j","602","NA","3149","9631","5414","7861","602","2","legacy","1024","2","48000","-16","task","5110691","odd","NA","24299","29453","26304","216763","2214","17261","11847","217266","123824","216761","217266","216675","29453","217869","22688","213440","2210","215175","Lexical Decision Task","90","67109","101","yes","1024"
"3.216517684","10.87","3","film","word","89.2156862745098","89.2156862745098","664.9803921568628","664.9803921568628","black","no","legacy","legacy","legacy","0","uniform","1","undefined","undefined","undefined","1","j","0","0","0","0","101","0","0","0","101","0","97","101","97","0","97","3","101","0","101","Wed Feb 17 10:22:38 2021","The main experiment item","yes","Lexical_Decision_Task.osexp","C:/Users/Admin","no","Andale Mono","no","18","no","white","no","yes","576","legacy","97","97","3","C:/Users/Admin/subject-5110691.csv","legacy","Lentiform Loewenfeld","3.3.7","yes","yes","600bd7cfb6416f0113b04181","602110864497cf011d9c0822","0","j","NA","space","space","space","space","j","719","NA","3149","9631","5414","7861","719","2","legacy","1024","2","48000","-16","task","5110691","odd","NA","24299","29453","26304","218452","2214","17261","11847","218956","123824","218450","218956","218372","29453","219676","22688","217872","2210","215175","Lexical Decision Task","91","67828","102","yes","1024"
