"Log_BG","Log_Freq_HAL","Ortho_N","Stimulus","Type","acc","accuracy","average_response_time","avg_rt","background","bidi","canvas_backend","clock_backend","color_backend","compensation","coordinates","correct","correct_Experimental_intro","correct_Introduction","correct_Practice_intro","correct_experimenter_kb","correct_response","count_End_Of_Experiment","count_End_Of_Practice","count_Experimental_Loop","count_Experimental_intro","count_Fixation","count_Introduction","count_Practice_Loop","count_Practice_intro","count_Stimulus","count_block_break_feedback","count_experimental_sequence","count_experimenter_kb","count_increment_trial_count","count_init_trial_count","count_logger","count_practice_sequence","count_right","count_task","count_wrong","datetime","description","disable_garbage_collection","experiment_file","experiment_path","font_bold","font_family","font_italic","font_size","font_underline","foreground","form_clicks","fullscreen","height","keyboard_backend","live_row","live_row_Experimental_Loop","live_row_Practice_Loop","logfile","mouse_backend","opensesame_codename","opensesame_version","osf_always_upload_data","osf_always_upload_experiment","osf_datanode_id","osf_id","repeat_cycle","response","response_End_Of_Experiment","response_Experimental_intro","response_Introduction","response_Practice_intro","response_block_break_feedback","response_experimenter_kb","response_time","response_time_End_Of_Experiment","response_time_Experimental_intro","response_time_Introduction","response_time_Practice_intro","response_time_block_break_feedback","response_time_experimenter_kb","round_decimals","sampler_backend","sound_buf_size","sound_channels","sound_freq","sound_sample_size","start","subject_nr","subject_parity","time_End_Of_Experiment","time_End_Of_Practice","time_Experimental_Loop","time_Experimental_intro","time_Fixation","time_Introduction","time_Practice_Loop","time_Practice_intro","time_Stimulus","time_block_break_feedback","time_experimental_sequence","time_experimenter_kb","time_increment_trial_count","time_init_trial_count","time_logger","time_practice_sequence","time_right","time_task","time_wrong","title","total_correct","total_response_time","total_responses","uniform_coordinates","width"
"3.049218023","7.4","9","robe","word","100","100","750","750","black","no","legacy","legacy","legacy","0","uniform","1","undefined","undefined","undefined","1","j","0","0","0","0","4","0","0","0","4","NA","0","4","0","0","0","3","4","0","4","Fri Feb 19 14:02:29 2021","The main experiment item","yes","Lexical_Decision_Task.osexp","C:/Users/wdjac/Desktop","no","Andale Mono","no","18","no","white","no","yes","576","legacy","0","0","3","C:/Users/wdjac/Desktop/subject-5117171.csv","legacy","Lentiform Loewenfeld","3.3.7","yes","yes","600bd7cfb6416f0113b04181","602110864497cf011d9c0822","0","j","NA","j","j","j","NA","j","676","NA","2572","11661","7866","NA","676","2","legacy","1024","2","48000","-16","task","5117171","odd","NA","33549","38129","35556","38232","6077","25611","17744","38740","NA","38228","38740","NA","38129","39416","31754","32977","6061","NA","Lexical Decision Task","5","3750","5","yes","1024"
"2.937852093","0","7","bamp","non-word","100","100","749","749","black","no","legacy","legacy","legacy","0","uniform","1","undefined","undefined","undefined","1","f","0","0","0","0","5","0","0","0","5","NA","1","5","1","0","1","3","5","0","5","Fri Feb 19 14:02:29 2021","The main experiment item","yes","Lexical_Decision_Task.osexp","C:/Users/wdjac/Desktop","no","Andale Mono","no","18","no","white","no","yes","576","legacy","1","1","3","C:/Users/wdjac/Desktop/subject-5117171.csv","legacy","Lentiform Loewenfeld","3.3.7","yes","yes","600bd7cfb6416f0113b04181","602110864497cf011d9c0822","0","f","NA","j","j","j","NA","f","744","NA","2572","11661","7866","NA","744","2","legacy","1024","2","48000","-16","task","5117171","odd","NA","33549","38129","35556","40122","6077","25611","17744","40630","NA","40119","40630","39936","38129","41375","31754","39436","6061","NA","Lexical Decision Task","6","4494","6","yes","1024"
"3.168400243","9.12","6","horn","word","100","100","748.2857142857143","748.2857142857143","black","no","legacy","legacy","legacy","0","uniform","1","undefined","undefined","undefined","1","j","0","0","0","0","6","0","0","0","6","NA","2","6","2","0","2","3","6","0","6","Fri Feb 19 14:02:29 2021","The main experiment item","yes","Lexical_Decision_Task.osexp","C:/Users/wdjac/Desktop","no","Andale Mono","no","18","no","white","no","yes","576","legacy","2","2","3","C:/Users/wdjac/Desktop/subject-5117171.csv","legacy","Lentiform Loewenfeld","3.3.7","yes","yes","600bd7cfb6416f0113b04181","602110864497cf011d9c0822","0","j","NA","j","j","j","NA","j","744","NA","2572","11661","7866","NA","744","2","legacy","1024","2","48000","-16","task","5117171","odd","NA","33549","38129","35556","42032","6077","25611","17744","42539","NA","42028","42539","41884","38129","43284","31754","41383","6061","NA","Lexical Decision Task","7","5238","7","yes","1024"
"2.813801082","5.47","7","nook","word","100","100","753.25","753.25","black","no","legacy","legacy","legacy","0","uniform","1","undefined","undefined","undefined","1","j","0","0","0","0","7","0","0","0","7","NA","3","7","3","0","3","3","7","0","7","Fri Feb 19 14:02:29 2021","The main experiment item","yes","Lexical_Decision_Task.osexp","C:/Users/wdjac/Desktop","no","Andale Mono","no","18","no","white","no","yes","576","legacy","3","3","3","C:/Users/wdjac/Desktop/subject-5117171.csv","legacy","Lentiform Loewenfeld","3.3.7","yes","yes","600bd7cfb6416f0113b04181","602110864497cf011d9c0822","0","j","NA","j","j","j","NA","j","788","NA","2572","11661","7866","NA","788","2","legacy","1024","2","48000","-16","task","5117171","odd","NA","33549","38129","35556","43943","6077","25611","17744","44450","NA","43939","44450","43793","38129","45239","31754","43293","6061","NA","Lexical Decision Task","8","6026","8","yes","1024"
"3.068433376","8.09","2","bulb","word","100","100","738","738","black","no","legacy","legacy","legacy","0","uniform","1","undefined","undefined","undefined","1","j","0","0","0","0","8","0","0","0","8","NA","4","8","4","0","4","3","8","0","8","Fri Feb 19 14:02:29 2021","The main experiment item","yes","Lexical_Decision_Task.osexp","C:/Users/wdjac/Desktop","no","Andale Mono","no","18","no","white","no","yes","576","legacy","4","4","3","C:/Users/wdjac/Desktop/subject-5117171.csv","legacy","Lentiform Loewenfeld","3.3.7","yes","yes","600bd7cfb6416f0113b04181","602110864497cf011d9c0822","0","j","NA","j","j","j","NA","j","616","NA","2572","11661","7866","NA","616","2","legacy","1024","2","48000","-16","task","5117171","odd","NA","33549","38129","35556","45898","6077","25611","17744","46405","NA","45894","46405","45747","38129","47022","31754","45247","6061","NA","Lexical Decision Task","9","6642","9","yes","1024"
"2.744553742","0","2","nawk","non-word","100","100","731.2","731.2","black","no","legacy","legacy","legacy","0","uniform","1","undefined","undefined","undefined","1","f","0","0","0","0","9","0","0","0","9","NA","5","9","5","0","5","3","9","0","9","Fri Feb 19 14:02:29 2021","The main experiment item","yes","Lexical_Decision_Task.osexp","C:/Users/wdjac/Desktop","no","Andale Mono","no","18","no","white","no","yes","576","legacy","5","5","3","C:/Users/wdjac/Desktop/subject-5117171.csv","legacy","Lentiform Loewenfeld","3.3.7","yes","yes","600bd7cfb6416f0113b04181","602110864497cf011d9c0822","0","f","NA","j","j","j","NA","f","670","NA","2572","11661","7866","NA","670","2","legacy","1024","2","48000","-16","task","5117171","odd","NA","33549","38129","35556","47673","6077","25611","17744","48180","NA","47670","48180","47532","38129","48851","31754","47031","6061","NA","Lexical Decision Task","10","7312","10","yes","1024"
"3.257359335","8","6","brew","word","100","100","722.7272727272727","722.7272727272727","black","no","legacy","legacy","legacy","0","uniform","1","undefined","undefined","undefined","1","j","0","0","0","0","10","0","0","0","10","NA","6","10","6","0","6","3","10","0","10","Fri Feb 19 14:02:29 2021","The main experiment item","yes","Lexical_Decision_Task.osexp","C:/Users/wdjac/Desktop","no","Andale Mono","no","18","no","white","no","yes","576","legacy","6","6","3","C:/Users/wdjac/Desktop/subject-5117171.csv","legacy","Lentiform Loewenfeld","3.3.7","yes","yes","600bd7cfb6416f0113b04181","602110864497cf011d9c0822","0","j","NA","j","j","j","NA","j","638","NA","2572","11661","7866","NA","638","2","legacy","1024","2","48000","-16","task","5117171","odd","NA","33549","38129","35556","49515","6077","25611","17744","50022","NA","49512","50022","49359","38129","50661","31754","48859","6061","NA","Lexical Decision Task","11","7950","11","yes","1024"
"3.259832699","0","9","flar","non-word","100","100","722.6666666666666","722.6666666666666","black","no","legacy","legacy","legacy","0","uniform","1","undefined","undefined","undefined","1","f","0","0","0","0","11","0","0","0","11","NA","7","11","7","0","7","3","11","0","11","Fri Feb 19 14:02:29 2021","The main experiment item","yes","Lexical_Decision_Task.osexp","C:/Users/wdjac/Desktop","no","Andale Mono","no","18","no","white","no","yes","576","legacy","7","7","3","C:/Users/wdjac/Desktop/subject-5117171.csv","legacy","Lentiform Loewenfeld","3.3.7","yes","yes","600bd7cfb6416f0113b04181","602110864497cf011d9c0822","0","f","NA","j","j","j","NA","f","722","NA","2572","11661","7866","NA","722","2","legacy","1024","2","48000","-16","task","5117171","odd","NA","33549","38129","35556","51323","6077","25611","17744","51831","NA","51320","51831","51169","38129","52555","31754","50669","6061","NA","Lexical Decision Task","12","8672","12","yes","1024"
"3.120135028","0","3","vals","non-word","100","100","724.5384615384615","724.5384615384615","black","no","legacy","legacy","legacy","0","uniform","1","undefined","undefined","undefined","1","f","0","0","0","0","12","0","0","0","12","NA","8","12","8","0","8","3","12","0","12","Fri Feb 19 14:02:29 2021","The main experiment item","yes","Lexical_Decision_Task.osexp","C:/Users/wdjac/Desktop","no","Andale Mono","no","18","no","white","no","yes","576","legacy","8","8","3","C:/Users/wdjac/Desktop/subject-5117171.csv","legacy","Lentiform Loewenfeld","3.3.7","yes","yes","600bd7cfb6416f0113b04181","602110864497cf011d9c0822","0","f","NA","j","j","j","NA","f","747","NA","2572","11661","7866","NA","747","2","legacy","1024","2","48000","-16","task","5117171","odd","NA","33549","38129","35556","53212","6077","25611","17744","53720","NA","53209","53720","53063","38129","54468","31754","52563","6061","NA","Lexical Decision Task","13","9419","13","yes","1024"
"2.842815106","7.86","8","lump","word","100","100","716.2142857142857","716.2142857142857","black","no","legacy","legacy","legacy","0","uniform","1","undefined","undefined","undefined","1","j","0","0","0","0","13","0","0","0","13","NA","9","13","9","0","9","3","13","0","13","Fri Feb 19 14:02:29 2021","The main experiment item","yes","Lexical_Decision_Task.osexp","C:/Users/wdjac/Desktop","no","Andale Mono","no","18","no","white","no","yes","576","legacy","9","9","3","C:/Users/wdjac/Desktop/subject-5117171.csv","legacy","Lentiform Loewenfeld","3.3.7","yes","yes","600bd7cfb6416f0113b04181","602110864497cf011d9c0822","0","j","NA","j","j","j","NA","j","608","NA","2572","11661","7866","NA","608","2","legacy","1024","2","48000","-16","task","5117171","odd","NA","33549","38129","35556","55130","6077","25611","17744","55637","NA","55126","55637","54976","38129","56247","31754","54476","6061","NA","Lexical Decision Task","14","10027","14","yes","1024"
"2.695481676","0","7","goke","non-word","100","100","717.6","717.6","black","no","legacy","legacy","legacy","0","uniform","1","undefined","undefined","undefined","1","f","0","0","0","0","14","0","0","0","14","NA","10","14","10","0","10","3","14","0","14","Fri Feb 19 14:02:29 2021","The main experiment item","yes","Lexical_Decision_Task.osexp","C:/Users/wdjac/Desktop","no","Andale Mono","no","18","no","white","no","yes","576","legacy","10","10","3","C:/Users/wdjac/Desktop/subject-5117171.csv","legacy","Lentiform Loewenfeld","3.3.7","yes","yes","600bd7cfb6416f0113b04181","602110864497cf011d9c0822","0","f","NA","j","j","j","NA","f","737","NA","2572","11661","7866","NA","737","2","legacy","1024","2","48000","-16","task","5117171","odd","NA","33549","38129","35556","56905","6077","25611","17744","57412","NA","56901","57412","56755","38129","58150","31754","56255","6061","NA","Lexical Decision Task","15","10764","15","yes","1024"
"3.159867847","5.98","5","brim","word","100","100","711.9375","711.9375","black","no","legacy","legacy","legacy","0","uniform","1","undefined","undefined","undefined","1","j","0","0","0","0","15","0","0","0","15","NA","11","15","11","0","11","3","15","0","15","Fri Feb 19 14:02:29 2021","The main experiment item","yes","Lexical_Decision_Task.osexp","C:/Users/wdjac/Desktop","no","Andale Mono","no","18","no","white","no","yes","576","legacy","11","11","3","C:/Users/wdjac/Desktop/subject-5117171.csv","legacy","Lentiform Loewenfeld","3.3.7","yes","yes","600bd7cfb6416f0113b04181","602110864497cf011d9c0822","0","j","NA","j","j","j","NA","j","627","NA","2572","11661","7866","NA","627","2","legacy","1024","2","48000","-16","task","5117171","odd","NA","33549","38129","35556","58803","6077","25611","17744","59310","NA","58799","59310","58658","38129","59938","31754","58158","6061","NA","Lexical Decision Task","16","11391","16","yes","1024"
"2.980911938","7.15","7","hoop","word","100","100","702.7058823529412","702.7058823529412","black","no","legacy","legacy","legacy","0","uniform","1","undefined","undefined","undefined","1","j","0","0","0","0","16","0","0","0","16","NA","12","16","12","0","12","3","16","0","16","Fri Feb 19 14:02:29 2021","The main experiment item","yes","Lexical_Decision_Task.osexp","C:/Users/wdjac/Desktop","no","Andale Mono","no","18","no","white","no","yes","576","legacy","12","12","3","C:/Users/wdjac/Desktop/subject-5117171.csv","legacy","Lentiform Loewenfeld","3.3.7","yes","yes","600bd7cfb6416f0113b04181","602110864497cf011d9c0822","0","j","NA","j","j","j","NA","j","555","NA","2572","11661","7866","NA","555","2","legacy","1024","2","48000","-16","task","5117171","odd","NA","33549","38129","35556","60594","6077","25611","17744","61101","NA","60590","61101","60446","38129","61657","31754","59946","6061","NA","Lexical Decision Task","17","11946","17","yes","1024"
"2.767650507","0","6","yolt","non-word","100","100","704.4444444444445","704.4444444444445","black","no","legacy","legacy","legacy","0","uniform","1","undefined","undefined","undefined","1","f","0","0","0","0","17","0","0","0","17","NA","13","17","13","0","13","3","17","0","17","Fri Feb 19 14:02:29 2021","The main experiment item","yes","Lexical_Decision_Task.osexp","C:/Users/wdjac/Desktop","no","Andale Mono","no","18","no","white","no","yes","576","legacy","13","13","3","C:/Users/wdjac/Desktop/subject-5117171.csv","legacy","Lentiform Loewenfeld","3.3.7","yes","yes","600bd7cfb6416f0113b04181","602110864497cf011d9c0822","0","f","NA","j","j","j","NA","f","734","NA","2572","11661","7866","NA","734","2","legacy","1024","2","48000","-16","task","5117171","odd","NA","33549","38129","35556","62311","6077","25611","17744","62819","NA","62308","62820","62165","38129","63555","31754","61665","6061","NA","Lexical Decision Task","18","12680","18","yes","1024"
"3.353210739","0","9","reet","non-word","100","100","704.6315789473684","704.6315789473684","black","no","legacy","legacy","legacy","0","uniform","1","undefined","undefined","undefined","1","f","0","0","0","0","18","0","0","0","18","NA","14","18","14","0","14","3","18","0","18","Fri Feb 19 14:02:29 2021","The main experiment item","yes","Lexical_Decision_Task.osexp","C:/Users/wdjac/Desktop","no","Andale Mono","no","18","no","white","no","yes","576","legacy","14","14","3","C:/Users/wdjac/Desktop/subject-5117171.csv","legacy","Lentiform Loewenfeld","3.3.7","yes","yes","600bd7cfb6416f0113b04181","602110864497cf011d9c0822","0","f","NA","j","j","j","NA","f","708","NA","2572","11661","7866","NA","708","2","legacy","1024","2","48000","-16","task","5117171","odd","NA","33549","38129","35556","64203","6077","25611","17744","64710","NA","64199","64710","64063","38129","65419","31754","63563","6061","NA","Lexical Decision Task","19","13388","19","yes","1024"
"3.091901331","0","9","nipe","non-word","100","100","702.3","702.3","black","no","legacy","legacy","legacy","0","uniform","1","undefined","undefined","undefined","1","f","0","0","0","0","19","0","0","0","19","NA","15","19","15","0","15","3","19","0","19","Fri Feb 19 14:02:29 2021","The main experiment item","yes","Lexical_Decision_Task.osexp","C:/Users/wdjac/Desktop","no","Andale Mono","no","18","no","white","no","yes","576","legacy","15","15","3","C:/Users/wdjac/Desktop/subject-5117171.csv","legacy","Lentiform Loewenfeld","3.3.7","yes","yes","600bd7cfb6416f0113b04181","602110864497cf011d9c0822","0","f","NA","j","j","j","NA","f","658","NA","2572","11661","7866","NA","658","2","legacy","1024","2","48000","-16","task","5117171","odd","NA","33549","38129","35556","66080","6077","25611","17744","66587","NA","66076","66587","65927","38129","67247","31754","65427","6061","NA","Lexical Decision Task","20","14046","20","yes","1024"
"2.664011697","8.19","4","hawk","word","100","100","709.4761904761905","709.4761904761905","black","no","legacy","legacy","legacy","0","uniform","1","undefined","undefined","undefined","1","j","0","0","0","0","20","0","0","0","20","NA","16","20","16","0","16","3","20","0","20","Fri Feb 19 14:02:29 2021","The main experiment item","yes","Lexical_Decision_Task.osexp","C:/Users/wdjac/Desktop","no","Andale Mono","no","18","no","white","no","yes","576","legacy","16","16","3","C:/Users/wdjac/Desktop/subject-5117171.csv","legacy","Lentiform Loewenfeld","3.3.7","yes","yes","600bd7cfb6416f0113b04181","602110864497cf011d9c0822","0","j","NA","j","j","j","NA","j","853","NA","2572","11661","7866","NA","853","2","legacy","1024","2","48000","-16","task","5117171","odd","NA","33549","38129","35556","67895","6077","25611","17744","68398","NA","67891","68398","67755","38129","69252","31754","67254","6061","NA","Lexical Decision Task","21","14899","21","yes","1024"
"3.366547468","0","6","plat","non-word","95.45454545454545","95.45454545454545","732.8636363636364","732.8636363636364","black","no","legacy","legacy","legacy","0","uniform","0","undefined","undefined","undefined","0","f","0","0","0","0","21","0","0","0","21","NA","17","21","17","0","17","3","21","0","21","Fri Feb 19 14:02:29 2021","The main experiment item","yes","Lexical_Decision_Task.osexp","C:/Users/wdjac/Desktop","no","Andale Mono","no","18","no","white","no","yes","576","legacy","17","17","3","C:/Users/wdjac/Desktop/subject-5117171.csv","legacy","Lentiform Loewenfeld","3.3.7","yes","yes","600bd7cfb6416f0113b04181","602110864497cf011d9c0822","0","j","NA","j","j","j","NA","j","1224","NA","2572","11661","7866","NA","1224","2","legacy","1024","2","48000","-16","task","5117171","odd","NA","33549","38129","35556","69904","6077","25611","17744","70412","NA","69901","70412","69761","38129","71638","31754","69260","6061","NA","Lexical Decision Task","21","16123","22","yes","1024"
"2.728085817","10.02","9","bike","word","95.65217391304348","95.65217391304348","726.9565217391304","726.9565217391304","black","no","legacy","legacy","legacy","0","uniform","1","undefined","undefined","undefined","1","j","0","0","0","0","22","0","0","0","22","NA","18","22","18","0","18","3","22","0","22","Fri Feb 19 14:02:29 2021","The main experiment item","yes","Lexical_Decision_Task.osexp","C:/Users/wdjac/Desktop","no","Andale Mono","no","18","no","white","no","yes","576","legacy","18","18","3","C:/Users/wdjac/Desktop/subject-5117171.csv","legacy","Lentiform Loewenfeld","3.3.7","yes","yes","600bd7cfb6416f0113b04181","602110864497cf011d9c0822","0","j","NA","j","j","j","NA","j","597","NA","2572","11661","7866","NA","597","2","legacy","1024","2","48000","-16","task","5117171","odd","NA","33549","38129","35556","73284","6077","25611","17744","73791","NA","73280","73791","73146","38129","74389","31754","69260","6061","71646","Lexical Decision Task","22","16720","23","yes","1024"
"2.82129731","6.72","5","plum","word","95.83333333333333","95.83333333333333","720.8333333333334","720.8333333333334","black","no","legacy","legacy","legacy","0","uniform","1","undefined","undefined","undefined","1","j","0","0","0","0","23","0","0","0","23","NA","19","23","19","0","19","3","23","0","23","Fri Feb 19 14:02:29 2021","The main experiment item","yes","Lexical_Decision_Task.osexp","C:/Users/wdjac/Desktop","no","Andale Mono","no","18","no","white","no","yes","576","legacy","19","19","3","C:/Users/wdjac/Desktop/subject-5117171.csv","legacy","Lentiform Loewenfeld","3.3.7","yes","yes","600bd7cfb6416f0113b04181","602110864497cf011d9c0822","0","j","NA","j","j","j","NA","j","580","NA","2572","11661","7866","NA","580","2","legacy","1024","2","48000","-16","task","5117171","odd","NA","33549","38129","35556","75048","6077","25611","17744","75555","NA","75045","75555","74897","38129","76137","31754","74397","6061","71646","Lexical Decision Task","23","17300","24","yes","1024"
"3.039414119","0","9","meep","non-word","96","96","718","718","black","no","legacy","legacy","legacy","0","uniform","1","undefined","undefined","undefined","1","f","0","0","0","0","24","0","0","0","24","NA","20","24","20","0","20","3","24","0","24","Fri Feb 19 14:02:29 2021","The main experiment item","yes","Lexical_Decision_Task.osexp","C:/Users/wdjac/Desktop","no","Andale Mono","no","18","no","white","no","yes","576","legacy","20","20","3","C:/Users/wdjac/Desktop/subject-5117171.csv","legacy","Lentiform Loewenfeld","3.3.7","yes","yes","600bd7cfb6416f0113b04181","602110864497cf011d9c0822","0","f","NA","j","j","j","NA","f","650","NA","2572","11661","7866","NA","650","2","legacy","1024","2","48000","-16","task","5117171","odd","NA","33549","38129","35556","76793","6077","25611","17744","77300","NA","76790","77300","76645","38129","77951","31754","76145","6061","71646","Lexical Decision Task","24","17950","25","yes","1024"
"2.746890964","9.67","3","plug","word","96.15384615384616","96.15384615384616","713.1538461538462","713.1538461538462","black","no","legacy","legacy","legacy","0","uniform","1","undefined","undefined","undefined","1","j","0","0","0","0","25","0","0","0","25","NA","21","25","21","0","21","3","25","0","25","Fri Feb 19 14:02:29 2021","The main experiment item","yes","Lexical_Decision_Task.osexp","C:/Users/wdjac/Desktop","no","Andale Mono","no","18","no","white","no","yes","576","legacy","21","21","3","C:/Users/wdjac/Desktop/subject-5117171.csv","legacy","Lentiform Loewenfeld","3.3.7","yes","yes","600bd7cfb6416f0113b04181","602110864497cf011d9c0822","0","j","NA","j","j","j","NA","j","592","NA","2572","11661","7866","NA","592","2","legacy","1024","2","48000","-16","task","5117171","odd","NA","33549","38129","35556","78600","6077","25611","17744","79107","NA","78597","79107","78459","38129","79700","31754","77959","6061","71646","Lexical Decision Task","25","18542","26","yes","1024"
"2.884795364","0","6","flob","non-word","96.29629629629629","96.29629629629629","712","712","black","no","legacy","legacy","legacy","0","uniform","1","undefined","undefined","undefined","1","f","0","0","0","0","26","0","0","0","26","NA","22","26","22","0","22","3","26","0","26","Fri Feb 19 14:02:29 2021","The main experiment item","yes","Lexical_Decision_Task.osexp","C:/Users/wdjac/Desktop","no","Andale Mono","no","18","no","white","no","yes","576","legacy","22","22","3","C:/Users/wdjac/Desktop/subject-5117171.csv","legacy","Lentiform Loewenfeld","3.3.7","yes","yes","600bd7cfb6416f0113b04181","602110864497cf011d9c0822","0","f","NA","j","j","j","NA","f","682","NA","2572","11661","7866","NA","682","2","legacy","1024","2","48000","-16","task","5117171","odd","NA","33549","38129","35556","80347","6077","25611","17744","80850","NA","80343","80850","80208","38129","81534","31754","79708","6061","71646","Lexical Decision Task","26","19224","27","yes","1024"
"2.899638141","0","3","hapt","non-word","96.42857142857143","96.42857142857143","711.3928571428571","711.3928571428571","black","no","legacy","legacy","legacy","0","uniform","1","undefined","undefined","undefined","1","f","0","0","0","0","27","0","0","0","27","NA","23","27","23","0","23","3","27","0","27","Fri Feb 19 14:02:29 2021","The main experiment item","yes","Lexical_Decision_Task.osexp","C:/Users/wdjac/Desktop","no","Andale Mono","no","18","no","white","no","yes","576","legacy","23","23","3","C:/Users/wdjac/Desktop/subject-5117171.csv","legacy","Lentiform Loewenfeld","3.3.7","yes","yes","600bd7cfb6416f0113b04181","602110864497cf011d9c0822","0","f","NA","j","j","j","NA","f","695","NA","2572","11661","7866","NA","695","2","legacy","1024","2","48000","-16","task","5117171","odd","NA","33549","38129","35556","82178","6077","25611","17744","82685","NA","82174","82685","82042","38129","83381","31754","81541","6061","71646","Lexical Decision Task","27","19919","28","yes","1024"
"2.706148589","0","4","hube","non-word","93.10344827586206","93.10344827586206","711.1034482758621","711.1034482758621","black","no","legacy","legacy","legacy","0","uniform","0","undefined","undefined","undefined","0","f","0","0","0","0","28","0","0","0","28","NA","24","28","24","0","24","3","28","0","28","Fri Feb 19 14:02:29 2021","The main experiment item","yes","Lexical_Decision_Task.osexp","C:/Users/wdjac/Desktop","no","Andale Mono","no","18","no","white","no","yes","576","legacy","24","24","3","C:/Users/wdjac/Desktop/subject-5117171.csv","legacy","Lentiform Loewenfeld","3.3.7","yes","yes","600bd7cfb6416f0113b04181","602110864497cf011d9c0822","0","j","NA","j","j","j","NA","j","703","NA","2572","11661","7866","NA","703","2","legacy","1024","2","48000","-16","task","5117171","odd","NA","33549","38129","35556","84032","6077","25611","17744","84540","NA","84029","84540","83889","38129","85245","31754","83389","6061","71646","Lexical Decision Task","27","20622","29","yes","1024"
"2.892836167","10.01","5","soft","word","93.33333333333333","93.33333333333333","707.4666666666667","707.4666666666667","black","no","legacy","legacy","legacy","0","uniform","1","undefined","undefined","undefined","1","j","0","0","0","0","29","0","0","0","29","NA","25","29","25","0","25","3","29","0","29","Fri Feb 19 14:02:29 2021","The main experiment item","yes","Lexical_Decision_Task.osexp","C:/Users/wdjac/Desktop","no","Andale Mono","no","18","no","white","no","yes","576","legacy","25","25","3","C:/Users/wdjac/Desktop/subject-5117171.csv","legacy","Lentiform Loewenfeld","3.3.7","yes","yes","600bd7cfb6416f0113b04181","602110864497cf011d9c0822","0","j","NA","j","j","j","NA","j","602","NA","2572","11661","7866","NA","602","2","legacy","1024","2","48000","-16","task","5117171","odd","NA","33549","38129","35556","86903","6077","25611","17744","87410","NA","86899","87410","86753","38129","88013","31754","83389","6061","85253","Lexical Decision Task","28","21224","30","yes","1024"
"3.028977705","0","7","frow","non-word","93.54838709677419","93.54838709677419","711.741935483871","711.741935483871","black","no","legacy","legacy","legacy","0","uniform","1","undefined","undefined","undefined","1","f","0","0","0","0","30","0","0","0","30","NA","26","30","26","0","26","3","30","0","30","Fri Feb 19 14:02:29 2021","The main experiment item","yes","Lexical_Decision_Task.osexp","C:/Users/wdjac/Desktop","no","Andale Mono","no","18","no","white","no","yes","576","legacy","26","26","3","C:/Users/wdjac/Desktop/subject-5117171.csv","legacy","Lentiform Loewenfeld","3.3.7","yes","yes","600bd7cfb6416f0113b04181","602110864497cf011d9c0822","0","f","NA","j","j","j","NA","f","840","NA","2572","11661","7866","NA","840","2","legacy","1024","2","48000","-16","task","5117171","odd","NA","33549","38129","35556","88673","6077","25611","17744","89181","NA","88670","89181","88522","38129","90023","31754","88021","6061","85253","Lexical Decision Task","29","22064","31","yes","1024"
"3.274157849","0","8","leet","non-word","93.75","93.75","709.4375","709.4375","black","no","legacy","legacy","legacy","0","uniform","1","undefined","undefined","undefined","1","f","0","0","0","0","31","0","0","0","31","NA","27","31","27","0","27","3","31","0","31","Fri Feb 19 14:02:29 2021","The main experiment item","yes","Lexical_Decision_Task.osexp","C:/Users/wdjac/Desktop","no","Andale Mono","no","18","no","white","no","yes","576","legacy","27","27","3","C:/Users/wdjac/Desktop/subject-5117171.csv","legacy","Lentiform Loewenfeld","3.3.7","yes","yes","600bd7cfb6416f0113b04181","602110864497cf011d9c0822","0","f","NA","j","j","j","NA","f","638","NA","2572","11661","7866","NA","638","2","legacy","1024","2","48000","-16","task","5117171","odd","NA","33549","38129","35556","90681","6077","25611","17744","91188","NA","90678","91188","90531","38129","91828","31754","90031","6061","85253","Lexical Decision Task","30","22702","32","yes","1024"
"2.68604012","0","4","pumb","non-word","93.93939393939394","93.93939393939394","715.1818181818181","715.1818181818181","black","no","legacy","legacy","legacy","0","uniform","1","undefined","undefined","undefined","1","f","0","0","0","0","32","0","0","0","32","NA","28","32","28","0","28","3","32","0","32","Fri Feb 19 14:02:29 2021","The main experiment item","yes","Lexical_Decision_Task.osexp","C:/Users/wdjac/Desktop","no","Andale Mono","no","18","no","white","no","yes","576","legacy","28","28","3","C:/Users/wdjac/Desktop/subject-5117171.csv","legacy","Lentiform Loewenfeld","3.3.7","yes","yes","600bd7cfb6416f0113b04181","602110864497cf011d9c0822","0","f","NA","j","j","j","NA","f","899","NA","2572","11661","7866","NA","899","2","legacy","1024","2","48000","-16","task","5117171","odd","NA","33549","38129","35556","92483","6077","25611","17744","92990","NA","92479","92991","92336","38129","93892","31754","91836","6061","85253","Lexical Decision Task","31","23601","33","yes","1024"
"2.67699827","0","6","hulf","non-word","94.11764705882354","94.11764705882354","714.1764705882352","714.1764705882352","black","no","legacy","legacy","legacy","0","uniform","1","undefined","undefined","undefined","1","f","0","0","0","0","33","0","0","0","33","NA","29","33","29","0","29","3","33","0","33","Fri Feb 19 14:02:29 2021","The main experiment item","yes","Lexical_Decision_Task.osexp","C:/Users/wdjac/Desktop","no","Andale Mono","no","18","no","white","no","yes","576","legacy","29","29","3","C:/Users/wdjac/Desktop/subject-5117171.csv","legacy","Lentiform Loewenfeld","3.3.7","yes","yes","600bd7cfb6416f0113b04181","602110864497cf011d9c0822","0","f","NA","j","j","j","NA","f","681","NA","2572","11661","7866","NA","681","2","legacy","1024","2","48000","-16","task","5117171","odd","NA","33549","38129","35556","94552","6077","25611","17744","95059","NA","94548","95059","94401","38129","95741","31754","93901","6061","85253","Lexical Decision Task","32","24282","34","yes","1024"
"3.276537627","9.15","5","trap","word","94.28571428571429","94.28571428571429","710.8285714285714","710.8285714285714","black","no","legacy","legacy","legacy","0","uniform","1","undefined","undefined","undefined","1","j","0","0","0","0","34","0","0","0","34","NA","30","34","30","0","30","3","34","0","34","Fri Feb 19 14:02:29 2021","The main experiment item","yes","Lexical_Decision_Task.osexp","C:/Users/wdjac/Desktop","no","Andale Mono","no","18","no","white","no","yes","576","legacy","30","30","3","C:/Users/wdjac/Desktop/subject-5117171.csv","legacy","Lentiform Loewenfeld","3.3.7","yes","yes","600bd7cfb6416f0113b04181","602110864497cf011d9c0822","0","j","NA","j","j","j","NA","j","597","NA","2572","11661","7866","NA","597","2","legacy","1024","2","48000","-16","task","5117171","odd","NA","33549","38129","35556","96391","6077","25611","17744","96898","NA","96387","96898","96249","38129","97496","31754","95749","6061","85253","Lexical Decision Task","33","24879","35","yes","1024"
"2.875447132","0","9","jelt","non-word","94.44444444444444","94.44444444444444","707.2222222222222","707.2222222222222","black","no","legacy","legacy","legacy","0","uniform","1","undefined","undefined","undefined","1","f","0","0","0","0","35","0","0","0","35","NA","31","35","31","0","31","3","35","0","35","Fri Feb 19 14:02:29 2021","The main experiment item","yes","Lexical_Decision_Task.osexp","C:/Users/wdjac/Desktop","no","Andale Mono","no","18","no","white","no","yes","576","legacy","31","31","3","C:/Users/wdjac/Desktop/subject-5117171.csv","legacy","Lentiform Loewenfeld","3.3.7","yes","yes","600bd7cfb6416f0113b04181","602110864497cf011d9c0822","0","f","NA","j","j","j","NA","f","581","NA","2572","11661","7866","NA","581","2","legacy","1024","2","48000","-16","task","5117171","odd","NA","33549","38129","35556","98155","6077","25611","17744","98662","NA","98152","98662","98005","38129","99245","31754","97504","6061","85253","Lexical Decision Task","34","25460","36","yes","1024"
"2.843025032","0","9","pusk","non-word","94.5945945945946","94.5945945945946","708.1081081081081","708.1081081081081","black","no","legacy","legacy","legacy","0","uniform","1","undefined","undefined","undefined","1","f","0","0","0","0","36","0","0","0","36","NA","32","36","32","0","32","3","36","0","36","Fri Feb 19 14:02:29 2021","The main experiment item","yes","Lexical_Decision_Task.osexp","C:/Users/wdjac/Desktop","no","Andale Mono","no","18","no","white","no","yes","576","legacy","32","32","3","C:/Users/wdjac/Desktop/subject-5117171.csv","legacy","Lentiform Loewenfeld","3.3.7","yes","yes","600bd7cfb6416f0113b04181","602110864497cf011d9c0822","0","f","NA","j","j","j","NA","f","740","NA","2572","11661","7866","NA","740","2","legacy","1024","2","48000","-16","task","5117171","odd","NA","33549","38129","35556","99899","6077","25611","17744","100406","NA","99895","100406","99754","38129","101147","31754","99254","6061","85253","Lexical Decision Task","35","26200","37","yes","1024"
"3.003891166","8.05","2","frog","word","94.73684210526316","94.73684210526316","704.7894736842105","704.7894736842105","black","no","legacy","legacy","legacy","0","uniform","1","undefined","undefined","undefined","1","j","0","0","0","0","37","0","0","0","37","NA","33","37","33","0","33","3","37","0","37","Fri Feb 19 14:02:29 2021","The main experiment item","yes","Lexical_Decision_Task.osexp","C:/Users/wdjac/Desktop","no","Andale Mono","no","18","no","white","no","yes","576","legacy","33","33","3","C:/Users/wdjac/Desktop/subject-5117171.csv","legacy","Lentiform Loewenfeld","3.3.7","yes","yes","600bd7cfb6416f0113b04181","602110864497cf011d9c0822","0","j","NA","j","j","j","NA","j","582","NA","2572","11661","7866","NA","582","2","legacy","1024","2","48000","-16","task","5117171","odd","NA","33549","38129","35556","101796","6077","25611","17744","102303","NA","101792","102303","101655","38129","102887","31754","101155","6061","85253","Lexical Decision Task","36","26782","38","yes","1024"
"3.067193647","6.73","6","raft","word","94.87179487179488","94.87179487179488","704.0769230769231","704.0769230769231","black","no","legacy","legacy","legacy","0","uniform","1","undefined","undefined","undefined","1","j","0","0","0","0","38","0","0","0","38","NA","34","38","34","0","34","3","38","0","38","Fri Feb 19 14:02:29 2021","The main experiment item","yes","Lexical_Decision_Task.osexp","C:/Users/wdjac/Desktop","no","Andale Mono","no","18","no","white","no","yes","576","legacy","34","34","3","C:/Users/wdjac/Desktop/subject-5117171.csv","legacy","Lentiform Loewenfeld","3.3.7","yes","yes","600bd7cfb6416f0113b04181","602110864497cf011d9c0822","0","j","NA","j","j","j","NA","j","677","NA","2572","11661","7866","NA","677","2","legacy","1024","2","48000","-16","task","5117171","odd","NA","33549","38129","35556","103538","6077","25611","17744","104041","NA","103534","104041","103395","38129","104718","31754","102894","6061","85253","Lexical Decision Task","37","27459","39","yes","1024"
"2.68604012","0","3","mulb","non-word","95","95","702.65","702.65","black","no","legacy","legacy","legacy","0","uniform","1","undefined","undefined","undefined","1","f","0","0","0","0","39","0","0","0","39","NA","35","39","35","0","35","3","39","0","39","Fri Feb 19 14:02:29 2021","The main experiment item","yes","Lexical_Decision_Task.osexp","C:/Users/wdjac/Desktop","no","Andale Mono","no","18","no","white","no","yes","576","legacy","35","35","3","C:/Users/wdjac/Desktop/subject-5117171.csv","legacy","Lentiform Loewenfeld","3.3.7","yes","yes","600bd7cfb6416f0113b04181","602110864497cf011d9c0822","0","f","NA","j","j","j","NA","f","647","NA","2572","11661","7866","NA","647","2","legacy","1024","2","48000","-16","task","5117171","odd","NA","33549","38129","35556","105381","6077","25611","17744","105888","NA","105377","105888","105227","38129","106536","31754","104727","6061","85253","Lexical Decision Task","38","28106","40","yes","1024"
"2.821076612","0","4","lult","non-word","95.1219512195122","95.1219512195122","699.4146341463414","699.4146341463414","black","no","legacy","legacy","legacy","0","uniform","1","undefined","undefined","undefined","1","f","0","0","0","0","40","0","0","0","40","NA","36","40","36","0","36","3","40","0","40","Fri Feb 19 14:02:29 2021","The main experiment item","yes","Lexical_Decision_Task.osexp","C:/Users/wdjac/Desktop","no","Andale Mono","no","18","no","white","no","yes","576","legacy","36","36","3","C:/Users/wdjac/Desktop/subject-5117171.csv","legacy","Lentiform Loewenfeld","3.3.7","yes","yes","600bd7cfb6416f0113b04181","602110864497cf011d9c0822","0","f","NA","j","j","j","NA","f","570","NA","2572","11661","7866","NA","570","2","legacy","1024","2","48000","-16","task","5117171","odd","NA","33549","38129","35556","107191","6077","25611","17744","107698","NA","107187","107698","107045","38129","108269","31754","106544","6061","85253","Lexical Decision Task","39","28676","41","yes","1024"
"2.705007959","6.01","4","wept","word","95.23809523809524","95.23809523809524","696.7142857142857","696.7142857142857","black","no","legacy","legacy","legacy","0","uniform","1","undefined","undefined","undefined","1","j","0","0","0","0","41","0","0","0","41","NA","37","41","37","0","37","3","41","0","41","Fri Feb 19 14:02:29 2021","The main experiment item","yes","Lexical_Decision_Task.osexp","C:/Users/wdjac/Desktop","no","Andale Mono","no","18","no","white","no","yes","576","legacy","37","37","3","C:/Users/wdjac/Desktop/subject-5117171.csv","legacy","Lentiform Loewenfeld","3.3.7","yes","yes","600bd7cfb6416f0113b04181","602110864497cf011d9c0822","0","j","NA","j","j","j","NA","j","586","NA","2572","11661","7866","NA","586","2","legacy","1024","2","48000","-16","task","5117171","odd","NA","33549","38129","35556","108924","6077","25611","17744","109431","NA","108920","109431","108777","38129","110019","31754","108277","6061","85253","Lexical Decision Task","40","29262","42","yes","1024"
"2.979548375","8.71","4","soup","word","95.34883720930233","95.34883720930233","693.3953488372093","693.3953488372093","black","no","legacy","legacy","legacy","0","uniform","1","undefined","undefined","undefined","1","j","0","0","0","0","42","0","0","0","42","NA","38","42","38","0","38","3","42","0","42","Fri Feb 19 14:02:29 2021","The main experiment item","yes","Lexical_Decision_Task.osexp","C:/Users/wdjac/Desktop","no","Andale Mono","no","18","no","white","no","yes","576","legacy","38","38","3","C:/Users/wdjac/Desktop/subject-5117171.csv","legacy","Lentiform Loewenfeld","3.3.7","yes","yes","600bd7cfb6416f0113b04181","602110864497cf011d9c0822","0","j","NA","j","j","j","NA","j","554","NA","2572","11661","7866","NA","554","2","legacy","1024","2","48000","-16","task","5117171","odd","NA","33549","38129","35556","110670","6077","25611","17744","111177","NA","110666","111177","110528","38129","111733","31754","110028","6061","85253","Lexical Decision Task","41","29816","43","yes","1024"
"3.067070856","9.39","3","loud","word","95.45454545454545","95.45454545454545","689.4772727272727","689.4772727272727","black","no","legacy","legacy","legacy","0","uniform","1","undefined","undefined","undefined","1","j","0","0","0","0","43","0","0","0","43","NA","39","43","39","0","39","3","43","0","43","Fri Feb 19 14:02:29 2021","The main experiment item","yes","Lexical_Decision_Task.osexp","C:/Users/wdjac/Desktop","no","Andale Mono","no","18","no","white","no","yes","576","legacy","39","39","3","C:/Users/wdjac/Desktop/subject-5117171.csv","legacy","Lentiform Loewenfeld","3.3.7","yes","yes","600bd7cfb6416f0113b04181","602110864497cf011d9c0822","0","j","NA","j","j","j","NA","j","521","NA","2572","11661","7866","NA","521","2","legacy","1024","2","48000","-16","task","5117171","odd","NA","33549","38129","35556","112386","6077","25611","17744","112893","NA","112382","112893","112240","38129","113416","31754","111740","6061","85253","Lexical Decision Task","42","30337","44","yes","1024"
"3.132473155","0","4","glim","non-word","95.55555555555556","95.55555555555556","688.3111111111111","688.3111111111111","black","no","legacy","legacy","legacy","0","uniform","1","undefined","undefined","undefined","1","f","0","0","0","0","44","0","0","0","44","NA","40","44","40","0","40","3","44","0","44","Fri Feb 19 14:02:29 2021","The main experiment item","yes","Lexical_Decision_Task.osexp","C:/Users/wdjac/Desktop","no","Andale Mono","no","18","no","white","no","yes","576","legacy","40","40","3","C:/Users/wdjac/Desktop/subject-5117171.csv","legacy","Lentiform Loewenfeld","3.3.7","yes","yes","600bd7cfb6416f0113b04181","602110864497cf011d9c0822","0","f","NA","j","j","j","NA","f","637","NA","2572","11661","7866","NA","637","2","legacy","1024","2","48000","-16","task","5117171","odd","NA","33549","38129","35556","114078","6077","25611","17744","114586","NA","114075","114586","113925","38129","115224","31754","113424","6061","85253","Lexical Decision Task","43","30974","45","yes","1024"
"2.858136002","0","4","phip","non-word","95.65217391304348","95.65217391304348","687.1304347826087","687.1304347826087","black","no","legacy","legacy","legacy","0","uniform","1","undefined","undefined","undefined","1","f","0","0","0","0","45","0","0","0","45","NA","41","45","41","0","41","3","45","0","45","Fri Feb 19 14:02:29 2021","The main experiment item","yes","Lexical_Decision_Task.osexp","C:/Users/wdjac/Desktop","no","Andale Mono","no","18","no","white","no","yes","576","legacy","41","41","3","C:/Users/wdjac/Desktop/subject-5117171.csv","legacy","Lentiform Loewenfeld","3.3.7","yes","yes","600bd7cfb6416f0113b04181","602110864497cf011d9c0822","0","f","NA","j","j","j","NA","f","634","NA","2572","11661","7866","NA","634","2","legacy","1024","2","48000","-16","task","5117171","odd","NA","33549","38129","35556","115895","6077","25611","17744","116402","NA","115891","116402","115733","38129","117037","31754","115232","6061","85253","Lexical Decision Task","44","31608","46","yes","1024"
"2.983324025","9.56","2","debt","word","95.74468085106383","95.74468085106383","685.1702127659574","685.1702127659574","black","no","legacy","legacy","legacy","0","uniform","1","undefined","undefined","undefined","1","j","0","0","0","0","46","0","0","0","46","NA","42","46","42","0","42","3","46","0","46","Fri Feb 19 14:02:29 2021","The main experiment item","yes","Lexical_Decision_Task.osexp","C:/Users/wdjac/Desktop","no","Andale Mono","no","18","no","white","no","yes","576","legacy","42","42","3","C:/Users/wdjac/Desktop/subject-5117171.csv","legacy","Lentiform Loewenfeld","3.3.7","yes","yes","600bd7cfb6416f0113b04181","602110864497cf011d9c0822","0","j","NA","j","j","j","NA","j","595","NA","2572","11661","7866","NA","595","2","legacy","1024","2","48000","-16","task","5117171","odd","NA","33549","38129","35556","117689","6077","25611","17744","118196","NA","117685","118196","117545","38129","118793","31754","117045","6061","85253","Lexical Decision Task","45","32203","47","yes","1024"
"2.693726949","5.08","3","swig","word","93.75","93.75","683.0416666666666","683.0416666666666","black","no","legacy","legacy","legacy","0","uniform","0","undefined","undefined","undefined","0","j","0","0","0","0","47","0","0","0","47","NA","43","47","43","0","43","3","47","0","47","Fri Feb 19 14:02:29 2021","The main experiment item","yes","Lexical_Decision_Task.osexp","C:/Users/wdjac/Desktop","no","Andale Mono","no","18","no","white","no","yes","576","legacy","43","43","3","C:/Users/wdjac/Desktop/subject-5117171.csv","legacy","Lentiform Loewenfeld","3.3.7","yes","yes","600bd7cfb6416f0113b04181","602110864497cf011d9c0822","0","f","NA","j","j","j","NA","f","583","NA","2572","11661","7866","NA","583","2","legacy","1024","2","48000","-16","task","5117171","odd","NA","33549","38129","35556","119450","6077","25611","17744","119957","NA","119447","119957","119301","38129","120542","31754","118800","6061","85253","Lexical Decision Task","45","32786","48","yes","1024"
"3.384413096","10.15","3","glad","word","93.87755102040816","93.87755102040816","679.4897959183673","679.4897959183673","black","no","legacy","legacy","legacy","0","uniform","1","undefined","undefined","undefined","1","j","0","0","0","0","48","0","0","0","48","NA","44","48","44","0","44","3","48","0","48","Fri Feb 19 14:02:29 2021","The main experiment item","yes","Lexical_Decision_Task.osexp","C:/Users/wdjac/Desktop","no","Andale Mono","no","18","no","white","no","yes","576","legacy","44","44","3","C:/Users/wdjac/Desktop/subject-5117171.csv","legacy","Lentiform Loewenfeld","3.3.7","yes","yes","600bd7cfb6416f0113b04181","602110864497cf011d9c0822","0","j","NA","j","j","j","NA","j","509","NA","2572","11661","7866","NA","509","2","legacy","1024","2","48000","-16","task","5117171","odd","NA","33549","38129","35556","122206","6077","25611","17744","122713","NA","122202","122713","122050","38129","123224","31754","118800","6061","120550","Lexical Decision Task","46","33295","49","yes","1024"
"3.15462682","0","6","noal","non-word","94","94","680.38","680.38","black","no","legacy","legacy","legacy","0","uniform","1","undefined","undefined","undefined","1","f","0","0","0","0","49","0","0","0","49","NA","45","49","45","0","45","3","49","0","49","Fri Feb 19 14:02:29 2021","The main experiment item","yes","Lexical_Decision_Task.osexp","C:/Users/wdjac/Desktop","no","Andale Mono","no","18","no","white","no","yes","576","legacy","45","45","3","C:/Users/wdjac/Desktop/subject-5117171.csv","legacy","Lentiform Loewenfeld","3.3.7","yes","yes","600bd7cfb6416f0113b04181","602110864497cf011d9c0822","0","f","NA","j","j","j","NA","f","724","NA","2572","11661","7866","NA","724","2","legacy","1024","2","48000","-16","task","5117171","odd","NA","33549","38129","35556","123875","6077","25611","17744","124382","NA","123871","124382","123732","38129","125107","31754","123232","6061","120550","Lexical Decision Task","47","34019","50","yes","1024"
"3.088136089","8.32","9","worm","word","94.11764705882354","94.11764705882354","678.7254901960785","678.7254901960785","black","no","legacy","legacy","legacy","0","uniform","1","undefined","undefined","undefined","1","j","0","0","0","0","50","0","0","0","50","NA","46","50","46","0","46","3","50","0","50","Fri Feb 19 14:02:29 2021","The main experiment item","yes","Lexical_Decision_Task.osexp","C:/Users/wdjac/Desktop","no","Andale Mono","no","18","no","white","no","yes","576","legacy","46","46","3","C:/Users/wdjac/Desktop/subject-5117171.csv","legacy","Lentiform Loewenfeld","3.3.7","yes","yes","600bd7cfb6416f0113b04181","602110864497cf011d9c0822","0","j","NA","j","j","j","NA","j","596","NA","2572","11661","7866","NA","596","2","legacy","1024","2","48000","-16","task","5117171","odd","NA","33549","38129","35556","125761","6077","25611","17744","126268","NA","125757","126269","125616","38129","126867","31754","125116","6061","120550","Lexical Decision Task","48","34615","51","yes","1024"
"3.194328374","9.42","6","harm","word","94.23076923076923","94.23076923076923","676.4615384615385","676.4615384615385","black","no","legacy","legacy","legacy","0","uniform","1","undefined","undefined","undefined","1","j","0","0","0","0","51","0","0","0","51","NA","47","51","47","0","47","3","51","0","51","Fri Feb 19 14:02:29 2021","The main experiment item","yes","Lexical_Decision_Task.osexp","C:/Users/wdjac/Desktop","no","Andale Mono","no","18","no","white","no","yes","576","legacy","47","47","3","C:/Users/wdjac/Desktop/subject-5117171.csv","legacy","Lentiform Loewenfeld","3.3.7","yes","yes","600bd7cfb6416f0113b04181","602110864497cf011d9c0822","0","j","NA","j","j","j","NA","j","561","NA","2572","11661","7866","NA","561","2","legacy","1024","2","48000","-16","task","5117171","odd","NA","33549","38129","35556","127524","6077","25611","17744","128031","NA","127520","128031","127375","38129","128594","31754","126875","6061","120550","Lexical Decision Task","49","35176","52","yes","1024"
"3.495914186","0","4","peng","non-word","94.33962264150944","94.33962264150944","683.7735849056604","683.7735849056604","black","no","legacy","legacy","legacy","0","uniform","1","undefined","undefined","undefined","1","f","0","0","0","0","52","0","0","0","52","NA","48","52","48","0","48","3","52","0","52","Fri Feb 19 14:02:29 2021","The main experiment item","yes","Lexical_Decision_Task.osexp","C:/Users/wdjac/Desktop","no","Andale Mono","no","18","no","white","no","yes","576","legacy","48","48","3","C:/Users/wdjac/Desktop/subject-5117171.csv","legacy","Lentiform Loewenfeld","3.3.7","yes","yes","600bd7cfb6416f0113b04181","602110864497cf011d9c0822","0","f","NA","j","j","j","NA","f","1064","NA","2572","11661","7866","NA","1064","2","legacy","1024","2","48000","-16","task","5117171","odd","NA","33549","38129","35556","129243","6077","25611","17744","129750","NA","129239","129750","129102","38129","130816","31754","128602","6061","120550","Lexical Decision Task","50","36240","53","yes","1024"
"3.474361976","5.24","6","veer","word","94.44444444444444","94.44444444444444","686.2407407407408","686.2407407407408","black","no","legacy","legacy","legacy","0","uniform","1","undefined","undefined","undefined","1","j","0","0","0","0","53","0","0","0","53","NA","49","53","49","0","49","3","53","0","53","Fri Feb 19 14:02:29 2021","The main experiment item","yes","Lexical_Decision_Task.osexp","C:/Users/wdjac/Desktop","no","Andale Mono","no","18","no","white","no","yes","576","legacy","49","49","3","C:/Users/wdjac/Desktop/subject-5117171.csv","legacy","Lentiform Loewenfeld","3.3.7","yes","yes","600bd7cfb6416f0113b04181","602110864497cf011d9c0822","0","j","NA","j","j","j","NA","j","817","NA","2572","11661","7866","NA","817","2","legacy","1024","2","48000","-16","task","5117171","odd","NA","33549","38129","35556","131464","6077","25611","17744","131971","NA","131460","131971","131324","38129","132789","31754","130824","6061","120550","Lexical Decision Task","51","37057","54","yes","1024"
"3.20996159","0","4","clee","non-word","94.54545454545455","94.54545454545455","685.290909090909","685.290909090909","black","no","legacy","legacy","legacy","0","uniform","1","undefined","undefined","undefined","1","f","0","0","0","0","54","0","0","0","54","0","50","54","50","0","50","3","54","0","54","Fri Feb 19 14:02:29 2021","The main experiment item","yes","Lexical_Decision_Task.osexp","C:/Users/wdjac/Desktop","no","Andale Mono","no","18","no","white","no","yes","576","legacy","50","50","3","C:/Users/wdjac/Desktop/subject-5117171.csv","legacy","Lentiform Loewenfeld","3.3.7","yes","yes","600bd7cfb6416f0113b04181","602110864497cf011d9c0822","0","f","NA","j","j","j","j","f","634","NA","2572","11661","7866","9753","634","2","legacy","1024","2","48000","-16","task","5117171","odd","NA","33549","38129","35556","143299","6077","25611","17744","143806","133404","143295","143806","133297","38129","144442","31754","132797","6061","120550","Lexical Decision Task","52","37691","55","yes","1024"
"3.082307743","9.68","8","camp","word","94.64285714285714","94.64285714285714","683.125","683.125","black","no","legacy","legacy","legacy","0","uniform","1","undefined","undefined","undefined","1","j","0","0","0","0","55","0","0","0","55","0","51","55","51","0","51","3","55","0","55","Fri Feb 19 14:02:29 2021","The main experiment item","yes","Lexical_Decision_Task.osexp","C:/Users/wdjac/Desktop","no","Andale Mono","no","18","no","white","no","yes","576","legacy","51","51","3","C:/Users/wdjac/Desktop/subject-5117171.csv","legacy","Lentiform Loewenfeld","3.3.7","yes","yes","600bd7cfb6416f0113b04181","602110864497cf011d9c0822","0","j","NA","j","j","j","j","j","564","NA","2572","11661","7866","9753","564","2","legacy","1024","2","48000","-16","task","5117171","odd","NA","33549","38129","35556","145102","6077","25611","17744","145609","133404","145098","145609","144950","38129","146175","31754","144450","6061","120550","Lexical Decision Task","53","38255","56","yes","1024"
"3.081107167","0","6","chot","non-word","94.73684210526316","94.73684210526316","681.6315789473684","681.6315789473684","black","no","legacy","legacy","legacy","0","uniform","1","undefined","undefined","undefined","1","f","0","0","0","0","56","0","0","0","56","0","52","56","52","0","52","3","56","0","56","Fri Feb 19 14:02:29 2021","The main experiment item","yes","Lexical_Decision_Task.osexp","C:/Users/wdjac/Desktop","no","Andale Mono","no","18","no","white","no","yes","576","legacy","52","52","3","C:/Users/wdjac/Desktop/subject-5117171.csv","legacy","Lentiform Loewenfeld","3.3.7","yes","yes","600bd7cfb6416f0113b04181","602110864497cf011d9c0822","0","f","NA","j","j","j","j","f","598","NA","2572","11661","7866","9753","598","2","legacy","1024","2","48000","-16","task","5117171","odd","NA","33549","38129","35556","146822","6077","25611","17744","147329","133404","146818","147329","146684","38129","147929","31754","146184","6061","120550","Lexical Decision Task","54","38853","57","yes","1024"
"3.225825991","0","7","talm","non-word","94.82758620689656","94.82758620689656","680.0344827586207","680.0344827586207","black","no","legacy","legacy","legacy","0","uniform","1","undefined","undefined","undefined","1","f","0","0","0","0","57","0","0","0","57","0","53","57","53","0","53","3","57","0","57","Fri Feb 19 14:02:29 2021","The main experiment item","yes","Lexical_Decision_Task.osexp","C:/Users/wdjac/Desktop","no","Andale Mono","no","18","no","white","no","yes","576","legacy","53","53","3","C:/Users/wdjac/Desktop/subject-5117171.csv","legacy","Lentiform Loewenfeld","3.3.7","yes","yes","600bd7cfb6416f0113b04181","602110864497cf011d9c0822","0","f","NA","j","j","j","j","f","589","NA","2572","11661","7866","9753","589","2","legacy","1024","2","48000","-16","task","5117171","odd","NA","33549","38129","35556","148585","6077","25611","17744","149092","133404","148582","149092","148437","38129","149683","31754","147937","6061","120550","Lexical Decision Task","55","39442","58","yes","1024"
"3.372543801","9.24","8","coat","word","94.91525423728814","94.91525423728814","677.7457627118644","677.7457627118644","black","no","legacy","legacy","legacy","0","uniform","1","undefined","undefined","undefined","1","j","0","0","0","0","58","0","0","0","58","0","54","58","54","0","54","3","58","0","58","Fri Feb 19 14:02:29 2021","The main experiment item","yes","Lexical_Decision_Task.osexp","C:/Users/wdjac/Desktop","no","Andale Mono","no","18","no","white","no","yes","576","legacy","54","54","3","C:/Users/wdjac/Desktop/subject-5117171.csv","legacy","Lentiform Loewenfeld","3.3.7","yes","yes","600bd7cfb6416f0113b04181","602110864497cf011d9c0822","0","j","NA","j","j","j","j","j","545","NA","2572","11661","7866","9753","545","2","legacy","1024","2","48000","-16","task","5117171","odd","NA","33549","38129","35556","150333","6077","25611","17744","150840","133404","150329","150840","150191","38129","151386","31754","149691","6061","120550","Lexical Decision Task","56","39987","59","yes","1024"
"2.698387659","6.66","7","skid","word","95","95","675.2833333333333","675.2833333333333","black","no","legacy","legacy","legacy","0","uniform","1","undefined","undefined","undefined","1","j","0","0","0","0","59","0","0","0","59","0","55","59","55","0","55","3","59","0","59","Fri Feb 19 14:02:29 2021","The main experiment item","yes","Lexical_Decision_Task.osexp","C:/Users/wdjac/Desktop","no","Andale Mono","no","18","no","white","no","yes","576","legacy","55","55","3","C:/Users/wdjac/Desktop/subject-5117171.csv","legacy","Lentiform Loewenfeld","3.3.7","yes","yes","600bd7cfb6416f0113b04181","602110864497cf011d9c0822","0","j","NA","j","j","j","j","j","530","NA","2572","11661","7866","9753","530","2","legacy","1024","2","48000","-16","task","5117171","odd","NA","33549","38129","35556","152040","6077","25611","17744","152547","133404","152036","152547","151895","38129","153079","31754","151394","6061","120550","Lexical Decision Task","57","40517","60","yes","1024"
"3.153001286","8.7","5","palm","word","95.08196721311475","95.08196721311475","672.4590163934427","672.4590163934427","black","no","legacy","legacy","legacy","0","uniform","1","undefined","undefined","undefined","1","j","0","0","0","0","60","0","0","0","60","0","56","60","56","0","56","3","60","0","60","Fri Feb 19 14:02:29 2021","The main experiment item","yes","Lexical_Decision_Task.osexp","C:/Users/wdjac/Desktop","no","Andale Mono","no","18","no","white","no","yes","576","legacy","56","56","3","C:/Users/wdjac/Desktop/subject-5117171.csv","legacy","Lentiform Loewenfeld","3.3.7","yes","yes","600bd7cfb6416f0113b04181","602110864497cf011d9c0822","0","j","NA","j","j","j","j","j","503","NA","2572","11661","7866","9753","503","2","legacy","1024","2","48000","-16","task","5117171","odd","NA","33549","38129","35556","153740","6077","25611","17744","154247","133404","153736","154247","153587","38129","154752","31754","153086","6061","120550","Lexical Decision Task","58","41020","61","yes","1024"
"2.86332286","6.71","2","feud","word","95.16129032258064","95.16129032258064","670.983870967742","670.983870967742","black","no","legacy","legacy","legacy","0","uniform","1","undefined","undefined","undefined","1","j","0","0","0","0","61","0","0","0","61","0","57","61","57","0","57","3","61","0","61","Fri Feb 19 14:02:29 2021","The main experiment item","yes","Lexical_Decision_Task.osexp","C:/Users/wdjac/Desktop","no","Andale Mono","no","18","no","white","no","yes","576","legacy","57","57","3","C:/Users/wdjac/Desktop/subject-5117171.csv","legacy","Lentiform Loewenfeld","3.3.7","yes","yes","600bd7cfb6416f0113b04181","602110864497cf011d9c0822","0","j","NA","j","j","j","j","j","581","NA","2572","11661","7866","9753","581","2","legacy","1024","2","48000","-16","task","5117171","odd","NA","33549","38129","35556","155415","6077","25611","17744","155922","133404","155412","155923","155260","38129","156506","31754","154760","6061","120550","Lexical Decision Task","59","41601","62","yes","1024"
"3.064581521","5.51","6","cask","word","95.23809523809524","95.23809523809524","673.4444444444445","673.4444444444445","black","no","legacy","legacy","legacy","0","uniform","1","undefined","undefined","undefined","1","j","0","0","0","0","62","0","0","0","62","0","58","62","58","0","58","3","62","0","62","Fri Feb 19 14:02:29 2021","The main experiment item","yes","Lexical_Decision_Task.osexp","C:/Users/wdjac/Desktop","no","Andale Mono","no","18","no","white","no","yes","576","legacy","58","58","3","C:/Users/wdjac/Desktop/subject-5117171.csv","legacy","Lentiform Loewenfeld","3.3.7","yes","yes","600bd7cfb6416f0113b04181","602110864497cf011d9c0822","0","j","NA","j","j","j","j","j","826","NA","2572","11661","7866","9753","826","2","legacy","1024","2","48000","-16","task","5117171","odd","NA","33549","38129","35556","157166","6077","25611","17744","157673","133404","157162","157673","157014","38129","158501","31754","156514","6061","120550","Lexical Decision Task","60","42427","63","yes","1024"
"3.133964479","0","8","graw","non-word","95.3125","95.3125","673.8125","673.8125","black","no","legacy","legacy","legacy","0","uniform","1","undefined","undefined","undefined","1","f","0","0","0","0","63","0","0","0","63","0","59","63","59","0","59","3","63","0","63","Fri Feb 19 14:02:29 2021","The main experiment item","yes","Lexical_Decision_Task.osexp","C:/Users/wdjac/Desktop","no","Andale Mono","no","18","no","white","no","yes","576","legacy","59","59","3","C:/Users/wdjac/Desktop/subject-5117171.csv","legacy","Lentiform Loewenfeld","3.3.7","yes","yes","600bd7cfb6416f0113b04181","602110864497cf011d9c0822","0","f","NA","j","j","j","j","f","697","NA","2572","11661","7866","9753","697","2","legacy","1024","2","48000","-16","task","5117171","odd","NA","33549","38129","35556","159146","6077","25611","17744","159654","133404","159143","159654","159008","38129","160353","31754","158508","6061","120550","Lexical Decision Task","61","43124","64","yes","1024"
"2.981215883","10.66","5","hair","word","95.38461538461539","95.38461538461539","671.2923076923076","671.2923076923076","black","no","legacy","legacy","legacy","0","uniform","1","undefined","undefined","undefined","1","j","0","0","0","0","64","0","0","0","64","0","60","64","60","0","60","3","64","0","64","Fri Feb 19 14:02:29 2021","The main experiment item","yes","Lexical_Decision_Task.osexp","C:/Users/wdjac/Desktop","no","Andale Mono","no","18","no","white","no","yes","576","legacy","60","60","3","C:/Users/wdjac/Desktop/subject-5117171.csv","legacy","Lentiform Loewenfeld","3.3.7","yes","yes","600bd7cfb6416f0113b04181","602110864497cf011d9c0822","0","j","NA","j","j","j","j","j","510","NA","2572","11661","7866","9753","510","2","legacy","1024","2","48000","-16","task","5117171","odd","NA","33549","38129","35556","161010","6077","25611","17744","161517","133404","161006","161517","160861","38129","162029","31754","160361","6061","120550","Lexical Decision Task","62","43634","65","yes","1024"
"3.156347201","0","8","lasp","non-word","95.45454545454545","95.45454545454545","670.8636363636364","670.8636363636364","black","no","legacy","legacy","legacy","0","uniform","1","undefined","undefined","undefined","1","f","0","0","0","0","65","0","0","0","65","0","61","65","61","0","61","3","65","0","65","Fri Feb 19 14:02:29 2021","The main experiment item","yes","Lexical_Decision_Task.osexp","C:/Users/wdjac/Desktop","no","Andale Mono","no","18","no","white","no","yes","576","legacy","61","61","3","C:/Users/wdjac/Desktop/subject-5117171.csv","legacy","Lentiform Loewenfeld","3.3.7","yes","yes","600bd7cfb6416f0113b04181","602110864497cf011d9c0822","0","f","NA","j","j","j","j","f","643","NA","2572","11661","7866","9753","643","2","legacy","1024","2","48000","-16","task","5117171","odd","NA","33549","38129","35556","162684","6077","25611","17744","163191","133404","162680","163192","162537","38129","163837","31754","162037","6061","120550","Lexical Decision Task","63","44277","66","yes","1024"
"2.755364069","7.72","2","hoax","word","95.5223880597015","95.5223880597015","671.2835820895523","671.2835820895523","black","no","legacy","legacy","legacy","0","uniform","1","undefined","undefined","undefined","1","j","0","0","0","0","66","0","0","0","66","0","62","66","62","0","62","3","66","0","66","Fri Feb 19 14:02:29 2021","The main experiment item","yes","Lexical_Decision_Task.osexp","C:/Users/wdjac/Desktop","no","Andale Mono","no","18","no","white","no","yes","576","legacy","62","62","3","C:/Users/wdjac/Desktop/subject-5117171.csv","legacy","Lentiform Loewenfeld","3.3.7","yes","yes","600bd7cfb6416f0113b04181","602110864497cf011d9c0822","0","j","NA","j","j","j","j","j","699","NA","2572","11661","7866","9753","699","2","legacy","1024","2","48000","-16","task","5117171","odd","NA","33549","38129","35556","164493","6077","25611","17744","165000","133404","164489","165000","164345","38129","165701","31754","163845","6061","120550","Lexical Decision Task","64","44976","67","yes","1024"
"3.131833513","7.66","4","limb","word","95.58823529411765","95.58823529411765","669.8970588235294","669.8970588235294","black","no","legacy","legacy","legacy","0","uniform","1","undefined","undefined","undefined","1","j","0","0","0","0","67","0","0","0","67","0","63","67","63","0","63","3","67","0","67","Fri Feb 19 14:02:29 2021","The main experiment item","yes","Lexical_Decision_Task.osexp","C:/Users/wdjac/Desktop","no","Andale Mono","no","18","no","white","no","yes","576","legacy","63","63","3","C:/Users/wdjac/Desktop/subject-5117171.csv","legacy","Lentiform Loewenfeld","3.3.7","yes","yes","600bd7cfb6416f0113b04181","602110864497cf011d9c0822","0","j","NA","j","j","j","j","j","577","NA","2572","11661","7866","9753","577","2","legacy","1024","2","48000","-16","task","5117171","odd","NA","33549","38129","35556","166353","6077","25611","17744","166860","133404","166349","166860","166209","38129","167439","31754","165709","6061","120550","Lexical Decision Task","65","45553","68","yes","1024"
"2.576725172","0","8","gowl","non-word","95.65217391304348","95.65217391304348","669.0869565217391","669.0869565217391","black","no","legacy","legacy","legacy","0","uniform","1","undefined","undefined","undefined","1","f","0","0","0","0","68","0","0","0","68","0","64","68","64","0","64","3","68","0","68","Fri Feb 19 14:02:29 2021","The main experiment item","yes","Lexical_Decision_Task.osexp","C:/Users/wdjac/Desktop","no","Andale Mono","no","18","no","white","no","yes","576","legacy","64","64","3","C:/Users/wdjac/Desktop/subject-5117171.csv","legacy","Lentiform Loewenfeld","3.3.7","yes","yes","600bd7cfb6416f0113b04181","602110864497cf011d9c0822","0","f","NA","j","j","j","j","f","614","NA","2572","11661","7866","9753","614","2","legacy","1024","2","48000","-16","task","5117171","odd","NA","33549","38129","35556","168090","6077","25611","17744","168597","133404","168085","168597","167947","38129","169213","31754","167447","6061","120550","Lexical Decision Task","66","46167","69","yes","1024"
"2.6599162","0","6","flug","non-word","95.71428571428571","95.71428571428571","669.6857142857143","669.6857142857143","black","no","legacy","legacy","legacy","0","uniform","1","undefined","undefined","undefined","1","f","0","0","0","0","69","0","0","0","69","0","65","69","65","0","65","3","69","0","69","Fri Feb 19 14:02:29 2021","The main experiment item","yes","Lexical_Decision_Task.osexp","C:/Users/wdjac/Desktop","no","Andale Mono","no","18","no","white","no","yes","576","legacy","65","65","3","C:/Users/wdjac/Desktop/subject-5117171.csv","legacy","Lentiform Loewenfeld","3.3.7","yes","yes","600bd7cfb6416f0113b04181","602110864497cf011d9c0822","0","f","NA","j","j","j","j","f","711","NA","2572","11661","7866","9753","711","2","legacy","1024","2","48000","-16","task","5117171","odd","NA","33549","38129","35556","169865","6077","25611","17744","170373","133404","169862","170373","169721","38129","171086","31754","169221","6061","120550","Lexical Decision Task","67","46878","70","yes","1024"
"3.165936429","0","7","leps","non-word","95.77464788732394","95.77464788732394","669.830985915493","669.830985915493","black","no","legacy","legacy","legacy","0","uniform","1","undefined","undefined","undefined","1","f","0","0","0","0","70","0","0","0","70","0","66","70","66","0","66","3","70","0","70","Fri Feb 19 14:02:29 2021","The main experiment item","yes","Lexical_Decision_Task.osexp","C:/Users/wdjac/Desktop","no","Andale Mono","no","18","no","white","no","yes","576","legacy","66","66","3","C:/Users/wdjac/Desktop/subject-5117171.csv","legacy","Lentiform Loewenfeld","3.3.7","yes","yes","600bd7cfb6416f0113b04181","602110864497cf011d9c0822","0","f","NA","j","j","j","j","f","680","NA","2572","11661","7866","9753","680","2","legacy","1024","2","48000","-16","task","5117171","odd","NA","33549","38129","35556","171745","6077","25611","17744","172252","133404","171741","172252","171594","38129","172934","31754","171094","6061","120550","Lexical Decision Task","68","47558","71","yes","1024"
"3.302475237","0","7","leel","non-word","95.83333333333333","95.83333333333333","670.6388888888889","670.6388888888889","black","no","legacy","legacy","legacy","0","uniform","1","undefined","undefined","undefined","1","f","0","0","0","0","71","0","0","0","71","0","67","71","67","0","67","3","71","0","71","Fri Feb 19 14:02:29 2021","The main experiment item","yes","Lexical_Decision_Task.osexp","C:/Users/wdjac/Desktop","no","Andale Mono","no","18","no","white","no","yes","576","legacy","67","67","3","C:/Users/wdjac/Desktop/subject-5117171.csv","legacy","Lentiform Loewenfeld","3.3.7","yes","yes","600bd7cfb6416f0113b04181","602110864497cf011d9c0822","0","f","NA","j","j","j","j","f","728","NA","2572","11661","7866","9753","728","2","legacy","1024","2","48000","-16","task","5117171","odd","NA","33549","38129","35556","173585","6077","25611","17744","174092","133404","173581","174093","173442","38129","174823","31754","172942","6061","120550","Lexical Decision Task","69","48286","72","yes","1024"
"3.263399331","0","8","cour","non-word","95.89041095890411","95.89041095890411","670.027397260274","670.027397260274","black","no","legacy","legacy","legacy","0","uniform","1","undefined","undefined","undefined","1","f","0","0","0","0","72","0","0","0","72","0","68","72","68","0","68","3","72","0","72","Fri Feb 19 14:02:29 2021","The main experiment item","yes","Lexical_Decision_Task.osexp","C:/Users/wdjac/Desktop","no","Andale Mono","no","18","no","white","no","yes","576","legacy","68","68","3","C:/Users/wdjac/Desktop/subject-5117171.csv","legacy","Lentiform Loewenfeld","3.3.7","yes","yes","600bd7cfb6416f0113b04181","602110864497cf011d9c0822","0","f","NA","j","j","j","j","f","626","NA","2572","11661","7866","9753","626","2","legacy","1024","2","48000","-16","task","5117171","odd","NA","33549","38129","35556","175486","6077","25611","17744","175993","133404","175482","175994","175331","38129","176622","31754","174831","6061","120550","Lexical Decision Task","70","48912","73","yes","1024"
"2.616654026","9.37","5","gift","word","95.94594594594595","95.94594594594595","668.0945945945946","668.0945945945946","black","no","legacy","legacy","legacy","0","uniform","1","undefined","undefined","undefined","1","j","0","0","0","0","73","0","0","0","73","0","69","73","69","0","69","3","73","0","73","Fri Feb 19 14:02:29 2021","The main experiment item","yes","Lexical_Decision_Task.osexp","C:/Users/wdjac/Desktop","no","Andale Mono","no","18","no","white","no","yes","576","legacy","69","69","3","C:/Users/wdjac/Desktop/subject-5117171.csv","legacy","Lentiform Loewenfeld","3.3.7","yes","yes","600bd7cfb6416f0113b04181","602110864497cf011d9c0822","0","j","NA","j","j","j","j","j","527","NA","2572","11661","7866","9753","527","2","legacy","1024","2","48000","-16","task","5117171","odd","NA","33549","38129","35556","177272","6077","25611","17744","177775","133404","177269","177776","177130","38129","178305","31754","176630","6061","120550","Lexical Decision Task","71","49439","74","yes","1024"
"2.990042563","6.64","9","plow","word","96","96","667.4266666666666","667.4266666666666","black","no","legacy","legacy","legacy","0","uniform","1","undefined","undefined","undefined","1","j","0","0","0","0","74","0","0","0","74","0","70","74","70","0","70","3","74","0","74","Fri Feb 19 14:02:29 2021","The main experiment item","yes","Lexical_Decision_Task.osexp","C:/Users/wdjac/Desktop","no","Andale Mono","no","18","no","white","no","yes","576","legacy","70","70","3","C:/Users/wdjac/Desktop/subject-5117171.csv","legacy","Lentiform Loewenfeld","3.3.7","yes","yes","600bd7cfb6416f0113b04181","602110864497cf011d9c0822","0","j","NA","j","j","j","j","j","618","NA","2572","11661","7866","9753","618","2","legacy","1024","2","48000","-16","task","5117171","odd","NA","33549","38129","35556","178961","6077","25611","17744","179469","133404","178958","179469","178814","38129","180089","31754","178313","6061","120550","Lexical Decision Task","72","50057","75","yes","1024"
"3.378276681","6.39","8","bran","word","94.73684210526316","94.73684210526316","667.078947368421","667.078947368421","black","no","legacy","legacy","legacy","0","uniform","0","undefined","undefined","undefined","0","j","0","0","0","0","75","0","0","0","75","0","71","75","71","0","71","3","75","0","75","Fri Feb 19 14:02:29 2021","The main experiment item","yes","Lexical_Decision_Task.osexp","C:/Users/wdjac/Desktop","no","Andale Mono","no","18","no","white","no","yes","576","legacy","71","71","3","C:/Users/wdjac/Desktop/subject-5117171.csv","legacy","Lentiform Loewenfeld","3.3.7","yes","yes","600bd7cfb6416f0113b04181","602110864497cf011d9c0822","0","f","NA","j","j","j","j","f","641","NA","2572","11661","7866","9753","641","2","legacy","1024","2","48000","-16","task","5117171","odd","NA","33549","38129","35556","180744","6077","25611","17744","181251","133404","180741","181251","180597","38129","181895","31754","180097","6061","120550","Lexical Decision Task","72","50698","76","yes","1024"
"2.845304797","0","6","buct","non-word","94.8051948051948","94.8051948051948","666.7012987012987","666.7012987012987","black","no","legacy","legacy","legacy","0","uniform","1","undefined","undefined","undefined","1","f","0","0","0","0","76","0","0","0","76","0","72","76","72","0","72","3","76","0","76","Fri Feb 19 14:02:29 2021","The main experiment item","yes","Lexical_Decision_Task.osexp","C:/Users/wdjac/Desktop","no","Andale Mono","no","18","no","white","no","yes","576","legacy","72","72","3","C:/Users/wdjac/Desktop/subject-5117171.csv","legacy","Lentiform Loewenfeld","3.3.7","yes","yes","600bd7cfb6416f0113b04181","602110864497cf011d9c0822","0","f","NA","j","j","j","j","f","638","NA","2572","11661","7866","9753","638","2","legacy","1024","2","48000","-16","task","5117171","odd","NA","33549","38129","35556","183556","6077","25611","17744","184064","133404","183553","184065","183403","38129","184705","31754","180097","6061","181903","Lexical Decision Task","73","51336","77","yes","1024"
"2.980306438","0","7","slun","non-word","94.87179487179488","94.87179487179488","667.6410256410256","667.6410256410256","black","no","legacy","legacy","legacy","0","uniform","1","undefined","undefined","undefined","1","f","0","0","0","0","77","0","0","0","77","0","73","77","73","0","73","3","77","0","77","Fri Feb 19 14:02:29 2021","The main experiment item","yes","Lexical_Decision_Task.osexp","C:/Users/wdjac/Desktop","no","Andale Mono","no","18","no","white","no","yes","576","legacy","73","73","3","C:/Users/wdjac/Desktop/subject-5117171.csv","legacy","Lentiform Loewenfeld","3.3.7","yes","yes","600bd7cfb6416f0113b04181","602110864497cf011d9c0822","0","f","NA","j","j","j","j","f","740","NA","2572","11661","7866","9753","740","2","legacy","1024","2","48000","-16","task","5117171","odd","NA","33549","38129","35556","185369","6077","25611","17744","185872","133404","185365","185872","185214","38129","186614","31754","184713","6061","181903","Lexical Decision Task","74","52076","78","yes","1024"
"3.307211407","6.07","7","honk","word","94.9367088607595","94.9367088607595","666.9746835443038","666.9746835443038","black","no","legacy","legacy","legacy","0","uniform","1","undefined","undefined","undefined","1","j","0","0","0","0","78","0","0","0","78","0","74","78","74","0","74","3","78","0","78","Fri Feb 19 14:02:29 2021","The main experiment item","yes","Lexical_Decision_Task.osexp","C:/Users/wdjac/Desktop","no","Andale Mono","no","18","no","white","no","yes","576","legacy","74","74","3","C:/Users/wdjac/Desktop/subject-5117171.csv","legacy","Lentiform Loewenfeld","3.3.7","yes","yes","600bd7cfb6416f0113b04181","602110864497cf011d9c0822","0","j","NA","j","j","j","j","j","615","NA","2572","11661","7866","9753","615","2","legacy","1024","2","48000","-16","task","5117171","odd","NA","33549","38129","35556","187266","6077","25611","17744","187774","133404","187263","187774","187123","38129","188392","31754","186623","6061","181903","Lexical Decision Task","75","52691","79","yes","1024"
"3.037294994","8.64","7","roof","word","95","95","664.6625","664.6625","black","no","legacy","legacy","legacy","0","uniform","1","undefined","undefined","undefined","1","j","0","0","0","0","79","0","0","0","79","0","75","79","75","0","75","3","79","0","79","Fri Feb 19 14:02:29 2021","The main experiment item","yes","Lexical_Decision_Task.osexp","C:/Users/wdjac/Desktop","no","Andale Mono","no","18","no","white","no","yes","576","legacy","75","75","3","C:/Users/wdjac/Desktop/subject-5117171.csv","legacy","Lentiform Loewenfeld","3.3.7","yes","yes","600bd7cfb6416f0113b04181","602110864497cf011d9c0822","0","j","NA","j","j","j","j","j","482","NA","2572","11661","7866","9753","482","2","legacy","1024","2","48000","-16","task","5117171","odd","NA","33549","38129","35556","189054","6077","25611","17744","189561","133404","189050","189562","188902","38129","190046","31754","188402","6061","181903","Lexical Decision Task","76","53173","80","yes","1024"
"3.431095062","5.74","9","perk","word","95.06172839506173","95.06172839506173","664.1234567901234","664.1234567901234","black","no","legacy","legacy","legacy","0","uniform","1","undefined","undefined","undefined","1","j","0","0","0","0","80","0","0","0","80","0","76","80","76","0","76","3","80","0","80","Fri Feb 19 14:02:29 2021","The main experiment item","yes","Lexical_Decision_Task.osexp","C:/Users/wdjac/Desktop","no","Andale Mono","no","18","no","white","no","yes","576","legacy","76","76","3","C:/Users/wdjac/Desktop/subject-5117171.csv","legacy","Lentiform Loewenfeld","3.3.7","yes","yes","600bd7cfb6416f0113b04181","602110864497cf011d9c0822","0","j","NA","j","j","j","j","j","621","NA","2572","11661","7866","9753","621","2","legacy","1024","2","48000","-16","task","5117171","odd","NA","33549","38129","35556","190705","6077","25611","17744","191212","133404","190701","191212","190556","38129","191835","31754","190056","6061","181903","Lexical Decision Task","77","53794","81","yes","1024"
"2.8162413","0","5","nusk","non-word","95.1219512195122","95.1219512195122","662.939024390244","662.939024390244","black","no","legacy","legacy","legacy","0","uniform","1","undefined","undefined","undefined","1","f","0","0","0","0","81","0","0","0","81","0","77","81","77","0","77","3","81","0","81","Fri Feb 19 14:02:29 2021","The main experiment item","yes","Lexical_Decision_Task.osexp","C:/Users/wdjac/Desktop","no","Andale Mono","no","18","no","white","no","yes","576","legacy","77","77","3","C:/Users/wdjac/Desktop/subject-5117171.csv","legacy","Lentiform Loewenfeld","3.3.7","yes","yes","600bd7cfb6416f0113b04181","602110864497cf011d9c0822","0","f","NA","j","j","j","j","f","567","NA","2572","11661","7866","9753","567","2","legacy","1024","2","48000","-16","task","5117171","odd","NA","33549","38129","35556","192486","6077","25611","17744","192993","133404","192483","192994","192344","38129","193563","31754","191844","6061","181903","Lexical Decision Task","78","54361","82","yes","1024"
"3.481012421","8.34","5","teen","word","95.18072289156626","95.18072289156626","662.0602409638554","662.0602409638554","black","no","legacy","legacy","legacy","0","uniform","1","undefined","undefined","undefined","1","j","0","0","0","0","82","0","0","0","82","0","78","82","78","0","78","3","82","0","82","Fri Feb 19 14:02:29 2021","The main experiment item","yes","Lexical_Decision_Task.osexp","C:/Users/wdjac/Desktop","no","Andale Mono","no","18","no","white","no","yes","576","legacy","78","78","3","C:/Users/wdjac/Desktop/subject-5117171.csv","legacy","Lentiform Loewenfeld","3.3.7","yes","yes","600bd7cfb6416f0113b04181","602110864497cf011d9c0822","0","j","NA","j","j","j","j","j","590","NA","2572","11661","7866","9753","590","2","legacy","1024","2","48000","-16","task","5117171","odd","NA","33549","38129","35556","194232","6077","25611","17744","194740","133404","194229","194740","194073","38129","195333","31754","193572","6061","181903","Lexical Decision Task","79","54951","83","yes","1024"
"2.778633532","0","3","jurp","non-word","95.23809523809524","95.23809523809524","661.047619047619","661.047619047619","black","no","legacy","legacy","legacy","0","uniform","1","undefined","undefined","undefined","1","f","0","0","0","0","83","0","0","0","83","0","79","83","79","0","79","3","83","0","83","Fri Feb 19 14:02:29 2021","The main experiment item","yes","Lexical_Decision_Task.osexp","C:/Users/wdjac/Desktop","no","Andale Mono","no","18","no","white","no","yes","576","legacy","79","79","3","C:/Users/wdjac/Desktop/subject-5117171.csv","legacy","Lentiform Loewenfeld","3.3.7","yes","yes","600bd7cfb6416f0113b04181","602110864497cf011d9c0822","0","f","NA","j","j","j","j","f","577","NA","2572","11661","7866","9753","577","2","legacy","1024","2","48000","-16","task","5117171","odd","NA","33549","38129","35556","195990","6077","25611","17744","196497","133404","195986","196497","195841","38129","197076","31754","195341","6061","181903","Lexical Decision Task","80","55528","84","yes","1024"
"2.695770526","7.34","6","pawn","word","95.29411764705883","95.29411764705883","661.3882352941176","661.3882352941176","black","no","legacy","legacy","legacy","0","uniform","1","undefined","undefined","undefined","1","j","0","0","0","0","84","0","0","0","84","0","80","84","80","0","80","3","84","0","84","Fri Feb 19 14:02:29 2021","The main experiment item","yes","Lexical_Decision_Task.osexp","C:/Users/wdjac/Desktop","no","Andale Mono","no","18","no","white","no","yes","576","legacy","80","80","3","C:/Users/wdjac/Desktop/subject-5117171.csv","legacy","Lentiform Loewenfeld","3.3.7","yes","yes","600bd7cfb6416f0113b04181","602110864497cf011d9c0822","0","j","NA","j","j","j","j","j","690","NA","2572","11661","7866","9753","690","2","legacy","1024","2","48000","-16","task","5117171","odd","NA","33549","38129","35556","197729","6077","25611","17744","198238","133404","197726","198238","197584","38129","198931","31754","197084","6061","181903","Lexical Decision Task","81","56218","85","yes","1024"
"3.397302518","7.01","2","knit","word","95.34883720930233","95.34883720930233","659.8139534883721","659.8139534883721","black","no","legacy","legacy","legacy","0","uniform","1","undefined","undefined","undefined","1","j","0","0","0","0","85","0","0","0","85","0","81","85","81","0","81","3","85","0","85","Fri Feb 19 14:02:29 2021","The main experiment item","yes","Lexical_Decision_Task.osexp","C:/Users/wdjac/Desktop","no","Andale Mono","no","18","no","white","no","yes","576","legacy","81","81","3","C:/Users/wdjac/Desktop/subject-5117171.csv","legacy","Lentiform Loewenfeld","3.3.7","yes","yes","600bd7cfb6416f0113b04181","602110864497cf011d9c0822","0","j","NA","j","j","j","j","j","526","NA","2572","11661","7866","9753","526","2","legacy","1024","2","48000","-16","task","5117171","odd","NA","33549","38129","35556","199587","6077","25611","17744","200095","133404","199584","200095","199439","38129","200624","31754","198939","6061","181903","Lexical Decision Task","82","56744","86","yes","1024"
"3.261341392","5.08","8","reek","word","95.40229885057471","95.40229885057471","657.8045977011494","657.8045977011494","black","no","legacy","legacy","legacy","0","uniform","1","undefined","undefined","undefined","1","j","0","0","0","0","86","0","0","0","86","0","82","86","82","0","82","3","86","0","86","Fri Feb 19 14:02:29 2021","The main experiment item","yes","Lexical_Decision_Task.osexp","C:/Users/wdjac/Desktop","no","Andale Mono","no","18","no","white","no","yes","576","legacy","82","82","3","C:/Users/wdjac/Desktop/subject-5117171.csv","legacy","Lentiform Loewenfeld","3.3.7","yes","yes","600bd7cfb6416f0113b04181","602110864497cf011d9c0822","0","j","NA","j","j","j","j","j","485","NA","2572","11661","7866","9753","485","2","legacy","1024","2","48000","-16","task","5117171","odd","NA","33549","38129","35556","201276","6077","25611","17744","201784","133404","201273","201784","201132","38129","202271","31754","200631","6061","181903","Lexical Decision Task","83","57229","87","yes","1024"
"3.488597715","0","9","nain","non-word","95.45454545454545","95.45454545454545","657.5","657.5","black","no","legacy","legacy","legacy","0","uniform","1","undefined","undefined","undefined","1","f","0","0","0","0","87","0","0","0","87","0","83","87","83","0","83","3","87","0","87","Fri Feb 19 14:02:29 2021","The main experiment item","yes","Lexical_Decision_Task.osexp","C:/Users/wdjac/Desktop","no","Andale Mono","no","18","no","white","no","yes","576","legacy","83","83","3","C:/Users/wdjac/Desktop/subject-5117171.csv","legacy","Lentiform Loewenfeld","3.3.7","yes","yes","600bd7cfb6416f0113b04181","602110864497cf011d9c0822","0","f","NA","j","j","j","j","f","631","NA","2572","11661","7866","9753","631","2","legacy","1024","2","48000","-16","task","5117171","odd","NA","33549","38129","35556","202925","6077","25611","17744","203432","133404","202921","203432","202779","38129","204066","31754","202279","6061","181903","Lexical Decision Task","84","57860","88","yes","1024"
"3.208978517","10.33","4","fish","word","95.50561797752809","95.50561797752809","655.8426966292135","655.8426966292135","black","no","legacy","legacy","legacy","0","uniform","1","undefined","undefined","undefined","1","j","0","0","0","0","88","0","0","0","88","0","84","88","84","0","84","3","88","0","88","Fri Feb 19 14:02:29 2021","The main experiment item","yes","Lexical_Decision_Task.osexp","C:/Users/wdjac/Desktop","no","Andale Mono","no","18","no","white","no","yes","576","legacy","84","84","3","C:/Users/wdjac/Desktop/subject-5117171.csv","legacy","Lentiform Loewenfeld","3.3.7","yes","yes","600bd7cfb6416f0113b04181","602110864497cf011d9c0822","0","j","NA","j","j","j","j","j","510","NA","2572","11661","7866","9753","510","2","legacy","1024","2","48000","-16","task","5117171","odd","NA","33549","38129","35556","204719","6077","25611","17744","205226","133404","204716","205226","204573","38129","205738","31754","204073","6061","181903","Lexical Decision Task","85","58370","89","yes","1024"
"2.713490543","0","3","feps","non-word","95.55555555555556","95.55555555555556","654.8222222222222","654.8222222222222","black","no","legacy","legacy","legacy","0","uniform","1","undefined","undefined","undefined","1","f","0","0","0","0","89","0","0","0","89","0","85","89","85","0","85","3","89","0","89","Fri Feb 19 14:02:29 2021","The main experiment item","yes","Lexical_Decision_Task.osexp","C:/Users/wdjac/Desktop","no","Andale Mono","no","18","no","white","no","yes","576","legacy","85","85","3","C:/Users/wdjac/Desktop/subject-5117171.csv","legacy","Lentiform Loewenfeld","3.3.7","yes","yes","600bd7cfb6416f0113b04181","602110864497cf011d9c0822","0","f","NA","j","j","j","j","f","564","NA","2572","11661","7866","9753","564","2","legacy","1024","2","48000","-16","task","5117171","odd","NA","33549","38129","35556","206397","6077","25611","17744","206905","133404","206394","206905","206246","38129","207471","31754","205746","6061","181903","Lexical Decision Task","86","58934","90","yes","1024"
"3.153104174","10.89","6","door","word","95.6043956043956","95.6043956043956","653.1648351648352","653.1648351648352","black","no","legacy","legacy","legacy","0","uniform","1","undefined","undefined","undefined","1","j","0","0","0","0","90","0","0","0","90","0","86","90","86","0","86","3","90","0","90","Fri Feb 19 14:02:29 2021","The main experiment item","yes","Lexical_Decision_Task.osexp","C:/Users/wdjac/Desktop","no","Andale Mono","no","18","no","white","no","yes","576","legacy","86","86","3","C:/Users/wdjac/Desktop/subject-5117171.csv","legacy","Lentiform Loewenfeld","3.3.7","yes","yes","600bd7cfb6416f0113b04181","602110864497cf011d9c0822","0","j","NA","j","j","j","j","j","504","NA","2572","11661","7866","9753","504","2","legacy","1024","2","48000","-16","task","5117171","odd","NA","33549","38129","35556","208132","6077","25611","17744","208635","133404","208128","208635","207979","38129","209141","31754","207479","6061","181903","Lexical Decision Task","87","59438","91","yes","1024"
"3.252447662","9.67","9","boat","word","95.65217391304348","95.65217391304348","651.2608695652174","651.2608695652174","black","no","legacy","legacy","legacy","0","uniform","1","undefined","undefined","undefined","1","j","0","0","0","0","91","0","0","0","91","0","87","91","87","0","87","3","91","0","91","Fri Feb 19 14:02:29 2021","The main experiment item","yes","Lexical_Decision_Task.osexp","C:/Users/wdjac/Desktop","no","Andale Mono","no","18","no","white","no","yes","576","legacy","87","87","3","C:/Users/wdjac/Desktop/subject-5117171.csv","legacy","Lentiform Loewenfeld","3.3.7","yes","yes","600bd7cfb6416f0113b04181","602110864497cf011d9c0822","0","j","NA","j","j","j","j","j","478","NA","2572","11661","7866","9753","478","2","legacy","1024","2","48000","-16","task","5117171","odd","NA","33549","38129","35556","209796","6077","25611","17744","210303","133404","209792","210303","209649","38129","210783","31754","209149","6061","181903","Lexical Decision Task","88","59916","92","yes","1024"
"3.529815197","0","3","lerm","non-word","95.6989247311828","95.6989247311828","649.6774193548387","649.6774193548387","black","no","legacy","legacy","legacy","0","uniform","1","undefined","undefined","undefined","1","f","0","0","0","0","92","0","0","0","92","0","88","92","88","0","88","3","92","0","92","Fri Feb 19 14:02:29 2021","The main experiment item","yes","Lexical_Decision_Task.osexp","C:/Users/wdjac/Desktop","no","Andale Mono","no","18","no","white","no","yes","576","legacy","88","88","3","C:/Users/wdjac/Desktop/subject-5117171.csv","legacy","Lentiform Loewenfeld","3.3.7","yes","yes","600bd7cfb6416f0113b04181","602110864497cf011d9c0822","0","f","NA","j","j","j","j","f","504","NA","2572","11661","7866","9753","504","2","legacy","1024","2","48000","-16","task","5117171","odd","NA","33549","38129","35556","211438","6077","25611","17744","211945","133404","211434","211945","211291","38129","212451","31754","210791","6061","181903","Lexical Decision Task","89","60420","93","yes","1024"
"2.839898939","8.99","6","soap","word","95.74468085106383","95.74468085106383","647.5957446808511","647.5957446808511","black","no","legacy","legacy","legacy","0","uniform","1","undefined","undefined","undefined","1","j","0","0","0","0","93","0","0","0","93","0","89","93","89","0","89","3","93","0","93","Fri Feb 19 14:02:29 2021","The main experiment item","yes","Lexical_Decision_Task.osexp","C:/Users/wdjac/Desktop","no","Andale Mono","no","18","no","white","no","yes","576","legacy","89","89","3","C:/Users/wdjac/Desktop/subject-5117171.csv","legacy","Lentiform Loewenfeld","3.3.7","yes","yes","600bd7cfb6416f0113b04181","602110864497cf011d9c0822","0","j","NA","j","j","j","j","j","454","NA","2572","11661","7866","9753","454","2","legacy","1024","2","48000","-16","task","5117171","odd","NA","33549","38129","35556","213113","6077","25611","17744","213620","133404","213109","213620","212959","38129","214076","31754","212459","6061","181903","Lexical Decision Task","90","60874","94","yes","1024"
"2.784379519","0","2","snaf","non-word","95.78947368421052","95.78947368421052","646.0842105263158","646.0842105263158","black","no","legacy","legacy","legacy","0","uniform","1","undefined","undefined","undefined","1","f","0","0","0","0","94","0","0","0","94","0","90","94","90","0","90","3","94","0","94","Fri Feb 19 14:02:29 2021","The main experiment item","yes","Lexical_Decision_Task.osexp","C:/Users/wdjac/Desktop","no","Andale Mono","no","18","no","white","no","yes","576","legacy","90","90","3","C:/Users/wdjac/Desktop/subject-5117171.csv","legacy","Lentiform Loewenfeld","3.3.7","yes","yes","600bd7cfb6416f0113b04181","602110864497cf011d9c0822","0","f","NA","j","j","j","j","f","504","NA","2572","11661","7866","9753","504","2","legacy","1024","2","48000","-16","task","5117171","odd","NA","33549","38129","35556","214735","6077","25611","17744","215242","133404","214731","215242","214584","38129","215749","31754","214084","6061","181903","Lexical Decision Task","91","61378","95","yes","1024"
"3.077974404","10.41","8","tool","word","95.83333333333333","95.83333333333333","644.3854166666666","644.3854166666666","black","no","legacy","legacy","legacy","0","uniform","1","undefined","undefined","undefined","1","j","0","0","0","0","95","0","0","0","95","0","91","95","91","0","91","3","95","0","95","Fri Feb 19 14:02:29 2021","The main experiment item","yes","Lexical_Decision_Task.osexp","C:/Users/wdjac/Desktop","no","Andale Mono","no","18","no","white","no","yes","576","legacy","91","91","3","C:/Users/wdjac/Desktop/subject-5117171.csv","legacy","Lentiform Loewenfeld","3.3.7","yes","yes","600bd7cfb6416f0113b04181","602110864497cf011d9c0822","0","j","NA","j","j","j","j","j","483","NA","2572","11661","7866","9753","483","2","legacy","1024","2","48000","-16","task","5117171","odd","NA","33549","38129","35556","216409","6077","25611","17744","216917","133404","216406","216917","216257","38129","217402","31754","215756","6061","181903","Lexical Decision Task","92","61861","96","yes","1024"
"2.924968096","0","4","phim","non-word","95.87628865979381","95.87628865979381","643.2164948453608","643.2164948453608","black","no","legacy","legacy","legacy","0","uniform","1","undefined","undefined","undefined","1","f","0","0","0","0","96","0","0","0","96","0","92","96","92","0","92","3","96","0","96","Fri Feb 19 14:02:29 2021","The main experiment item","yes","Lexical_Decision_Task.osexp","C:/Users/wdjac/Desktop","no","Andale Mono","no","18","no","white","no","yes","576","legacy","92","92","3","C:/Users/wdjac/Desktop/subject-5117171.csv","legacy","Lentiform Loewenfeld","3.3.7","yes","yes","600bd7cfb6416f0113b04181","602110864497cf011d9c0822","0","f","NA","j","j","j","j","f","531","NA","2572","11661","7866","9753","531","2","legacy","1024","2","48000","-16","task","5117171","odd","NA","33549","38129","35556","218064","6077","25611","17744","218571","133404","218060","218571","217910","38129","219105","31754","217410","6061","181903","Lexical Decision Task","93","62392","97","yes","1024"
"3.1430148","7.92","8","bald","word","95.91836734693878","95.91836734693878","642.4897959183673","642.4897959183673","black","no","legacy","legacy","legacy","0","uniform","1","undefined","undefined","undefined","1","j","0","0","0","0","97","0","0","0","97","0","93","97","93","0","93","3","97","0","97","Fri Feb 19 14:02:29 2021","The main experiment item","yes","Lexical_Decision_Task.osexp","C:/Users/wdjac/Desktop","no","Andale Mono","no","18","no","white","no","yes","576","legacy","93","93","3","C:/Users/wdjac/Desktop/subject-5117171.csv","legacy","Lentiform Loewenfeld","3.3.7","yes","yes","600bd7cfb6416f0113b04181","602110864497cf011d9c0822","0","j","NA","j","j","j","j","j","572","NA","2572","11661","7866","9753","572","2","legacy","1024","2","48000","-16","task","5117171","odd","NA","33549","38129","35556","219757","6077","25611","17744","220264","133404","219753","220264","219613","38129","220838","31754","219113","6061","181903","Lexical Decision Task","94","62964","98","yes","1024"
"3.094121596","0","8","fode","non-word","95.95959595959596","95.95959595959596","641.2121212121212","641.2121212121212","black","no","legacy","legacy","legacy","0","uniform","1","undefined","undefined","undefined","1","f","0","0","0","0","98","0","0","0","98","0","94","98","94","0","94","3","98","0","98","Fri Feb 19 14:02:29 2021","The main experiment item","yes","Lexical_Decision_Task.osexp","C:/Users/wdjac/Desktop","no","Andale Mono","no","18","no","white","no","yes","576","legacy","94","94","3","C:/Users/wdjac/Desktop/subject-5117171.csv","legacy","Lentiform Loewenfeld","3.3.7","yes","yes","600bd7cfb6416f0113b04181","602110864497cf011d9c0822","0","f","NA","j","j","j","j","f","516","NA","2572","11661","7866","9753","516","2","legacy","1024","2","48000","-16","task","5117171","odd","NA","33549","38129","35556","221490","6077","25611","17744","221998","133404","221487","221998","221346","38129","222516","31754","220846","6061","181903","Lexical Decision Task","95","63480","99","yes","1024"
"2.920123326","7.43","4","duel","word","96","96","639.86","639.86","black","no","legacy","legacy","legacy","0","uniform","1","undefined","undefined","undefined","1","j","0","0","0","0","99","0","0","0","99","0","95","99","95","0","95","3","99","0","99","Fri Feb 19 14:02:29 2021","The main experiment item","yes","Lexical_Decision_Task.osexp","C:/Users/wdjac/Desktop","no","Andale Mono","no","18","no","white","no","yes","576","legacy","95","95","3","C:/Users/wdjac/Desktop/subject-5117171.csv","legacy","Lentiform Loewenfeld","3.3.7","yes","yes","600bd7cfb6416f0113b04181","602110864497cf011d9c0822","0","j","NA","j","j","j","j","j","506","NA","2572","11661","7866","9753","506","2","legacy","1024","2","48000","-16","task","5117171","odd","NA","33549","38129","35556","223171","6077","25611","17744","223678","133404","223167","223678","223024","38129","224186","31754","222524","6061","181903","Lexical Decision Task","96","63986","100","yes","1024"
"3.22685757","9.99","7","roll","word","96.03960396039604","96.03960396039604","638.2277227722773","638.2277227722773","black","no","legacy","legacy","legacy","0","uniform","1","undefined","undefined","undefined","1","j","0","0","0","0","100","0","0","0","100","0","96","100","96","0","96","3","100","0","100","Fri Feb 19 14:02:29 2021","The main experiment item","yes","Lexical_Decision_Task.osexp","C:/Users/wdjac/Desktop","no","Andale Mono","no","18","no","white","no","yes","576","legacy","96","96","3","C:/Users/wdjac/Desktop/subject-5117171.csv","legacy","Lentiform Loewenfeld","3.3.7","yes","yes","600bd7cfb6416f0113b04181","602110864497cf011d9c0822","0","j","NA","j","j","j","j","j","475","NA","2572","11661","7866","9753","475","2","legacy","1024","2","48000","-16","task","5117171","odd","NA","33549","38129","35556","224844","6077","25611","17744","225351","133404","224840","225351","224694","38129","225829","31754","224194","6061","181903","Lexical Decision Task","97","64461","101","yes","1024"
"3.492014979","0","9","yine","non-word","96.07843137254902","96.07843137254902","637.5098039215686","637.5098039215686","black","no","legacy","legacy","legacy","0","uniform","1","undefined","undefined","undefined","1","f","0","0","0","0","101","0","0","0","101","0","97","101","97","0","97","3","101","0","101","Fri Feb 19 14:02:29 2021","The main experiment item","yes","Lexical_Decision_Task.osexp","C:/Users/wdjac/Desktop","no","Andale Mono","no","18","no","white","no","yes","576","legacy","97","97","3","C:/Users/wdjac/Desktop/subject-5117171.csv","legacy","Lentiform Loewenfeld","3.3.7","yes","yes","600bd7cfb6416f0113b04181","602110864497cf011d9c0822","0","f","NA","j","j","j","j","f","565","NA","2572","11661","7866","9753","565","2","legacy","1024","2","48000","-16","task","5117171","odd","NA","33549","38129","35556","226492","6077","25611","17744","226999","133404","226488","226999","226340","38129","227567","31754","225840","6061","181903","Lexical Decision Task","98","65026","102","yes","1024"
"3.043885998","0","9","gome","non-word","96.11650485436893","96.11650485436893","637.8543689320388","637.8543689320388","black","no","legacy","legacy","legacy","0","uniform","1","undefined","undefined","undefined","1","f","0","0","0","0","102","0","0","0","102","0","98","102","98","0","98","3","102","0","102","Fri Feb 19 14:02:29 2021","The main experiment item","yes","Lexical_Decision_Task.osexp","C:/Users/wdjac/Desktop","no","Andale Mono","no","18","no","white","no","yes","576","legacy","98","98","3","C:/Users/wdjac/Desktop/subject-5117171.csv","legacy","Lentiform Loewenfeld","3.3.7","yes","yes","600bd7cfb6416f0113b04181","602110864497cf011d9c0822","0","f","NA","j","j","j","j","f","673","NA","2572","11661","7866","9753","673","2","legacy","1024","2","48000","-16","task","5117171","odd","NA","33549","38129","35556","228218","6077","25611","17744","228725","133404","228213","228725","228075","38129","229400","31754","227575","6061","181903","Lexical Decision Task","99","65699","103","yes","1024"
