"Log_BG","Log_Freq_HAL","Ortho_N","Stimulus","Type","acc","accuracy","average_response_time","avg_rt","background","bidi","canvas_backend","clock_backend","color_backend","compensation","coordinates","correct","correct_Experimental_intro","correct_Introduction","correct_Practice_intro","correct_experimenter_kb","correct_response","count_End_Of_Experiment","count_End_Of_Practice","count_Experimental_Loop","count_Experimental_intro","count_Fixation","count_Introduction","count_Practice_Loop","count_Practice_intro","count_Stimulus","count_block_break_feedback","count_experimental_sequence","count_experimenter_kb","count_increment_trial_count","count_init_trial_count","count_logger","count_practice_sequence","count_right","count_task","count_wrong","datetime","description","disable_garbage_collection","experiment_file","experiment_path","font_bold","font_family","font_italic","font_size","font_underline","foreground","form_clicks","fullscreen","height","keyboard_backend","live_row","live_row_Experimental_Loop","live_row_Practice_Loop","logfile","mouse_backend","opensesame_codename","opensesame_version","osf_always_upload_data","osf_always_upload_experiment","osf_datanode_id","osf_id","repeat_cycle","response","response_End_Of_Experiment","response_Experimental_intro","response_Introduction","response_Practice_intro","response_block_break_feedback","response_experimenter_kb","response_time","response_time_End_Of_Experiment","response_time_Experimental_intro","response_time_Introduction","response_time_Practice_intro","response_time_block_break_feedback","response_time_experimenter_kb","round_decimals","sampler_backend","sound_buf_size","sound_channels","sound_freq","sound_sample_size","start","subject_nr","subject_parity","time_End_Of_Experiment","time_End_Of_Practice","time_Experimental_Loop","time_Experimental_intro","time_Fixation","time_Introduction","time_Practice_Loop","time_Practice_intro","time_Stimulus","time_block_break_feedback","time_experimental_sequence","time_experimenter_kb","time_increment_trial_count","time_init_trial_count","time_logger","time_practice_sequence","time_right","time_task","time_wrong","title","total_correct","total_response_time","total_responses","uniform_coordinates","width"
"3.261341392","5.08","8","reek","word","60","60","998.2","998.2","black","no","legacy","legacy","legacy","0","uniform","1","undefined","undefined","undefined","1","j","0","0","0","0","4","0","0","0","4","NA","0","4","0","0","0","3","4","0","4","02/18/21 14:54:09","The main experiment item","yes","Lexical_Decision_Task.osexp","C:/Users/s5210093/OneDrive - Bournemouth University","no","Andale Mono","no","18","no","white","no","yes","576","legacy","0","0","3","C:/Users/s5210093/OneDrive - Bournemouth University/subject-5210093.csv","legacy","Kafkaesque Koffka","3.2.4","yes","yes","600bd7cfb6416f0113b04181","602110864497cf011d9c0822","0","j","NA","space","space","space","NA","j","1232","NA","0","9478","2990","NA","1232","2","legacy","1024","2","48000","-16","task","5210093","odd","NA","25436","27438","27437","27515","2669","15140","12149","28019","NA","27514","28019","NA","27438","29252","23547","24926","2665","21958","Lexical Decision Task","3","4991","5","yes","1024"
"2.696356389","0","1","pizz","non-word","66.6666666667","66.6666666667","1011.16666667","1011.16666667","black","no","legacy","legacy","legacy","0","uniform","1","undefined","undefined","undefined","1","f","0","0","0","0","5","0","0","0","5","NA","1","5","1","0","1","3","5","0","5","02/18/21 14:54:09","The main experiment item","yes","Lexical_Decision_Task.osexp","C:/Users/s5210093/OneDrive - Bournemouth University","no","Andale Mono","no","18","no","white","no","yes","576","legacy","1","1","3","C:/Users/s5210093/OneDrive - Bournemouth University/subject-5210093.csv","legacy","Kafkaesque Koffka","3.2.4","yes","yes","600bd7cfb6416f0113b04181","602110864497cf011d9c0822","0","f","NA","space","space","space","NA","f","1076","NA","0","9478","2990","NA","1076","2","legacy","1024","2","48000","-16","task","5210093","odd","NA","25436","27438","27437","29850","2669","15140","12149","30352","NA","29849","30352","29757","27438","31428","23547","29257","2665","21958","Lexical Decision Task","4","6067","6","yes","1024"
"2.746890964","9.67","3","plug","word","71.4285714286","71.4285714286","974.285714286","974.285714286","black","no","legacy","legacy","legacy","0","uniform","1","undefined","undefined","undefined","1","j","0","0","0","0","6","0","0","0","6","NA","2","6","2","0","2","3","6","0","6","02/18/21 14:54:09","The main experiment item","yes","Lexical_Decision_Task.osexp","C:/Users/s5210093/OneDrive - Bournemouth University","no","Andale Mono","no","18","no","white","no","yes","576","legacy","2","2","3","C:/Users/s5210093/OneDrive - Bournemouth University/subject-5210093.csv","legacy","Kafkaesque Koffka","3.2.4","yes","yes","600bd7cfb6416f0113b04181","602110864497cf011d9c0822","0","j","NA","space","space","space","NA","j","753","NA","0","9478","2990","NA","753","2","legacy","1024","2","48000","-16","task","5210093","odd","NA","25436","27438","27437","32013","2669","15140","12149","32514","NA","32012","32514","31931","27438","33268","23547","31431","2665","21958","Lexical Decision Task","5","6820","7","yes","1024"
"2.937852093","0","7","bamp","non-word","75","75","965.125","965.125","black","no","legacy","legacy","legacy","0","uniform","1","undefined","undefined","undefined","1","f","0","0","0","0","7","0","0","0","7","NA","3","7","3","0","3","3","7","0","7","02/18/21 14:54:09","The main experiment item","yes","Lexical_Decision_Task.osexp","C:/Users/s5210093/OneDrive - Bournemouth University","no","Andale Mono","no","18","no","white","no","yes","576","legacy","3","3","3","C:/Users/s5210093/OneDrive - Bournemouth University/subject-5210093.csv","legacy","Kafkaesque Koffka","3.2.4","yes","yes","600bd7cfb6416f0113b04181","602110864497cf011d9c0822","0","f","NA","space","space","space","NA","f","901","NA","0","9478","2990","NA","901","2","legacy","1024","2","48000","-16","task","5210093","odd","NA","25436","27438","27437","33854","2669","15140","12149","34358","NA","33853","34358","33771","27438","35259","23547","33271","2665","21958","Lexical Decision Task","6","7721","8","yes","1024"
"2.814027728","8.2","4","foam","word","77.7777777778","77.7777777778","953.222222222","953.222222222","black","no","legacy","legacy","legacy","0","uniform","1","undefined","undefined","undefined","1","j","0","0","0","0","8","0","0","0","8","NA","4","8","4","0","4","3","8","0","8","02/18/21 14:54:09","The main experiment item","yes","Lexical_Decision_Task.osexp","C:/Users/s5210093/OneDrive - Bournemouth University","no","Andale Mono","no","18","no","white","no","yes","576","legacy","4","4","3","C:/Users/s5210093/OneDrive - Bournemouth University/subject-5210093.csv","legacy","Kafkaesque Koffka","3.2.4","yes","yes","600bd7cfb6416f0113b04181","602110864497cf011d9c0822","0","j","NA","space","space","space","NA","j","858","NA","0","9478","2990","NA","858","2","legacy","1024","2","48000","-16","task","5210093","odd","NA","25436","27438","27437","35848","2669","15140","12149","36352","NA","35846","36352","35762","27438","37211","23547","35262","2665","21958","Lexical Decision Task","7","8579","9","yes","1024"
"3.105055783","0","2","norp","non-word","80","80","939.7","939.7","black","no","legacy","legacy","legacy","0","uniform","1","undefined","undefined","undefined","1","f","0","0","0","0","9","0","0","0","9","NA","5","9","5","0","5","3","9","0","9","02/18/21 14:54:09","The main experiment item","yes","Lexical_Decision_Task.osexp","C:/Users/s5210093/OneDrive - Bournemouth University","no","Andale Mono","no","18","no","white","no","yes","576","legacy","5","5","3","C:/Users/s5210093/OneDrive - Bournemouth University/subject-5210093.csv","legacy","Kafkaesque Koffka","3.2.4","yes","yes","600bd7cfb6416f0113b04181","602110864497cf011d9c0822","0","f","NA","space","space","space","NA","f","818","NA","0","9478","2990","NA","818","2","legacy","1024","2","48000","-16","task","5210093","odd","NA","25436","27438","27437","37796","2669","15140","12149","38297","NA","37794","38297","37713","27438","39116","23547","37213","2665","21958","Lexical Decision Task","8","9397","10","yes","1024"
"3.366547468","0","6","plat","non-word","81.8181818182","81.8181818182","929.181818182","929.181818182","black","no","legacy","legacy","legacy","0","uniform","1","undefined","undefined","undefined","1","f","0","0","0","0","10","0","0","0","10","NA","6","10","6","0","6","3","10","0","10","02/18/21 14:54:09","The main experiment item","yes","Lexical_Decision_Task.osexp","C:/Users/s5210093/OneDrive - Bournemouth University","no","Andale Mono","no","18","no","white","no","yes","576","legacy","6","6","3","C:/Users/s5210093/OneDrive - Bournemouth University/subject-5210093.csv","legacy","Kafkaesque Koffka","3.2.4","yes","yes","600bd7cfb6416f0113b04181","602110864497cf011d9c0822","0","f","NA","space","space","space","NA","f","824","NA","0","9478","2990","NA","824","2","legacy","1024","2","48000","-16","task","5210093","odd","NA","25436","27438","27437","39702","2669","15140","12149","40203","NA","39700","40203","39618","27438","41027","23547","39118","2665","21958","Lexical Decision Task","9","10221","11","yes","1024"
"2.980306438","0","7","slun","non-word","83.3333333333","83.3333333333","940.666666667","940.666666667","black","no","legacy","legacy","legacy","0","uniform","1","undefined","undefined","undefined","1","f","0","0","0","0","11","0","0","0","11","NA","7","11","7","0","7","3","11","0","11","02/18/21 14:54:09","The main experiment item","yes","Lexical_Decision_Task.osexp","C:/Users/s5210093/OneDrive - Bournemouth University","no","Andale Mono","no","18","no","white","no","yes","576","legacy","7","7","3","C:/Users/s5210093/OneDrive - Bournemouth University/subject-5210093.csv","legacy","Kafkaesque Koffka","3.2.4","yes","yes","600bd7cfb6416f0113b04181","602110864497cf011d9c0822","0","f","NA","space","space","space","NA","f","1067","NA","0","9478","2990","NA","1067","2","legacy","1024","2","48000","-16","task","5210093","odd","NA","25436","27438","27437","41612","2669","15140","12149","42113","NA","41611","42114","41530","27438","43181","23547","41030","2665","21958","Lexical Decision Task","10","11288","12","yes","1024"
"3.14849993","10.75","7","hour","word","84.6153846154","84.6153846154","927.769230769","927.769230769","black","no","legacy","legacy","legacy","0","uniform","1","undefined","undefined","undefined","1","j","0","0","0","0","12","0","0","0","12","NA","8","12","8","0","8","3","12","0","12","02/18/21 14:54:09","The main experiment item","yes","Lexical_Decision_Task.osexp","C:/Users/s5210093/OneDrive - Bournemouth University","no","Andale Mono","no","18","no","white","no","yes","576","legacy","8","8","3","C:/Users/s5210093/OneDrive - Bournemouth University/subject-5210093.csv","legacy","Kafkaesque Koffka","3.2.4","yes","yes","600bd7cfb6416f0113b04181","602110864497cf011d9c0822","0","j","NA","space","space","space","NA","j","773","NA","0","9478","2990","NA","773","2","legacy","1024","2","48000","-16","task","5210093","odd","NA","25436","27438","27437","43766","2669","15140","12149","44270","NA","43765","44270","43684","27438","45043","23547","43184","2665","21958","Lexical Decision Task","11","12061","13","yes","1024"
"2.713490543","0","3","feps","non-word","85.7142857143","85.7142857143","912.428571429","912.428571429","black","no","legacy","legacy","legacy","0","uniform","1","undefined","undefined","undefined","1","f","0","0","0","0","13","0","0","0","13","NA","9","13","9","0","9","3","13","0","13","02/18/21 14:54:09","The main experiment item","yes","Lexical_Decision_Task.osexp","C:/Users/s5210093/OneDrive - Bournemouth University","no","Andale Mono","no","18","no","white","no","yes","576","legacy","9","9","3","C:/Users/s5210093/OneDrive - Bournemouth University/subject-5210093.csv","legacy","Kafkaesque Koffka","3.2.4","yes","yes","600bd7cfb6416f0113b04181","602110864497cf011d9c0822","0","f","NA","space","space","space","NA","f","713","NA","0","9478","2990","NA","713","2","legacy","1024","2","48000","-16","task","5210093","odd","NA","25436","27438","27437","45628","2669","15140","12149","46129","NA","45626","46129","45546","27438","46843","23547","45046","2665","21958","Lexical Decision Task","12","12774","14","yes","1024"
"3.037294994","8.64","7","roof","word","86.6666666667","86.6666666667","893.733333333","893.733333333","black","no","legacy","legacy","legacy","0","uniform","1","undefined","undefined","undefined","1","j","0","0","0","0","14","0","0","0","14","NA","10","14","10","0","10","3","14","0","14","02/18/21 14:54:09","The main experiment item","yes","Lexical_Decision_Task.osexp","C:/Users/s5210093/OneDrive - Bournemouth University","no","Andale Mono","no","18","no","white","no","yes","576","legacy","10","10","3","C:/Users/s5210093/OneDrive - Bournemouth University/subject-5210093.csv","legacy","Kafkaesque Koffka","3.2.4","yes","yes","600bd7cfb6416f0113b04181","602110864497cf011d9c0822","0","j","NA","space","space","space","NA","j","632","NA","0","9478","2990","NA","632","2","legacy","1024","2","48000","-16","task","5210093","odd","NA","25436","27438","27437","47427","2669","15140","12149","47931","NA","47425","47931","47345","27438","48563","23547","46845","2665","21958","Lexical Decision Task","13","13406","15","yes","1024"
"2.892836167","10.01","5","soft","word","81.25","81.25","876.5625","876.5625","black","no","legacy","legacy","legacy","0","uniform","0","undefined","undefined","undefined","0","j","0","0","0","0","15","0","0","0","15","NA","11","15","11","0","11","3","15","0","15","02/18/21 14:54:09","The main experiment item","yes","Lexical_Decision_Task.osexp","C:/Users/s5210093/OneDrive - Bournemouth University","no","Andale Mono","no","18","no","white","no","yes","576","legacy","11","11","3","C:/Users/s5210093/OneDrive - Bournemouth University/subject-5210093.csv","legacy","Kafkaesque Koffka","3.2.4","yes","yes","600bd7cfb6416f0113b04181","602110864497cf011d9c0822","0","f","NA","space","space","space","NA","f","619","NA","0","9478","2990","NA","619","2","legacy","1024","2","48000","-16","task","5210093","odd","NA","25436","27438","27437","49147","2669","15140","12149","49648","NA","49145","49648","49066","27438","50268","23547","48565","2665","21958","Lexical Decision Task","13","14025","16","yes","1024"
"3.384413096","10.15","3","glad","word","82.3529411765","82.3529411765","864.294117647","864.294117647","black","no","legacy","legacy","legacy","0","uniform","1","undefined","undefined","undefined","1","j","0","0","0","0","16","0","0","0","16","NA","12","16","12","0","12","3","16","0","16","02/18/21 14:54:09","The main experiment item","yes","Lexical_Decision_Task.osexp","C:/Users/s5210093/OneDrive - Bournemouth University","no","Andale Mono","no","18","no","white","no","yes","576","legacy","12","12","3","C:/Users/s5210093/OneDrive - Bournemouth University/subject-5210093.csv","legacy","Kafkaesque Koffka","3.2.4","yes","yes","600bd7cfb6416f0113b04181","602110864497cf011d9c0822","0","j","NA","space","space","space","NA","j","668","NA","0","9478","2990","NA","668","2","legacy","1024","2","48000","-16","task","5210093","odd","NA","25436","27438","27437","51856","2669","15140","12149","52358","NA","51855","52358","51770","27438","53026","23547","48565","2665","50270","Lexical Decision Task","14","14693","17","yes","1024"
"2.664328519","0","4","plux","non-word","83.3333333333","83.3333333333","857.777777778","857.777777778","black","no","legacy","legacy","legacy","0","uniform","1","undefined","undefined","undefined","1","f","0","0","0","0","17","0","0","0","17","NA","13","17","13","0","13","3","17","0","17","02/18/21 14:54:09","The main experiment item","yes","Lexical_Decision_Task.osexp","C:/Users/s5210093/OneDrive - Bournemouth University","no","Andale Mono","no","18","no","white","no","yes","576","legacy","13","13","3","C:/Users/s5210093/OneDrive - Bournemouth University/subject-5210093.csv","legacy","Kafkaesque Koffka","3.2.4","yes","yes","600bd7cfb6416f0113b04181","602110864497cf011d9c0822","0","f","NA","space","space","space","NA","f","747","NA","0","9478","2990","NA","747","2","legacy","1024","2","48000","-16","task","5210093","odd","NA","25436","27438","27437","53611","2669","15140","12149","54112","NA","53610","54112","53528","27438","54860","23547","53028","2665","50270","Lexical Decision Task","15","15440","18","yes","1024"
"3.049218023","7.4","9","robe","word","84.2105263158","84.2105263158","850.473684211","850.473684211","black","no","legacy","legacy","legacy","0","uniform","1","undefined","undefined","undefined","1","j","0","0","0","0","18","0","0","0","18","NA","14","18","14","0","14","3","18","0","18","02/18/21 14:54:09","The main experiment item","yes","Lexical_Decision_Task.osexp","C:/Users/s5210093/OneDrive - Bournemouth University","no","Andale Mono","no","18","no","white","no","yes","576","legacy","14","14","3","C:/Users/s5210093/OneDrive - Bournemouth University/subject-5210093.csv","legacy","Kafkaesque Koffka","3.2.4","yes","yes","600bd7cfb6416f0113b04181","602110864497cf011d9c0822","0","j","NA","space","space","space","NA","j","719","NA","0","9478","2990","NA","719","2","legacy","1024","2","48000","-16","task","5210093","odd","NA","25436","27438","27437","55446","2669","15140","12149","55947","NA","55444","55947","55362","27438","56666","23547","54862","2665","50270","Lexical Decision Task","16","16159","19","yes","1024"
"2.6599162","0","2","saff","non-word","85","85","849.9","849.9","black","no","legacy","legacy","legacy","0","uniform","1","undefined","undefined","undefined","1","f","0","0","0","0","19","0","0","0","19","NA","15","19","15","0","15","3","19","0","19","02/18/21 14:54:09","The main experiment item","yes","Lexical_Decision_Task.osexp","C:/Users/s5210093/OneDrive - Bournemouth University","no","Andale Mono","no","18","no","white","no","yes","576","legacy","15","15","3","C:/Users/s5210093/OneDrive - Bournemouth University/subject-5210093.csv","legacy","Kafkaesque Koffka","3.2.4","yes","yes","600bd7cfb6416f0113b04181","602110864497cf011d9c0822","0","f","NA","space","space","space","NA","f","839","NA","0","9478","2990","NA","839","2","legacy","1024","2","48000","-16","task","5210093","odd","NA","25436","27438","27437","57254","2669","15140","12149","57755","NA","57252","57755","57169","27438","58594","23547","56669","2665","50270","Lexical Decision Task","17","16998","20","yes","1024"
"3.431095062","5.74","9","perk","word","85.7142857143","85.7142857143","850.666666667","850.666666667","black","no","legacy","legacy","legacy","0","uniform","1","undefined","undefined","undefined","1","j","0","0","0","0","20","0","0","0","20","NA","16","20","16","0","16","3","20","0","20","02/18/21 14:54:09","The main experiment item","yes","Lexical_Decision_Task.osexp","C:/Users/s5210093/OneDrive - Bournemouth University","no","Andale Mono","no","18","no","white","no","yes","576","legacy","16","16","3","C:/Users/s5210093/OneDrive - Bournemouth University/subject-5210093.csv","legacy","Kafkaesque Koffka","3.2.4","yes","yes","600bd7cfb6416f0113b04181","602110864497cf011d9c0822","0","j","NA","space","space","space","NA","j","866","NA","0","9478","2990","NA","866","2","legacy","1024","2","48000","-16","task","5210093","odd","NA","25436","27438","27437","59179","2669","15140","12149","59680","NA","59177","59680","59097","27438","60546","23547","58597","2665","50270","Lexical Decision Task","18","17864","21","yes","1024"
"2.819763221","0","2","durp","non-word","86.3636363636","86.3636363636","857.136363636","857.136363636","black","no","legacy","legacy","legacy","0","uniform","1","undefined","undefined","undefined","1","f","0","0","0","0","21","0","0","0","21","NA","17","21","17","0","17","3","21","0","21","02/18/21 14:54:09","The main experiment item","yes","Lexical_Decision_Task.osexp","C:/Users/s5210093/OneDrive - Bournemouth University","no","Andale Mono","no","18","no","white","no","yes","576","legacy","17","17","3","C:/Users/s5210093/OneDrive - Bournemouth University/subject-5210093.csv","legacy","Kafkaesque Koffka","3.2.4","yes","yes","600bd7cfb6416f0113b04181","602110864497cf011d9c0822","0","f","NA","space","space","space","NA","f","993","NA","0","9478","2990","NA","993","2","legacy","1024","2","48000","-16","task","5210093","odd","NA","25436","27438","27437","61131","2669","15140","12149","61632","NA","61129","61632","61049","27438","62626","23547","60549","2665","50270","Lexical Decision Task","19","18857","22","yes","1024"
"3.134602053","0","8","jart","non-word","86.9565217391","86.9565217391","859.260869565","859.260869565","black","no","legacy","legacy","legacy","0","uniform","1","undefined","undefined","undefined","1","f","0","0","0","0","22","0","0","0","22","NA","18","22","18","0","18","3","22","0","22","02/18/21 14:54:09","The main experiment item","yes","Lexical_Decision_Task.osexp","C:/Users/s5210093/OneDrive - Bournemouth University","no","Andale Mono","no","18","no","white","no","yes","576","legacy","18","18","3","C:/Users/s5210093/OneDrive - Bournemouth University/subject-5210093.csv","legacy","Kafkaesque Koffka","3.2.4","yes","yes","600bd7cfb6416f0113b04181","602110864497cf011d9c0822","0","f","NA","space","space","space","NA","f","906","NA","0","9478","2990","NA","906","2","legacy","1024","2","48000","-16","task","5210093","odd","NA","25436","27438","27437","63212","2669","15140","12149","63713","NA","63211","63713","63128","27438","64619","23547","62628","2665","50270","Lexical Decision Task","20","19763","23","yes","1024"
"3.208978517","10.33","4","fish","word","87.5","87.5","853.166666667","853.166666667","black","no","legacy","legacy","legacy","0","uniform","1","undefined","undefined","undefined","1","j","0","0","0","0","23","0","0","0","23","NA","19","23","19","0","19","3","23","0","23","02/18/21 14:54:09","The main experiment item","yes","Lexical_Decision_Task.osexp","C:/Users/s5210093/OneDrive - Bournemouth University","no","Andale Mono","no","18","no","white","no","yes","576","legacy","19","19","3","C:/Users/s5210093/OneDrive - Bournemouth University/subject-5210093.csv","legacy","Kafkaesque Koffka","3.2.4","yes","yes","600bd7cfb6416f0113b04181","602110864497cf011d9c0822","0","j","NA","space","space","space","NA","j","713","NA","0","9478","2990","NA","713","2","legacy","1024","2","48000","-16","task","5210093","odd","NA","25436","27438","27437","65203","2669","15140","12149","65705","NA","65202","65705","65122","27438","66419","23547","64622","2665","50270","Lexical Decision Task","21","20476","24","yes","1024"
"2.807758206","6.25","4","hurl","word","84","84","851","851","black","no","legacy","legacy","legacy","0","uniform","0","undefined","undefined","undefined","0","j","0","0","0","0","24","0","0","0","24","NA","20","24","20","0","20","3","24","0","24","02/18/21 14:54:09","The main experiment item","yes","Lexical_Decision_Task.osexp","C:/Users/s5210093/OneDrive - Bournemouth University","no","Andale Mono","no","18","no","white","no","yes","576","legacy","20","20","3","C:/Users/s5210093/OneDrive - Bournemouth University/subject-5210093.csv","legacy","Kafkaesque Koffka","3.2.4","yes","yes","600bd7cfb6416f0113b04181","602110864497cf011d9c0822","0","f","NA","space","space","space","NA","f","799","NA","0","9478","2990","NA","799","2","legacy","1024","2","48000","-16","task","5210093","odd","NA","25436","27438","27437","67005","2669","15140","12149","67507","NA","67004","67507","66922","27438","68307","23547","66422","2665","50270","Lexical Decision Task","21","21275","25","yes","1024"
"3.474361976","5.24","6","veer","word","84.6153846154","84.6153846154","856.346153846","856.346153846","black","no","legacy","legacy","legacy","0","uniform","1","undefined","undefined","undefined","1","j","0","0","0","0","25","0","0","0","25","NA","21","25","21","0","21","3","25","0","25","02/18/21 14:54:09","The main experiment item","yes","Lexical_Decision_Task.osexp","C:/Users/s5210093/OneDrive - Bournemouth University","no","Andale Mono","no","18","no","white","no","yes","576","legacy","21","21","3","C:/Users/s5210093/OneDrive - Bournemouth University/subject-5210093.csv","legacy","Kafkaesque Koffka","3.2.4","yes","yes","600bd7cfb6416f0113b04181","602110864497cf011d9c0822","0","j","NA","space","space","space","NA","j","990","NA","0","9478","2990","NA","990","2","legacy","1024","2","48000","-16","task","5210093","odd","NA","25436","27438","27437","69895","2669","15140","12149","70396","NA","69893","70396","69809","27438","71386","23547","66422","2665","68309","Lexical Decision Task","22","22265","26","yes","1024"
"2.64476673","0","5","moft","non-word","85.1851851852","85.1851851852","850.740740741","850.740740741","black","no","legacy","legacy","legacy","0","uniform","1","undefined","undefined","undefined","1","f","0","0","0","0","26","0","0","0","26","NA","22","26","22","0","22","3","26","0","26","02/18/21 14:54:09","The main experiment item","yes","Lexical_Decision_Task.osexp","C:/Users/s5210093/OneDrive - Bournemouth University","no","Andale Mono","no","18","no","white","no","yes","576","legacy","22","22","3","C:/Users/s5210093/OneDrive - Bournemouth University/subject-5210093.csv","legacy","Kafkaesque Koffka","3.2.4","yes","yes","600bd7cfb6416f0113b04181","602110864497cf011d9c0822","0","f","NA","space","space","space","NA","f","705","NA","0","9478","2990","NA","705","2","legacy","1024","2","48000","-16","task","5210093","odd","NA","25436","27438","27437","71971","2669","15140","12149","72473","NA","71969","72473","71889","27438","73178","23547","71389","2665","68309","Lexical Decision Task","23","22970","27","yes","1024"
"2.68604012","0","4","pumb","non-word","85.7142857143","85.7142857143","857.785714286","857.785714286","black","no","legacy","legacy","legacy","0","uniform","1","undefined","undefined","undefined","1","f","0","0","0","0","27","0","0","0","27","NA","23","27","23","0","23","3","27","0","27","02/18/21 14:54:09","The main experiment item","yes","Lexical_Decision_Task.osexp","C:/Users/s5210093/OneDrive - Bournemouth University","no","Andale Mono","no","18","no","white","no","yes","576","legacy","23","23","3","C:/Users/s5210093/OneDrive - Bournemouth University/subject-5210093.csv","legacy","Kafkaesque Koffka","3.2.4","yes","yes","600bd7cfb6416f0113b04181","602110864497cf011d9c0822","0","f","NA","space","space","space","NA","f","1048","NA","0","9478","2990","NA","1048","2","legacy","1024","2","48000","-16","task","5210093","odd","NA","25436","27438","27437","73762","2669","15140","12149","74263","NA","73761","74263","73681","27438","75312","23547","73181","2665","68309","Lexical Decision Task","24","24018","28","yes","1024"
"2.767650507","0","6","yolt","non-word","86.2068965517","86.2068965517","859.793103448","859.793103448","black","no","legacy","legacy","legacy","0","uniform","1","undefined","undefined","undefined","1","f","0","0","0","0","28","0","0","0","28","NA","24","28","24","0","24","3","28","0","28","02/18/21 14:54:09","The main experiment item","yes","Lexical_Decision_Task.osexp","C:/Users/s5210093/OneDrive - Bournemouth University","no","Andale Mono","no","18","no","white","no","yes","576","legacy","24","24","3","C:/Users/s5210093/OneDrive - Bournemouth University/subject-5210093.csv","legacy","Kafkaesque Koffka","3.2.4","yes","yes","600bd7cfb6416f0113b04181","602110864497cf011d9c0822","0","f","NA","space","space","space","NA","f","916","NA","0","9478","2990","NA","916","2","legacy","1024","2","48000","-16","task","5210093","odd","NA","25436","27438","27437","75896","2669","15140","12149","76397","NA","75895","76397","75814","27438","77314","23547","75314","2665","68309","Lexical Decision Task","25","24934","29","yes","1024"
"3.121778632","0","9","sark","non-word","86.6666666667","86.6666666667","859.133333333","859.133333333","black","no","legacy","legacy","legacy","0","uniform","1","undefined","undefined","undefined","1","f","0","0","0","0","29","0","0","0","29","NA","25","29","25","0","25","3","29","0","29","02/18/21 14:54:09","The main experiment item","yes","Lexical_Decision_Task.osexp","C:/Users/s5210093/OneDrive - Bournemouth University","no","Andale Mono","no","18","no","white","no","yes","576","legacy","25","25","3","C:/Users/s5210093/OneDrive - Bournemouth University/subject-5210093.csv","legacy","Kafkaesque Koffka","3.2.4","yes","yes","600bd7cfb6416f0113b04181","602110864497cf011d9c0822","0","f","NA","space","space","space","NA","f","840","NA","0","9478","2990","NA","840","2","legacy","1024","2","48000","-16","task","5210093","odd","NA","25436","27438","27437","77899","2669","15140","12149","78400","NA","77897","78401","77817","27438","79242","23547","77317","2665","68309","Lexical Decision Task","26","25774","30","yes","1024"
"2.695481676","0","7","goke","non-word","87.0967741935","87.0967741935","859.387096774","859.387096774","black","no","legacy","legacy","legacy","0","uniform","1","undefined","undefined","undefined","1","f","0","0","0","0","30","0","0","0","30","NA","26","30","26","0","26","3","30","0","30","02/18/21 14:54:09","The main experiment item","yes","Lexical_Decision_Task.osexp","C:/Users/s5210093/OneDrive - Bournemouth University","no","Andale Mono","no","18","no","white","no","yes","576","legacy","26","26","3","C:/Users/s5210093/OneDrive - Bournemouth University/subject-5210093.csv","legacy","Kafkaesque Koffka","3.2.4","yes","yes","600bd7cfb6416f0113b04181","602110864497cf011d9c0822","0","f","NA","space","space","space","NA","f","867","NA","0","9478","2990","NA","867","2","legacy","1024","2","48000","-16","task","5210093","odd","NA","25436","27438","27437","79825","2669","15140","12149","80326","NA","79824","80326","79744","27438","81193","23547","79244","2665","68309","Lexical Decision Task","27","26641","31","yes","1024"
"2.884795364","0","6","flob","non-word","87.5","87.5","863.40625","863.40625","black","no","legacy","legacy","legacy","0","uniform","1","undefined","undefined","undefined","1","f","0","0","0","0","31","0","0","0","31","NA","27","31","27","0","27","3","31","0","31","02/18/21 14:54:09","The main experiment item","yes","Lexical_Decision_Task.osexp","C:/Users/s5210093/OneDrive - Bournemouth University","no","Andale Mono","no","18","no","white","no","yes","576","legacy","27","27","3","C:/Users/s5210093/OneDrive - Bournemouth University/subject-5210093.csv","legacy","Kafkaesque Koffka","3.2.4","yes","yes","600bd7cfb6416f0113b04181","602110864497cf011d9c0822","0","f","NA","space","space","space","NA","f","988","NA","0","9478","2990","NA","988","2","legacy","1024","2","48000","-16","task","5210093","odd","NA","25436","27438","27437","81784","2669","15140","12149","82285","NA","81782","82285","81696","27438","83273","23547","81196","2665","68309","Lexical Decision Task","28","27629","32","yes","1024"
"3.529815197","0","3","lerm","non-word","87.8787878788","87.8787878788","860.242424242","860.242424242","black","no","legacy","legacy","legacy","0","uniform","1","undefined","undefined","undefined","1","f","0","0","0","0","32","0","0","0","32","NA","28","32","28","0","28","3","32","0","32","02/18/21 14:54:09","The main experiment item","yes","Lexical_Decision_Task.osexp","C:/Users/s5210093/OneDrive - Bournemouth University","no","Andale Mono","no","18","no","white","no","yes","576","legacy","28","28","3","C:/Users/s5210093/OneDrive - Bournemouth University/subject-5210093.csv","legacy","Kafkaesque Koffka","3.2.4","yes","yes","600bd7cfb6416f0113b04181","602110864497cf011d9c0822","0","f","NA","space","space","space","NA","f","759","NA","0","9478","2990","NA","759","2","legacy","1024","2","48000","-16","task","5210093","odd","NA","25436","27438","27437","83857","2669","15140","12149","84358","NA","83855","84358","83776","27438","85118","23547","83276","2665","68309","Lexical Decision Task","29","28388","33","yes","1024"
"3.1430148","7.92","8","bald","word","88.2352941176","88.2352941176","857.323529412","857.323529412","black","no","legacy","legacy","legacy","0","uniform","1","undefined","undefined","undefined","1","j","0","0","0","0","33","0","0","0","33","NA","29","33","29","0","29","3","33","0","33","02/18/21 14:54:09","The main experiment item","yes","Lexical_Decision_Task.osexp","C:/Users/s5210093/OneDrive - Bournemouth University","no","Andale Mono","no","18","no","white","no","yes","576","legacy","29","29","3","C:/Users/s5210093/OneDrive - Bournemouth University/subject-5210093.csv","legacy","Kafkaesque Koffka","3.2.4","yes","yes","600bd7cfb6416f0113b04181","602110864497cf011d9c0822","0","j","NA","space","space","space","NA","j","761","NA","0","9478","2990","NA","761","2","legacy","1024","2","48000","-16","task","5210093","odd","NA","25436","27438","27437","85714","2669","15140","12149","86215","NA","85713","86215","85620","27438","86977","23547","85120","2665","68309","Lexical Decision Task","30","29149","34","yes","1024"
"3.068433376","8.09","2","bulb","word","88.5714285714","88.5714285714","854.085714286","854.085714286","black","no","legacy","legacy","legacy","0","uniform","1","undefined","undefined","undefined","1","j","0","0","0","0","34","0","0","0","34","NA","30","34","30","0","30","3","34","0","34","02/18/21 14:54:09","The main experiment item","yes","Lexical_Decision_Task.osexp","C:/Users/s5210093/OneDrive - Bournemouth University","no","Andale Mono","no","18","no","white","no","yes","576","legacy","30","30","3","C:/Users/s5210093/OneDrive - Bournemouth University/subject-5210093.csv","legacy","Kafkaesque Koffka","3.2.4","yes","yes","600bd7cfb6416f0113b04181","602110864497cf011d9c0822","0","j","NA","space","space","space","NA","j","744","NA","0","9478","2990","NA","744","2","legacy","1024","2","48000","-16","task","5210093","odd","NA","25436","27438","27437","87564","2669","15140","12149","88065","NA","87563","88065","87480","27438","88809","23547","86980","2665","68309","Lexical Decision Task","31","29893","35","yes","1024"
"3.218535505","7.85","7","goat","word","88.8888888889","88.8888888889","848.527777778","848.527777778","black","no","legacy","legacy","legacy","0","uniform","1","undefined","undefined","undefined","1","j","0","0","0","0","35","0","0","0","35","NA","31","35","31","0","31","3","35","0","35","02/18/21 14:54:09","The main experiment item","yes","Lexical_Decision_Task.osexp","C:/Users/s5210093/OneDrive - Bournemouth University","no","Andale Mono","no","18","no","white","no","yes","576","legacy","31","31","3","C:/Users/s5210093/OneDrive - Bournemouth University/subject-5210093.csv","legacy","Kafkaesque Koffka","3.2.4","yes","yes","600bd7cfb6416f0113b04181","602110864497cf011d9c0822","0","j","NA","space","space","space","NA","j","654","NA","0","9478","2990","NA","654","2","legacy","1024","2","48000","-16","task","5210093","odd","NA","25436","27438","27437","89397","2669","15140","12149","89898","NA","89395","89898","89312","27438","90553","23547","88812","2665","68309","Lexical Decision Task","32","30547","36","yes","1024"
"3.460446784","0","5","dess","non-word","89.1891891892","89.1891891892","848.135135135","848.135135135","black","no","legacy","legacy","legacy","0","uniform","1","undefined","undefined","undefined","1","f","0","0","0","0","36","0","0","0","36","NA","32","36","32","0","32","3","36","0","36","02/18/21 14:54:09","The main experiment item","yes","Lexical_Decision_Task.osexp","C:/Users/s5210093/OneDrive - Bournemouth University","no","Andale Mono","no","18","no","white","no","yes","576","legacy","32","32","3","C:/Users/s5210093/OneDrive - Bournemouth University/subject-5210093.csv","legacy","Kafkaesque Koffka","3.2.4","yes","yes","600bd7cfb6416f0113b04181","602110864497cf011d9c0822","0","f","NA","space","space","space","NA","f","834","NA","0","9478","2990","NA","834","2","legacy","1024","2","48000","-16","task","5210093","odd","NA","25436","27438","27437","91137","2669","15140","12149","91638","NA","91136","91638","91056","27438","92473","23547","90556","2665","68309","Lexical Decision Task","33","31381","37","yes","1024"
"3.440331212","7.35","6","stew","word","86.8421052632","86.8421052632","851.394736842","851.394736842","black","no","legacy","legacy","legacy","0","uniform","0","undefined","undefined","undefined","0","j","0","0","0","0","37","0","0","0","37","NA","33","37","33","0","33","3","37","0","37","02/18/21 14:54:09","The main experiment item","yes","Lexical_Decision_Task.osexp","C:/Users/s5210093/OneDrive - Bournemouth University","no","Andale Mono","no","18","no","white","no","yes","576","legacy","33","33","3","C:/Users/s5210093/OneDrive - Bournemouth University/subject-5210093.csv","legacy","Kafkaesque Koffka","3.2.4","yes","yes","600bd7cfb6416f0113b04181","602110864497cf011d9c0822","0","f","NA","space","space","space","NA","f","972","NA","0","9478","2990","NA","972","2","legacy","1024","2","48000","-16","task","5210093","odd","NA","25436","27438","27437","93056","2669","15140","12149","93557","NA","93054","93557","92975","27438","94530","23547","92475","2665","68309","Lexical Decision Task","33","32353","38","yes","1024"
"3.248054965","7.86","5","glow","word","87.1794871795","87.1794871795","847.41025641","847.41025641","black","no","legacy","legacy","legacy","0","uniform","1","undefined","undefined","undefined","1","j","0","0","0","0","38","0","0","0","38","NA","34","38","34","0","34","3","38","0","38","02/18/21 14:54:09","The main experiment item","yes","Lexical_Decision_Task.osexp","C:/Users/s5210093/OneDrive - Bournemouth University","no","Andale Mono","no","18","no","white","no","yes","576","legacy","34","34","3","C:/Users/s5210093/OneDrive - Bournemouth University/subject-5210093.csv","legacy","Kafkaesque Koffka","3.2.4","yes","yes","600bd7cfb6416f0113b04181","602110864497cf011d9c0822","0","j","NA","space","space","space","NA","j","696","NA","0","9478","2990","NA","696","2","legacy","1024","2","48000","-16","task","5210093","odd","NA","25436","27438","27437","96113","2669","15140","12149","96617","NA","96112","96617","96033","27438","97314","23547","92475","2665","94532","Lexical Decision Task","34","33049","39","yes","1024"
"3.132473155","0","4","glim","non-word","87.5","87.5","854.625","854.625","black","no","legacy","legacy","legacy","0","uniform","1","undefined","undefined","undefined","1","f","0","0","0","0","39","0","0","0","39","NA","35","39","35","0","35","3","39","0","39","02/18/21 14:54:09","The main experiment item","yes","Lexical_Decision_Task.osexp","C:/Users/s5210093/OneDrive - Bournemouth University","no","Andale Mono","no","18","no","white","no","yes","576","legacy","35","35","3","C:/Users/s5210093/OneDrive - Bournemouth University/subject-5210093.csv","legacy","Kafkaesque Koffka","3.2.4","yes","yes","600bd7cfb6416f0113b04181","602110864497cf011d9c0822","0","f","NA","space","space","space","NA","f","1136","NA","0","9478","2990","NA","1136","2","legacy","1024","2","48000","-16","task","5210093","odd","NA","25436","27438","27437","97899","2669","15140","12149","98401","NA","97897","98401","97816","27438","99538","23547","97316","2665","94532","Lexical Decision Task","35","34185","40","yes","1024"
"3.119255889","6.63","2","itch","word","87.8048780488","87.8048780488","854.414634146","854.414634146","black","no","legacy","legacy","legacy","0","uniform","1","undefined","undefined","undefined","1","j","0","0","0","0","40","0","0","0","40","NA","36","40","36","0","36","3","40","0","40","02/18/21 14:54:09","The main experiment item","yes","Lexical_Decision_Task.osexp","C:/Users/s5210093/OneDrive - Bournemouth University","no","Andale Mono","no","18","no","white","no","yes","576","legacy","36","36","3","C:/Users/s5210093/OneDrive - Bournemouth University/subject-5210093.csv","legacy","Kafkaesque Koffka","3.2.4","yes","yes","600bd7cfb6416f0113b04181","602110864497cf011d9c0822","0","j","NA","space","space","space","NA","j","846","NA","0","9478","2990","NA","846","2","legacy","1024","2","48000","-16","task","5210093","odd","NA","25436","27438","27437","100123","2669","15140","12149","100627","NA","100122","100627","100041","27438","101473","23547","99540","2665","94532","Lexical Decision Task","36","35031","41","yes","1024"
"2.95456409","0","4","taud","non-word","88.0952380952","88.0952380952","853.523809524","853.523809524","black","no","legacy","legacy","legacy","0","uniform","1","undefined","undefined","undefined","1","f","0","0","0","0","41","0","0","0","41","NA","37","41","37","0","37","3","41","0","41","02/18/21 14:54:09","The main experiment item","yes","Lexical_Decision_Task.osexp","C:/Users/s5210093/OneDrive - Bournemouth University","no","Andale Mono","no","18","no","white","no","yes","576","legacy","37","37","3","C:/Users/s5210093/OneDrive - Bournemouth University/subject-5210093.csv","legacy","Kafkaesque Koffka","3.2.4","yes","yes","600bd7cfb6416f0113b04181","602110864497cf011d9c0822","0","f","NA","space","space","space","NA","f","817","NA","0","9478","2990","NA","817","2","legacy","1024","2","48000","-16","task","5210093","odd","NA","25436","27438","27437","102059","2669","15140","12149","102560","NA","102058","102560","101976","27438","103378","23547","101476","2665","94532","Lexical Decision Task","37","35848","42","yes","1024"
"3.043885998","0","9","gome","non-word","88.3720930233","88.3720930233","862.302325581","862.302325581","black","no","legacy","legacy","legacy","0","uniform","1","undefined","undefined","undefined","1","f","0","0","0","0","42","0","0","0","42","NA","38","42","38","0","38","3","42","0","42","02/18/21 14:54:09","The main experiment item","yes","Lexical_Decision_Task.osexp","C:/Users/s5210093/OneDrive - Bournemouth University","no","Andale Mono","no","18","no","white","no","yes","576","legacy","38","38","3","C:/Users/s5210093/OneDrive - Bournemouth University/subject-5210093.csv","legacy","Kafkaesque Koffka","3.2.4","yes","yes","600bd7cfb6416f0113b04181","602110864497cf011d9c0822","0","f","NA","space","space","space","NA","f","1231","NA","0","9478","2990","NA","1231","2","legacy","1024","2","48000","-16","task","5210093","odd","NA","25436","27438","27437","103965","2669","15140","12149","104466","NA","103964","104466","103881","27438","105697","23547","103381","2665","94532","Lexical Decision Task","38","37079","43","yes","1024"
"2.771097306","0","9","jold","non-word","88.6363636364","88.6363636364","860.409090909","860.409090909","black","no","legacy","legacy","legacy","0","uniform","1","undefined","undefined","undefined","1","f","0","0","0","0","43","0","0","0","43","NA","39","43","39","0","39","3","43","0","43","02/18/21 14:54:09","The main experiment item","yes","Lexical_Decision_Task.osexp","C:/Users/s5210093/OneDrive - Bournemouth University","no","Andale Mono","no","18","no","white","no","yes","576","legacy","39","39","3","C:/Users/s5210093/OneDrive - Bournemouth University/subject-5210093.csv","legacy","Kafkaesque Koffka","3.2.4","yes","yes","600bd7cfb6416f0113b04181","602110864497cf011d9c0822","0","f","NA","space","space","space","NA","f","779","NA","0","9478","2990","NA","779","2","legacy","1024","2","48000","-16","task","5210093","odd","NA","25436","27438","27437","106294","2669","15140","12149","106798","NA","106293","106798","106201","27438","107578","23547","105700","2665","94532","Lexical Decision Task","39","37858","44","yes","1024"
"2.8162413","0","5","nusk","non-word","88.8888888889","88.8888888889","856.911111111","856.911111111","black","no","legacy","legacy","legacy","0","uniform","1","undefined","undefined","undefined","1","f","0","0","0","0","44","0","0","0","44","NA","40","44","40","0","40","3","44","0","44","02/18/21 14:54:09","The main experiment item","yes","Lexical_Decision_Task.osexp","C:/Users/s5210093/OneDrive - Bournemouth University","no","Andale Mono","no","18","no","white","no","yes","576","legacy","40","40","3","C:/Users/s5210093/OneDrive - Bournemouth University/subject-5210093.csv","legacy","Kafkaesque Koffka","3.2.4","yes","yes","600bd7cfb6416f0113b04181","602110864497cf011d9c0822","0","f","NA","space","space","space","NA","f","703","NA","0","9478","2990","NA","703","2","legacy","1024","2","48000","-16","task","5210093","odd","NA","25436","27438","27437","108163","2669","15140","12149","108665","NA","108162","108665","108081","27438","109369","23547","107581","2665","94532","Lexical Decision Task","40","38561","45","yes","1024"
"2.813801082","5.47","7","nook","word","89.1304347826","89.1304347826","854.456521739","854.456521739","black","no","legacy","legacy","legacy","0","uniform","1","undefined","undefined","undefined","1","j","0","0","0","0","45","0","0","0","45","NA","41","45","41","0","41","3","45","0","45","02/18/21 14:54:09","The main experiment item","yes","Lexical_Decision_Task.osexp","C:/Users/s5210093/OneDrive - Bournemouth University","no","Andale Mono","no","18","no","white","no","yes","576","legacy","41","41","3","C:/Users/s5210093/OneDrive - Bournemouth University/subject-5210093.csv","legacy","Kafkaesque Koffka","3.2.4","yes","yes","600bd7cfb6416f0113b04181","602110864497cf011d9c0822","0","j","NA","space","space","space","NA","j","744","NA","0","9478","2990","NA","744","2","legacy","1024","2","48000","-16","task","5210093","odd","NA","25436","27438","27437","109953","2669","15140","12149","110455","NA","109952","110456","109872","27438","111201","23547","109372","2665","94532","Lexical Decision Task","41","39305","46","yes","1024"
"3.153001286","8.7","5","palm","word","89.3617021277","89.3617021277","851.978723404","851.978723404","black","no","legacy","legacy","legacy","0","uniform","1","undefined","undefined","undefined","1","j","0","0","0","0","46","0","0","0","46","NA","42","46","42","0","42","3","46","0","46","02/18/21 14:54:09","The main experiment item","yes","Lexical_Decision_Task.osexp","C:/Users/s5210093/OneDrive - Bournemouth University","no","Andale Mono","no","18","no","white","no","yes","576","legacy","42","42","3","C:/Users/s5210093/OneDrive - Bournemouth University/subject-5210093.csv","legacy","Kafkaesque Koffka","3.2.4","yes","yes","600bd7cfb6416f0113b04181","602110864497cf011d9c0822","0","j","NA","space","space","space","NA","j","738","NA","0","9478","2990","NA","738","2","legacy","1024","2","48000","-16","task","5210093","odd","NA","25436","27438","27437","111786","2669","15140","12149","112287","NA","111784","112287","111704","27438","113025","23547","111203","2665","94532","Lexical Decision Task","42","40043","47","yes","1024"
"2.744553742","0","2","nawk","non-word","89.5833333333","89.5833333333","851.395833333","851.395833333","black","no","legacy","legacy","legacy","0","uniform","1","undefined","undefined","undefined","1","f","0","0","0","0","47","0","0","0","47","NA","43","47","43","0","43","3","47","0","47","02/18/21 14:54:09","The main experiment item","yes","Lexical_Decision_Task.osexp","C:/Users/s5210093/OneDrive - Bournemouth University","no","Andale Mono","no","18","no","white","no","yes","576","legacy","43","43","3","C:/Users/s5210093/OneDrive - Bournemouth University/subject-5210093.csv","legacy","Kafkaesque Koffka","3.2.4","yes","yes","600bd7cfb6416f0113b04181","602110864497cf011d9c0822","0","f","NA","space","space","space","NA","f","824","NA","0","9478","2990","NA","824","2","legacy","1024","2","48000","-16","task","5210093","odd","NA","25436","27438","27437","113610","2669","15140","12149","114111","NA","113608","114111","113528","27438","114936","23547","113028","2665","94532","Lexical Decision Task","43","40867","48","yes","1024"
"3.168400243","9.12","6","horn","word","89.7959183673","89.7959183673","847.142857143","847.142857143","black","no","legacy","legacy","legacy","0","uniform","1","undefined","undefined","undefined","1","j","0","0","0","0","48","0","0","0","48","NA","44","48","44","0","44","3","48","0","48","02/18/21 14:54:09","The main experiment item","yes","Lexical_Decision_Task.osexp","C:/Users/s5210093/OneDrive - Bournemouth University","no","Andale Mono","no","18","no","white","no","yes","576","legacy","44","44","3","C:/Users/s5210093/OneDrive - Bournemouth University/subject-5210093.csv","legacy","Kafkaesque Koffka","3.2.4","yes","yes","600bd7cfb6416f0113b04181","602110864497cf011d9c0822","0","j","NA","space","space","space","NA","j","643","NA","0","9478","2990","NA","643","2","legacy","1024","2","48000","-16","task","5210093","odd","NA","25436","27438","27437","115521","2669","15140","12149","116022","NA","115519","116023","115438","27438","116667","23547","114938","2665","94532","Lexical Decision Task","44","41510","49","yes","1024"
"2.971428938","9.86","7","spot","word","90","90","844","844","black","no","legacy","legacy","legacy","0","uniform","1","undefined","undefined","undefined","1","j","0","0","0","0","49","0","0","0","49","NA","45","49","45","0","45","3","49","0","49","02/18/21 14:54:09","The main experiment item","yes","Lexical_Decision_Task.osexp","C:/Users/s5210093/OneDrive - Bournemouth University","no","Andale Mono","no","18","no","white","no","yes","576","legacy","45","45","3","C:/Users/s5210093/OneDrive - Bournemouth University/subject-5210093.csv","legacy","Kafkaesque Koffka","3.2.4","yes","yes","600bd7cfb6416f0113b04181","602110864497cf011d9c0822","0","j","NA","space","space","space","NA","j","690","NA","0","9478","2990","NA","690","2","legacy","1024","2","48000","-16","task","5210093","odd","NA","25436","27438","27437","117265","2669","15140","12149","117766","NA","117264","117766","117169","27438","118456","23547","116669","2665","94532","Lexical Decision Task","45","42200","50","yes","1024"
"2.952953801","0","8","clax","non-word","90.1960784314","90.1960784314","841.607843137","841.607843137","black","no","legacy","legacy","legacy","0","uniform","1","undefined","undefined","undefined","1","f","0","0","0","0","50","0","0","0","50","NA","46","50","46","0","46","3","50","0","50","02/18/21 14:54:09","The main experiment item","yes","Lexical_Decision_Task.osexp","C:/Users/s5210093/OneDrive - Bournemouth University","no","Andale Mono","no","18","no","white","no","yes","576","legacy","46","46","3","C:/Users/s5210093/OneDrive - Bournemouth University/subject-5210093.csv","legacy","Kafkaesque Koffka","3.2.4","yes","yes","600bd7cfb6416f0113b04181","602110864497cf011d9c0822","0","f","NA","space","space","space","NA","f","722","NA","0","9478","2990","NA","722","2","legacy","1024","2","48000","-16","task","5210093","odd","NA","25436","27438","27437","119041","2669","15140","12149","119542","NA","119040","119542","118960","27438","120265","23547","118459","2665","94532","Lexical Decision Task","46","42922","51","yes","1024"
"2.990042563","6.64","9","plow","word","88.4615384615","88.4615384615","842.346153846","842.346153846","black","no","legacy","legacy","legacy","0","uniform","0","undefined","undefined","undefined","0","j","0","0","0","0","51","0","0","0","51","NA","47","51","47","0","47","3","51","0","51","02/18/21 14:54:09","The main experiment item","yes","Lexical_Decision_Task.osexp","C:/Users/s5210093/OneDrive - Bournemouth University","no","Andale Mono","no","18","no","white","no","yes","576","legacy","47","47","3","C:/Users/s5210093/OneDrive - Bournemouth University/subject-5210093.csv","legacy","Kafkaesque Koffka","3.2.4","yes","yes","600bd7cfb6416f0113b04181","602110864497cf011d9c0822","0","f","NA","space","space","space","NA","f","880","NA","0","9478","2990","NA","880","2","legacy","1024","2","48000","-16","task","5210093","odd","NA","25436","27438","27437","120850","2669","15140","12149","121351","NA","120849","121351","120768","27438","122232","23547","120268","2665","94532","Lexical Decision Task","46","43802","52","yes","1024"
"3.174641193","0","3","ramb","non-word","88.679245283","88.679245283","842.886792453","842.886792453","black","no","legacy","legacy","legacy","0","uniform","1","undefined","undefined","undefined","1","f","0","0","0","0","52","0","0","0","52","NA","48","52","48","0","48","3","52","0","52","02/18/21 14:54:09","The main experiment item","yes","Lexical_Decision_Task.osexp","C:/Users/s5210093/OneDrive - Bournemouth University","no","Andale Mono","no","18","no","white","no","yes","576","legacy","48","48","3","C:/Users/s5210093/OneDrive - Bournemouth University/subject-5210093.csv","legacy","Kafkaesque Koffka","3.2.4","yes","yes","600bd7cfb6416f0113b04181","602110864497cf011d9c0822","0","f","NA","space","space","space","NA","f","871","NA","0","9478","2990","NA","871","2","legacy","1024","2","48000","-16","task","5210093","odd","NA","25436","27438","27437","123820","2669","15140","12149","124321","NA","123818","124321","123734","27438","125193","23547","120268","2665","122234","Lexical Decision Task","47","44673","53","yes","1024"
"3.2757719","0","5","slea","non-word","88.8888888889","88.8888888889","847.888888889","847.888888889","black","no","legacy","legacy","legacy","0","uniform","1","undefined","undefined","undefined","1","f","0","0","0","0","53","0","0","0","53","NA","49","53","49","0","49","3","53","0","53","02/18/21 14:54:09","The main experiment item","yes","Lexical_Decision_Task.osexp","C:/Users/s5210093/OneDrive - Bournemouth University","no","Andale Mono","no","18","no","white","no","yes","576","legacy","49","49","3","C:/Users/s5210093/OneDrive - Bournemouth University/subject-5210093.csv","legacy","Kafkaesque Koffka","3.2.4","yes","yes","600bd7cfb6416f0113b04181","602110864497cf011d9c0822","0","f","NA","space","space","space","NA","f","1113","NA","0","9478","2990","NA","1113","2","legacy","1024","2","48000","-16","task","5210093","odd","NA","25436","27438","27437","125777","2669","15140","12149","126278","NA","125776","126278","125695","27438","127392","23547","125195","2665","122234","Lexical Decision Task","48","45786","54","yes","1024"
"3.120135028","0","3","vals","non-word","87.2727272727","87.2727272727","850.545454545","850.545454545","black","no","legacy","legacy","legacy","0","uniform","0","undefined","undefined","undefined","0","f","0","0","0","0","54","0","0","0","54","0","50","54","50","0","50","3","54","0","54","02/18/21 14:54:09","The main experiment item","yes","Lexical_Decision_Task.osexp","C:/Users/s5210093/OneDrive - Bournemouth University","no","Andale Mono","no","18","no","white","no","yes","576","legacy","50","50","3","C:/Users/s5210093/OneDrive - Bournemouth University/subject-5210093.csv","legacy","Kafkaesque Koffka","3.2.4","yes","yes","600bd7cfb6416f0113b04181","602110864497cf011d9c0822","0","j","NA","space","space","space","space","j","994","NA","0","9478","2990","4314","994","2","legacy","1024","2","48000","-16","task","5210093","odd","NA","25436","27438","27437","132343","2669","15140","12149","132844","127946","132342","132844","127894","27438","133839","23547","127394","2665","122234","Lexical Decision Task","48","46780","55","yes","1024"
"3.028977705","0","7","frow","non-word","85.7142857143","85.7142857143","855.678571429","855.678571429","black","no","legacy","legacy","legacy","0","uniform","0","undefined","undefined","undefined","0","f","0","0","0","0","55","0","0","0","55","0","51","55","51","0","51","3","55","0","55","02/18/21 14:54:09","The main experiment item","yes","Lexical_Decision_Task.osexp","C:/Users/s5210093/OneDrive - Bournemouth University","no","Andale Mono","no","18","no","white","no","yes","576","legacy","51","51","3","C:/Users/s5210093/OneDrive - Bournemouth University/subject-5210093.csv","legacy","Kafkaesque Koffka","3.2.4","yes","yes","600bd7cfb6416f0113b04181","602110864497cf011d9c0822","0","j","NA","space","space","space","space","j","1138","NA","0","9478","2990","4314","1138","2","legacy","1024","2","48000","-16","task","5210093","odd","NA","25436","27438","27437","135425","2669","15140","12149","135926","127946","135424","135926","135342","27438","137065","23547","127394","2665","133842","Lexical Decision Task","48","47918","56","yes","1024"
"2.708989954","9.28","9","bowl","word","85.9649122807","85.9649122807","854.157894737","854.157894737","black","no","legacy","legacy","legacy","0","uniform","1","undefined","undefined","undefined","1","j","0","0","0","0","56","0","0","0","56","0","52","56","52","0","52","3","56","0","56","02/18/21 14:54:09","The main experiment item","yes","Lexical_Decision_Task.osexp","C:/Users/s5210093/OneDrive - Bournemouth University","no","Andale Mono","no","18","no","white","no","yes","576","legacy","52","52","3","C:/Users/s5210093/OneDrive - Bournemouth University/subject-5210093.csv","legacy","Kafkaesque Koffka","3.2.4","yes","yes","600bd7cfb6416f0113b04181","602110864497cf011d9c0822","0","j","NA","space","space","space","space","j","769","NA","0","9478","2990","4314","769","2","legacy","1024","2","48000","-16","task","5210093","odd","NA","25436","27438","27437","138652","2669","15140","12149","139154","127946","138651","139155","138567","27438","139925","23547","127394","2665","137067","Lexical Decision Task","49","48687","57","yes","1024"
"2.696644658","5.78","2","yolk","word","86.2068965517","86.2068965517","851.948275862","851.948275862","black","no","legacy","legacy","legacy","0","uniform","1","undefined","undefined","undefined","1","j","0","0","0","0","57","0","0","0","57","0","53","57","53","0","53","3","57","0","57","02/18/21 14:54:09","The main experiment item","yes","Lexical_Decision_Task.osexp","C:/Users/s5210093/OneDrive - Bournemouth University","no","Andale Mono","no","18","no","white","no","yes","576","legacy","53","53","3","C:/Users/s5210093/OneDrive - Bournemouth University/subject-5210093.csv","legacy","Kafkaesque Koffka","3.2.4","yes","yes","600bd7cfb6416f0113b04181","602110864497cf011d9c0822","0","j","NA","space","space","space","space","j","726","NA","0","9478","2990","4314","726","2","legacy","1024","2","48000","-16","task","5210093","odd","NA","25436","27438","27437","140521","2669","15140","12149","141022","127946","140519","141023","140428","27438","141749","23547","139927","2665","137067","Lexical Decision Task","50","49413","58","yes","1024"
"2.706148589","0","4","hube","non-word","86.4406779661","86.4406779661","849.338983051","849.338983051","black","no","legacy","legacy","legacy","0","uniform","1","undefined","undefined","undefined","1","f","0","0","0","0","58","0","0","0","58","0","54","58","54","0","54","3","58","0","58","02/18/21 14:54:09","The main experiment item","yes","Lexical_Decision_Task.osexp","C:/Users/s5210093/OneDrive - Bournemouth University","no","Andale Mono","no","18","no","white","no","yes","576","legacy","54","54","3","C:/Users/s5210093/OneDrive - Bournemouth University/subject-5210093.csv","legacy","Kafkaesque Koffka","3.2.4","yes","yes","600bd7cfb6416f0113b04181","602110864497cf011d9c0822","0","f","NA","space","space","space","space","f","698","NA","0","9478","2990","4314","698","2","legacy","1024","2","48000","-16","task","5210093","odd","NA","25436","27438","27437","142338","2669","15140","12149","142842","127946","142336","142842","142252","27438","143541","23547","141752","2665","137067","Lexical Decision Task","51","50111","59","yes","1024"
"3.081107167","0","6","chot","non-word","86.6666666667","86.6666666667","852.95","852.95","black","no","legacy","legacy","legacy","0","uniform","1","undefined","undefined","undefined","1","f","0","0","0","0","59","0","0","0","59","0","55","59","55","0","55","3","59","0","59","02/18/21 14:54:09","The main experiment item","yes","Lexical_Decision_Task.osexp","C:/Users/s5210093/OneDrive - Bournemouth University","no","Andale Mono","no","18","no","white","no","yes","576","legacy","55","55","3","C:/Users/s5210093/OneDrive - Bournemouth University/subject-5210093.csv","legacy","Kafkaesque Koffka","3.2.4","yes","yes","600bd7cfb6416f0113b04181","602110864497cf011d9c0822","0","f","NA","space","space","space","space","f","1066","NA","0","9478","2990","4314","1066","2","legacy","1024","2","48000","-16","task","5210093","odd","NA","25436","27438","27437","144126","2669","15140","12149","144627","127946","144124","144627","144044","27438","145694","23547","143544","2665","137067","Lexical Decision Task","52","51177","60","yes","1024"
"2.880623071","0","9","curp","non-word","86.8852459016","86.8852459016","850.754098361","850.754098361","black","no","legacy","legacy","legacy","0","uniform","1","undefined","undefined","undefined","1","f","0","0","0","0","60","0","0","0","60","0","56","60","56","0","56","3","60","0","60","02/18/21 14:54:09","The main experiment item","yes","Lexical_Decision_Task.osexp","C:/Users/s5210093/OneDrive - Bournemouth University","no","Andale Mono","no","18","no","white","no","yes","576","legacy","56","56","3","C:/Users/s5210093/OneDrive - Bournemouth University/subject-5210093.csv","legacy","Kafkaesque Koffka","3.2.4","yes","yes","600bd7cfb6416f0113b04181","602110864497cf011d9c0822","0","f","NA","space","space","space","space","f","719","NA","0","9478","2990","4314","719","2","legacy","1024","2","48000","-16","task","5210093","odd","NA","25436","27438","27437","146278","2669","15140","12149","146779","127946","146276","146779","146196","27438","147499","23547","145696","2665","137067","Lexical Decision Task","53","51896","61","yes","1024"
"3.137775856","7.39","5","comb","word","85.4838709677","85.4838709677","847.548387097","847.548387097","black","no","legacy","legacy","legacy","0","uniform","0","undefined","undefined","undefined","0","j","0","0","0","0","61","0","0","0","61","0","57","61","57","0","57","3","61","0","61","02/18/21 14:54:09","The main experiment item","yes","Lexical_Decision_Task.osexp","C:/Users/s5210093/OneDrive - Bournemouth University","no","Andale Mono","no","18","no","white","no","yes","576","legacy","57","57","3","C:/Users/s5210093/OneDrive - Bournemouth University/subject-5210093.csv","legacy","Kafkaesque Koffka","3.2.4","yes","yes","600bd7cfb6416f0113b04181","602110864497cf011d9c0822","0","f","NA","space","space","space","space","f","652","NA","0","9478","2990","4314","652","2","legacy","1024","2","48000","-16","task","5210093","odd","NA","25436","27438","27437","148083","2669","15140","12149","148584","127946","148082","148584","148002","27438","149237","23547","147501","2665","137067","Lexical Decision Task","53","52548","62","yes","1024"
"2.69019608","9.01","2","myth","word","85.7142857143","85.7142857143","844.19047619","844.19047619","black","no","legacy","legacy","legacy","0","uniform","1","undefined","undefined","undefined","1","j","0","0","0","0","62","0","0","0","62","0","58","62","58","0","58","3","62","0","62","02/18/21 14:54:09","The main experiment item","yes","Lexical_Decision_Task.osexp","C:/Users/s5210093/OneDrive - Bournemouth University","no","Andale Mono","no","18","no","white","no","yes","576","legacy","58","58","3","C:/Users/s5210093/OneDrive - Bournemouth University/subject-5210093.csv","legacy","Kafkaesque Koffka","3.2.4","yes","yes","600bd7cfb6416f0113b04181","602110864497cf011d9c0822","0","j","NA","space","space","space","space","j","636","NA","0","9478","2990","4314","636","2","legacy","1024","2","48000","-16","task","5210093","odd","NA","25436","27438","27437","150824","2669","15140","12149","151328","127946","150822","151328","150740","27438","151965","23547","147501","2665","149240","Lexical Decision Task","54","53184","63","yes","1024"
"3.397302518","7.01","2","knit","word","85.9375","85.9375","849.390625","849.390625","black","no","legacy","legacy","legacy","0","uniform","1","undefined","undefined","undefined","1","j","0","0","0","0","63","0","0","0","63","0","59","63","59","0","59","3","63","0","63","02/18/21 14:54:09","The main experiment item","yes","Lexical_Decision_Task.osexp","C:/Users/s5210093/OneDrive - Bournemouth University","no","Andale Mono","no","18","no","white","no","yes","576","legacy","59","59","3","C:/Users/s5210093/OneDrive - Bournemouth University/subject-5210093.csv","legacy","Kafkaesque Koffka","3.2.4","yes","yes","600bd7cfb6416f0113b04181","602110864497cf011d9c0822","0","j","NA","space","space","space","space","j","1177","NA","0","9478","2990","4314","1177","2","legacy","1024","2","48000","-16","task","5210093","odd","NA","25436","27438","27437","152560","2669","15140","12149","153061","127946","152558","153061","152467","27438","154239","23547","151967","2665","149240","Lexical Decision Task","55","54361","64","yes","1024"
"3.088136089","8.32","9","worm","word","86.1538461538","86.1538461538","848.984615385","848.984615385","black","no","legacy","legacy","legacy","0","uniform","1","undefined","undefined","undefined","1","j","0","0","0","0","64","0","0","0","64","0","60","64","60","0","60","3","64","0","64","02/18/21 14:54:09","The main experiment item","yes","Lexical_Decision_Task.osexp","C:/Users/s5210093/OneDrive - Bournemouth University","no","Andale Mono","no","18","no","white","no","yes","576","legacy","60","60","3","C:/Users/s5210093/OneDrive - Bournemouth University/subject-5210093.csv","legacy","Kafkaesque Koffka","3.2.4","yes","yes","600bd7cfb6416f0113b04181","602110864497cf011d9c0822","0","j","NA","space","space","space","space","j","823","NA","0","9478","2990","4314","823","2","legacy","1024","2","48000","-16","task","5210093","odd","NA","25436","27438","27437","154824","2669","15140","12149","155325","127946","154823","155325","154742","27438","156149","23547","154242","2665","149240","Lexical Decision Task","56","55184","65","yes","1024"
"2.755364069","7.72","2","hoax","word","86.3636363636","86.3636363636","847.409090909","847.409090909","black","no","legacy","legacy","legacy","0","uniform","1","undefined","undefined","undefined","1","j","0","0","0","0","65","0","0","0","65","0","61","65","61","0","61","3","65","0","65","02/18/21 14:54:09","The main experiment item","yes","Lexical_Decision_Task.osexp","C:/Users/s5210093/OneDrive - Bournemouth University","no","Andale Mono","no","18","no","white","no","yes","576","legacy","61","61","3","C:/Users/s5210093/OneDrive - Bournemouth University/subject-5210093.csv","legacy","Kafkaesque Koffka","3.2.4","yes","yes","600bd7cfb6416f0113b04181","602110864497cf011d9c0822","0","j","NA","space","space","space","space","j","745","NA","0","9478","2990","4314","745","2","legacy","1024","2","48000","-16","task","5210093","odd","NA","25436","27438","27437","156734","2669","15140","12149","157235","127946","156733","157235","156652","27438","157981","23547","156152","2665","149240","Lexical Decision Task","57","55929","66","yes","1024"
"3.705778213","0","6","stin","non-word","86.5671641791","86.5671641791","846.23880597","846.23880597","black","no","legacy","legacy","legacy","0","uniform","1","undefined","undefined","undefined","1","f","0","0","0","0","66","0","0","0","66","0","62","66","62","0","62","3","66","0","66","02/18/21 14:54:09","The main experiment item","yes","Lexical_Decision_Task.osexp","C:/Users/s5210093/OneDrive - Bournemouth University","no","Andale Mono","no","18","no","white","no","yes","576","legacy","62","62","3","C:/Users/s5210093/OneDrive - Bournemouth University/subject-5210093.csv","legacy","Kafkaesque Koffka","3.2.4","yes","yes","600bd7cfb6416f0113b04181","602110864497cf011d9c0822","0","f","NA","space","space","space","space","f","769","NA","0","9478","2990","4314","769","2","legacy","1024","2","48000","-16","task","5210093","odd","NA","25436","27438","27437","158566","2669","15140","12149","159067","127946","158565","159067","158484","27438","159837","23547","157984","2665","149240","Lexical Decision Task","58","56698","67","yes","1024"
"2.67699827","0","6","hulf","non-word","86.7647058824","86.7647058824","846.485294118","846.485294118","black","no","legacy","legacy","legacy","0","uniform","1","undefined","undefined","undefined","1","f","0","0","0","0","67","0","0","0","67","0","63","67","63","0","63","3","67","0","67","02/18/21 14:54:09","The main experiment item","yes","Lexical_Decision_Task.osexp","C:/Users/s5210093/OneDrive - Bournemouth University","no","Andale Mono","no","18","no","white","no","yes","576","legacy","63","63","3","C:/Users/s5210093/OneDrive - Bournemouth University/subject-5210093.csv","legacy","Kafkaesque Koffka","3.2.4","yes","yes","600bd7cfb6416f0113b04181","602110864497cf011d9c0822","0","f","NA","space","space","space","space","f","863","NA","0","9478","2990","4314","863","2","legacy","1024","2","48000","-16","task","5210093","odd","NA","25436","27438","27437","160423","2669","15140","12149","160924","127946","160421","160924","160340","27438","161788","23547","159840","2665","149240","Lexical Decision Task","59","57561","68","yes","1024"
"3.031812271","6.52","3","gulp","word","86.9565217391","86.9565217391","844.942028986","844.942028986","black","no","legacy","legacy","legacy","0","uniform","1","undefined","undefined","undefined","1","j","0","0","0","0","68","0","0","0","68","0","64","68","64","0","64","3","68","0","68","02/18/21 14:54:09","The main experiment item","yes","Lexical_Decision_Task.osexp","C:/Users/s5210093/OneDrive - Bournemouth University","no","Andale Mono","no","18","no","white","no","yes","576","legacy","64","64","3","C:/Users/s5210093/OneDrive - Bournemouth University/subject-5210093.csv","legacy","Kafkaesque Koffka","3.2.4","yes","yes","600bd7cfb6416f0113b04181","602110864497cf011d9c0822","0","j","NA","space","space","space","space","j","740","NA","0","9478","2990","4314","740","2","legacy","1024","2","48000","-16","task","5210093","odd","NA","25436","27438","27437","162387","2669","15140","12149","162888","127946","162385","162888","162291","27438","163629","23547","161791","2665","149240","Lexical Decision Task","60","58301","69","yes","1024"
"3.120025233","0","2","nyst","non-word","87.1428571429","87.1428571429","841.871428571","841.871428571","black","no","legacy","legacy","legacy","0","uniform","1","undefined","undefined","undefined","1","f","0","0","0","0","69","0","0","0","69","0","65","69","65","0","65","3","69","0","69","02/18/21 14:54:09","The main experiment item","yes","Lexical_Decision_Task.osexp","C:/Users/s5210093/OneDrive - Bournemouth University","no","Andale Mono","no","18","no","white","no","yes","576","legacy","65","65","3","C:/Users/s5210093/OneDrive - Bournemouth University/subject-5210093.csv","legacy","Kafkaesque Koffka","3.2.4","yes","yes","600bd7cfb6416f0113b04181","602110864497cf011d9c0822","0","f","NA","space","space","space","space","f","630","NA","0","9478","2990","4314","630","2","legacy","1024","2","48000","-16","task","5210093","odd","NA","25436","27438","27437","164212","2669","15140","12149","164713","127946","164211","164713","164131","27438","165344","23547","163631","2665","149240","Lexical Decision Task","61","58931","70","yes","1024"
"2.799799878","0","4","ciff","non-word","87.323943662","87.323943662","842.408450704","842.408450704","black","no","legacy","legacy","legacy","0","uniform","1","undefined","undefined","undefined","1","f","0","0","0","0","70","0","0","0","70","0","66","70","66","0","66","3","70","0","70","02/18/21 14:54:09","The main experiment item","yes","Lexical_Decision_Task.osexp","C:/Users/s5210093/OneDrive - Bournemouth University","no","Andale Mono","no","18","no","white","no","yes","576","legacy","66","66","3","C:/Users/s5210093/OneDrive - Bournemouth University/subject-5210093.csv","legacy","Kafkaesque Koffka","3.2.4","yes","yes","600bd7cfb6416f0113b04181","602110864497cf011d9c0822","0","f","NA","space","space","space","space","f","880","NA","0","9478","2990","4314","880","2","legacy","1024","2","48000","-16","task","5210093","odd","NA","25436","27438","27437","165928","2669","15140","12149","166429","127946","165927","166429","165846","27438","167310","23547","165346","2665","149240","Lexical Decision Task","62","59811","71","yes","1024"
"2.576725172","0","8","gowl","non-word","87.5","87.5","842.625","842.625","black","no","legacy","legacy","legacy","0","uniform","1","undefined","undefined","undefined","1","f","0","0","0","0","71","0","0","0","71","0","67","71","67","0","67","3","71","0","71","02/18/21 14:54:09","The main experiment item","yes","Lexical_Decision_Task.osexp","C:/Users/s5210093/OneDrive - Bournemouth University","no","Andale Mono","no","18","no","white","no","yes","576","legacy","67","67","3","C:/Users/s5210093/OneDrive - Bournemouth University/subject-5210093.csv","legacy","Kafkaesque Koffka","3.2.4","yes","yes","600bd7cfb6416f0113b04181","602110864497cf011d9c0822","0","f","NA","space","space","space","space","f","858","NA","0","9478","2990","4314","858","2","legacy","1024","2","48000","-16","task","5210093","odd","NA","25436","27438","27437","167893","2669","15140","12149","168394","127946","167892","168394","167812","27438","169253","23547","167312","2665","149240","Lexical Decision Task","63","60669","72","yes","1024"
"3.209246849","0","7","slem","non-word","87.6712328767","87.6712328767","841.630136986","841.630136986","black","no","legacy","legacy","legacy","0","uniform","1","undefined","undefined","undefined","1","f","0","0","0","0","72","0","0","0","72","0","68","72","68","0","68","3","72","0","72","02/18/21 14:54:09","The main experiment item","yes","Lexical_Decision_Task.osexp","C:/Users/s5210093/OneDrive - Bournemouth University","no","Andale Mono","no","18","no","white","no","yes","576","legacy","68","68","3","C:/Users/s5210093/OneDrive - Bournemouth University/subject-5210093.csv","legacy","Kafkaesque Koffka","3.2.4","yes","yes","600bd7cfb6416f0113b04181","602110864497cf011d9c0822","0","f","NA","space","space","space","space","f","770","NA","0","9478","2990","4314","770","2","legacy","1024","2","48000","-16","task","5210093","odd","NA","25436","27438","27437","169838","2669","15140","12149","170340","127946","169836","170340","169756","27438","171111","23547","169256","2665","149240","Lexical Decision Task","64","61439","73","yes","1024"
"3.353210739","0","9","reet","non-word","87.8378378378","87.8378378378","840","840","black","no","legacy","legacy","legacy","0","uniform","1","undefined","undefined","undefined","1","f","0","0","0","0","73","0","0","0","73","0","69","73","69","0","69","3","73","0","73","02/18/21 14:54:09","The main experiment item","yes","Lexical_Decision_Task.osexp","C:/Users/s5210093/OneDrive - Bournemouth University","no","Andale Mono","no","18","no","white","no","yes","576","legacy","69","69","3","C:/Users/s5210093/OneDrive - Bournemouth University/subject-5210093.csv","legacy","Kafkaesque Koffka","3.2.4","yes","yes","600bd7cfb6416f0113b04181","602110864497cf011d9c0822","0","f","NA","space","space","space","space","f","721","NA","0","9478","2990","4314","721","2","legacy","1024","2","48000","-16","task","5210093","odd","NA","25436","27438","27437","171694","2669","15140","12149","172195","127946","171693","172195","171613","27438","172917","23547","171113","2665","149240","Lexical Decision Task","65","62160","74","yes","1024"
"3.257359335","8","6","brew","word","88","88","841.173333333","841.173333333","black","no","legacy","legacy","legacy","0","uniform","1","undefined","undefined","undefined","1","j","0","0","0","0","74","0","0","0","74","0","70","74","70","0","70","3","74","0","74","02/18/21 14:54:09","The main experiment item","yes","Lexical_Decision_Task.osexp","C:/Users/s5210093/OneDrive - Bournemouth University","no","Andale Mono","no","18","no","white","no","yes","576","legacy","70","70","3","C:/Users/s5210093/OneDrive - Bournemouth University/subject-5210093.csv","legacy","Kafkaesque Koffka","3.2.4","yes","yes","600bd7cfb6416f0113b04181","602110864497cf011d9c0822","0","j","NA","space","space","space","space","j","928","NA","0","9478","2990","4314","928","2","legacy","1024","2","48000","-16","task","5210093","odd","NA","25436","27438","27437","173502","2669","15140","12149","174003","127946","173501","174004","173419","27438","174933","23547","172919","2665","149240","Lexical Decision Task","66","63088","75","yes","1024"
"3.259832699","0","9","flar","non-word","88.1578947368","88.1578947368","839.078947368","839.078947368","black","no","legacy","legacy","legacy","0","uniform","1","undefined","undefined","undefined","1","f","0","0","0","0","75","0","0","0","75","0","71","75","71","0","71","3","75","0","75","02/18/21 14:54:09","The main experiment item","yes","Lexical_Decision_Task.osexp","C:/Users/s5210093/OneDrive - Bournemouth University","no","Andale Mono","no","18","no","white","no","yes","576","legacy","71","71","3","C:/Users/s5210093/OneDrive - Bournemouth University/subject-5210093.csv","legacy","Kafkaesque Koffka","3.2.4","yes","yes","600bd7cfb6416f0113b04181","602110864497cf011d9c0822","0","f","NA","space","space","space","space","f","682","NA","0","9478","2990","4314","682","2","legacy","1024","2","48000","-16","task","5210093","odd","NA","25436","27438","27437","175517","2669","15140","12149","176018","127946","175515","176018","175435","27438","176701","23547","174935","2665","149240","Lexical Decision Task","67","63770","76","yes","1024"
"3.003891166","8.05","2","frog","word","88.3116883117","88.3116883117","837.896103896","837.896103896","black","no","legacy","legacy","legacy","0","uniform","1","undefined","undefined","undefined","1","j","0","0","0","0","76","0","0","0","76","0","72","76","72","0","72","3","76","0","76","02/18/21 14:54:09","The main experiment item","yes","Lexical_Decision_Task.osexp","C:/Users/s5210093/OneDrive - Bournemouth University","no","Andale Mono","no","18","no","white","no","yes","576","legacy","72","72","3","C:/Users/s5210093/OneDrive - Bournemouth University/subject-5210093.csv","legacy","Kafkaesque Koffka","3.2.4","yes","yes","600bd7cfb6416f0113b04181","602110864497cf011d9c0822","0","j","NA","space","space","space","space","j","748","NA","0","9478","2990","4314","748","2","legacy","1024","2","48000","-16","task","5210093","odd","NA","25436","27438","27437","177283","2669","15140","12149","177784","127946","177282","177784","177203","27438","178533","23547","176703","2665","149240","Lexical Decision Task","68","64518","77","yes","1024"
"3.094121596","0","8","fode","non-word","88.4615384615","88.4615384615","835.58974359","835.58974359","black","no","legacy","legacy","legacy","0","uniform","1","undefined","undefined","undefined","1","f","0","0","0","0","77","0","0","0","77","0","73","77","73","0","73","3","77","0","77","02/18/21 14:54:09","The main experiment item","yes","Lexical_Decision_Task.osexp","C:/Users/s5210093/OneDrive - Bournemouth University","no","Andale Mono","no","18","no","white","no","yes","576","legacy","73","73","3","C:/Users/s5210093/OneDrive - Bournemouth University/subject-5210093.csv","legacy","Kafkaesque Koffka","3.2.4","yes","yes","600bd7cfb6416f0113b04181","602110864497cf011d9c0822","0","f","NA","space","space","space","space","f","658","NA","0","9478","2990","4314","658","2","legacy","1024","2","48000","-16","task","5210093","odd","NA","25436","27438","27437","179116","2669","15140","12149","179618","127946","179115","179618","179035","27438","180277","23547","178535","2665","149240","Lexical Decision Task","69","65176","78","yes","1024"
"3.347850856","10.51","2","rich","word","88.6075949367","88.6075949367","835.962025316","835.962025316","black","no","legacy","legacy","legacy","0","uniform","1","undefined","undefined","undefined","1","j","0","0","0","0","78","0","0","0","78","0","74","78","74","0","74","3","78","0","78","02/18/21 14:54:09","The main experiment item","yes","Lexical_Decision_Task.osexp","C:/Users/s5210093/OneDrive - Bournemouth University","no","Andale Mono","no","18","no","white","no","yes","576","legacy","74","74","3","C:/Users/s5210093/OneDrive - Bournemouth University/subject-5210093.csv","legacy","Kafkaesque Koffka","3.2.4","yes","yes","600bd7cfb6416f0113b04181","602110864497cf011d9c0822","0","j","NA","space","space","space","space","j","865","NA","0","9478","2990","4314","865","2","legacy","1024","2","48000","-16","task","5210093","odd","NA","25436","27438","27437","180862","2669","15140","12149","181363","127946","180861","181363","180780","27438","182229","23547","180280","2665","149240","Lexical Decision Task","70","66041","79","yes","1024"
"2.9737419","7.69","7","claw","word","88.75","88.75","834.3375","834.3375","black","no","legacy","legacy","legacy","0","uniform","1","undefined","undefined","undefined","1","j","0","0","0","0","79","0","0","0","79","0","75","79","75","0","75","3","79","0","79","02/18/21 14:54:09","The main experiment item","yes","Lexical_Decision_Task.osexp","C:/Users/s5210093/OneDrive - Bournemouth University","no","Andale Mono","no","18","no","white","no","yes","576","legacy","75","75","3","C:/Users/s5210093/OneDrive - Bournemouth University/subject-5210093.csv","legacy","Kafkaesque Koffka","3.2.4","yes","yes","600bd7cfb6416f0113b04181","602110864497cf011d9c0822","0","j","NA","space","space","space","space","j","706","NA","0","9478","2990","4314","706","2","legacy","1024","2","48000","-16","task","5210093","odd","NA","25436","27438","27437","182825","2669","15140","12149","183329","127946","182824","183329","182731","27438","184036","23547","182231","2665","149240","Lexical Decision Task","71","66747","80","yes","1024"
"2.893578687","8.69","3","surf","word","88.8888888889","88.8888888889","832.444444444","832.444444444","black","no","legacy","legacy","legacy","0","uniform","1","undefined","undefined","undefined","1","j","0","0","0","0","80","0","0","0","80","0","76","80","76","0","76","3","80","0","80","02/18/21 14:54:09","The main experiment item","yes","Lexical_Decision_Task.osexp","C:/Users/s5210093/OneDrive - Bournemouth University","no","Andale Mono","no","18","no","white","no","yes","576","legacy","76","76","3","C:/Users/s5210093/OneDrive - Bournemouth University/subject-5210093.csv","legacy","Kafkaesque Koffka","3.2.4","yes","yes","600bd7cfb6416f0113b04181","602110864497cf011d9c0822","0","j","NA","space","space","space","space","j","681","NA","0","9478","2990","4314","681","2","legacy","1024","2","48000","-16","task","5210093","odd","NA","25436","27438","27437","184621","2669","15140","12149","185123","127946","184619","185123","184539","27438","185805","23547","184039","2665","149240","Lexical Decision Task","72","67428","81","yes","1024"
"3.299579929","0","2","flis","non-word","89.0243902439","89.0243902439","831.292682927","831.292682927","black","no","legacy","legacy","legacy","0","uniform","1","undefined","undefined","undefined","1","f","0","0","0","0","81","0","0","0","81","0","77","81","77","0","77","3","81","0","81","02/18/21 14:54:09","The main experiment item","yes","Lexical_Decision_Task.osexp","C:/Users/s5210093/OneDrive - Bournemouth University","no","Andale Mono","no","18","no","white","no","yes","576","legacy","77","77","3","C:/Users/s5210093/OneDrive - Bournemouth University/subject-5210093.csv","legacy","Kafkaesque Koffka","3.2.4","yes","yes","600bd7cfb6416f0113b04181","602110864497cf011d9c0822","0","f","NA","space","space","space","space","f","738","NA","0","9478","2990","4314","738","2","legacy","1024","2","48000","-16","task","5210093","odd","NA","25436","27438","27437","186389","2669","15140","12149","186890","127946","186388","186890","186307","27438","187628","23547","185807","2665","149240","Lexical Decision Task","73","68166","82","yes","1024"
"3.20871002","7.15","8","cram","word","89.156626506","89.156626506","828.506024096","828.506024096","black","no","legacy","legacy","legacy","0","uniform","1","undefined","undefined","undefined","1","j","0","0","0","0","82","0","0","0","82","0","78","82","78","0","78","3","82","0","82","02/18/21 14:54:09","The main experiment item","yes","Lexical_Decision_Task.osexp","C:/Users/s5210093/OneDrive - Bournemouth University","no","Andale Mono","no","18","no","white","no","yes","576","legacy","78","78","3","C:/Users/s5210093/OneDrive - Bournemouth University/subject-5210093.csv","legacy","Kafkaesque Koffka","3.2.4","yes","yes","600bd7cfb6416f0113b04181","602110864497cf011d9c0822","0","j","NA","space","space","space","space","j","600","NA","0","9478","2990","4314","600","2","legacy","1024","2","48000","-16","task","5210093","odd","NA","25436","27438","27437","188213","2669","15140","12149","188715","127946","188211","188715","188131","27438","189315","23547","187631","2665","149240","Lexical Decision Task","74","68766","83","yes","1024"
"3.302475237","0","7","leel","non-word","89.2857142857","89.2857142857","827.035714286","827.035714286","black","no","legacy","legacy","legacy","0","uniform","1","undefined","undefined","undefined","1","f","0","0","0","0","83","0","0","0","83","0","79","83","79","0","79","3","83","0","83","02/18/21 14:54:09","The main experiment item","yes","Lexical_Decision_Task.osexp","C:/Users/s5210093/OneDrive - Bournemouth University","no","Andale Mono","no","18","no","white","no","yes","576","legacy","79","79","3","C:/Users/s5210093/OneDrive - Bournemouth University/subject-5210093.csv","legacy","Kafkaesque Koffka","3.2.4","yes","yes","600bd7cfb6416f0113b04181","602110864497cf011d9c0822","0","f","NA","space","space","space","space","f","705","NA","0","9478","2990","4314","705","2","legacy","1024","2","48000","-16","task","5210093","odd","NA","25436","27438","27437","189902","2669","15140","12149","190403","127946","189900","190403","189818","27438","191109","23547","189318","2665","149240","Lexical Decision Task","75","69471","84","yes","1024"
"2.843025032","0","9","pusk","non-word","89.4117647059","89.4117647059","826.517647059","826.517647059","black","no","legacy","legacy","legacy","0","uniform","1","undefined","undefined","undefined","1","f","0","0","0","0","84","0","0","0","84","0","80","84","80","0","80","3","84","0","84","02/18/21 14:54:09","The main experiment item","yes","Lexical_Decision_Task.osexp","C:/Users/s5210093/OneDrive - Bournemouth University","no","Andale Mono","no","18","no","white","no","yes","576","legacy","80","80","3","C:/Users/s5210093/OneDrive - Bournemouth University/subject-5210093.csv","legacy","Kafkaesque Koffka","3.2.4","yes","yes","600bd7cfb6416f0113b04181","602110864497cf011d9c0822","0","f","NA","space","space","space","space","f","783","NA","0","9478","2990","4314","783","2","legacy","1024","2","48000","-16","task","5210093","odd","NA","25436","27438","27437","191694","2669","15140","12149","192196","127946","191693","192196","191612","27438","192980","23547","191112","2665","149240","Lexical Decision Task","76","70254","85","yes","1024"
"3.039414119","0","9","meep","non-word","89.5348837209","89.5348837209","827.744186047","827.744186047","black","no","legacy","legacy","legacy","0","uniform","1","undefined","undefined","undefined","1","f","0","0","0","0","85","0","0","0","85","0","81","85","81","0","81","3","85","0","85","02/18/21 14:54:09","The main experiment item","yes","Lexical_Decision_Task.osexp","C:/Users/s5210093/OneDrive - Bournemouth University","no","Andale Mono","no","18","no","white","no","yes","576","legacy","81","81","3","C:/Users/s5210093/OneDrive - Bournemouth University/subject-5210093.csv","legacy","Kafkaesque Koffka","3.2.4","yes","yes","600bd7cfb6416f0113b04181","602110864497cf011d9c0822","0","f","NA","space","space","space","space","f","932","NA","0","9478","2990","4314","932","2","legacy","1024","2","48000","-16","task","5210093","odd","NA","25436","27438","27437","193563","2669","15140","12149","194064","127946","193562","194064","193482","27438","194997","23547","192982","2665","149240","Lexical Decision Task","77","71186","86","yes","1024"
"2.845304797","0","6","buct","non-word","89.6551724138","89.6551724138","826.448275862","826.448275862","black","no","legacy","legacy","legacy","0","uniform","1","undefined","undefined","undefined","1","f","0","0","0","0","86","0","0","0","86","0","82","86","82","0","82","3","86","0","86","02/18/21 14:54:09","The main experiment item","yes","Lexical_Decision_Task.osexp","C:/Users/s5210093/OneDrive - Bournemouth University","no","Andale Mono","no","18","no","white","no","yes","576","legacy","82","82","3","C:/Users/s5210093/OneDrive - Bournemouth University/subject-5210093.csv","legacy","Kafkaesque Koffka","3.2.4","yes","yes","600bd7cfb6416f0113b04181","602110864497cf011d9c0822","0","f","NA","space","space","space","space","f","715","NA","0","9478","2990","4314","715","2","legacy","1024","2","48000","-16","task","5210093","odd","NA","25436","27438","27437","195596","2669","15140","12149","196097","127946","195594","196097","195501","27438","196813","23547","195001","2665","149240","Lexical Decision Task","78","71901","87","yes","1024"
"3.443783828","7.65","3","verb","word","89.7727272727","89.7727272727","824.795454545","824.795454545","black","no","legacy","legacy","legacy","0","uniform","1","undefined","undefined","undefined","1","j","0","0","0","0","87","0","0","0","87","0","83","87","83","0","83","3","87","0","87","02/18/21 14:54:09","The main experiment item","yes","Lexical_Decision_Task.osexp","C:/Users/s5210093/OneDrive - Bournemouth University","no","Andale Mono","no","18","no","white","no","yes","576","legacy","83","83","3","C:/Users/s5210093/OneDrive - Bournemouth University/subject-5210093.csv","legacy","Kafkaesque Koffka","3.2.4","yes","yes","600bd7cfb6416f0113b04181","602110864497cf011d9c0822","0","j","NA","space","space","space","space","j","681","NA","0","9478","2990","4314","681","2","legacy","1024","2","48000","-16","task","5210093","odd","NA","25436","27438","27437","197397","2669","15140","12149","197898","127946","197396","197898","197315","27438","198580","23547","196815","2665","149240","Lexical Decision Task","79","72582","88","yes","1024"
"3.197740804","6.74","3","ache","word","88.7640449438","88.7640449438","822.887640449","822.887640449","black","no","legacy","legacy","legacy","0","uniform","0","undefined","undefined","undefined","0","j","0","0","0","0","88","0","0","0","88","0","84","88","84","0","84","3","88","0","88","02/18/21 14:54:09","The main experiment item","yes","Lexical_Decision_Task.osexp","C:/Users/s5210093/OneDrive - Bournemouth University","no","Andale Mono","no","18","no","white","no","yes","576","legacy","84","84","3","C:/Users/s5210093/OneDrive - Bournemouth University/subject-5210093.csv","legacy","Kafkaesque Koffka","3.2.4","yes","yes","600bd7cfb6416f0113b04181","602110864497cf011d9c0822","0","f","NA","space","space","space","space","f","655","NA","0","9478","2990","4314","655","2","legacy","1024","2","48000","-16","task","5210093","odd","NA","25436","27438","27437","199164","2669","15140","12149","199668","127946","199163","199668","199083","27438","200324","23547","198583","2665","149240","Lexical Decision Task","79","73237","89","yes","1024"
"2.898725182","0","7","turl","non-word","88.8888888889","88.8888888889","821.111111111","821.111111111","black","no","legacy","legacy","legacy","0","uniform","1","undefined","undefined","undefined","1","f","0","0","0","0","89","0","0","0","89","0","85","89","85","0","85","3","89","0","89","02/18/21 14:54:09","The main experiment item","yes","Lexical_Decision_Task.osexp","C:/Users/s5210093/OneDrive - Bournemouth University","no","Andale Mono","no","18","no","white","no","yes","576","legacy","85","85","3","C:/Users/s5210093/OneDrive - Bournemouth University/subject-5210093.csv","legacy","Kafkaesque Koffka","3.2.4","yes","yes","600bd7cfb6416f0113b04181","602110864497cf011d9c0822","0","f","NA","space","space","space","space","f","663","NA","0","9478","2990","4314","663","2","legacy","1024","2","48000","-16","task","5210093","odd","NA","25436","27438","27437","201911","2669","15140","12149","202412","127946","201909","202412","201827","27438","203076","23547","198583","2665","200327","Lexical Decision Task","80","73900","90","yes","1024"
"2.86332286","6.71","2","feud","word","87.9120879121","87.9120879121","820.307692308","820.307692308","black","no","legacy","legacy","legacy","0","uniform","0","undefined","undefined","undefined","0","j","0","0","0","0","90","0","0","0","90","0","86","90","86","0","86","3","90","0","90","02/18/21 14:54:09","The main experiment item","yes","Lexical_Decision_Task.osexp","C:/Users/s5210093/OneDrive - Bournemouth University","no","Andale Mono","no","18","no","white","no","yes","576","legacy","86","86","3","C:/Users/s5210093/OneDrive - Bournemouth University/subject-5210093.csv","legacy","Kafkaesque Koffka","3.2.4","yes","yes","600bd7cfb6416f0113b04181","602110864497cf011d9c0822","0","f","NA","space","space","space","space","f","748","NA","0","9478","2990","4314","748","2","legacy","1024","2","48000","-16","task","5210093","odd","NA","25436","27438","27437","203674","2669","15140","12149","204175","127946","203673","204175","203579","27438","204924","23547","203079","2665","200327","Lexical Decision Task","80","74648","91","yes","1024"
"3.168890155","0","6","thet","non-word","88.0434782609","88.0434782609","819.815217391","819.815217391","black","no","legacy","legacy","legacy","0","uniform","1","undefined","undefined","undefined","1","f","0","0","0","0","91","0","0","0","91","0","87","91","87","0","87","3","91","0","91","02/18/21 14:54:09","The main experiment item","yes","Lexical_Decision_Task.osexp","C:/Users/s5210093/OneDrive - Bournemouth University","no","Andale Mono","no","18","no","white","no","yes","576","legacy","87","87","3","C:/Users/s5210093/OneDrive - Bournemouth University/subject-5210093.csv","legacy","Kafkaesque Koffka","3.2.4","yes","yes","600bd7cfb6416f0113b04181","602110864497cf011d9c0822","0","f","NA","space","space","space","space","f","775","NA","0","9478","2990","4314","775","2","legacy","1024","2","48000","-16","task","5210093","odd","NA","25436","27438","27437","206511","2669","15140","12149","207012","127946","206509","207012","206427","27438","207788","23547","203079","2665","204926","Lexical Decision Task","81","75423","92","yes","1024"
"2.996511672","0","7","hoil","non-word","87.0967741935","87.0967741935","822.086021505","822.086021505","black","no","legacy","legacy","legacy","0","uniform","0","undefined","undefined","undefined","0","f","0","0","0","0","92","0","0","0","92","0","88","92","88","0","88","3","92","0","92","02/18/21 14:54:09","The main experiment item","yes","Lexical_Decision_Task.osexp","C:/Users/s5210093/OneDrive - Bournemouth University","no","Andale Mono","no","18","no","white","no","yes","576","legacy","88","88","3","C:/Users/s5210093/OneDrive - Bournemouth University/subject-5210093.csv","legacy","Kafkaesque Koffka","3.2.4","yes","yes","600bd7cfb6416f0113b04181","602110864497cf011d9c0822","0","j","NA","space","space","space","space","j","1031","NA","0","9478","2990","4314","1031","2","legacy","1024","2","48000","-16","task","5210093","odd","NA","25436","27438","27437","208373","2669","15140","12149","208876","127946","208371","208876","208291","27438","209907","23547","207791","2665","204926","Lexical Decision Task","81","76454","93","yes","1024"
"2.897810299","0","5","glur","non-word","87.2340425532","87.2340425532","821","821","black","no","legacy","legacy","legacy","0","uniform","1","undefined","undefined","undefined","1","f","0","0","0","0","93","0","0","0","93","0","89","93","89","0","89","3","93","0","93","02/18/21 14:54:09","The main experiment item","yes","Lexical_Decision_Task.osexp","C:/Users/s5210093/OneDrive - Bournemouth University","no","Andale Mono","no","18","no","white","no","yes","576","legacy","89","89","3","C:/Users/s5210093/OneDrive - Bournemouth University/subject-5210093.csv","legacy","Kafkaesque Koffka","3.2.4","yes","yes","600bd7cfb6416f0113b04181","602110864497cf011d9c0822","0","f","NA","space","space","space","space","f","720","NA","0","9478","2990","4314","720","2","legacy","1024","2","48000","-16","task","5210093","odd","NA","25436","27438","27437","211494","2669","15140","12149","211995","127946","211493","211995","211410","27438","212716","23547","207791","2665","209910","Lexical Decision Task","82","77174","94","yes","1024"
"2.728085817","10.02","9","bike","word","87.3684210526","87.3684210526","819.684210526","819.684210526","black","no","legacy","legacy","legacy","0","uniform","1","undefined","undefined","undefined","1","j","0","0","0","0","94","0","0","0","94","0","90","94","90","0","90","3","94","0","94","02/18/21 14:54:09","The main experiment item","yes","Lexical_Decision_Task.osexp","C:/Users/s5210093/OneDrive - Bournemouth University","no","Andale Mono","no","18","no","white","no","yes","576","legacy","90","90","3","C:/Users/s5210093/OneDrive - Bournemouth University/subject-5210093.csv","legacy","Kafkaesque Koffka","3.2.4","yes","yes","600bd7cfb6416f0113b04181","602110864497cf011d9c0822","0","j","NA","space","space","space","space","j","696","NA","0","9478","2990","4314","696","2","legacy","1024","2","48000","-16","task","5210093","odd","NA","25436","27438","27437","213301","2669","15140","12149","213802","127946","213299","213802","213219","27438","214499","23547","212718","2665","209910","Lexical Decision Task","83","77870","95","yes","1024"
"3.372543801","9.24","8","coat","word","87.5","87.5","817.90625","817.90625","black","no","legacy","legacy","legacy","0","uniform","1","undefined","undefined","undefined","1","j","0","0","0","0","95","0","0","0","95","0","91","95","91","0","91","3","95","0","95","02/18/21 14:54:09","The main experiment item","yes","Lexical_Decision_Task.osexp","C:/Users/s5210093/OneDrive - Bournemouth University","no","Andale Mono","no","18","no","white","no","yes","576","legacy","91","91","3","C:/Users/s5210093/OneDrive - Bournemouth University/subject-5210093.csv","legacy","Kafkaesque Koffka","3.2.4","yes","yes","600bd7cfb6416f0113b04181","602110864497cf011d9c0822","0","j","NA","space","space","space","space","j","649","NA","0","9478","2990","4314","649","2","legacy","1024","2","48000","-16","task","5210093","odd","NA","25436","27438","27437","215084","2669","15140","12149","215585","127946","215082","215585","215002","27438","216235","23547","214502","2665","209910","Lexical Decision Task","84","78519","96","yes","1024"
"3.16326079","0","5","parg","non-word","87.6288659794","87.6288659794","816","816","black","no","legacy","legacy","legacy","0","uniform","1","undefined","undefined","undefined","1","f","0","0","0","0","96","0","0","0","96","0","92","96","92","0","92","3","96","0","96","02/18/21 14:54:09","The main experiment item","yes","Lexical_Decision_Task.osexp","C:/Users/s5210093/OneDrive - Bournemouth University","no","Andale Mono","no","18","no","white","no","yes","576","legacy","92","92","3","C:/Users/s5210093/OneDrive - Bournemouth University/subject-5210093.csv","legacy","Kafkaesque Koffka","3.2.4","yes","yes","600bd7cfb6416f0113b04181","602110864497cf011d9c0822","0","f","NA","space","space","space","space","f","633","NA","0","9478","2990","4314","633","2","legacy","1024","2","48000","-16","task","5210093","odd","NA","25436","27438","27437","216818","2669","15140","12149","217320","127946","216817","217320","216737","27438","217954","23547","216237","2665","209910","Lexical Decision Task","85","79152","97","yes","1024"
"3.145920145","8.51","8","flew","word","87.7551020408","87.7551020408","814.581632653","814.581632653","black","no","legacy","legacy","legacy","0","uniform","1","undefined","undefined","undefined","1","j","0","0","0","0","97","0","0","0","97","0","93","97","93","0","93","3","97","0","97","02/18/21 14:54:09","The main experiment item","yes","Lexical_Decision_Task.osexp","C:/Users/s5210093/OneDrive - Bournemouth University","no","Andale Mono","no","18","no","white","no","yes","576","legacy","93","93","3","C:/Users/s5210093/OneDrive - Bournemouth University/subject-5210093.csv","legacy","Kafkaesque Koffka","3.2.4","yes","yes","600bd7cfb6416f0113b04181","602110864497cf011d9c0822","0","j","NA","space","space","space","space","j","677","NA","0","9478","2990","4314","677","2","legacy","1024","2","48000","-16","task","5210093","odd","NA","25436","27438","27437","218540","2669","15140","12149","219044","127946","218539","219044","218457","27438","219722","23547","217957","2665","209910","Lexical Decision Task","86","79829","98","yes","1024"
