"Log_BG","Log_Freq_HAL","Ortho_N","Stimulus","Type","acc","accuracy","average_response_time","avg_rt","background","bidi","canvas_backend","clock_backend","color_backend","compensation","coordinates","correct","correct_Experimental_intro","correct_Introduction","correct_Practice_intro","correct_experimenter_kb","correct_response","count_End_Of_Experiment","count_End_Of_Practice","count_Experimental_Loop","count_Experimental_intro","count_Fixation","count_Introduction","count_Practice_Loop","count_Practice_intro","count_Stimulus","count_block_break_feedback","count_experimental_sequence","count_experimenter_kb","count_increment_trial_count","count_init_trial_count","count_logger","count_practice_sequence","count_right","count_task","count_wrong","datetime","description","disable_garbage_collection","experiment_file","experiment_path","font_bold","font_family","font_italic","font_size","font_underline","foreground","form_clicks","fullscreen","height","keyboard_backend","live_row","live_row_Experimental_Loop","live_row_Practice_Loop","logfile","mouse_backend","opensesame_codename","opensesame_version","osf_always_upload_data","osf_always_upload_experiment","osf_datanode_id","osf_id","repeat_cycle","response","response_End_Of_Experiment","response_Experimental_intro","response_Introduction","response_Practice_intro","response_block_break_feedback","response_experimenter_kb","response_time","response_time_End_Of_Experiment","response_time_Experimental_intro","response_time_Introduction","response_time_Practice_intro","response_time_block_break_feedback","response_time_experimenter_kb","round_decimals","sampler_backend","sound_buf_size","sound_channels","sound_freq","sound_sample_size","start","subject_nr","subject_parity","time_End_Of_Experiment","time_End_Of_Practice","time_Experimental_Loop","time_Experimental_intro","time_Fixation","time_Introduction","time_Practice_Loop","time_Practice_intro","time_Stimulus","time_block_break_feedback","time_experimental_sequence","time_experimenter_kb","time_increment_trial_count","time_init_trial_count","time_logger","time_practice_sequence","time_right","time_task","time_wrong","title","total_correct","total_response_time","total_responses","uniform_coordinates","width"
"3.431095062","5.74","9","perk","word","80","80","1689.8","1689.8","black","no","legacy","legacy","legacy","0","uniform","1","undefined","undefined","undefined","1","j","0","0","0","0","4","0","0","0","4","NA","0","4","0","0","0","3","4","0","4","Thu Mar  4 17:46:43 2021","The main experiment item","yes","Lexical_Decision_Task.osexp","C:/Users/saffr/Documents","no","Andale Mono","no","18","no","white","no","yes","576","legacy","0","0","3","C:/Users/saffr/Documents/subject-5210402 lexical  decision task.csv","legacy","Lentiform Loewenfeld","3.3.8","yes","yes","600bd7cfb6416f0113b04181","602110864497cf011d9c0822","0","j","NA","j","space","space","NA","j","885","NA","4632","15015","12584","NA","885","2","legacy","1024","2","48000","-16","task","5210402","even","NA","43247","49882","45249","49932","2476","30077","17493","50434","NA","49930","50434","NA","49882","51319","41385","42707","2470","33815","Lexical Decision Task","4","8449","5","yes","1024"
"3.374137706","10.21","4","tree","word","83.33333333333333","83.33333333333333","1493.1666666666667","1493.1666666666667","black","no","legacy","legacy","legacy","0","uniform","1","undefined","undefined","undefined","1","j","0","0","0","0","5","0","0","0","5","NA","1","5","1","0","1","3","5","0","5","Thu Mar  4 17:46:43 2021","The main experiment item","yes","Lexical_Decision_Task.osexp","C:/Users/saffr/Documents","no","Andale Mono","no","18","no","white","no","yes","576","legacy","1","1","3","C:/Users/saffr/Documents/subject-5210402 lexical  decision task.csv","legacy","Lentiform Loewenfeld","3.3.8","yes","yes","600bd7cfb6416f0113b04181","602110864497cf011d9c0822","0","j","NA","j","space","space","NA","j","510","NA","4632","15015","12584","NA","510","2","legacy","1024","2","48000","-16","task","5210402","even","NA","43247","49882","45249","51951","2476","30077","17493","52453","NA","51949","52453","51851","49882","52964","41385","51350","2470","33815","Lexical Decision Task","5","8959","6","yes","1024"
"2.8162413","0","5","nusk","non-word","85.71428571428571","85.71428571428571","1439.142857142857","1439.142857142857","black","no","legacy","legacy","legacy","0","uniform","1","undefined","undefined","undefined","1","f","0","0","0","0","6","0","0","0","6","NA","2","6","2","0","2","3","6","0","6","Thu Mar  4 17:46:43 2021","The main experiment item","yes","Lexical_Decision_Task.osexp","C:/Users/saffr/Documents","no","Andale Mono","no","18","no","white","no","yes","576","legacy","2","2","3","C:/Users/saffr/Documents/subject-5210402 lexical  decision task.csv","legacy","Lentiform Loewenfeld","3.3.8","yes","yes","600bd7cfb6416f0113b04181","602110864497cf011d9c0822","0","f","NA","j","space","space","NA","f","1115","NA","4632","15015","12584","NA","1115","2","legacy","1024","2","48000","-16","task","5210402","even","NA","43247","49882","45249","53595","2476","30077","17493","54097","NA","53594","54097","53502","49882","55213","41385","53002","2470","33815","Lexical Decision Task","6","10074","7","yes","1024"
"2.812467698","0","7","hafe","non-word","87.5","87.5","1378.625","1378.625","black","no","legacy","legacy","legacy","0","uniform","1","undefined","undefined","undefined","1","f","0","0","0","0","7","0","0","0","7","NA","3","7","3","0","3","3","7","0","7","Thu Mar  4 17:46:43 2021","The main experiment item","yes","Lexical_Decision_Task.osexp","C:/Users/saffr/Documents","no","Andale Mono","no","18","no","white","no","yes","576","legacy","3","3","3","C:/Users/saffr/Documents/subject-5210402 lexical  decision task.csv","legacy","Lentiform Loewenfeld","3.3.8","yes","yes","600bd7cfb6416f0113b04181","602110864497cf011d9c0822","0","f","NA","j","space","space","NA","f","955","NA","4632","15015","12584","NA","955","2","legacy","1024","2","48000","-16","task","5210402","even","NA","43247","49882","45249","55862","2476","30077","17493","56364","NA","55859","56364","55753","49882","57319","41385","55253","2470","33815","Lexical Decision Task","7","11029","8","yes","1024"
"3.159867847","5.98","5","brim","word","88.88888888888889","88.88888888888889","1287.888888888889","1287.888888888889","black","no","legacy","legacy","legacy","0","uniform","1","undefined","undefined","undefined","1","j","0","0","0","0","8","0","0","0","8","NA","4","8","4","0","4","3","8","0","8","Thu Mar  4 17:46:43 2021","The main experiment item","yes","Lexical_Decision_Task.osexp","C:/Users/saffr/Documents","no","Andale Mono","no","18","no","white","no","yes","576","legacy","4","4","3","C:/Users/saffr/Documents/subject-5210402 lexical  decision task.csv","legacy","Lentiform Loewenfeld","3.3.8","yes","yes","600bd7cfb6416f0113b04181","602110864497cf011d9c0822","0","j","NA","j","space","space","NA","j","562","NA","4632","15015","12584","NA","562","2","legacy","1024","2","48000","-16","task","5210402","even","NA","43247","49882","45249","57952","2476","30077","17493","58454","NA","57951","58454","57847","49882","59017","41385","57347","2470","33815","Lexical Decision Task","8","11591","9","yes","1024"
"2.899092422","7.27","6","snag","word","90","90","1242.5","1242.5","black","no","legacy","legacy","legacy","0","uniform","1","undefined","undefined","undefined","1","j","0","0","0","0","9","0","0","0","9","NA","5","9","5","0","5","3","9","0","9","Thu Mar  4 17:46:43 2021","The main experiment item","yes","Lexical_Decision_Task.osexp","C:/Users/saffr/Documents","no","Andale Mono","no","18","no","white","no","yes","576","legacy","5","5","3","C:/Users/saffr/Documents/subject-5210402 lexical  decision task.csv","legacy","Lentiform Loewenfeld","3.3.8","yes","yes","600bd7cfb6416f0113b04181","602110864497cf011d9c0822","0","j","NA","j","space","space","NA","j","834","NA","4632","15015","12584","NA","834","2","legacy","1024","2","48000","-16","task","5210402","even","NA","43247","49882","45249","59662","2476","30077","17493","60164","NA","59659","60164","59558","49882","60999","41385","59058","2470","33815","Lexical Decision Task","9","12425","10","yes","1024"
"3.16326079","0","5","parg","non-word","90.9090909090909","90.9090909090909","1197.4545454545455","1197.4545454545455","black","no","legacy","legacy","legacy","0","uniform","1","undefined","undefined","undefined","1","f","0","0","0","0","10","0","0","0","10","NA","6","10","6","0","6","3","10","0","10","Thu Mar  4 17:46:43 2021","The main experiment item","yes","Lexical_Decision_Task.osexp","C:/Users/saffr/Documents","no","Andale Mono","no","18","no","white","no","yes","576","legacy","6","6","3","C:/Users/saffr/Documents/subject-5210402 lexical  decision task.csv","legacy","Lentiform Loewenfeld","3.3.8","yes","yes","600bd7cfb6416f0113b04181","602110864497cf011d9c0822","0","f","NA","j","space","space","NA","f","747","NA","4632","15015","12584","NA","747","2","legacy","1024","2","48000","-16","task","5210402","even","NA","43247","49882","45249","61607","2476","30077","17493","62109","NA","61605","62109","61521","49882","62857","41385","61021","2470","33815","Lexical Decision Task","10","13172","11","yes","1024"
"3.269668578","0","7","trag","non-word","91.66666666666667","91.66666666666667","1191.75","1191.75","black","no","legacy","legacy","legacy","0","uniform","1","undefined","undefined","undefined","1","f","0","0","0","0","11","0","0","0","11","NA","7","11","7","0","7","3","11","0","11","Thu Mar  4 17:46:43 2021","The main experiment item","yes","Lexical_Decision_Task.osexp","C:/Users/saffr/Documents","no","Andale Mono","no","18","no","white","no","yes","576","legacy","7","7","3","C:/Users/saffr/Documents/subject-5210402 lexical  decision task.csv","legacy","Lentiform Loewenfeld","3.3.8","yes","yes","600bd7cfb6416f0113b04181","602110864497cf011d9c0822","0","f","NA","j","space","space","NA","f","1129","NA","4632","15015","12584","NA","1129","2","legacy","1024","2","48000","-16","task","5210402","even","NA","43247","49882","45249","63474","2476","30077","17493","63976","NA","63472","63976","63380","49882","65106","41385","62879","2470","33815","Lexical Decision Task","11","14301","12","yes","1024"
"3.137775856","7.39","5","comb","word","92.3076923076923","92.3076923076923","1153.7692307692307","1153.7692307692307","black","no","legacy","legacy","legacy","0","uniform","1","undefined","undefined","undefined","1","j","0","0","0","0","12","0","0","0","12","NA","8","12","8","0","8","3","12","0","12","Thu Mar  4 17:46:43 2021","The main experiment item","yes","Lexical_Decision_Task.osexp","C:/Users/saffr/Documents","no","Andale Mono","no","18","no","white","no","yes","576","legacy","8","8","3","C:/Users/saffr/Documents/subject-5210402 lexical  decision task.csv","legacy","Lentiform Loewenfeld","3.3.8","yes","yes","600bd7cfb6416f0113b04181","602110864497cf011d9c0822","0","j","NA","j","space","space","NA","j","698","NA","4632","15015","12584","NA","698","2","legacy","1024","2","48000","-16","task","5210402","even","NA","43247","49882","45249","65760","2476","30077","17493","66262","NA","65757","66262","65637","49882","66961","41385","65137","2470","33815","Lexical Decision Task","12","14999","13","yes","1024"
"3.378276681","6.39","8","bran","word","92.85714285714286","92.85714285714286","1137.5","1137.5","black","no","legacy","legacy","legacy","0","uniform","1","undefined","undefined","undefined","1","j","0","0","0","0","13","0","0","0","13","NA","9","13","9","0","9","3","13","0","13","Thu Mar  4 17:46:43 2021","The main experiment item","yes","Lexical_Decision_Task.osexp","C:/Users/saffr/Documents","no","Andale Mono","no","18","no","white","no","yes","576","legacy","9","9","3","C:/Users/saffr/Documents/subject-5210402 lexical  decision task.csv","legacy","Lentiform Loewenfeld","3.3.8","yes","yes","600bd7cfb6416f0113b04181","602110864497cf011d9c0822","0","j","NA","j","space","space","NA","j","926","NA","4632","15015","12584","NA","926","2","legacy","1024","2","48000","-16","task","5210402","even","NA","43247","49882","45249","67586","2476","30077","17493","68088","NA","67583","68088","67491","49882","69014","41385","66991","2470","33815","Lexical Decision Task","13","15925","14","yes","1024"
"3.121778632","0","9","sark","non-word","93.33333333333333","93.33333333333333","1155.0666666666666","1155.0666666666666","black","no","legacy","legacy","legacy","0","uniform","1","undefined","undefined","undefined","1","f","0","0","0","0","14","0","0","0","14","NA","10","14","10","0","10","3","14","0","14","Thu Mar  4 17:46:43 2021","The main experiment item","yes","Lexical_Decision_Task.osexp","C:/Users/saffr/Documents","no","Andale Mono","no","18","no","white","no","yes","576","legacy","10","10","3","C:/Users/saffr/Documents/subject-5210402 lexical  decision task.csv","legacy","Lentiform Loewenfeld","3.3.8","yes","yes","600bd7cfb6416f0113b04181","602110864497cf011d9c0822","0","f","NA","j","space","space","NA","f","1401","NA","4632","15015","12584","NA","1401","2","legacy","1024","2","48000","-16","task","5210402","even","NA","43247","49882","45249","69618","2476","30077","17493","70120","NA","69616","70120","69536","49882","71521","41385","69035","2470","33815","Lexical Decision Task","14","17326","15","yes","1024"
"2.67699827","0","6","hulf","non-word","93.75","93.75","1138.0625","1138.0625","black","no","legacy","legacy","legacy","0","uniform","1","undefined","undefined","undefined","1","f","0","0","0","0","15","0","0","0","15","NA","11","15","11","0","11","3","15","0","15","Thu Mar  4 17:46:43 2021","The main experiment item","yes","Lexical_Decision_Task.osexp","C:/Users/saffr/Documents","no","Andale Mono","no","18","no","white","no","yes","576","legacy","11","11","3","C:/Users/saffr/Documents/subject-5210402 lexical  decision task.csv","legacy","Lentiform Loewenfeld","3.3.8","yes","yes","600bd7cfb6416f0113b04181","602110864497cf011d9c0822","0","f","NA","j","space","space","NA","f","883","NA","4632","15015","12584","NA","883","2","legacy","1024","2","48000","-16","task","5210402","even","NA","43247","49882","45249","72158","2476","30077","17493","72660","NA","72155","72661","72051","49882","73544","41385","71551","2470","33815","Lexical Decision Task","15","18209","16","yes","1024"
"3.216517684","10.87","3","film","word","94.11764705882354","94.11764705882354","1104","1104","black","no","legacy","legacy","legacy","0","uniform","1","undefined","undefined","undefined","1","j","0","0","0","0","16","0","0","0","16","NA","12","16","12","0","12","3","16","0","16","Thu Mar  4 17:46:43 2021","The main experiment item","yes","Lexical_Decision_Task.osexp","C:/Users/saffr/Documents","no","Andale Mono","no","18","no","white","no","yes","576","legacy","12","12","3","C:/Users/saffr/Documents/subject-5210402 lexical  decision task.csv","legacy","Lentiform Loewenfeld","3.3.8","yes","yes","600bd7cfb6416f0113b04181","602110864497cf011d9c0822","0","j","NA","j","space","space","NA","j","559","NA","4632","15015","12584","NA","559","2","legacy","1024","2","48000","-16","task","5210402","even","NA","43247","49882","45249","74173","2476","30077","17493","74675","NA","74171","74675","74054","49882","75234","41385","73554","2470","33815","Lexical Decision Task","16","18768","17","yes","1024"
"2.990042563","6.64","9","plow","word","88.88888888888889","88.88888888888889","1104.9444444444443","1104.9444444444443","black","no","legacy","legacy","legacy","0","uniform","0","undefined","undefined","undefined","0","j","0","0","0","0","17","0","0","0","17","NA","13","17","13","0","13","3","17","0","17","Thu Mar  4 17:46:43 2021","The main experiment item","yes","Lexical_Decision_Task.osexp","C:/Users/saffr/Documents","no","Andale Mono","no","18","no","white","no","yes","576","legacy","13","13","3","C:/Users/saffr/Documents/subject-5210402 lexical  decision task.csv","legacy","Lentiform Loewenfeld","3.3.8","yes","yes","600bd7cfb6416f0113b04181","602110864497cf011d9c0822","0","f","NA","j","space","space","NA","f","1121","NA","4632","15015","12584","NA","1121","2","legacy","1024","2","48000","-16","task","5210402","even","NA","43247","49882","45249","75858","2476","30077","17493","76360","NA","75856","76360","75766","49882","77482","41385","75265","2470","33815","Lexical Decision Task","16","19889","18","yes","1024"
"2.898725182","0","7","turl","non-word","89.47368421052632","89.47368421052632","1100.3157894736842","1100.3157894736842","black","no","legacy","legacy","legacy","0","uniform","1","undefined","undefined","undefined","1","f","0","0","0","0","18","0","0","0","18","NA","14","18","14","0","14","3","18","0","18","Thu Mar  4 17:46:43 2021","The main experiment item","yes","Lexical_Decision_Task.osexp","C:/Users/saffr/Documents","no","Andale Mono","no","18","no","white","no","yes","576","legacy","14","14","3","C:/Users/saffr/Documents/subject-5210402 lexical  decision task.csv","legacy","Lentiform Loewenfeld","3.3.8","yes","yes","600bd7cfb6416f0113b04181","602110864497cf011d9c0822","0","f","NA","j","space","space","NA","f","1017","NA","4632","15015","12584","NA","1017","2","legacy","1024","2","48000","-16","task","5210402","even","NA","43247","49882","45249","79132","2476","30077","17493","79634","NA","79129","79634","79008","49882","80652","41385","75265","2470","77508","Lexical Decision Task","17","20906","19","yes","1024"
"3.492014979","0","9","yine","non-word","90","90","1093.2","1093.2","black","no","legacy","legacy","legacy","0","uniform","1","undefined","undefined","undefined","1","f","0","0","0","0","19","0","0","0","19","NA","15","19","15","0","15","3","19","0","19","Thu Mar  4 17:46:43 2021","The main experiment item","yes","Lexical_Decision_Task.osexp","C:/Users/saffr/Documents","no","Andale Mono","no","18","no","white","no","yes","576","legacy","15","15","3","C:/Users/saffr/Documents/subject-5210402 lexical  decision task.csv","legacy","Lentiform Loewenfeld","3.3.8","yes","yes","600bd7cfb6416f0113b04181","602110864497cf011d9c0822","0","f","NA","j","space","space","NA","f","958","NA","4632","15015","12584","NA","958","2","legacy","1024","2","48000","-16","task","5210402","even","NA","43247","49882","45249","81252","2476","30077","17493","81754","NA","81250","81754","81158","49882","82712","41385","80658","2470","77508","Lexical Decision Task","18","21864","20","yes","1024"
"3.090140555","5.81","8","pout","word","90.47619047619048","90.47619047619048","1077","1077","black","no","legacy","legacy","legacy","0","uniform","1","undefined","undefined","undefined","1","j","0","0","0","0","20","0","0","0","20","NA","16","20","16","0","16","3","20","0","20","Thu Mar  4 17:46:43 2021","The main experiment item","yes","Lexical_Decision_Task.osexp","C:/Users/saffr/Documents","no","Andale Mono","no","18","no","white","no","yes","576","legacy","16","16","3","C:/Users/saffr/Documents/subject-5210402 lexical  decision task.csv","legacy","Lentiform Loewenfeld","3.3.8","yes","yes","600bd7cfb6416f0113b04181","602110864497cf011d9c0822","0","j","NA","j","space","space","NA","j","753","NA","4632","15015","12584","NA","753","2","legacy","1024","2","48000","-16","task","5210402","even","NA","43247","49882","45249","83312","2476","30077","17493","83814","NA","83309","83814","83220","49882","84568","41385","82720","2470","77508","Lexical Decision Task","19","22617","21","yes","1024"
"2.972819734","0","4","scew","non-word","86.36363636363636","86.36363636363636","1106.9545454545455","1106.9545454545455","black","no","legacy","legacy","legacy","0","uniform","0","undefined","undefined","undefined","0","f","0","0","0","0","21","0","0","0","21","NA","17","21","17","0","17","3","21","0","21","Thu Mar  4 17:46:43 2021","The main experiment item","yes","Lexical_Decision_Task.osexp","C:/Users/saffr/Documents","no","Andale Mono","no","18","no","white","no","yes","576","legacy","17","17","3","C:/Users/saffr/Documents/subject-5210402 lexical  decision task.csv","legacy","Lentiform Loewenfeld","3.3.8","yes","yes","600bd7cfb6416f0113b04181","602110864497cf011d9c0822","0","j","NA","j","space","space","NA","j","1736","NA","4632","15015","12584","NA","1736","2","legacy","1024","2","48000","-16","task","5210402","even","NA","43247","49882","45249","85182","2476","30077","17493","85684","NA","85179","85684","85089","49882","87421","41385","84589","2470","77508","Lexical Decision Task","19","24353","22","yes","1024"
"2.873320602","0","4","lurg","non-word","86.95652173913044","86.95652173913044","1098.4782608695652","1098.4782608695652","black","no","legacy","legacy","legacy","0","uniform","1","undefined","undefined","undefined","1","f","0","0","0","0","22","0","0","0","22","NA","18","22","18","0","18","3","22","0","22","Thu Mar  4 17:46:43 2021","The main experiment item","yes","Lexical_Decision_Task.osexp","C:/Users/saffr/Documents","no","Andale Mono","no","18","no","white","no","yes","576","legacy","18","18","3","C:/Users/saffr/Documents/subject-5210402 lexical  decision task.csv","legacy","Lentiform Loewenfeld","3.3.8","yes","yes","600bd7cfb6416f0113b04181","602110864497cf011d9c0822","0","f","NA","j","space","space","NA","f","912","NA","4632","15015","12584","NA","912","2","legacy","1024","2","48000","-16","task","5210402","even","NA","43247","49882","45249","89029","2476","30077","17493","89531","NA","89027","89531","88944","49882","90444","41385","84589","2470","87444","Lexical Decision Task","20","25265","23","yes","1024"
"3.149629599","0","2","cleb","non-word","87.5","87.5","1106.0416666666667","1106.0416666666667","black","no","legacy","legacy","legacy","0","uniform","1","undefined","undefined","undefined","1","f","0","0","0","0","23","0","0","0","23","NA","19","23","19","0","19","3","23","0","23","Thu Mar  4 17:46:43 2021","The main experiment item","yes","Lexical_Decision_Task.osexp","C:/Users/saffr/Documents","no","Andale Mono","no","18","no","white","no","yes","576","legacy","19","19","3","C:/Users/saffr/Documents/subject-5210402 lexical  decision task.csv","legacy","Lentiform Loewenfeld","3.3.8","yes","yes","600bd7cfb6416f0113b04181","602110864497cf011d9c0822","0","f","NA","j","space","space","NA","f","1280","NA","4632","15015","12584","NA","1280","2","legacy","1024","2","48000","-16","task","5210402","even","NA","43247","49882","45249","91046","2476","30077","17493","91548","NA","91044","91548","90965","49882","92829","41385","90465","2470","87444","Lexical Decision Task","21","26545","24","yes","1024"
"2.75025376","10.2","6","jump","word","88","88","1084.24","1084.24","black","no","legacy","legacy","legacy","0","uniform","1","undefined","undefined","undefined","1","j","0","0","0","0","24","0","0","0","24","NA","20","24","20","0","20","3","24","0","24","Thu Mar  4 17:46:43 2021","The main experiment item","yes","Lexical_Decision_Task.osexp","C:/Users/saffr/Documents","no","Andale Mono","no","18","no","white","no","yes","576","legacy","20","20","3","C:/Users/saffr/Documents/subject-5210402 lexical  decision task.csv","legacy","Lentiform Loewenfeld","3.3.8","yes","yes","600bd7cfb6416f0113b04181","602110864497cf011d9c0822","0","j","NA","j","space","space","NA","j","561","NA","4632","15015","12584","NA","561","2","legacy","1024","2","48000","-16","task","5210402","even","NA","43247","49882","45249","93420","2476","30077","17493","93922","NA","93417","93922","93335","49882","94484","41385","92835","2470","87444","Lexical Decision Task","22","27106","25","yes","1024"
"3.460446784","0","5","dess","non-word","88.46153846153847","88.46153846153847","1078.423076923077","1078.423076923077","black","no","legacy","legacy","legacy","0","uniform","1","undefined","undefined","undefined","1","f","0","0","0","0","25","0","0","0","25","NA","21","25","21","0","21","3","25","0","25","Thu Mar  4 17:46:43 2021","The main experiment item","yes","Lexical_Decision_Task.osexp","C:/Users/saffr/Documents","no","Andale Mono","no","18","no","white","no","yes","576","legacy","21","21","3","C:/Users/saffr/Documents/subject-5210402 lexical  decision task.csv","legacy","Lentiform Loewenfeld","3.3.8","yes","yes","600bd7cfb6416f0113b04181","602110864497cf011d9c0822","0","f","NA","j","space","space","NA","f","933","NA","4632","15015","12584","NA","933","2","legacy","1024","2","48000","-16","task","5210402","even","NA","43247","49882","45249","95126","2476","30077","17493","95629","NA","95123","95629","95006","49882","96563","41385","94506","2470","87444","Lexical Decision Task","23","28039","26","yes","1024"
"2.920123326","7.43","4","duel","word","88.88888888888889","88.88888888888889","1062.8148148148148","1062.8148148148148","black","no","legacy","legacy","legacy","0","uniform","1","undefined","undefined","undefined","1","j","0","0","0","0","26","0","0","0","26","NA","22","26","22","0","22","3","26","0","26","Thu Mar  4 17:46:43 2021","The main experiment item","yes","Lexical_Decision_Task.osexp","C:/Users/saffr/Documents","no","Andale Mono","no","18","no","white","no","yes","576","legacy","22","22","3","C:/Users/saffr/Documents/subject-5210402 lexical  decision task.csv","legacy","Lentiform Loewenfeld","3.3.8","yes","yes","600bd7cfb6416f0113b04181","602110864497cf011d9c0822","0","j","NA","j","space","space","NA","j","657","NA","4632","15015","12584","NA","657","2","legacy","1024","2","48000","-16","task","5210402","even","NA","43247","49882","45249","97194","2476","30077","17493","97696","NA","97192","97697","97085","49882","98355","41385","96585","2470","87444","Lexical Decision Task","24","28696","27","yes","1024"
"2.746890964","9.67","3","plug","word","89.28571428571429","89.28571428571429","1050.5","1050.5","black","no","legacy","legacy","legacy","0","uniform","1","undefined","undefined","undefined","1","j","0","0","0","0","27","0","0","0","27","NA","23","27","23","0","23","3","27","0","27","Thu Mar  4 17:46:43 2021","The main experiment item","yes","Lexical_Decision_Task.osexp","C:/Users/saffr/Documents","no","Andale Mono","no","18","no","white","no","yes","576","legacy","23","23","3","C:/Users/saffr/Documents/subject-5210402 lexical  decision task.csv","legacy","Lentiform Loewenfeld","3.3.8","yes","yes","600bd7cfb6416f0113b04181","602110864497cf011d9c0822","0","j","NA","j","space","space","NA","j","718","NA","4632","15015","12584","NA","718","2","legacy","1024","2","48000","-16","task","5210402","even","NA","43247","49882","45249","98959","2476","30077","17493","99461","NA","98958","99461","98878","49882","100180","41385","98378","2470","87444","Lexical Decision Task","25","29414","28","yes","1024"
"3.031408464","0","7","drow","non-word","89.65517241379311","89.65517241379311","1043.4137931034484","1043.4137931034484","black","no","legacy","legacy","legacy","0","uniform","1","undefined","undefined","undefined","1","f","0","0","0","0","28","0","0","0","28","NA","24","28","24","0","24","3","28","0","28","Thu Mar  4 17:46:43 2021","The main experiment item","yes","Lexical_Decision_Task.osexp","C:/Users/saffr/Documents","no","Andale Mono","no","18","no","white","no","yes","576","legacy","24","24","3","C:/Users/saffr/Documents/subject-5210402 lexical  decision task.csv","legacy","Lentiform Loewenfeld","3.3.8","yes","yes","600bd7cfb6416f0113b04181","602110864497cf011d9c0822","0","f","NA","j","space","space","NA","f","845","NA","4632","15015","12584","NA","845","2","legacy","1024","2","48000","-16","task","5210402","even","NA","43247","49882","45249","100808","2476","30077","17493","101311","NA","100806","101311","100703","49882","102157","41385","100203","2470","87444","Lexical Decision Task","26","30259","29","yes","1024"
"2.880623071","0","9","curp","non-word","90","90","1032.6666666666667","1032.6666666666667","black","no","legacy","legacy","legacy","0","uniform","1","undefined","undefined","undefined","1","f","0","0","0","0","29","0","0","0","29","NA","25","29","25","0","25","3","29","0","29","Thu Mar  4 17:46:43 2021","The main experiment item","yes","Lexical_Decision_Task.osexp","C:/Users/saffr/Documents","no","Andale Mono","no","18","no","white","no","yes","576","legacy","25","25","3","C:/Users/saffr/Documents/subject-5210402 lexical  decision task.csv","legacy","Lentiform Loewenfeld","3.3.8","yes","yes","600bd7cfb6416f0113b04181","602110864497cf011d9c0822","0","f","NA","j","space","space","NA","f","721","NA","4632","15015","12584","NA","721","2","legacy","1024","2","48000","-16","task","5210402","even","NA","43247","49882","45249","102797","2476","30077","17493","103299","NA","102794","103299","102678","49882","104021","41385","102178","2470","87444","Lexical Decision Task","27","30980","30","yes","1024"
"3.29439347","8.6","9","wand","word","90.3225806451613","90.3225806451613","1022.258064516129","1022.258064516129","black","no","legacy","legacy","legacy","0","uniform","1","undefined","undefined","undefined","1","j","0","0","0","0","30","0","0","0","30","NA","26","30","26","0","26","3","30","0","30","Thu Mar  4 17:46:43 2021","The main experiment item","yes","Lexical_Decision_Task.osexp","C:/Users/saffr/Documents","no","Andale Mono","no","18","no","white","no","yes","576","legacy","26","26","3","C:/Users/saffr/Documents/subject-5210402 lexical  decision task.csv","legacy","Lentiform Loewenfeld","3.3.8","yes","yes","600bd7cfb6416f0113b04181","602110864497cf011d9c0822","0","j","NA","j","space","space","NA","j","710","NA","4632","15015","12584","NA","710","2","legacy","1024","2","48000","-16","task","5210402","even","NA","43247","49882","45249","104633","2476","30077","17493","105135","NA","104632","105136","104544","49882","105847","41385","104043","2470","87444","Lexical Decision Task","28","31690","31","yes","1024"
"3.20996159","0","4","clee","non-word","90.625","90.625","1011.875","1011.875","black","no","legacy","legacy","legacy","0","uniform","1","undefined","undefined","undefined","1","f","0","0","0","0","31","0","0","0","31","NA","27","31","27","0","27","3","31","0","31","Thu Mar  4 17:46:43 2021","The main experiment item","yes","Lexical_Decision_Task.osexp","C:/Users/saffr/Documents","no","Andale Mono","no","18","no","white","no","yes","576","legacy","27","27","3","C:/Users/saffr/Documents/subject-5210402 lexical  decision task.csv","legacy","Lentiform Loewenfeld","3.3.8","yes","yes","600bd7cfb6416f0113b04181","602110864497cf011d9c0822","0","f","NA","j","space","space","NA","f","690","NA","4632","15015","12584","NA","690","2","legacy","1024","2","48000","-16","task","5210402","even","NA","43247","49882","45249","106484","2476","30077","17493","106986","NA","106482","106986","106371","49882","107678","41385","105871","2470","87444","Lexical Decision Task","29","32380","32","yes","1024"
"2.983324025","9.56","2","debt","word","90.9090909090909","90.9090909090909","1000.5151515151515","1000.5151515151515","black","no","legacy","legacy","legacy","0","uniform","1","undefined","undefined","undefined","1","j","0","0","0","0","32","0","0","0","32","NA","28","32","28","0","28","3","32","0","32","Thu Mar  4 17:46:43 2021","The main experiment item","yes","Lexical_Decision_Task.osexp","C:/Users/saffr/Documents","no","Andale Mono","no","18","no","white","no","yes","576","legacy","28","28","3","C:/Users/saffr/Documents/subject-5210402 lexical  decision task.csv","legacy","Lentiform Loewenfeld","3.3.8","yes","yes","600bd7cfb6416f0113b04181","602110864497cf011d9c0822","0","j","NA","j","space","space","NA","j","637","NA","4632","15015","12584","NA","637","2","legacy","1024","2","48000","-16","task","5210402","even","NA","43247","49882","45249","108308","2476","30077","17493","108810","NA","108305","108811","108201","49882","109449","41385","107701","2470","87444","Lexical Decision Task","30","33017","33","yes","1024"
"3.316948329","0","1","besc","non-word","91.17647058823529","91.17647058823529","992","992","black","no","legacy","legacy","legacy","0","uniform","1","undefined","undefined","undefined","1","f","0","0","0","0","33","0","0","0","33","NA","29","33","29","0","29","3","33","0","33","Thu Mar  4 17:46:43 2021","The main experiment item","yes","Lexical_Decision_Task.osexp","C:/Users/saffr/Documents","no","Andale Mono","no","18","no","white","no","yes","576","legacy","29","29","3","C:/Users/saffr/Documents/subject-5210402 lexical  decision task.csv","legacy","Lentiform Loewenfeld","3.3.8","yes","yes","600bd7cfb6416f0113b04181","602110864497cf011d9c0822","0","f","NA","j","space","space","NA","f","711","NA","4632","15015","12584","NA","711","2","legacy","1024","2","48000","-16","task","5210402","even","NA","43247","49882","45249","110087","2476","30077","17493","110589","NA","110084","110589","109973","49882","111301","41385","109473","2470","87444","Lexical Decision Task","31","33728","34","yes","1024"
"2.819763221","0","2","durp","non-word","91.42857142857143","91.42857142857143","987.5714285714286","987.5714285714286","black","no","legacy","legacy","legacy","0","uniform","1","undefined","undefined","undefined","1","f","0","0","0","0","34","0","0","0","34","NA","30","34","30","0","30","3","34","0","34","Thu Mar  4 17:46:43 2021","The main experiment item","yes","Lexical_Decision_Task.osexp","C:/Users/saffr/Documents","no","Andale Mono","no","18","no","white","no","yes","576","legacy","30","30","3","C:/Users/saffr/Documents/subject-5210402 lexical  decision task.csv","legacy","Lentiform Loewenfeld","3.3.8","yes","yes","600bd7cfb6416f0113b04181","602110864497cf011d9c0822","0","f","NA","j","space","space","NA","f","837","NA","4632","15015","12584","NA","837","2","legacy","1024","2","48000","-16","task","5210402","even","NA","43247","49882","45249","111927","2476","30077","17493","112429","NA","111924","112429","111823","49882","113268","41385","111323","2470","87444","Lexical Decision Task","32","34565","35","yes","1024"
"2.728085817","10.02","9","bike","word","91.66666666666667","91.66666666666667","977.6388888888889","977.6388888888889","black","no","legacy","legacy","legacy","0","uniform","1","undefined","undefined","undefined","1","j","0","0","0","0","35","0","0","0","35","NA","31","35","31","0","31","3","35","0","35","Thu Mar  4 17:46:43 2021","The main experiment item","yes","Lexical_Decision_Task.osexp","C:/Users/saffr/Documents","no","Andale Mono","no","18","no","white","no","yes","576","legacy","31","31","3","C:/Users/saffr/Documents/subject-5210402 lexical  decision task.csv","legacy","Lentiform Loewenfeld","3.3.8","yes","yes","600bd7cfb6416f0113b04181","602110864497cf011d9c0822","0","j","NA","j","space","space","NA","j","630","NA","4632","15015","12584","NA","630","2","legacy","1024","2","48000","-16","task","5210402","even","NA","43247","49882","45249","113901","2476","30077","17493","114403","NA","113899","114403","113797","49882","115034","41385","113296","2470","87444","Lexical Decision Task","33","35195","36","yes","1024"
"2.784379519","0","2","snaf","non-word","91.89189189189189","91.89189189189189","969.081081081081","969.081081081081","black","no","legacy","legacy","legacy","0","uniform","1","undefined","undefined","undefined","1","f","0","0","0","0","36","0","0","0","36","NA","32","36","32","0","32","3","36","0","36","Thu Mar  4 17:46:43 2021","The main experiment item","yes","Lexical_Decision_Task.osexp","C:/Users/saffr/Documents","no","Andale Mono","no","18","no","white","no","yes","576","legacy","32","32","3","C:/Users/saffr/Documents/subject-5210402 lexical  decision task.csv","legacy","Lentiform Loewenfeld","3.3.8","yes","yes","600bd7cfb6416f0113b04181","602110864497cf011d9c0822","0","f","NA","j","space","space","NA","f","661","NA","4632","15015","12584","NA","661","2","legacy","1024","2","48000","-16","task","5210402","even","NA","43247","49882","45249","115645","2476","30077","17493","116147","NA","115643","116147","115541","49882","116810","41385","115041","2470","87444","Lexical Decision Task","34","35856","37","yes","1024"
"3.225825991","0","7","talm","non-word","92.10526315789474","92.10526315789474","965.3947368421053","965.3947368421053","black","no","legacy","legacy","legacy","0","uniform","1","undefined","undefined","undefined","1","f","0","0","0","0","37","0","0","0","37","NA","33","37","33","0","33","3","37","0","37","Thu Mar  4 17:46:43 2021","The main experiment item","yes","Lexical_Decision_Task.osexp","C:/Users/saffr/Documents","no","Andale Mono","no","18","no","white","no","yes","576","legacy","33","33","3","C:/Users/saffr/Documents/subject-5210402 lexical  decision task.csv","legacy","Lentiform Loewenfeld","3.3.8","yes","yes","600bd7cfb6416f0113b04181","602110864497cf011d9c0822","0","f","NA","j","space","space","NA","f","829","NA","4632","15015","12584","NA","829","2","legacy","1024","2","48000","-16","task","5210402","even","NA","43247","49882","45249","117435","2476","30077","17493","117937","NA","117432","117937","117329","49882","118767","41385","116829","2470","87444","Lexical Decision Task","35","36685","38","yes","1024"
"3.076883066","0","8","mout","non-word","92.3076923076923","92.3076923076923","999.2307692307693","999.2307692307693","black","no","legacy","legacy","legacy","0","uniform","1","undefined","undefined","undefined","1","f","0","0","0","0","38","0","0","0","38","NA","34","38","34","0","34","3","38","0","38","Thu Mar  4 17:46:43 2021","The main experiment item","yes","Lexical_Decision_Task.osexp","C:/Users/saffr/Documents","no","Andale Mono","no","18","no","white","no","yes","576","legacy","34","34","3","C:/Users/saffr/Documents/subject-5210402 lexical  decision task.csv","legacy","Lentiform Loewenfeld","3.3.8","yes","yes","600bd7cfb6416f0113b04181","602110864497cf011d9c0822","0","f","NA","j","space","space","NA","f","2285","NA","4632","15015","12584","NA","2285","2","legacy","1024","2","48000","-16","task","5210402","even","NA","43247","49882","45249","119410","2476","30077","17493","119912","NA","119407","119912","119289","49882","122198","41385","118789","2470","87444","Lexical Decision Task","36","38970","39","yes","1024"
"2.69019608","9.01","2","myth","word","92.5","92.5","991.775","991.775","black","no","legacy","legacy","legacy","0","uniform","1","undefined","undefined","undefined","1","j","0","0","0","0","39","0","0","0","39","NA","35","39","35","0","35","3","39","0","39","Thu Mar  4 17:46:43 2021","The main experiment item","yes","Lexical_Decision_Task.osexp","C:/Users/saffr/Documents","no","Andale Mono","no","18","no","white","no","yes","576","legacy","35","35","3","C:/Users/saffr/Documents/subject-5210402 lexical  decision task.csv","legacy","Lentiform Loewenfeld","3.3.8","yes","yes","600bd7cfb6416f0113b04181","602110864497cf011d9c0822","0","j","NA","j","space","space","NA","j","701","NA","4632","15015","12584","NA","701","2","legacy","1024","2","48000","-16","task","5210402","even","NA","43247","49882","45249","122830","2476","30077","17493","123332","NA","122828","123332","122732","49882","124034","41385","122232","2470","87444","Lexical Decision Task","37","39671","40","yes","1024"
"3.274543461","7.46","7","scar","word","92.6829268292683","92.6829268292683","980.1463414634146","980.1463414634146","black","no","legacy","legacy","legacy","0","uniform","1","undefined","undefined","undefined","1","j","0","0","0","0","40","0","0","0","40","NA","36","40","36","0","36","3","40","0","40","Thu Mar  4 17:46:43 2021","The main experiment item","yes","Lexical_Decision_Task.osexp","C:/Users/saffr/Documents","no","Andale Mono","no","18","no","white","no","yes","576","legacy","36","36","3","C:/Users/saffr/Documents/subject-5210402 lexical  decision task.csv","legacy","Lentiform Loewenfeld","3.3.8","yes","yes","600bd7cfb6416f0113b04181","602110864497cf011d9c0822","0","j","NA","j","space","space","NA","j","515","NA","4632","15015","12584","NA","515","2","legacy","1024","2","48000","-16","task","5210402","even","NA","43247","49882","45249","124651","2476","30077","17493","125154","NA","124649","125154","124556","49882","125669","41385","124056","2470","87444","Lexical Decision Task","38","40186","41","yes","1024"
"2.981215883","10.66","5","hair","word","92.85714285714286","92.85714285714286","968.7142857142857","968.7142857142857","black","no","legacy","legacy","legacy","0","uniform","1","undefined","undefined","undefined","1","j","0","0","0","0","41","0","0","0","41","NA","37","41","37","0","37","3","41","0","41","Thu Mar  4 17:46:43 2021","The main experiment item","yes","Lexical_Decision_Task.osexp","C:/Users/saffr/Documents","no","Andale Mono","no","18","no","white","no","yes","576","legacy","37","37","3","C:/Users/saffr/Documents/subject-5210402 lexical  decision task.csv","legacy","Lentiform Loewenfeld","3.3.8","yes","yes","600bd7cfb6416f0113b04181","602110864497cf011d9c0822","0","j","NA","j","space","space","NA","j","500","NA","4632","15015","12584","NA","500","2","legacy","1024","2","48000","-16","task","5210402","even","NA","43247","49882","45249","126314","2476","30077","17493","126816","NA","126311","126816","126192","49882","127317","41385","125692","2470","87444","Lexical Decision Task","39","40686","42","yes","1024"
"3.174641193","0","3","ramb","non-word","93.02325581395348","93.02325581395348","966.1395348837209","966.1395348837209","black","no","legacy","legacy","legacy","0","uniform","1","undefined","undefined","undefined","1","f","0","0","0","0","42","0","0","0","42","NA","38","42","38","0","38","3","42","0","42","Thu Mar  4 17:46:43 2021","The main experiment item","yes","Lexical_Decision_Task.osexp","C:/Users/saffr/Documents","no","Andale Mono","no","18","no","white","no","yes","576","legacy","38","38","3","C:/Users/saffr/Documents/subject-5210402 lexical  decision task.csv","legacy","Lentiform Loewenfeld","3.3.8","yes","yes","600bd7cfb6416f0113b04181","602110864497cf011d9c0822","0","f","NA","j","space","space","NA","f","858","NA","4632","15015","12584","NA","858","2","legacy","1024","2","48000","-16","task","5210402","even","NA","43247","49882","45249","127935","2476","30077","17493","128438","NA","127932","128438","127840","49882","129297","41385","127339","2470","87444","Lexical Decision Task","40","41544","43","yes","1024"
"3.119255889","6.63","2","itch","word","93.18181818181819","93.18181818181819","958.6818181818181","958.6818181818181","black","no","legacy","legacy","legacy","0","uniform","1","undefined","undefined","undefined","1","j","0","0","0","0","43","0","0","0","43","NA","39","43","39","0","39","3","43","0","43","Thu Mar  4 17:46:43 2021","The main experiment item","yes","Lexical_Decision_Task.osexp","C:/Users/saffr/Documents","no","Andale Mono","no","18","no","white","no","yes","576","legacy","39","39","3","C:/Users/saffr/Documents/subject-5210402 lexical  decision task.csv","legacy","Lentiform Loewenfeld","3.3.8","yes","yes","600bd7cfb6416f0113b04181","602110864497cf011d9c0822","0","j","NA","j","space","space","NA","j","638","NA","4632","15015","12584","NA","638","2","legacy","1024","2","48000","-16","task","5210402","even","NA","43247","49882","45249","129906","2476","30077","17493","130409","NA","129905","130410","129820","49882","131049","41385","129320","2470","87444","Lexical Decision Task","41","42182","44","yes","1024"
"3.208172527","10.27","7","deck","word","93.33333333333333","93.33333333333333","952.4444444444445","952.4444444444445","black","no","legacy","legacy","legacy","0","uniform","1","undefined","undefined","undefined","1","j","0","0","0","0","44","0","0","0","44","NA","40","44","40","0","40","3","44","0","44","Thu Mar  4 17:46:43 2021","The main experiment item","yes","Lexical_Decision_Task.osexp","C:/Users/saffr/Documents","no","Andale Mono","no","18","no","white","no","yes","576","legacy","40","40","3","C:/Users/saffr/Documents/subject-5210402 lexical  decision task.csv","legacy","Lentiform Loewenfeld","3.3.8","yes","yes","600bd7cfb6416f0113b04181","602110864497cf011d9c0822","0","j","NA","j","space","space","NA","j","678","NA","4632","15015","12584","NA","678","2","legacy","1024","2","48000","-16","task","5210402","even","NA","43247","49882","45249","131703","2476","30077","17493","132206","NA","131701","132206","131584","49882","132886","41385","131084","2470","87444","Lexical Decision Task","42","42860","45","yes","1024"
"2.744553742","0","2","nawk","non-word","93.47826086956522","93.47826086956522","947.0652173913044","947.0652173913044","black","no","legacy","legacy","legacy","0","uniform","1","undefined","undefined","undefined","1","f","0","0","0","0","45","0","0","0","45","NA","41","45","41","0","41","3","45","0","45","Thu Mar  4 17:46:43 2021","The main experiment item","yes","Lexical_Decision_Task.osexp","C:/Users/saffr/Documents","no","Andale Mono","no","18","no","white","no","yes","576","legacy","41","41","3","C:/Users/saffr/Documents/subject-5210402 lexical  decision task.csv","legacy","Lentiform Loewenfeld","3.3.8","yes","yes","600bd7cfb6416f0113b04181","602110864497cf011d9c0822","0","f","NA","j","space","space","NA","f","705","NA","4632","15015","12584","NA","705","2","legacy","1024","2","48000","-16","task","5210402","even","NA","43247","49882","45249","133524","2476","30077","17493","134026","NA","133522","134026","133409","49882","134731","41385","132909","2470","87444","Lexical Decision Task","43","43565","46","yes","1024"
"3.153104174","10.89","6","door","word","93.61702127659575","93.61702127659575","936.9787234042553","936.9787234042553","black","no","legacy","legacy","legacy","0","uniform","1","undefined","undefined","undefined","1","j","0","0","0","0","46","0","0","0","46","NA","42","46","42","0","42","3","46","0","46","Thu Mar  4 17:46:43 2021","The main experiment item","yes","Lexical_Decision_Task.osexp","C:/Users/saffr/Documents","no","Andale Mono","no","18","no","white","no","yes","576","legacy","42","42","3","C:/Users/saffr/Documents/subject-5210402 lexical  decision task.csv","legacy","Lentiform Loewenfeld","3.3.8","yes","yes","600bd7cfb6416f0113b04181","602110864497cf011d9c0822","0","j","NA","j","space","space","NA","j","473","NA","4632","15015","12584","NA","473","2","legacy","1024","2","48000","-16","task","5210402","even","NA","43247","49882","45249","135346","2476","30077","17493","135848","NA","135345","135848","135254","49882","136321","41385","134754","2470","87444","Lexical Decision Task","44","44038","47","yes","1024"
"2.809559715","8.44","4","volt","word","93.75","93.75","930.9166666666666","930.9166666666666","black","no","legacy","legacy","legacy","0","uniform","1","undefined","undefined","undefined","1","j","0","0","0","0","47","0","0","0","47","NA","43","47","43","0","43","3","47","0","47","Thu Mar  4 17:46:43 2021","The main experiment item","yes","Lexical_Decision_Task.osexp","C:/Users/saffr/Documents","no","Andale Mono","no","18","no","white","no","yes","576","legacy","43","43","3","C:/Users/saffr/Documents/subject-5210402 lexical  decision task.csv","legacy","Lentiform Loewenfeld","3.3.8","yes","yes","600bd7cfb6416f0113b04181","602110864497cf011d9c0822","0","j","NA","j","space","space","NA","j","646","NA","4632","15015","12584","NA","646","2","legacy","1024","2","48000","-16","task","5210402","even","NA","43247","49882","45249","136945","2476","30077","17493","137447","NA","136942","137447","136841","49882","138094","41385","136341","2470","87444","Lexical Decision Task","45","44684","48","yes","1024"
"2.68604012","0","4","pumb","non-word","93.87755102040816","93.87755102040816","930.1428571428571","930.1428571428571","black","no","legacy","legacy","legacy","0","uniform","1","undefined","undefined","undefined","1","f","0","0","0","0","48","0","0","0","48","NA","44","48","44","0","44","3","48","0","48","Thu Mar  4 17:46:43 2021","The main experiment item","yes","Lexical_Decision_Task.osexp","C:/Users/saffr/Documents","no","Andale Mono","no","18","no","white","no","yes","576","legacy","44","44","3","C:/Users/saffr/Documents/subject-5210402 lexical  decision task.csv","legacy","Lentiform Loewenfeld","3.3.8","yes","yes","600bd7cfb6416f0113b04181","602110864497cf011d9c0822","0","f","NA","j","space","space","NA","f","893","NA","4632","15015","12584","NA","893","2","legacy","1024","2","48000","-16","task","5210402","even","NA","43247","49882","45249","138712","2476","30077","17493","139214","NA","138709","139214","138626","49882","140108","41385","138126","2470","87444","Lexical Decision Task","46","45577","49","yes","1024"
"2.695481676","0","7","goke","non-word","94","94","926.78","926.78","black","no","legacy","legacy","legacy","0","uniform","1","undefined","undefined","undefined","1","f","0","0","0","0","49","0","0","0","49","NA","45","49","45","0","45","3","49","0","49","Thu Mar  4 17:46:43 2021","The main experiment item","yes","Lexical_Decision_Task.osexp","C:/Users/saffr/Documents","no","Andale Mono","no","18","no","white","no","yes","576","legacy","45","45","3","C:/Users/saffr/Documents/subject-5210402 lexical  decision task.csv","legacy","Lentiform Loewenfeld","3.3.8","yes","yes","600bd7cfb6416f0113b04181","602110864497cf011d9c0822","0","f","NA","j","space","space","NA","f","762","NA","4632","15015","12584","NA","762","2","legacy","1024","2","48000","-16","task","5210402","even","NA","43247","49882","45249","140725","2476","30077","17493","141228","NA","140723","141229","140615","49882","141992","41385","140115","2470","87444","Lexical Decision Task","47","46339","50","yes","1024"
"3.081107167","0","6","chot","non-word","94.11764705882354","94.11764705882354","922.6862745098039","922.6862745098039","black","no","legacy","legacy","legacy","0","uniform","1","undefined","undefined","undefined","1","f","0","0","0","0","50","0","0","0","50","NA","46","50","46","0","46","3","50","0","50","Thu Mar  4 17:46:43 2021","The main experiment item","yes","Lexical_Decision_Task.osexp","C:/Users/saffr/Documents","no","Andale Mono","no","18","no","white","no","yes","576","legacy","46","46","3","C:/Users/saffr/Documents/subject-5210402 lexical  decision task.csv","legacy","Lentiform Loewenfeld","3.3.8","yes","yes","600bd7cfb6416f0113b04181","602110864497cf011d9c0822","0","f","NA","j","space","space","NA","f","718","NA","4632","15015","12584","NA","718","2","legacy","1024","2","48000","-16","task","5210402","even","NA","43247","49882","45249","142639","2476","30077","17493","143142","NA","142637","143142","142532","49882","143861","41385","142032","2470","87444","Lexical Decision Task","48","47057","51","yes","1024"
"3.443783828","7.65","3","verb","word","94.23076923076923","94.23076923076923","916.4423076923077","916.4423076923077","black","no","legacy","legacy","legacy","0","uniform","1","undefined","undefined","undefined","1","j","0","0","0","0","51","0","0","0","51","NA","47","51","47","0","47","3","51","0","51","Thu Mar  4 17:46:43 2021","The main experiment item","yes","Lexical_Decision_Task.osexp","C:/Users/saffr/Documents","no","Andale Mono","no","18","no","white","no","yes","576","legacy","47","47","3","C:/Users/saffr/Documents/subject-5210402 lexical  decision task.csv","legacy","Lentiform Loewenfeld","3.3.8","yes","yes","600bd7cfb6416f0113b04181","602110864497cf011d9c0822","0","j","NA","j","space","space","NA","j","598","NA","4632","15015","12584","NA","598","2","legacy","1024","2","48000","-16","task","5210402","even","NA","43247","49882","45249","144501","2476","30077","17493","145003","NA","144498","145003","144382","49882","145602","41385","143882","2470","87444","Lexical Decision Task","49","47655","52","yes","1024"
"3.068433376","8.09","2","bulb","word","94.33962264150944","94.33962264150944","911.7358490566038","911.7358490566038","black","no","legacy","legacy","legacy","0","uniform","1","undefined","undefined","undefined","1","j","0","0","0","0","52","0","0","0","52","NA","48","52","48","0","48","3","52","0","52","Thu Mar  4 17:46:43 2021","The main experiment item","yes","Lexical_Decision_Task.osexp","C:/Users/saffr/Documents","no","Andale Mono","no","18","no","white","no","yes","576","legacy","48","48","3","C:/Users/saffr/Documents/subject-5210402 lexical  decision task.csv","legacy","Lentiform Loewenfeld","3.3.8","yes","yes","600bd7cfb6416f0113b04181","602110864497cf011d9c0822","0","j","NA","j","space","space","NA","j","667","NA","4632","15015","12584","NA","667","2","legacy","1024","2","48000","-16","task","5210402","even","NA","43247","49882","45249","146235","2476","30077","17493","146737","NA","146232","146737","146136","49882","147406","41385","145636","2470","87444","Lexical Decision Task","50","48322","53","yes","1024"
"3.218535505","7.85","7","goat","word","94.44444444444444","94.44444444444444","904.4814814814815","904.4814814814815","black","no","legacy","legacy","legacy","0","uniform","1","undefined","undefined","undefined","1","j","0","0","0","0","53","0","0","0","53","NA","49","53","49","0","49","3","53","0","53","Thu Mar  4 17:46:43 2021","The main experiment item","yes","Lexical_Decision_Task.osexp","C:/Users/saffr/Documents","no","Andale Mono","no","18","no","white","no","yes","576","legacy","49","49","3","C:/Users/saffr/Documents/subject-5210402 lexical  decision task.csv","legacy","Lentiform Loewenfeld","3.3.8","yes","yes","600bd7cfb6416f0113b04181","602110864497cf011d9c0822","0","j","NA","j","space","space","NA","j","520","NA","4632","15015","12584","NA","520","2","legacy","1024","2","48000","-16","task","5210402","even","NA","43247","49882","45249","148003","2476","30077","17493","148506","NA","148001","148506","147911","49882","149027","41385","147411","2470","87444","Lexical Decision Task","51","48842","54","yes","1024"
"2.813801082","5.47","7","nook","word","94.54545454545455","94.54545454545455","907.1090909090909","907.1090909090909","black","no","legacy","legacy","legacy","0","uniform","1","undefined","undefined","undefined","1","j","0","0","0","0","54","0","0","0","54","0","50","54","50","0","50","3","54","0","54","Thu Mar  4 17:46:43 2021","The main experiment item","yes","Lexical_Decision_Task.osexp","C:/Users/saffr/Documents","no","Andale Mono","no","18","no","white","no","yes","576","legacy","50","50","3","C:/Users/saffr/Documents/subject-5210402 lexical  decision task.csv","legacy","Lentiform Loewenfeld","3.3.8","yes","yes","600bd7cfb6416f0113b04181","602110864497cf011d9c0822","0","j","NA","j","space","space","space","j","1049","NA","4632","15015","12584","3905","1049","2","legacy","1024","2","48000","-16","task","5210402","even","NA","43247","49882","45249","153603","2476","30077","17493","154105","149618","153602","154105","149550","49882","155155","41385","149050","2470","87444","Lexical Decision Task","52","49891","55","yes","1024"
"3.374198258","0","8","vist","non-word","92.85714285714286","92.85714285714286","899.9107142857143","899.9107142857143","black","no","legacy","legacy","legacy","0","uniform","0","undefined","undefined","undefined","0","f","0","0","0","0","55","0","0","0","55","0","51","55","51","0","51","3","55","0","55","Thu Mar  4 17:46:43 2021","The main experiment item","yes","Lexical_Decision_Task.osexp","C:/Users/saffr/Documents","no","Andale Mono","no","18","no","white","no","yes","576","legacy","51","51","3","C:/Users/saffr/Documents/subject-5210402 lexical  decision task.csv","legacy","Lentiform Loewenfeld","3.3.8","yes","yes","600bd7cfb6416f0113b04181","602110864497cf011d9c0822","0","j","NA","j","space","space","space","j","504","NA","4632","15015","12584","3905","504","2","legacy","1024","2","48000","-16","task","5210402","even","NA","43247","49882","45249","155767","2476","30077","17493","156269","149618","155764","156269","155662","49882","156774","41385","155162","2470","87444","Lexical Decision Task","52","50395","56","yes","1024"
"2.897810299","0","5","glur","non-word","92.98245614035088","92.98245614035088","898.8947368421053","898.8947368421053","black","no","legacy","legacy","legacy","0","uniform","1","undefined","undefined","undefined","1","f","0","0","0","0","56","0","0","0","56","0","52","56","52","0","52","3","56","0","56","Thu Mar  4 17:46:43 2021","The main experiment item","yes","Lexical_Decision_Task.osexp","C:/Users/saffr/Documents","no","Andale Mono","no","18","no","white","no","yes","576","legacy","52","52","3","C:/Users/saffr/Documents/subject-5210402 lexical  decision task.csv","legacy","Lentiform Loewenfeld","3.3.8","yes","yes","600bd7cfb6416f0113b04181","602110864497cf011d9c0822","0","f","NA","j","space","space","space","f","842","NA","4632","15015","12584","3905","842","2","legacy","1024","2","48000","-16","task","5210402","even","NA","43247","49882","45249","158403","2476","30077","17493","158904","149618","158399","158905","158281","49882","159748","41385","155162","2470","156781","Lexical Decision Task","53","51237","57","yes","1024"
"3.028977705","0","7","frow","non-word","91.37931034482759","91.37931034482759","902.2241379310345","902.2241379310345","black","no","legacy","legacy","legacy","0","uniform","0","undefined","undefined","undefined","0","f","0","0","0","0","57","0","0","0","57","0","53","57","53","0","53","3","57","0","57","Thu Mar  4 17:46:43 2021","The main experiment item","yes","Lexical_Decision_Task.osexp","C:/Users/saffr/Documents","no","Andale Mono","no","18","no","white","no","yes","576","legacy","53","53","3","C:/Users/saffr/Documents/subject-5210402 lexical  decision task.csv","legacy","Lentiform Loewenfeld","3.3.8","yes","yes","600bd7cfb6416f0113b04181","602110864497cf011d9c0822","0","j","NA","j","space","space","space","j","1092","NA","4632","15015","12584","3905","1092","2","legacy","1024","2","48000","-16","task","5210402","even","NA","43247","49882","45249","160376","2476","30077","17493","160878","149618","160374","160878","160271","49882","161972","41385","159771","2470","156781","Lexical Decision Task","53","52329","58","yes","1024"
"2.594027722","9.08","8","skip","word","91.52542372881356","91.52542372881356","910.1016949152543","910.1016949152543","black","no","legacy","legacy","legacy","0","uniform","1","undefined","undefined","undefined","1","j","0","0","0","0","58","0","0","0","58","0","54","58","54","0","54","3","58","0","58","Thu Mar  4 17:46:43 2021","The main experiment item","yes","Lexical_Decision_Task.osexp","C:/Users/saffr/Documents","no","Andale Mono","no","18","no","white","no","yes","576","legacy","54","54","3","C:/Users/saffr/Documents/subject-5210402 lexical  decision task.csv","legacy","Lentiform Loewenfeld","3.3.8","yes","yes","600bd7cfb6416f0113b04181","602110864497cf011d9c0822","0","j","NA","j","space","space","space","j","1367","NA","4632","15015","12584","3905","1367","2","legacy","1024","2","48000","-16","task","5210402","even","NA","43247","49882","45249","163629","2476","30077","17493","164131","149618","163626","164131","163506","49882","165499","41385","159771","2470","162006","Lexical Decision Task","54","53696","59","yes","1024"
"3.488597715","0","9","nain","non-word","91.66666666666667","91.66666666666667","908.7833333333333","908.7833333333333","black","no","legacy","legacy","legacy","0","uniform","1","undefined","undefined","undefined","1","f","0","0","0","0","59","0","0","0","59","0","55","59","55","0","55","3","59","0","59","Thu Mar  4 17:46:43 2021","The main experiment item","yes","Lexical_Decision_Task.osexp","C:/Users/saffr/Documents","no","Andale Mono","no","18","no","white","no","yes","576","legacy","55","55","3","C:/Users/saffr/Documents/subject-5210402 lexical  decision task.csv","legacy","Lentiform Loewenfeld","3.3.8","yes","yes","600bd7cfb6416f0113b04181","602110864497cf011d9c0822","0","f","NA","j","space","space","space","f","831","NA","4632","15015","12584","3905","831","2","legacy","1024","2","48000","-16","task","5210402","even","NA","43247","49882","45249","166142","2476","30077","17493","166644","149618","166139","166645","166037","49882","167478","41385","165536","2470","162006","Lexical Decision Task","55","54527","60","yes","1024"
"3.133964479","0","8","graw","non-word","91.80327868852459","91.80327868852459","905.6065573770492","905.6065573770492","black","no","legacy","legacy","legacy","0","uniform","1","undefined","undefined","undefined","1","f","0","0","0","0","60","0","0","0","60","0","56","60","56","0","56","3","60","0","60","Thu Mar  4 17:46:43 2021","The main experiment item","yes","Lexical_Decision_Task.osexp","C:/Users/saffr/Documents","no","Andale Mono","no","18","no","white","no","yes","576","legacy","56","56","3","C:/Users/saffr/Documents/subject-5210402 lexical  decision task.csv","legacy","Lentiform Loewenfeld","3.3.8","yes","yes","600bd7cfb6416f0113b04181","602110864497cf011d9c0822","0","f","NA","j","space","space","space","f","715","NA","4632","15015","12584","3905","715","2","legacy","1024","2","48000","-16","task","5210402","even","NA","43247","49882","45249","168115","2476","30077","17493","168617","149618","168113","168617","168008","49882","169334","41385","167508","2470","162006","Lexical Decision Task","56","55242","61","yes","1024"
"2.616654026","9.37","5","gift","word","91.93548387096774","91.93548387096774","900.5483870967741","900.5483870967741","black","no","legacy","legacy","legacy","0","uniform","1","undefined","undefined","undefined","1","j","0","0","0","0","61","0","0","0","61","0","57","61","57","0","57","3","61","0","61","Thu Mar  4 17:46:43 2021","The main experiment item","yes","Lexical_Decision_Task.osexp","C:/Users/saffr/Documents","no","Andale Mono","no","18","no","white","no","yes","576","legacy","57","57","3","C:/Users/saffr/Documents/subject-5210402 lexical  decision task.csv","legacy","Lentiform Loewenfeld","3.3.8","yes","yes","600bd7cfb6416f0113b04181","602110864497cf011d9c0822","0","j","NA","j","space","space","space","j","592","NA","4632","15015","12584","3905","592","2","legacy","1024","2","48000","-16","task","5210402","even","NA","43247","49882","45249","169969","2476","30077","17493","170471","149618","169967","170471","169878","49882","171064","41385","169378","2470","162006","Lexical Decision Task","57","55834","62","yes","1024"
"3.165936429","0","7","leps","non-word","92.06349206349206","92.06349206349206","897.1904761904761","897.1904761904761","black","no","legacy","legacy","legacy","0","uniform","1","undefined","undefined","undefined","1","f","0","0","0","0","62","0","0","0","62","0","58","62","58","0","58","3","62","0","62","Thu Mar  4 17:46:43 2021","The main experiment item","yes","Lexical_Decision_Task.osexp","C:/Users/saffr/Documents","no","Andale Mono","no","18","no","white","no","yes","576","legacy","58","58","3","C:/Users/saffr/Documents/subject-5210402 lexical  decision task.csv","legacy","Lentiform Loewenfeld","3.3.8","yes","yes","600bd7cfb6416f0113b04181","602110864497cf011d9c0822","0","f","NA","j","space","space","space","f","689","NA","4632","15015","12584","3905","689","2","legacy","1024","2","48000","-16","task","5210402","even","NA","43247","49882","45249","171685","2476","30077","17493","172187","149618","171683","172187","171597","49882","172877","41385","171097","2470","162006","Lexical Decision Task","58","56523","63","yes","1024"
"2.966923697","5.4","2","fume","word","92.1875","92.1875","896.578125","896.578125","black","no","legacy","legacy","legacy","0","uniform","1","undefined","undefined","undefined","1","j","0","0","0","0","63","0","0","0","63","0","59","63","59","0","59","3","63","0","63","Thu Mar  4 17:46:43 2021","The main experiment item","yes","Lexical_Decision_Task.osexp","C:/Users/saffr/Documents","no","Andale Mono","no","18","no","white","no","yes","576","legacy","59","59","3","C:/Users/saffr/Documents/subject-5210402 lexical  decision task.csv","legacy","Lentiform Loewenfeld","3.3.8","yes","yes","600bd7cfb6416f0113b04181","602110864497cf011d9c0822","0","j","NA","j","space","space","space","j","858","NA","4632","15015","12584","3905","858","2","legacy","1024","2","48000","-16","task","5210402","even","NA","43247","49882","45249","173498","2476","30077","17493","174001","149618","173496","174001","173398","49882","174861","41385","172897","2470","162006","Lexical Decision Task","59","57381","64","yes","1024"
"2.576725172","0","8","gowl","non-word","92.3076923076923","92.3076923076923","895.1692307692308","895.1692307692308","black","no","legacy","legacy","legacy","0","uniform","1","undefined","undefined","undefined","1","f","0","0","0","0","64","0","0","0","64","0","60","64","60","0","60","3","64","0","64","Thu Mar  4 17:46:43 2021","The main experiment item","yes","Lexical_Decision_Task.osexp","C:/Users/saffr/Documents","no","Andale Mono","no","18","no","white","no","yes","576","legacy","60","60","3","C:/Users/saffr/Documents/subject-5210402 lexical  decision task.csv","legacy","Lentiform Loewenfeld","3.3.8","yes","yes","600bd7cfb6416f0113b04181","602110864497cf011d9c0822","0","f","NA","j","space","space","space","f","805","NA","4632","15015","12584","3905","805","2","legacy","1024","2","48000","-16","task","5210402","even","NA","43247","49882","45249","175481","2476","30077","17493","175983","149618","175479","175983","175382","49882","176789","41385","174882","2470","162006","Lexical Decision Task","60","58186","65","yes","1024"
"2.6599162","0","2","saff","non-word","92.42424242424242","92.42424242424242","894.5151515151515","894.5151515151515","black","no","legacy","legacy","legacy","0","uniform","1","undefined","undefined","undefined","1","f","0","0","0","0","65","0","0","0","65","0","61","65","61","0","61","3","65","0","65","Thu Mar  4 17:46:43 2021","The main experiment item","yes","Lexical_Decision_Task.osexp","C:/Users/saffr/Documents","no","Andale Mono","no","18","no","white","no","yes","576","legacy","61","61","3","C:/Users/saffr/Documents/subject-5210402 lexical  decision task.csv","legacy","Lentiform Loewenfeld","3.3.8","yes","yes","600bd7cfb6416f0113b04181","602110864497cf011d9c0822","0","f","NA","j","space","space","space","f","852","NA","4632","15015","12584","3905","852","2","legacy","1024","2","48000","-16","task","5210402","even","NA","43247","49882","45249","177408","2476","30077","17493","177910","149618","177406","177910","177311","49882","178763","41385","176811","2470","162006","Lexical Decision Task","61","59038","66","yes","1024"
"2.755364069","7.72","2","hoax","word","92.53731343283582","92.53731343283582","892.7910447761194","892.7910447761194","black","no","legacy","legacy","legacy","0","uniform","1","undefined","undefined","undefined","1","j","0","0","0","0","66","0","0","0","66","0","62","66","62","0","62","3","66","0","66","Thu Mar  4 17:46:43 2021","The main experiment item","yes","Lexical_Decision_Task.osexp","C:/Users/saffr/Documents","no","Andale Mono","no","18","no","white","no","yes","576","legacy","62","62","3","C:/Users/saffr/Documents/subject-5210402 lexical  decision task.csv","legacy","Lentiform Loewenfeld","3.3.8","yes","yes","600bd7cfb6416f0113b04181","602110864497cf011d9c0822","0","j","NA","j","space","space","space","j","779","NA","4632","15015","12584","3905","779","2","legacy","1024","2","48000","-16","task","5210402","even","NA","43247","49882","45249","179389","2476","30077","17493","179891","149618","179387","179891","179285","49882","180671","41385","178785","2470","162006","Lexical Decision Task","62","59817","67","yes","1024"
"3.066077331","0","7","vorn","non-word","92.6470588235294","92.6470588235294","890.2647058823529","890.2647058823529","black","no","legacy","legacy","legacy","0","uniform","1","undefined","undefined","undefined","1","f","0","0","0","0","67","0","0","0","67","0","63","67","63","0","63","3","67","0","67","Thu Mar  4 17:46:43 2021","The main experiment item","yes","Lexical_Decision_Task.osexp","C:/Users/saffr/Documents","no","Andale Mono","no","18","no","white","no","yes","576","legacy","63","63","3","C:/Users/saffr/Documents/subject-5210402 lexical  decision task.csv","legacy","Lentiform Loewenfeld","3.3.8","yes","yes","600bd7cfb6416f0113b04181","602110864497cf011d9c0822","0","f","NA","j","space","space","space","f","721","NA","4632","15015","12584","3905","721","2","legacy","1024","2","48000","-16","task","5210402","even","NA","43247","49882","45249","181285","2476","30077","17493","181787","149618","181284","181787","181205","49882","182509","41385","180704","2470","162006","Lexical Decision Task","63","60538","68","yes","1024"
"3.397302518","7.01","2","knit","word","92.7536231884058","92.7536231884058","888.3623188405797","888.3623188405797","black","no","legacy","legacy","legacy","0","uniform","1","undefined","undefined","undefined","1","j","0","0","0","0","68","0","0","0","68","0","64","68","64","0","64","3","68","0","68","Thu Mar  4 17:46:43 2021","The main experiment item","yes","Lexical_Decision_Task.osexp","C:/Users/saffr/Documents","no","Andale Mono","no","18","no","white","no","yes","576","legacy","64","64","3","C:/Users/saffr/Documents/subject-5210402 lexical  decision task.csv","legacy","Lentiform Loewenfeld","3.3.8","yes","yes","600bd7cfb6416f0113b04181","602110864497cf011d9c0822","0","j","NA","j","space","space","space","j","759","NA","4632","15015","12584","3905","759","2","legacy","1024","2","48000","-16","task","5210402","even","NA","43247","49882","45249","183122","2476","30077","17493","183624","149618","183121","183624","183031","49882","184385","41385","182531","2470","162006","Lexical Decision Task","64","61297","69","yes","1024"
"3.067070856","9.39","3","loud","word","91.42857142857143","91.42857142857143","883.8428571428572","883.8428571428572","black","no","legacy","legacy","legacy","0","uniform","0","undefined","undefined","undefined","0","j","0","0","0","0","69","0","0","0","69","0","65","69","65","0","65","3","69","0","69","Thu Mar  4 17:46:43 2021","The main experiment item","yes","Lexical_Decision_Task.osexp","C:/Users/saffr/Documents","no","Andale Mono","no","18","no","white","no","yes","576","legacy","65","65","3","C:/Users/saffr/Documents/subject-5210402 lexical  decision task.csv","legacy","Lentiform Loewenfeld","3.3.8","yes","yes","600bd7cfb6416f0113b04181","602110864497cf011d9c0822","0","f","NA","j","space","space","space","f","572","NA","4632","15015","12584","3905","572","2","legacy","1024","2","48000","-16","task","5210402","even","NA","43247","49882","45249","185025","2476","30077","17493","185527","149618","185022","185527","184906","49882","186100","41385","184406","2470","162006","Lexical Decision Task","64","61869","70","yes","1024"
"3.705778213","0","6","stin","non-word","91.54929577464789","91.54929577464789","891.9154929577464","891.9154929577464","black","no","legacy","legacy","legacy","0","uniform","1","undefined","undefined","undefined","1","f","0","0","0","0","70","0","0","0","70","0","66","70","66","0","66","3","70","0","70","Thu Mar  4 17:46:43 2021","The main experiment item","yes","Lexical_Decision_Task.osexp","C:/Users/saffr/Documents","no","Andale Mono","no","18","no","white","no","yes","576","legacy","66","66","3","C:/Users/saffr/Documents/subject-5210402 lexical  decision task.csv","legacy","Lentiform Loewenfeld","3.3.8","yes","yes","600bd7cfb6416f0113b04181","602110864497cf011d9c0822","0","f","NA","j","space","space","space","f","1457","NA","4632","15015","12584","3905","1457","2","legacy","1024","2","48000","-16","task","5210402","even","NA","43247","49882","45249","187765","2476","30077","17493","188267","149618","187761","188268","187644","49882","189727","41385","184406","2470","186143","Lexical Decision Task","65","63326","71","yes","1024"
"2.794720352","0","9","koot","non-word","91.66666666666667","91.66666666666667","891.5","891.5","black","no","legacy","legacy","legacy","0","uniform","1","undefined","undefined","undefined","1","f","0","0","0","0","71","0","0","0","71","0","67","71","67","0","67","3","71","0","71","Thu Mar  4 17:46:43 2021","The main experiment item","yes","Lexical_Decision_Task.osexp","C:/Users/saffr/Documents","no","Andale Mono","no","18","no","white","no","yes","576","legacy","67","67","3","C:/Users/saffr/Documents/subject-5210402 lexical  decision task.csv","legacy","Lentiform Loewenfeld","3.3.8","yes","yes","600bd7cfb6416f0113b04181","602110864497cf011d9c0822","0","f","NA","j","space","space","space","f","862","NA","4632","15015","12584","3905","862","2","legacy","1024","2","48000","-16","task","5210402","even","NA","43247","49882","45249","190349","2476","30077","17493","190851","149618","190347","190851","190252","49882","191714","41385","189752","2470","186143","Lexical Decision Task","66","64188","72","yes","1024"
"3.156347201","0","8","lasp","non-word","91.78082191780823","91.78082191780823","897.986301369863","897.986301369863","black","no","legacy","legacy","legacy","0","uniform","1","undefined","undefined","undefined","1","f","0","0","0","0","72","0","0","0","72","0","68","72","68","0","68","3","72","0","72","Thu Mar  4 17:46:43 2021","The main experiment item","yes","Lexical_Decision_Task.osexp","C:/Users/saffr/Documents","no","Andale Mono","no","18","no","white","no","yes","576","legacy","68","68","3","C:/Users/saffr/Documents/subject-5210402 lexical  decision task.csv","legacy","Lentiform Loewenfeld","3.3.8","yes","yes","600bd7cfb6416f0113b04181","602110864497cf011d9c0822","0","f","NA","j","space","space","space","f","1365","NA","4632","15015","12584","3905","1365","2","legacy","1024","2","48000","-16","task","5210402","even","NA","43247","49882","45249","192327","2476","30077","17493","192830","149618","192325","192830","192235","49882","194196","41385","191735","2470","186143","Lexical Decision Task","67","65553","73","yes","1024"
"3.120025233","0","2","nyst","non-word","91.89189189189189","91.89189189189189","897.9594594594595","897.9594594594595","black","no","legacy","legacy","legacy","0","uniform","1","undefined","undefined","undefined","1","f","0","0","0","0","73","0","0","0","73","0","69","73","69","0","69","3","73","0","73","Thu Mar  4 17:46:43 2021","The main experiment item","yes","Lexical_Decision_Task.osexp","C:/Users/saffr/Documents","no","Andale Mono","no","18","no","white","no","yes","576","legacy","69","69","3","C:/Users/saffr/Documents/subject-5210402 lexical  decision task.csv","legacy","Lentiform Loewenfeld","3.3.8","yes","yes","600bd7cfb6416f0113b04181","602110864497cf011d9c0822","0","f","NA","j","space","space","space","f","896","NA","4632","15015","12584","3905","896","2","legacy","1024","2","48000","-16","task","5210402","even","NA","43247","49882","45249","194792","2476","30077","17493","195294","149618","194791","195294","194702","49882","196191","41385","194202","2470","186143","Lexical Decision Task","68","66449","74","yes","1024"
"2.895974732","6.65","5","sift","word","92","92","900.32","900.32","black","no","legacy","legacy","legacy","0","uniform","1","undefined","undefined","undefined","1","j","0","0","0","0","74","0","0","0","74","0","70","74","70","0","70","3","74","0","74","Thu Mar  4 17:46:43 2021","The main experiment item","yes","Lexical_Decision_Task.osexp","C:/Users/saffr/Documents","no","Andale Mono","no","18","no","white","no","yes","576","legacy","70","70","3","C:/Users/saffr/Documents/subject-5210402 lexical  decision task.csv","legacy","Lentiform Loewenfeld","3.3.8","yes","yes","600bd7cfb6416f0113b04181","602110864497cf011d9c0822","0","j","NA","j","space","space","space","j","1075","NA","4632","15015","12584","3905","1075","2","legacy","1024","2","48000","-16","task","5210402","even","NA","43247","49882","45249","196797","2476","30077","17493","197299","149618","196794","197299","196714","49882","198376","41385","196214","2470","186143","Lexical Decision Task","69","67524","75","yes","1024"
"3.134602053","0","8","jart","non-word","92.10526315789474","92.10526315789474","898.4605263157895","898.4605263157895","black","no","legacy","legacy","legacy","0","uniform","1","undefined","undefined","undefined","1","f","0","0","0","0","75","0","0","0","75","0","71","75","71","0","71","3","75","0","75","Thu Mar  4 17:46:43 2021","The main experiment item","yes","Lexical_Decision_Task.osexp","C:/Users/saffr/Documents","no","Andale Mono","no","18","no","white","no","yes","576","legacy","71","71","3","C:/Users/saffr/Documents/subject-5210402 lexical  decision task.csv","legacy","Lentiform Loewenfeld","3.3.8","yes","yes","600bd7cfb6416f0113b04181","602110864497cf011d9c0822","0","f","NA","j","space","space","space","f","759","NA","4632","15015","12584","3905","759","2","legacy","1024","2","48000","-16","task","5210402","even","NA","43247","49882","45249","199001","2476","30077","17493","199503","149618","198999","199503","198896","49882","200264","41385","198396","2470","186143","Lexical Decision Task","70","68283","76","yes","1024"
"2.899638141","0","3","hapt","non-word","92.20779220779221","92.20779220779221","901.3636363636364","901.3636363636364","black","no","legacy","legacy","legacy","0","uniform","1","undefined","undefined","undefined","1","f","0","0","0","0","76","0","0","0","76","0","72","76","72","0","72","3","76","0","76","Thu Mar  4 17:46:43 2021","The main experiment item","yes","Lexical_Decision_Task.osexp","C:/Users/saffr/Documents","no","Andale Mono","no","18","no","white","no","yes","576","legacy","72","72","3","C:/Users/saffr/Documents/subject-5210402 lexical  decision task.csv","legacy","Lentiform Loewenfeld","3.3.8","yes","yes","600bd7cfb6416f0113b04181","602110864497cf011d9c0822","0","f","NA","j","space","space","space","f","1122","NA","4632","15015","12584","3905","1122","2","legacy","1024","2","48000","-16","task","5210402","even","NA","43247","49882","45249","200877","2476","30077","17493","201379","149618","200875","201379","200787","49882","202502","41385","200286","2470","186143","Lexical Decision Task","71","69405","77","yes","1024"
"2.937852093","0","7","bamp","non-word","92.3076923076923","92.3076923076923","899.2820512820513","899.2820512820513","black","no","legacy","legacy","legacy","0","uniform","1","undefined","undefined","undefined","1","f","0","0","0","0","77","0","0","0","77","0","73","77","73","0","73","3","77","0","77","Thu Mar  4 17:46:43 2021","The main experiment item","yes","Lexical_Decision_Task.osexp","C:/Users/saffr/Documents","no","Andale Mono","no","18","no","white","no","yes","576","legacy","73","73","3","C:/Users/saffr/Documents/subject-5210402 lexical  decision task.csv","legacy","Lentiform Loewenfeld","3.3.8","yes","yes","600bd7cfb6416f0113b04181","602110864497cf011d9c0822","0","f","NA","j","space","space","space","f","739","NA","4632","15015","12584","3905","739","2","legacy","1024","2","48000","-16","task","5210402","even","NA","43247","49882","45249","203166","2476","30077","17493","203668","149618","203163","203669","203046","49882","204409","41385","202546","2470","186143","Lexical Decision Task","72","70144","78","yes","1024"
"2.842815106","7.86","8","lump","word","92.40506329113924","92.40506329113924","896.7721518987341","896.7721518987341","black","no","legacy","legacy","legacy","0","uniform","1","undefined","undefined","undefined","1","j","0","0","0","0","78","0","0","0","78","0","74","78","74","0","74","3","78","0","78","Thu Mar  4 17:46:43 2021","The main experiment item","yes","Lexical_Decision_Task.osexp","C:/Users/saffr/Documents","no","Andale Mono","no","18","no","white","no","yes","576","legacy","74","74","3","C:/Users/saffr/Documents/subject-5210402 lexical  decision task.csv","legacy","Lentiform Loewenfeld","3.3.8","yes","yes","600bd7cfb6416f0113b04181","602110864497cf011d9c0822","0","j","NA","j","space","space","space","j","701","NA","4632","15015","12584","3905","701","2","legacy","1024","2","48000","-16","task","5210402","even","NA","43247","49882","45249","205025","2476","30077","17493","205527","149618","205023","205527","204933","49882","206230","41385","204433","2470","186143","Lexical Decision Task","73","70845","79","yes","1024"
"2.996511672","0","7","hoil","non-word","92.5","92.5","896.5","896.5","black","no","legacy","legacy","legacy","0","uniform","1","undefined","undefined","undefined","1","f","0","0","0","0","79","0","0","0","79","0","75","79","75","0","75","3","79","0","79","Thu Mar  4 17:46:43 2021","The main experiment item","yes","Lexical_Decision_Task.osexp","C:/Users/saffr/Documents","no","Andale Mono","no","18","no","white","no","yes","576","legacy","75","75","3","C:/Users/saffr/Documents/subject-5210402 lexical  decision task.csv","legacy","Lentiform Loewenfeld","3.3.8","yes","yes","600bd7cfb6416f0113b04181","602110864497cf011d9c0822","0","f","NA","j","space","space","space","f","875","NA","4632","15015","12584","3905","875","2","legacy","1024","2","48000","-16","task","5210402","even","NA","43247","49882","45249","206846","2476","30077","17493","207348","149618","206844","207348","206755","49882","208225","41385","206255","2470","186143","Lexical Decision Task","74","71720","80","yes","1024"
"3.276537627","9.15","5","trap","word","92.5925925925926","92.5925925925926","893.5432098765432","893.5432098765432","black","no","legacy","legacy","legacy","0","uniform","1","undefined","undefined","undefined","1","j","0","0","0","0","80","0","0","0","80","0","76","80","76","0","76","3","80","0","80","Thu Mar  4 17:46:43 2021","The main experiment item","yes","Lexical_Decision_Task.osexp","C:/Users/saffr/Documents","no","Andale Mono","no","18","no","white","no","yes","576","legacy","76","76","3","C:/Users/saffr/Documents/subject-5210402 lexical  decision task.csv","legacy","Lentiform Loewenfeld","3.3.8","yes","yes","600bd7cfb6416f0113b04181","602110864497cf011d9c0822","0","j","NA","j","space","space","space","j","657","NA","4632","15015","12584","3905","657","2","legacy","1024","2","48000","-16","task","5210402","even","NA","43247","49882","45249","208868","2476","30077","17493","209370","149618","208865","209370","208748","49882","210028","41385","208248","2470","186143","Lexical Decision Task","75","72377","81","yes","1024"
"3.064581521","5.51","6","cask","word","91.46341463414635","91.46341463414635","893.1951219512196","893.1951219512196","black","no","legacy","legacy","legacy","0","uniform","0","undefined","undefined","undefined","0","j","0","0","0","0","81","0","0","0","81","0","77","81","77","0","77","3","81","0","81","Thu Mar  4 17:46:43 2021","The main experiment item","yes","Lexical_Decision_Task.osexp","C:/Users/saffr/Documents","no","Andale Mono","no","18","no","white","no","yes","576","legacy","77","77","3","C:/Users/saffr/Documents/subject-5210402 lexical  decision task.csv","legacy","Lentiform Loewenfeld","3.3.8","yes","yes","600bd7cfb6416f0113b04181","602110864497cf011d9c0822","0","f","NA","j","space","space","space","f","865","NA","4632","15015","12584","3905","865","2","legacy","1024","2","48000","-16","task","5210402","even","NA","43247","49882","45249","210634","2476","30077","17493","211136","149618","210632","211137","210534","49882","212003","41385","210034","2470","186143","Lexical Decision Task","75","73242","82","yes","1024"
"3.382617311","0","4","pret","non-word","90.36144578313252","90.36144578313252","904.144578313253","904.144578313253","black","no","legacy","legacy","legacy","0","uniform","0","undefined","undefined","undefined","0","f","0","0","0","0","82","0","0","0","82","0","78","82","78","0","78","3","82","0","82","Thu Mar  4 17:46:43 2021","The main experiment item","yes","Lexical_Decision_Task.osexp","C:/Users/saffr/Documents","no","Andale Mono","no","18","no","white","no","yes","576","legacy","78","78","3","C:/Users/saffr/Documents/subject-5210402 lexical  decision task.csv","legacy","Lentiform Loewenfeld","3.3.8","yes","yes","600bd7cfb6416f0113b04181","602110864497cf011d9c0822","0","j","NA","j","space","space","space","j","1802","NA","4632","15015","12584","3905","1802","2","legacy","1024","2","48000","-16","task","5210402","even","NA","43247","49882","45249","213611","2476","30077","17493","214113","149618","213609","214113","213509","49882","215917","41385","210034","2470","212009","Lexical Decision Task","75","75044","83","yes","1024"
"3.495914186","0","4","peng","non-word","89.28571428571429","89.28571428571429","904.9642857142857","904.9642857142857","black","no","legacy","legacy","legacy","0","uniform","0","undefined","undefined","undefined","0","f","0","0","0","0","83","0","0","0","83","0","79","83","79","0","79","3","83","0","83","Thu Mar  4 17:46:43 2021","The main experiment item","yes","Lexical_Decision_Task.osexp","C:/Users/saffr/Documents","no","Andale Mono","no","18","no","white","no","yes","576","legacy","79","79","3","C:/Users/saffr/Documents/subject-5210402 lexical  decision task.csv","legacy","Lentiform Loewenfeld","3.3.8","yes","yes","600bd7cfb6416f0113b04181","602110864497cf011d9c0822","0","j","NA","j","space","space","space","j","973","NA","4632","15015","12584","3905","973","2","legacy","1024","2","48000","-16","task","5210402","even","NA","43247","49882","45249","217560","2476","30077","17493","218062","149618","217557","218062","217440","49882","219037","41385","210034","2470","215940","Lexical Decision Task","75","76017","84","yes","1024"
"2.698100546","0","9","mulk","non-word","89.41176470588235","89.41176470588235","905.6","905.6","black","no","legacy","legacy","legacy","0","uniform","1","undefined","undefined","undefined","1","f","0","0","0","0","84","0","0","0","84","0","80","84","80","0","80","3","84","0","84","Thu Mar  4 17:46:43 2021","The main experiment item","yes","Lexical_Decision_Task.osexp","C:/Users/saffr/Documents","no","Andale Mono","no","18","no","white","no","yes","576","legacy","80","80","3","C:/Users/saffr/Documents/subject-5210402 lexical  decision task.csv","legacy","Lentiform Loewenfeld","3.3.8","yes","yes","600bd7cfb6416f0113b04181","602110864497cf011d9c0822","0","f","NA","j","space","space","space","f","959","NA","4632","15015","12584","3905","959","2","legacy","1024","2","48000","-16","task","5210402","even","NA","43247","49882","45249","220678","2476","30077","17493","221180","149618","220675","221180","220557","49882","222140","41385","210034","2470","219057","Lexical Decision Task","76","76976","85","yes","1024"
"3.102203805","7.21","3","drip","word","89.53488372093024","89.53488372093024","903.6395348837209","903.6395348837209","black","no","legacy","legacy","legacy","0","uniform","1","undefined","undefined","undefined","1","j","0","0","0","0","85","0","0","0","85","0","81","85","81","0","81","3","85","0","85","Thu Mar  4 17:46:43 2021","The main experiment item","yes","Lexical_Decision_Task.osexp","C:/Users/saffr/Documents","no","Andale Mono","no","18","no","white","no","yes","576","legacy","81","81","3","C:/Users/saffr/Documents/subject-5210402 lexical  decision task.csv","legacy","Lentiform Loewenfeld","3.3.8","yes","yes","600bd7cfb6416f0113b04181","602110864497cf011d9c0822","0","j","NA","j","space","space","space","j","737","NA","4632","15015","12584","3905","737","2","legacy","1024","2","48000","-16","task","5210402","even","NA","43247","49882","45249","222782","2476","30077","17493","223284","149618","222779","223285","222651","49882","224023","41385","222151","2470","219057","Lexical Decision Task","77","77713","86","yes","1024"
"2.7084209","0","8","vump","non-word","89.65517241379311","89.65517241379311","901.2298850574713","901.2298850574713","black","no","legacy","legacy","legacy","0","uniform","1","undefined","undefined","undefined","1","f","0","0","0","0","86","0","0","0","86","0","82","86","82","0","82","3","86","0","86","Thu Mar  4 17:46:43 2021","The main experiment item","yes","Lexical_Decision_Task.osexp","C:/Users/saffr/Documents","no","Andale Mono","no","18","no","white","no","yes","576","legacy","82","82","3","C:/Users/saffr/Documents/subject-5210402 lexical  decision task.csv","legacy","Lentiform Loewenfeld","3.3.8","yes","yes","600bd7cfb6416f0113b04181","602110864497cf011d9c0822","0","f","NA","j","space","space","space","f","694","NA","4632","15015","12584","3905","694","2","legacy","1024","2","48000","-16","task","5210402","even","NA","43247","49882","45249","224655","2476","30077","17493","225157","149618","224653","225157","224551","49882","225853","41385","224051","2470","219057","Lexical Decision Task","78","78407","87","yes","1024"
"2.893578687","8.69","3","surf","word","89.77272727272727","89.77272727272727","898.3863636363636","898.3863636363636","black","no","legacy","legacy","legacy","0","uniform","1","undefined","undefined","undefined","1","j","0","0","0","0","87","0","0","0","87","0","83","87","83","0","83","3","87","0","87","Thu Mar  4 17:46:43 2021","The main experiment item","yes","Lexical_Decision_Task.osexp","C:/Users/saffr/Documents","no","Andale Mono","no","18","no","white","no","yes","576","legacy","83","83","3","C:/Users/saffr/Documents/subject-5210402 lexical  decision task.csv","legacy","Lentiform Loewenfeld","3.3.8","yes","yes","600bd7cfb6416f0113b04181","602110864497cf011d9c0822","0","j","NA","j","space","space","space","j","651","NA","4632","15015","12584","3905","651","2","legacy","1024","2","48000","-16","task","5210402","even","NA","43247","49882","45249","226455","2476","30077","17493","226956","149618","226453","226956","226377","49882","227609","41385","225877","2470","219057","Lexical Decision Task","79","79058","88","yes","1024"
"3.15462682","0","6","noal","non-word","89.88764044943821","89.88764044943821","895.6516853932584","895.6516853932584","black","no","legacy","legacy","legacy","0","uniform","1","undefined","undefined","undefined","1","f","0","0","0","0","88","0","0","0","88","0","84","88","84","0","84","3","88","0","88","Thu Mar  4 17:46:43 2021","The main experiment item","yes","Lexical_Decision_Task.osexp","C:/Users/saffr/Documents","no","Andale Mono","no","18","no","white","no","yes","576","legacy","84","84","3","C:/Users/saffr/Documents/subject-5210402 lexical  decision task.csv","legacy","Lentiform Loewenfeld","3.3.8","yes","yes","600bd7cfb6416f0113b04181","602110864497cf011d9c0822","0","f","NA","j","space","space","space","f","655","NA","4632","15015","12584","3905","655","2","legacy","1024","2","48000","-16","task","5210402","even","NA","43247","49882","45249","228239","2476","30077","17493","228741","149618","228238","228741","228138","49882","229398","41385","227636","2470","219057","Lexical Decision Task","80","79713","89","yes","1024"
"3.077974404","10.41","8","tool","word","90","90","893.5666666666667","893.5666666666667","black","no","legacy","legacy","legacy","0","uniform","1","undefined","undefined","undefined","1","j","0","0","0","0","89","0","0","0","89","0","85","89","85","0","85","3","89","0","89","Thu Mar  4 17:46:43 2021","The main experiment item","yes","Lexical_Decision_Task.osexp","C:/Users/saffr/Documents","no","Andale Mono","no","18","no","white","no","yes","576","legacy","85","85","3","C:/Users/saffr/Documents/subject-5210402 lexical  decision task.csv","legacy","Lentiform Loewenfeld","3.3.8","yes","yes","600bd7cfb6416f0113b04181","602110864497cf011d9c0822","0","j","NA","j","space","space","space","j","708","NA","4632","15015","12584","3905","708","2","legacy","1024","2","48000","-16","task","5210402","even","NA","43247","49882","45249","230021","2476","30077","17493","230523","149618","230019","230523","229930","49882","231232","41385","229430","2470","219057","Lexical Decision Task","81","80421","90","yes","1024"
"3.094121596","0","8","fode","non-word","90.10989010989012","90.10989010989012","890.8681318681319","890.8681318681319","black","no","legacy","legacy","legacy","0","uniform","1","undefined","undefined","undefined","1","f","0","0","0","0","90","0","0","0","90","0","86","90","86","0","86","3","90","0","90","Thu Mar  4 17:46:43 2021","The main experiment item","yes","Lexical_Decision_Task.osexp","C:/Users/saffr/Documents","no","Andale Mono","no","18","no","white","no","yes","576","legacy","86","86","3","C:/Users/saffr/Documents/subject-5210402 lexical  decision task.csv","legacy","Lentiform Loewenfeld","3.3.8","yes","yes","600bd7cfb6416f0113b04181","602110864497cf011d9c0822","0","f","NA","j","space","space","space","f","648","NA","4632","15015","12584","3905","648","2","legacy","1024","2","48000","-16","task","5210402","even","NA","43247","49882","45249","231835","2476","30077","17493","232338","149618","231834","232338","231753","49882","232988","41385","231253","2470","219057","Lexical Decision Task","82","81069","91","yes","1024"
"2.696644658","5.78","2","yolk","word","90.21739130434783","90.21739130434783","889.2934782608696","889.2934782608696","black","no","legacy","legacy","legacy","0","uniform","1","undefined","undefined","undefined","1","j","0","0","0","0","91","0","0","0","91","0","87","91","87","0","87","3","91","0","91","Thu Mar  4 17:46:43 2021","The main experiment item","yes","Lexical_Decision_Task.osexp","C:/Users/saffr/Documents","no","Andale Mono","no","18","no","white","no","yes","576","legacy","87","87","3","C:/Users/saffr/Documents/subject-5210402 lexical  decision task.csv","legacy","Lentiform Loewenfeld","3.3.8","yes","yes","600bd7cfb6416f0113b04181","602110864497cf011d9c0822","0","j","NA","j","space","space","space","j","746","NA","4632","15015","12584","3905","746","2","legacy","1024","2","48000","-16","task","5210402","even","NA","43247","49882","45249","233631","2476","30077","17493","234133","149618","233628","234133","233515","49882","234881","41385","233015","2470","219057","Lexical Decision Task","83","81815","92","yes","1024"
"3.168890155","0","6","thet","non-word","90.3225806451613","90.3225806451613","885.8817204301075","885.8817204301075","black","no","legacy","legacy","legacy","0","uniform","1","undefined","undefined","undefined","1","f","0","0","0","0","92","0","0","0","92","0","88","92","88","0","88","3","92","0","92","Thu Mar  4 17:46:43 2021","The main experiment item","yes","Lexical_Decision_Task.osexp","C:/Users/saffr/Documents","no","Andale Mono","no","18","no","white","no","yes","576","legacy","88","88","3","C:/Users/saffr/Documents/subject-5210402 lexical  decision task.csv","legacy","Lentiform Loewenfeld","3.3.8","yes","yes","600bd7cfb6416f0113b04181","602110864497cf011d9c0822","0","f","NA","j","space","space","space","f","572","NA","4632","15015","12584","3905","572","2","legacy","1024","2","48000","-16","task","5210402","even","NA","43247","49882","45249","235511","2476","30077","17493","236013","149618","235509","236013","235419","49882","236587","41385","234919","2470","219057","Lexical Decision Task","84","82387","93","yes","1024"
"2.803231716","5.26","3","kiln","word","90.42553191489361","90.42553191489361","888.0957446808511","888.0957446808511","black","no","legacy","legacy","legacy","0","uniform","1","undefined","undefined","undefined","1","j","0","0","0","0","93","0","0","0","93","0","89","93","89","0","89","3","93","0","93","Thu Mar  4 17:46:43 2021","The main experiment item","yes","Lexical_Decision_Task.osexp","C:/Users/saffr/Documents","no","Andale Mono","no","18","no","white","no","yes","576","legacy","89","89","3","C:/Users/saffr/Documents/subject-5210402 lexical  decision task.csv","legacy","Lentiform Loewenfeld","3.3.8","yes","yes","600bd7cfb6416f0113b04181","602110864497cf011d9c0822","0","j","NA","j","space","space","space","j","1094","NA","4632","15015","12584","3905","1094","2","legacy","1024","2","48000","-16","task","5210402","even","NA","43247","49882","45249","237190","2476","30077","17493","237692","149618","237188","237692","237109","49882","238788","41385","236609","2470","219057","Lexical Decision Task","85","83481","94","yes","1024"
"2.953276337","6.32","4","thaw","word","90.52631578947368","90.52631578947368","886.3473684210526","886.3473684210526","black","no","legacy","legacy","legacy","0","uniform","1","undefined","undefined","undefined","1","j","0","0","0","0","94","0","0","0","94","0","90","94","90","0","90","3","94","0","94","Thu Mar  4 17:46:43 2021","The main experiment item","yes","Lexical_Decision_Task.osexp","C:/Users/saffr/Documents","no","Andale Mono","no","18","no","white","no","yes","576","legacy","90","90","3","C:/Users/saffr/Documents/subject-5210402 lexical  decision task.csv","legacy","Lentiform Loewenfeld","3.3.8","yes","yes","600bd7cfb6416f0113b04181","602110864497cf011d9c0822","0","j","NA","j","space","space","space","j","722","NA","4632","15015","12584","3905","722","2","legacy","1024","2","48000","-16","task","5210402","even","NA","43247","49882","45249","239420","2476","30077","17493","239922","149618","239417","239922","239314","49882","240645","41385","238814","2470","219057","Lexical Decision Task","86","84203","95","yes","1024"
"3.120135028","0","3","vals","non-word","90.625","90.625","884.3229166666666","884.3229166666666","black","no","legacy","legacy","legacy","0","uniform","1","undefined","undefined","undefined","1","f","0","0","0","0","95","0","0","0","95","0","91","95","91","0","91","3","95","0","95","Thu Mar  4 17:46:43 2021","The main experiment item","yes","Lexical_Decision_Task.osexp","C:/Users/saffr/Documents","no","Andale Mono","no","18","no","white","no","yes","576","legacy","91","91","3","C:/Users/saffr/Documents/subject-5210402 lexical  decision task.csv","legacy","Lentiform Loewenfeld","3.3.8","yes","yes","600bd7cfb6416f0113b04181","602110864497cf011d9c0822","0","f","NA","j","space","space","space","f","692","NA","4632","15015","12584","3905","692","2","legacy","1024","2","48000","-16","task","5210402","even","NA","43247","49882","45249","241277","2476","30077","17493","241779","149618","241275","241779","241177","49882","242473","41385","240677","2470","219057","Lexical Decision Task","87","84895","96","yes","1024"
"3.105055783","0","2","norp","non-word","90.72164948453609","90.72164948453609","882","882","black","no","legacy","legacy","legacy","0","uniform","1","undefined","undefined","undefined","1","f","0","0","0","0","96","0","0","0","96","0","92","96","92","0","92","3","96","0","96","Thu Mar  4 17:46:43 2021","The main experiment item","yes","Lexical_Decision_Task.osexp","C:/Users/saffr/Documents","no","Andale Mono","no","18","no","white","no","yes","576","legacy","92","92","3","C:/Users/saffr/Documents/subject-5210402 lexical  decision task.csv","legacy","Lentiform Loewenfeld","3.3.8","yes","yes","600bd7cfb6416f0113b04181","602110864497cf011d9c0822","0","f","NA","j","space","space","space","f","659","NA","4632","15015","12584","3905","659","2","legacy","1024","2","48000","-16","task","5210402","even","NA","43247","49882","45249","243122","2476","30077","17493","243624","149618","243120","243624","242994","49882","244286","41385","242494","2470","219057","Lexical Decision Task","88","85554","97","yes","1024"
"3.091901331","0","9","nipe","non-word","90.81632653061224","90.81632653061224","880.469387755102","880.469387755102","black","no","legacy","legacy","legacy","0","uniform","1","undefined","undefined","undefined","1","f","0","0","0","0","97","0","0","0","97","0","93","97","93","0","93","3","97","0","97","Thu Mar  4 17:46:43 2021","The main experiment item","yes","Lexical_Decision_Task.osexp","C:/Users/saffr/Documents","no","Andale Mono","no","18","no","white","no","yes","576","legacy","93","93","3","C:/Users/saffr/Documents/subject-5210402 lexical  decision task.csv","legacy","Lentiform Loewenfeld","3.3.8","yes","yes","600bd7cfb6416f0113b04181","602110864497cf011d9c0822","0","f","NA","j","space","space","space","f","732","NA","4632","15015","12584","3905","732","2","legacy","1024","2","48000","-16","task","5210402","even","NA","43247","49882","45249","244926","2476","30077","17493","245428","149618","244923","245428","244812","49882","246162","41385","244312","2470","219057","Lexical Decision Task","89","86286","98","yes","1024"
