"Log_BG","Log_Freq_HAL","Ortho_N","Stimulus","Type","acc","accuracy","average_response_time","avg_rt","background","bidi","canvas_backend","clock_backend","color_backend","compensation","coordinates","correct","correct_Experimental_intro","correct_Introduction","correct_Practice_intro","correct_experimenter_kb","correct_response","count_End_Of_Experiment","count_End_Of_Practice","count_Experimental_Loop","count_Experimental_intro","count_Fixation","count_Introduction","count_Practice_Loop","count_Practice_intro","count_Stimulus","count_block_break_feedback","count_experimental_sequence","count_experimenter_kb","count_increment_trial_count","count_init_trial_count","count_logger","count_practice_sequence","count_right","count_task","count_wrong","datetime","description","disable_garbage_collection","experiment_file","experiment_path","font_bold","font_family","font_italic","font_size","font_underline","foreground","form_clicks","fullscreen","height","keyboard_backend","live_row","live_row_Experimental_Loop","live_row_Practice_Loop","logfile","mouse_backend","opensesame_codename","opensesame_version","osf_always_upload_data","osf_always_upload_experiment","osf_datanode_id","osf_id","repeat_cycle","response","response_End_Of_Experiment","response_Experimental_intro","response_Introduction","response_Practice_intro","response_block_break_feedback","response_experimenter_kb","response_time","response_time_End_Of_Experiment","response_time_Experimental_intro","response_time_Introduction","response_time_Practice_intro","response_time_block_break_feedback","response_time_experimenter_kb","round_decimals","sampler_backend","sound_buf_size","sound_channels","sound_freq","sound_sample_size","start","subject_nr","subject_parity","time_End_Of_Experiment","time_End_Of_Practice","time_Experimental_Loop","time_Experimental_intro","time_Fixation","time_Introduction","time_Practice_Loop","time_Practice_intro","time_Stimulus","time_block_break_feedback","time_experimental_sequence","time_experimenter_kb","time_increment_trial_count","time_init_trial_count","time_logger","time_practice_sequence","time_right","time_task","time_wrong","title","total_correct","total_response_time","total_responses","uniform_coordinates","width"
"3.197740804","6.74","3","ache","word","100","100","838","838","black","no","legacy","legacy","legacy","0","uniform","1","undefined","undefined","undefined","1","j","0","0","0","0","4","0","0","0","4","NA","0","4","0","0","0","3","4","0","4","Mon Feb 15 15:01:46 2021","The main experiment item","yes","Lexical_Decision_Task.osexp","C:/Users/liber","no","Andale Mono","no","18","no","white","no","yes","576","legacy","0","0","3","C:/Users/liber/subject-5207702.csv","legacy","Lentiform Loewenfeld","3.3.7","yes","yes","600bd7cfb6416f0113b04181","602110864497cf011d9c0822","0","j","NA","j","return","j","NA","j","1079","NA","3673","5741","14872","NA","1079","2","legacy","1024","2","48000","-16","task","5207702","even","NA","33733","39410","35736","39525","5088","25711","10838","40028","NA","39522","40029","NA","39410","41109","32106","33178","5076","NA","Lexical Decision Task","5","4190","5","yes","1024"
"2.972819734","0","4","scew","non-word","100","100","879.5","879.5","black","no","legacy","legacy","legacy","0","uniform","1","undefined","undefined","undefined","1","f","0","0","0","0","5","0","0","0","5","NA","1","5","1","0","1","3","5","0","5","Mon Feb 15 15:01:46 2021","The main experiment item","yes","Lexical_Decision_Task.osexp","C:/Users/liber","no","Andale Mono","no","18","no","white","no","yes","576","legacy","1","1","3","C:/Users/liber/subject-5207702.csv","legacy","Lentiform Loewenfeld","3.3.7","yes","yes","600bd7cfb6416f0113b04181","602110864497cf011d9c0822","0","f","NA","j","return","j","NA","f","1087","NA","3673","5741","14872","NA","1087","2","legacy","1024","2","48000","-16","task","5207702","even","NA","33733","39410","35736","41907","5088","25711","10838","42410","NA","41906","42411","41711","39410","43499","32106","41211","5076","NA","Lexical Decision Task","6","5277","6","yes","1024"
"2.68604012","0","3","mulb","non-word","100","100","870.8571428571429","870.8571428571429","black","no","legacy","legacy","legacy","0","uniform","1","undefined","undefined","undefined","1","f","0","0","0","0","6","0","0","0","6","NA","2","6","2","0","2","3","6","0","6","Mon Feb 15 15:01:46 2021","The main experiment item","yes","Lexical_Decision_Task.osexp","C:/Users/liber","no","Andale Mono","no","18","no","white","no","yes","576","legacy","2","2","3","C:/Users/liber/subject-5207702.csv","legacy","Lentiform Loewenfeld","3.3.7","yes","yes","600bd7cfb6416f0113b04181","602110864497cf011d9c0822","0","f","NA","j","return","j","NA","f","819","NA","3673","5741","14872","NA","819","2","legacy","1024","2","48000","-16","task","5207702","even","NA","33733","39410","35736","44186","5088","25711","10838","44689","NA","44185","44689","44059","39410","45509","32106","43559","5076","NA","Lexical Decision Task","7","6096","7","yes","1024"
"3.208172527","10.27","7","deck","word","100","100","835.625","835.625","black","no","legacy","legacy","legacy","0","uniform","1","undefined","undefined","undefined","1","j","0","0","0","0","7","0","0","0","7","NA","3","7","3","0","3","3","7","0","7","Mon Feb 15 15:01:46 2021","The main experiment item","yes","Lexical_Decision_Task.osexp","C:/Users/liber","no","Andale Mono","no","18","no","white","no","yes","576","legacy","3","3","3","C:/Users/liber/subject-5207702.csv","legacy","Lentiform Loewenfeld","3.3.7","yes","yes","600bd7cfb6416f0113b04181","602110864497cf011d9c0822","0","j","NA","j","return","j","NA","j","589","NA","3673","5741","14872","NA","589","2","legacy","1024","2","48000","-16","task","5207702","even","NA","33733","39410","35736","46206","5088","25711","10838","46709","NA","46203","46709","46068","39410","47299","32106","45567","5076","NA","Lexical Decision Task","8","6685","8","yes","1024"
"3.384413096","10.15","3","glad","word","100","100","817.8888888888889","817.8888888888889","black","no","legacy","legacy","legacy","0","uniform","1","undefined","undefined","undefined","1","j","0","0","0","0","8","0","0","0","8","NA","4","8","4","0","4","3","8","0","8","Mon Feb 15 15:01:46 2021","The main experiment item","yes","Lexical_Decision_Task.osexp","C:/Users/liber","no","Andale Mono","no","18","no","white","no","yes","576","legacy","4","4","3","C:/Users/liber/subject-5207702.csv","legacy","Lentiform Loewenfeld","3.3.7","yes","yes","600bd7cfb6416f0113b04181","602110864497cf011d9c0822","0","j","NA","j","return","j","NA","j","676","NA","3673","5741","14872","NA","676","2","legacy","1024","2","48000","-16","task","5207702","even","NA","33733","39410","35736","47988","5088","25711","10838","48491","NA","47986","48492","47854","39410","49169","32106","47353","5076","NA","Lexical Decision Task","9","7361","9","yes","1024"
"2.664011697","8.19","4","hawk","word","100","100","806.3","806.3","black","no","legacy","legacy","legacy","0","uniform","1","undefined","undefined","undefined","1","j","0","0","0","0","9","0","0","0","9","NA","5","9","5","0","5","3","9","0","9","Mon Feb 15 15:01:46 2021","The main experiment item","yes","Lexical_Decision_Task.osexp","C:/Users/liber","no","Andale Mono","no","18","no","white","no","yes","576","legacy","5","5","3","C:/Users/liber/subject-5207702.csv","legacy","Lentiform Loewenfeld","3.3.7","yes","yes","600bd7cfb6416f0113b04181","602110864497cf011d9c0822","0","j","NA","j","return","j","NA","j","702","NA","3673","5741","14872","NA","702","2","legacy","1024","2","48000","-16","task","5207702","even","NA","33733","39410","35736","49865","5088","25711","10838","50369","NA","49863","50369","49729","39410","51071","32106","49229","5076","NA","Lexical Decision Task","10","8063","10","yes","1024"
"2.983324025","9.56","2","debt","word","100","100","792.8181818181819","792.8181818181819","black","no","legacy","legacy","legacy","0","uniform","1","undefined","undefined","undefined","1","j","0","0","0","0","10","0","0","0","10","NA","6","10","6","0","6","3","10","0","10","Mon Feb 15 15:01:46 2021","The main experiment item","yes","Lexical_Decision_Task.osexp","C:/Users/liber","no","Andale Mono","no","18","no","white","no","yes","576","legacy","6","6","3","C:/Users/liber/subject-5207702.csv","legacy","Lentiform Loewenfeld","3.3.7","yes","yes","600bd7cfb6416f0113b04181","602110864497cf011d9c0822","0","j","NA","j","return","j","NA","j","658","NA","3673","5741","14872","NA","658","2","legacy","1024","2","48000","-16","task","5207702","even","NA","33733","39410","35736","51775","5088","25711","10838","52279","NA","51772","52279","51628","39410","52939","32106","51128","5076","NA","Lexical Decision Task","11","8721","11","yes","1024"
"3.20871002","7.15","8","cram","word","100","100","790.0833333333334","790.0833333333334","black","no","legacy","legacy","legacy","0","uniform","1","undefined","undefined","undefined","1","j","0","0","0","0","11","0","0","0","11","NA","7","11","7","0","7","3","11","0","11","Mon Feb 15 15:01:46 2021","The main experiment item","yes","Lexical_Decision_Task.osexp","C:/Users/liber","no","Andale Mono","no","18","no","white","no","yes","576","legacy","7","7","3","C:/Users/liber/subject-5207702.csv","legacy","Lentiform Loewenfeld","3.3.7","yes","yes","600bd7cfb6416f0113b04181","602110864497cf011d9c0822","0","j","NA","j","return","j","NA","j","760","NA","3673","5741","14872","NA","760","2","legacy","1024","2","48000","-16","task","5207702","even","NA","33733","39410","35736","53640","5088","25711","10838","54144","NA","53638","54144","53509","39410","54905","32106","53009","5076","NA","Lexical Decision Task","12","9481","12","yes","1024"
"2.803231716","5.26","3","kiln","word","92.3076923076923","92.3076923076923","771.5384615384615","771.5384615384615","black","no","legacy","legacy","legacy","0","uniform","0","undefined","undefined","undefined","0","j","0","0","0","0","12","0","0","0","12","NA","8","12","8","0","8","3","12","0","12","Mon Feb 15 15:01:46 2021","The main experiment item","yes","Lexical_Decision_Task.osexp","C:/Users/liber","no","Andale Mono","no","18","no","white","no","yes","576","legacy","8","8","3","C:/Users/liber/subject-5207702.csv","legacy","Lentiform Loewenfeld","3.3.7","yes","yes","600bd7cfb6416f0113b04181","602110864497cf011d9c0822","0","f","NA","j","return","j","NA","f","549","NA","3673","5741","14872","NA","549","2","legacy","1024","2","48000","-16","task","5207702","even","NA","33733","39410","35736","55643","5088","25711","10838","56147","NA","55639","56147","55472","39410","56698","32106","54972","5076","NA","Lexical Decision Task","12","10030","13","yes","1024"
"2.996511672","0","7","hoil","non-word","92.85714285714286","92.85714285714286","791.3571428571429","791.3571428571429","black","no","legacy","legacy","legacy","0","uniform","1","undefined","undefined","undefined","1","f","0","0","0","0","13","0","0","0","13","NA","9","13","9","0","9","3","13","0","13","Mon Feb 15 15:01:46 2021","The main experiment item","yes","Lexical_Decision_Task.osexp","C:/Users/liber","no","Andale Mono","no","18","no","white","no","yes","576","legacy","9","9","3","C:/Users/liber/subject-5207702.csv","legacy","Lentiform Loewenfeld","3.3.7","yes","yes","600bd7cfb6416f0113b04181","602110864497cf011d9c0822","0","f","NA","j","return","j","NA","f","1049","NA","3673","5741","14872","NA","1049","2","legacy","1024","2","48000","-16","task","5207702","even","NA","33733","39410","35736","58420","5088","25711","10838","58924","NA","58417","58924","58262","39410","59975","32106","54972","5076","56762","Lexical Decision Task","13","11079","14","yes","1024"
"2.819763221","0","2","durp","non-word","93.33333333333333","93.33333333333333","782.2","782.2","black","no","legacy","legacy","legacy","0","uniform","1","undefined","undefined","undefined","1","f","0","0","0","0","14","0","0","0","14","NA","10","14","10","0","10","3","14","0","14","Mon Feb 15 15:01:46 2021","The main experiment item","yes","Lexical_Decision_Task.osexp","C:/Users/liber","no","Andale Mono","no","18","no","white","no","yes","576","legacy","10","10","3","C:/Users/liber/subject-5207702.csv","legacy","Lentiform Loewenfeld","3.3.7","yes","yes","600bd7cfb6416f0113b04181","602110864497cf011d9c0822","0","f","NA","j","return","j","NA","f","654","NA","3673","5741","14872","NA","654","2","legacy","1024","2","48000","-16","task","5207702","even","NA","33733","39410","35736","60688","5088","25711","10838","61192","NA","60686","61192","60549","39410","61848","32106","60049","5076","56762","Lexical Decision Task","14","11733","15","yes","1024"
"2.82129731","6.72","5","plum","word","93.75","93.75","769.1875","769.1875","black","no","legacy","legacy","legacy","0","uniform","1","undefined","undefined","undefined","1","j","0","0","0","0","15","0","0","0","15","NA","11","15","11","0","11","3","15","0","15","Mon Feb 15 15:01:46 2021","The main experiment item","yes","Lexical_Decision_Task.osexp","C:/Users/liber","no","Andale Mono","no","18","no","white","no","yes","576","legacy","11","11","3","C:/Users/liber/subject-5207702.csv","legacy","Lentiform Loewenfeld","3.3.7","yes","yes","600bd7cfb6416f0113b04181","602110864497cf011d9c0822","0","j","NA","j","return","j","NA","j","574","NA","3673","5741","14872","NA","574","2","legacy","1024","2","48000","-16","task","5207702","even","NA","33733","39410","35736","62516","5088","25711","10838","63021","NA","62514","63021","62384","39410","63595","32106","61884","5076","56762","Lexical Decision Task","15","12307","16","yes","1024"
"3.282244367","0","6","fute","non-word","94.11764705882354","94.11764705882354","779.5882352941177","779.5882352941177","black","no","legacy","legacy","legacy","0","uniform","1","undefined","undefined","undefined","1","f","0","0","0","0","16","0","0","0","16","NA","12","16","12","0","12","3","16","0","16","Mon Feb 15 15:01:46 2021","The main experiment item","yes","Lexical_Decision_Task.osexp","C:/Users/liber","no","Andale Mono","no","18","no","white","no","yes","576","legacy","12","12","3","C:/Users/liber/subject-5207702.csv","legacy","Lentiform Loewenfeld","3.3.7","yes","yes","600bd7cfb6416f0113b04181","602110864497cf011d9c0822","0","f","NA","j","return","j","NA","f","946","NA","3673","5741","14872","NA","946","2","legacy","1024","2","48000","-16","task","5207702","even","NA","33733","39410","35736","64316","5088","25711","10838","64820","NA","64313","64820","64162","39410","65768","32106","63661","5076","56762","Lexical Decision Task","16","13253","17","yes","1024"
"2.893578687","8.69","3","surf","word","94.44444444444444","94.44444444444444","768.1666666666666","768.1666666666666","black","no","legacy","legacy","legacy","0","uniform","1","undefined","undefined","undefined","1","j","0","0","0","0","17","0","0","0","17","NA","13","17","13","0","13","3","17","0","17","Mon Feb 15 15:01:46 2021","The main experiment item","yes","Lexical_Decision_Task.osexp","C:/Users/liber","no","Andale Mono","no","18","no","white","no","yes","576","legacy","13","13","3","C:/Users/liber/subject-5207702.csv","legacy","Lentiform Loewenfeld","3.3.7","yes","yes","600bd7cfb6416f0113b04181","602110864497cf011d9c0822","0","j","NA","j","return","j","NA","j","574","NA","3673","5741","14872","NA","574","2","legacy","1024","2","48000","-16","task","5207702","even","NA","33733","39410","35736","66472","5088","25711","10838","66976","NA","66471","66976","66337","39410","67550","32106","65836","5076","56762","Lexical Decision Task","17","13827","18","yes","1024"
"3.062080345","0","6","tomp","non-word","94.73684210526316","94.73684210526316","759.5263157894736","759.5263157894736","black","no","legacy","legacy","legacy","0","uniform","1","undefined","undefined","undefined","1","f","0","0","0","0","18","0","0","0","18","NA","14","18","14","0","14","3","18","0","18","Mon Feb 15 15:01:46 2021","The main experiment item","yes","Lexical_Decision_Task.osexp","C:/Users/liber","no","Andale Mono","no","18","no","white","no","yes","576","legacy","14","14","3","C:/Users/liber/subject-5207702.csv","legacy","Lentiform Loewenfeld","3.3.7","yes","yes","600bd7cfb6416f0113b04181","602110864497cf011d9c0822","0","f","NA","j","return","j","NA","f","604","NA","3673","5741","14872","NA","604","2","legacy","1024","2","48000","-16","task","5207702","even","NA","33733","39410","35736","68239","5088","25711","10838","68743","NA","68237","68743","68109","39410","69349","32106","67609","5076","56762","Lexical Decision Task","18","14431","19","yes","1024"
"3.195807436","0","6","stup","non-word","90","90","752.5","752.5","black","no","legacy","legacy","legacy","0","uniform","0","undefined","undefined","undefined","0","f","0","0","0","0","19","0","0","0","19","NA","15","19","15","0","15","3","19","0","19","Mon Feb 15 15:01:46 2021","The main experiment item","yes","Lexical_Decision_Task.osexp","C:/Users/liber","no","Andale Mono","no","18","no","white","no","yes","576","legacy","15","15","3","C:/Users/liber/subject-5207702.csv","legacy","Lentiform Loewenfeld","3.3.7","yes","yes","600bd7cfb6416f0113b04181","602110864497cf011d9c0822","0","j","NA","j","return","j","NA","j","619","NA","3673","5741","14872","NA","619","2","legacy","1024","2","48000","-16","task","5207702","even","NA","33733","39410","35736","70047","5088","25711","10838","70550","NA","70045","70550","69910","39410","71170","32106","69410","5076","56762","Lexical Decision Task","18","15050","20","yes","1024"
"3.366547468","0","6","plat","non-word","85.71428571428571","85.71428571428571","748","748","black","no","legacy","legacy","legacy","0","uniform","0","undefined","undefined","undefined","0","f","0","0","0","0","20","0","0","0","20","NA","16","20","16","0","16","3","20","0","20","Mon Feb 15 15:01:46 2021","The main experiment item","yes","Lexical_Decision_Task.osexp","C:/Users/liber","no","Andale Mono","no","18","no","white","no","yes","576","legacy","16","16","3","C:/Users/liber/subject-5207702.csv","legacy","Lentiform Loewenfeld","3.3.7","yes","yes","600bd7cfb6416f0113b04181","602110864497cf011d9c0822","0","j","NA","j","return","j","NA","j","658","NA","3673","5741","14872","NA","658","2","legacy","1024","2","48000","-16","task","5207702","even","NA","33733","39410","35736","72839","5088","25711","10838","73343","NA","72837","73343","72698","39410","74001","32106","69410","5076","71198","Lexical Decision Task","18","15708","21","yes","1024"
"2.693726949","5.08","3","swig","word","81.81818181818181","81.81818181818181","751.7727272727273","751.7727272727273","black","no","legacy","legacy","legacy","0","uniform","0","undefined","undefined","undefined","0","j","0","0","0","0","21","0","0","0","21","NA","17","21","17","0","17","3","21","0","21","Mon Feb 15 15:01:46 2021","The main experiment item","yes","Lexical_Decision_Task.osexp","C:/Users/liber","no","Andale Mono","no","18","no","white","no","yes","576","legacy","17","17","3","C:/Users/liber/subject-5207702.csv","legacy","Lentiform Loewenfeld","3.3.7","yes","yes","600bd7cfb6416f0113b04181","602110864497cf011d9c0822","0","f","NA","j","return","j","NA","f","831","NA","3673","5741","14872","NA","831","2","legacy","1024","2","48000","-16","task","5207702","even","NA","33733","39410","35736","75705","5088","25711","10838","76209","NA","75703","76209","75562","39410","77041","32106","69410","5076","74061","Lexical Decision Task","18","16539","22","yes","1024"
"3.066077331","0","7","vorn","non-word","82.6086956521739","82.6086956521739","767.9565217391304","767.9565217391304","black","no","legacy","legacy","legacy","0","uniform","1","undefined","undefined","undefined","1","f","0","0","0","0","22","0","0","0","22","NA","18","22","18","0","18","3","22","0","22","Mon Feb 15 15:01:46 2021","The main experiment item","yes","Lexical_Decision_Task.osexp","C:/Users/liber","no","Andale Mono","no","18","no","white","no","yes","576","legacy","18","18","3","C:/Users/liber/subject-5207702.csv","legacy","Lentiform Loewenfeld","3.3.7","yes","yes","600bd7cfb6416f0113b04181","602110864497cf011d9c0822","0","f","NA","j","return","j","NA","f","1124","NA","3673","5741","14872","NA","1124","2","legacy","1024","2","48000","-16","task","5207702","even","NA","33733","39410","35736","78746","5088","25711","10838","79250","NA","78743","79250","78605","39410","80374","32106","69410","5076","77105","Lexical Decision Task","19","17663","23","yes","1024"
"3.276537627","9.15","5","trap","word","83.33333333333333","83.33333333333333","761.0416666666666","761.0416666666666","black","no","legacy","legacy","legacy","0","uniform","1","undefined","undefined","undefined","1","j","0","0","0","0","23","0","0","0","23","NA","19","23","19","0","19","3","23","0","23","Mon Feb 15 15:01:46 2021","The main experiment item","yes","Lexical_Decision_Task.osexp","C:/Users/liber","no","Andale Mono","no","18","no","white","no","yes","576","legacy","19","19","3","C:/Users/liber/subject-5207702.csv","legacy","Lentiform Loewenfeld","3.3.7","yes","yes","600bd7cfb6416f0113b04181","602110864497cf011d9c0822","0","j","NA","j","return","j","NA","j","602","NA","3673","5741","14872","NA","602","2","legacy","1024","2","48000","-16","task","5207702","even","NA","33733","39410","35736","81064","5088","25711","10838","81567","NA","81063","81567","80937","39410","82170","32106","80437","5076","77105","Lexical Decision Task","20","18265","24","yes","1024"
"2.95456409","0","4","taud","non-word","84","84","766.12","766.12","black","no","legacy","legacy","legacy","0","uniform","1","undefined","undefined","undefined","1","f","0","0","0","0","24","0","0","0","24","NA","20","24","20","0","20","3","24","0","24","Mon Feb 15 15:01:46 2021","The main experiment item","yes","Lexical_Decision_Task.osexp","C:/Users/liber","no","Andale Mono","no","18","no","white","no","yes","576","legacy","20","20","3","C:/Users/liber/subject-5207702.csv","legacy","Lentiform Loewenfeld","3.3.7","yes","yes","600bd7cfb6416f0113b04181","602110864497cf011d9c0822","0","f","NA","j","return","j","NA","f","888","NA","3673","5741","14872","NA","888","2","legacy","1024","2","48000","-16","task","5207702","even","NA","33733","39410","35736","82873","5088","25711","10838","83377","NA","82871","83377","82735","39410","84267","32106","82234","5076","77105","Lexical Decision Task","21","19153","25","yes","1024"
"2.793790385","5.67","9","swab","word","84.61538461538461","84.61538461538461","764.4230769230769","764.4230769230769","black","no","legacy","legacy","legacy","0","uniform","1","undefined","undefined","undefined","1","j","0","0","0","0","25","0","0","0","25","NA","21","25","21","0","21","3","25","0","25","Mon Feb 15 15:01:46 2021","The main experiment item","yes","Lexical_Decision_Task.osexp","C:/Users/liber","no","Andale Mono","no","18","no","white","no","yes","576","legacy","21","21","3","C:/Users/liber/subject-5207702.csv","legacy","Lentiform Loewenfeld","3.3.7","yes","yes","600bd7cfb6416f0113b04181","602110864497cf011d9c0822","0","j","NA","j","return","j","NA","j","722","NA","3673","5741","14872","NA","722","2","legacy","1024","2","48000","-16","task","5207702","even","NA","33733","39410","35736","84969","5088","25711","10838","85473","NA","84967","85473","84831","39410","86195","32106","84330","5076","77105","Lexical Decision Task","22","19875","26","yes","1024"
"2.838639236","0","4","furg","non-word","85.18518518518519","85.18518518518519","766.4814814814815","766.4814814814815","black","no","legacy","legacy","legacy","0","uniform","1","undefined","undefined","undefined","1","f","0","0","0","0","26","0","0","0","26","NA","22","26","22","0","22","3","26","0","26","Mon Feb 15 15:01:46 2021","The main experiment item","yes","Lexical_Decision_Task.osexp","C:/Users/liber","no","Andale Mono","no","18","no","white","no","yes","576","legacy","22","22","3","C:/Users/liber/subject-5207702.csv","legacy","Lentiform Loewenfeld","3.3.7","yes","yes","600bd7cfb6416f0113b04181","602110864497cf011d9c0822","0","f","NA","j","return","j","NA","f","820","NA","3673","5741","14872","NA","820","2","legacy","1024","2","48000","-16","task","5207702","even","NA","33733","39410","35736","86898","5088","25711","10838","87402","NA","86896","87403","86764","39410","88225","32106","86262","5076","77105","Lexical Decision Task","23","20695","27","yes","1024"
"2.675164031","8.57","6","glue","word","85.71428571428571","85.71428571428571","764.2142857142857","764.2142857142857","black","no","legacy","legacy","legacy","0","uniform","1","undefined","undefined","undefined","1","j","0","0","0","0","27","0","0","0","27","NA","23","27","23","0","23","3","27","0","27","Mon Feb 15 15:01:46 2021","The main experiment item","yes","Lexical_Decision_Task.osexp","C:/Users/liber","no","Andale Mono","no","18","no","white","no","yes","576","legacy","23","23","3","C:/Users/liber/subject-5207702.csv","legacy","Lentiform Loewenfeld","3.3.7","yes","yes","600bd7cfb6416f0113b04181","602110864497cf011d9c0822","0","j","NA","j","return","j","NA","j","703","NA","3673","5741","14872","NA","703","2","legacy","1024","2","48000","-16","task","5207702","even","NA","33733","39410","35736","88931","5088","25711","10838","89435","NA","88929","89435","88794","39410","90139","32106","88294","5076","77105","Lexical Decision Task","24","21398","28","yes","1024"
"3.088136089","8.32","9","worm","word","86.20689655172414","86.20689655172414","762.6551724137931","762.6551724137931","black","no","legacy","legacy","legacy","0","uniform","1","undefined","undefined","undefined","1","j","0","0","0","0","28","0","0","0","28","NA","24","28","24","0","24","3","28","0","28","Mon Feb 15 15:01:46 2021","The main experiment item","yes","Lexical_Decision_Task.osexp","C:/Users/liber","no","Andale Mono","no","18","no","white","no","yes","576","legacy","24","24","3","C:/Users/liber/subject-5207702.csv","legacy","Lentiform Loewenfeld","3.3.7","yes","yes","600bd7cfb6416f0113b04181","602110864497cf011d9c0822","0","j","NA","j","return","j","NA","j","719","NA","3673","5741","14872","NA","719","2","legacy","1024","2","48000","-16","task","5207702","even","NA","33733","39410","35736","90841","5088","25711","10838","91345","NA","90840","91345","90708","39410","92064","32106","90207","5076","77105","Lexical Decision Task","25","22117","29","yes","1024"
"3.15462682","0","6","noal","non-word","86.66666666666667","86.66666666666667","759.2333333333333","759.2333333333333","black","no","legacy","legacy","legacy","0","uniform","1","undefined","undefined","undefined","1","f","0","0","0","0","29","0","0","0","29","NA","25","29","25","0","25","3","29","0","29","Mon Feb 15 15:01:46 2021","The main experiment item","yes","Lexical_Decision_Task.osexp","C:/Users/liber","no","Andale Mono","no","18","no","white","no","yes","576","legacy","25","25","3","C:/Users/liber/subject-5207702.csv","legacy","Lentiform Loewenfeld","3.3.7","yes","yes","600bd7cfb6416f0113b04181","602110864497cf011d9c0822","0","f","NA","j","return","j","NA","f","660","NA","3673","5741","14872","NA","660","2","legacy","1024","2","48000","-16","task","5207702","even","NA","33733","39410","35736","92757","5088","25711","10838","93260","NA","92755","93261","92626","39410","93922","32106","92126","5076","77105","Lexical Decision Task","26","22777","30","yes","1024"
"3.378276681","6.39","8","bran","word","87.09677419354838","87.09677419354838","750.8064516129032","750.8064516129032","black","no","legacy","legacy","legacy","0","uniform","1","undefined","undefined","undefined","1","j","0","0","0","0","30","0","0","0","30","NA","26","30","26","0","26","3","30","0","30","Mon Feb 15 15:01:46 2021","The main experiment item","yes","Lexical_Decision_Task.osexp","C:/Users/liber","no","Andale Mono","no","18","no","white","no","yes","576","legacy","26","26","3","C:/Users/liber/subject-5207702.csv","legacy","Lentiform Loewenfeld","3.3.7","yes","yes","600bd7cfb6416f0113b04181","602110864497cf011d9c0822","0","j","NA","j","return","j","NA","j","498","NA","3673","5741","14872","NA","498","2","legacy","1024","2","48000","-16","task","5207702","even","NA","33733","39410","35736","94625","5088","25711","10838","95130","NA","94624","95130","94486","39410","95629","32106","93986","5076","77105","Lexical Decision Task","27","23275","31","yes","1024"
"2.880623071","0","9","curp","non-word","84.375","84.375","747.78125","747.78125","black","no","legacy","legacy","legacy","0","uniform","0","undefined","undefined","undefined","0","f","0","0","0","0","31","0","0","0","31","NA","27","31","27","0","27","3","31","0","31","Mon Feb 15 15:01:46 2021","The main experiment item","yes","Lexical_Decision_Task.osexp","C:/Users/liber","no","Andale Mono","no","18","no","white","no","yes","576","legacy","27","27","3","C:/Users/liber/subject-5207702.csv","legacy","Lentiform Loewenfeld","3.3.7","yes","yes","600bd7cfb6416f0113b04181","602110864497cf011d9c0822","0","j","NA","j","return","j","NA","j","654","NA","3673","5741","14872","NA","654","2","legacy","1024","2","48000","-16","task","5207702","even","NA","33733","39410","35736","96331","5088","25711","10838","96835","NA","96329","96835","96192","39410","97490","32106","95692","5076","77105","Lexical Decision Task","27","23929","32","yes","1024"
"2.695770526","7.34","6","pawn","word","84.84848484848484","84.84848484848484","747.2727272727273","747.2727272727273","black","no","legacy","legacy","legacy","0","uniform","1","undefined","undefined","undefined","1","j","0","0","0","0","32","0","0","0","32","NA","28","32","28","0","28","3","32","0","32","Mon Feb 15 15:01:46 2021","The main experiment item","yes","Lexical_Decision_Task.osexp","C:/Users/liber","no","Andale Mono","no","18","no","white","no","yes","576","legacy","28","28","3","C:/Users/liber/subject-5207702.csv","legacy","Lentiform Loewenfeld","3.3.7","yes","yes","600bd7cfb6416f0113b04181","602110864497cf011d9c0822","0","j","NA","j","return","j","NA","j","731","NA","3673","5741","14872","NA","731","2","legacy","1024","2","48000","-16","task","5207702","even","NA","33733","39410","35736","99198","5088","25711","10838","99702","NA","99197","99702","99055","39410","100435","32106","95692","5076","97555","Lexical Decision Task","28","24660","33","yes","1024"
"3.140404328","10.66","9","deep","word","85.29411764705883","85.29411764705883","743.8235294117648","743.8235294117648","black","no","legacy","legacy","legacy","0","uniform","1","undefined","undefined","undefined","1","j","0","0","0","0","33","0","0","0","33","NA","29","33","29","0","29","3","33","0","33","Mon Feb 15 15:01:46 2021","The main experiment item","yes","Lexical_Decision_Task.osexp","C:/Users/liber","no","Andale Mono","no","18","no","white","no","yes","576","legacy","29","29","3","C:/Users/liber/subject-5207702.csv","legacy","Lentiform Loewenfeld","3.3.7","yes","yes","600bd7cfb6416f0113b04181","602110864497cf011d9c0822","0","j","NA","j","return","j","NA","j","630","NA","3673","5741","14872","NA","630","2","legacy","1024","2","48000","-16","task","5207702","even","NA","33733","39410","35736","101139","5088","25711","10838","101642","NA","101137","101643","101002","39410","102273","32106","100502","5076","97555","Lexical Decision Task","29","25290","34","yes","1024"
"3.031408464","0","7","drow","non-word","85.71428571428571","85.71428571428571","741.2571428571429","741.2571428571429","black","no","legacy","legacy","legacy","0","uniform","1","undefined","undefined","undefined","1","f","0","0","0","0","34","0","0","0","34","NA","30","34","30","0","30","3","34","0","34","Mon Feb 15 15:01:46 2021","The main experiment item","yes","Lexical_Decision_Task.osexp","C:/Users/liber","no","Andale Mono","no","18","no","white","no","yes","576","legacy","30","30","3","C:/Users/liber/subject-5207702.csv","legacy","Lentiform Loewenfeld","3.3.7","yes","yes","600bd7cfb6416f0113b04181","602110864497cf011d9c0822","0","f","NA","j","return","j","NA","f","654","NA","3673","5741","14872","NA","654","2","legacy","1024","2","48000","-16","task","5207702","even","NA","33733","39410","35736","102976","5088","25711","10838","103480","NA","102974","103480","102841","39410","104137","32106","102341","5076","97555","Lexical Decision Task","30","25944","35","yes","1024"
"3.037294994","8.64","7","roof","word","83.33333333333333","83.33333333333333","737.3611111111111","737.3611111111111","black","no","legacy","legacy","legacy","0","uniform","0","undefined","undefined","undefined","0","j","0","0","0","0","35","0","0","0","35","NA","31","35","31","0","31","3","35","0","35","Mon Feb 15 15:01:46 2021","The main experiment item","yes","Lexical_Decision_Task.osexp","C:/Users/liber","no","Andale Mono","no","18","no","white","no","yes","576","legacy","31","31","3","C:/Users/liber/subject-5207702.csv","legacy","Lentiform Loewenfeld","3.3.7","yes","yes","600bd7cfb6416f0113b04181","602110864497cf011d9c0822","0","f","NA","j","return","j","NA","f","601","NA","3673","5741","14872","NA","601","2","legacy","1024","2","48000","-16","task","5207702","even","NA","33733","39410","35736","104837","5088","25711","10838","105341","NA","104835","105341","104703","39410","105944","32106","104202","5076","97555","Lexical Decision Task","30","26545","36","yes","1024"
"3.29439347","8.6","9","wand","word","83.78378378378379","83.78378378378379","735.1081081081081","735.1081081081081","black","no","legacy","legacy","legacy","0","uniform","1","undefined","undefined","undefined","1","j","0","0","0","0","36","0","0","0","36","NA","32","36","32","0","32","3","36","0","36","Mon Feb 15 15:01:46 2021","The main experiment item","yes","Lexical_Decision_Task.osexp","C:/Users/liber","no","Andale Mono","no","18","no","white","no","yes","576","legacy","32","32","3","C:/Users/liber/subject-5207702.csv","legacy","Lentiform Loewenfeld","3.3.7","yes","yes","600bd7cfb6416f0113b04181","602110864497cf011d9c0822","0","j","NA","j","return","j","NA","j","654","NA","3673","5741","14872","NA","654","2","legacy","1024","2","48000","-16","task","5207702","even","NA","33733","39410","35736","107650","5088","25711","10838","108154","NA","107649","108154","107510","39410","108809","32106","104202","5076","106009","Lexical Decision Task","31","27199","37","yes","1024"
"2.576725172","0","8","gowl","non-word","84.21052631578948","84.21052631578948","737.6052631578947","737.6052631578947","black","no","legacy","legacy","legacy","0","uniform","1","undefined","undefined","undefined","1","f","0","0","0","0","37","0","0","0","37","NA","33","37","33","0","33","3","37","0","37","Mon Feb 15 15:01:46 2021","The main experiment item","yes","Lexical_Decision_Task.osexp","C:/Users/liber","no","Andale Mono","no","18","no","white","no","yes","576","legacy","33","33","3","C:/Users/liber/subject-5207702.csv","legacy","Lentiform Loewenfeld","3.3.7","yes","yes","600bd7cfb6416f0113b04181","602110864497cf011d9c0822","0","f","NA","j","return","j","NA","f","830","NA","3673","5741","14872","NA","830","2","legacy","1024","2","48000","-16","task","5207702","even","NA","33733","39410","35736","109517","5088","25711","10838","110021","NA","109516","110022","109378","39410","110854","32106","108876","5076","106009","Lexical Decision Task","32","28029","38","yes","1024"
"3.440331212","7.35","6","stew","word","84.61538461538461","84.61538461538461","732.7692307692307","732.7692307692307","black","no","legacy","legacy","legacy","0","uniform","1","undefined","undefined","undefined","1","j","0","0","0","0","38","0","0","0","38","NA","34","38","34","0","34","3","38","0","38","Mon Feb 15 15:01:46 2021","The main experiment item","yes","Lexical_Decision_Task.osexp","C:/Users/liber","no","Andale Mono","no","18","no","white","no","yes","576","legacy","34","34","3","C:/Users/liber/subject-5207702.csv","legacy","Lentiform Loewenfeld","3.3.7","yes","yes","600bd7cfb6416f0113b04181","602110864497cf011d9c0822","0","j","NA","j","return","j","NA","j","549","NA","3673","5741","14872","NA","549","2","legacy","1024","2","48000","-16","task","5207702","even","NA","33733","39410","35736","111559","5088","25711","10838","112063","NA","111556","112063","111427","39410","112614","32106","110927","5076","106009","Lexical Decision Task","33","28578","39","yes","1024"
"3.16326079","0","5","parg","non-word","85","85","731.075","731.075","black","no","legacy","legacy","legacy","0","uniform","1","undefined","undefined","undefined","1","f","0","0","0","0","39","0","0","0","39","NA","35","39","35","0","35","3","39","0","39","Mon Feb 15 15:01:46 2021","The main experiment item","yes","Lexical_Decision_Task.osexp","C:/Users/liber","no","Andale Mono","no","18","no","white","no","yes","576","legacy","35","35","3","C:/Users/liber/subject-5207702.csv","legacy","Lentiform Loewenfeld","3.3.7","yes","yes","600bd7cfb6416f0113b04181","602110864497cf011d9c0822","0","f","NA","j","return","j","NA","f","665","NA","3673","5741","14872","NA","665","2","legacy","1024","2","48000","-16","task","5207702","even","NA","33733","39410","35736","113325","5088","25711","10838","113829","NA","113323","113829","113189","39410","114496","32106","112688","5076","106009","Lexical Decision Task","34","29243","40","yes","1024"
"3.119255889","6.63","2","itch","word","85.36585365853658","85.36585365853658","726.1219512195122","726.1219512195122","black","no","legacy","legacy","legacy","0","uniform","1","undefined","undefined","undefined","1","j","0","0","0","0","40","0","0","0","40","NA","36","40","36","0","36","3","40","0","40","Mon Feb 15 15:01:46 2021","The main experiment item","yes","Lexical_Decision_Task.osexp","C:/Users/liber","no","Andale Mono","no","18","no","white","no","yes","576","legacy","36","36","3","C:/Users/liber/subject-5207702.csv","legacy","Lentiform Loewenfeld","3.3.7","yes","yes","600bd7cfb6416f0113b04181","602110864497cf011d9c0822","0","j","NA","j","return","j","NA","j","528","NA","3673","5741","14872","NA","528","2","legacy","1024","2","48000","-16","task","5207702","even","NA","33733","39410","35736","115217","5088","25711","10838","115721","NA","115213","115721","115064","39410","116251","32106","114564","5076","106009","Lexical Decision Task","35","29771","41","yes","1024"
"3.299579929","0","2","flis","non-word","85.71428571428571","85.71428571428571","724.0714285714286","724.0714285714286","black","no","legacy","legacy","legacy","0","uniform","1","undefined","undefined","undefined","1","f","0","0","0","0","41","0","0","0","41","NA","37","41","37","0","37","3","41","0","41","Mon Feb 15 15:01:46 2021","The main experiment item","yes","Lexical_Decision_Task.osexp","C:/Users/liber","no","Andale Mono","no","18","no","white","no","yes","576","legacy","37","37","3","C:/Users/liber/subject-5207702.csv","legacy","Lentiform Loewenfeld","3.3.7","yes","yes","600bd7cfb6416f0113b04181","602110864497cf011d9c0822","0","f","NA","j","return","j","NA","f","640","NA","3673","5741","14872","NA","640","2","legacy","1024","2","48000","-16","task","5207702","even","NA","33733","39410","35736","116946","5088","25711","10838","117450","NA","116944","117450","116807","39410","118092","32106","116307","5076","106009","Lexical Decision Task","36","30411","42","yes","1024"
"3.049218023","7.4","9","robe","word","86.04651162790698","86.04651162790698","723.3720930232558","723.3720930232558","black","no","legacy","legacy","legacy","0","uniform","1","undefined","undefined","undefined","1","j","0","0","0","0","42","0","0","0","42","NA","38","42","38","0","38","3","42","0","42","Mon Feb 15 15:01:46 2021","The main experiment item","yes","Lexical_Decision_Task.osexp","C:/Users/liber","no","Andale Mono","no","18","no","white","no","yes","576","legacy","38","38","3","C:/Users/liber/subject-5207702.csv","legacy","Lentiform Loewenfeld","3.3.7","yes","yes","600bd7cfb6416f0113b04181","602110864497cf011d9c0822","0","j","NA","j","return","j","NA","j","694","NA","3673","5741","14872","NA","694","2","legacy","1024","2","48000","-16","task","5207702","even","NA","33733","39410","35736","118794","5088","25711","10838","119298","NA","118792","119298","118656","39410","119993","32106","118156","5076","106009","Lexical Decision Task","37","31105","43","yes","1024"
"2.709837904","6.85","8","skim","word","86.36363636363636","86.36363636363636","732.5454545454545","732.5454545454545","black","no","legacy","legacy","legacy","0","uniform","1","undefined","undefined","undefined","1","j","0","0","0","0","43","0","0","0","43","NA","39","43","39","0","39","3","43","0","43","Mon Feb 15 15:01:46 2021","The main experiment item","yes","Lexical_Decision_Task.osexp","C:/Users/liber","no","Andale Mono","no","18","no","white","no","yes","576","legacy","39","39","3","C:/Users/liber/subject-5207702.csv","legacy","Lentiform Loewenfeld","3.3.7","yes","yes","600bd7cfb6416f0113b04181","602110864497cf011d9c0822","0","j","NA","j","return","j","NA","j","1127","NA","3673","5741","14872","NA","1127","2","legacy","1024","2","48000","-16","task","5207702","even","NA","33733","39410","35736","120669","5088","25711","10838","121173","NA","120668","121174","120547","39410","122302","32106","120047","5076","106009","Lexical Decision Task","38","32232","44","yes","1024"
"3.102203805","7.21","3","drip","word","86.66666666666667","86.66666666666667","729.0444444444445","729.0444444444445","black","no","legacy","legacy","legacy","0","uniform","1","undefined","undefined","undefined","1","j","0","0","0","0","44","0","0","0","44","NA","40","44","40","0","40","3","44","0","44","Mon Feb 15 15:01:46 2021","The main experiment item","yes","Lexical_Decision_Task.osexp","C:/Users/liber","no","Andale Mono","no","18","no","white","no","yes","576","legacy","40","40","3","C:/Users/liber/subject-5207702.csv","legacy","Lentiform Loewenfeld","3.3.7","yes","yes","600bd7cfb6416f0113b04181","602110864497cf011d9c0822","0","j","NA","j","return","j","NA","j","575","NA","3673","5741","14872","NA","575","2","legacy","1024","2","48000","-16","task","5207702","even","NA","33733","39410","35736","122970","5088","25711","10838","123473","NA","122968","123474","122857","39410","124051","32106","122357","5076","106009","Lexical Decision Task","39","32807","45","yes","1024"
"2.873320602","0","4","lurg","non-word","86.95652173913044","86.95652173913044","724.6304347826087","724.6304347826087","black","no","legacy","legacy","legacy","0","uniform","1","undefined","undefined","undefined","1","f","0","0","0","0","45","0","0","0","45","NA","41","45","41","0","41","3","45","0","45","Mon Feb 15 15:01:46 2021","The main experiment item","yes","Lexical_Decision_Task.osexp","C:/Users/liber","no","Andale Mono","no","18","no","white","no","yes","576","legacy","41","41","3","C:/Users/liber/subject-5207702.csv","legacy","Lentiform Loewenfeld","3.3.7","yes","yes","600bd7cfb6416f0113b04181","602110864497cf011d9c0822","0","f","NA","j","return","j","NA","f","526","NA","3673","5741","14872","NA","526","2","legacy","1024","2","48000","-16","task","5207702","even","NA","33733","39410","35736","124779","5088","25711","10838","125284","NA","124776","125284","124627","39410","125812","32106","124127","5076","106009","Lexical Decision Task","40","33333","46","yes","1024"
"3.1430148","7.92","8","bald","word","87.23404255319149","87.23404255319149","719.531914893617","719.531914893617","black","no","legacy","legacy","legacy","0","uniform","1","undefined","undefined","undefined","1","j","0","0","0","0","46","0","0","0","46","NA","42","46","42","0","42","3","46","0","46","Mon Feb 15 15:01:46 2021","The main experiment item","yes","Lexical_Decision_Task.osexp","C:/Users/liber","no","Andale Mono","no","18","no","white","no","yes","576","legacy","42","42","3","C:/Users/liber/subject-5207702.csv","legacy","Lentiform Loewenfeld","3.3.7","yes","yes","600bd7cfb6416f0113b04181","602110864497cf011d9c0822","0","j","NA","j","return","j","NA","j","485","NA","3673","5741","14872","NA","485","2","legacy","1024","2","48000","-16","task","5207702","even","NA","33733","39410","35736","126487","5088","25711","10838","126991","NA","126485","126991","126351","39410","127478","32106","125851","5076","106009","Lexical Decision Task","41","33818","47","yes","1024"
"3.076883066","0","8","mout","non-word","87.5","87.5","719.5833333333334","719.5833333333334","black","no","legacy","legacy","legacy","0","uniform","1","undefined","undefined","undefined","1","f","0","0","0","0","47","0","0","0","47","NA","43","47","43","0","43","3","47","0","47","Mon Feb 15 15:01:46 2021","The main experiment item","yes","Lexical_Decision_Task.osexp","C:/Users/liber","no","Andale Mono","no","18","no","white","no","yes","576","legacy","43","43","3","C:/Users/liber/subject-5207702.csv","legacy","Lentiform Loewenfeld","3.3.7","yes","yes","600bd7cfb6416f0113b04181","602110864497cf011d9c0822","0","f","NA","j","return","j","NA","f","722","NA","3673","5741","14872","NA","722","2","legacy","1024","2","48000","-16","task","5207702","even","NA","33733","39410","35736","128186","5088","25711","10838","128690","NA","128184","128690","128048","39410","129414","32106","127548","5076","106009","Lexical Decision Task","42","34540","48","yes","1024"
"2.892836167","10.01","5","soft","word","87.75510204081633","87.75510204081633","715.1632653061224","715.1632653061224","black","no","legacy","legacy","legacy","0","uniform","1","undefined","undefined","undefined","1","j","0","0","0","0","48","0","0","0","48","NA","44","48","44","0","44","3","48","0","48","Mon Feb 15 15:01:46 2021","The main experiment item","yes","Lexical_Decision_Task.osexp","C:/Users/liber","no","Andale Mono","no","18","no","white","no","yes","576","legacy","44","44","3","C:/Users/liber/subject-5207702.csv","legacy","Lentiform Loewenfeld","3.3.7","yes","yes","600bd7cfb6416f0113b04181","602110864497cf011d9c0822","0","j","NA","j","return","j","NA","j","503","NA","3673","5741","14872","NA","503","2","legacy","1024","2","48000","-16","task","5207702","even","NA","33733","39410","35736","130188","5088","25711","10838","130692","NA","130185","130692","129985","39410","131197","32106","129485","5076","106009","Lexical Decision Task","43","35043","49","yes","1024"
"3.068433376","8.09","2","bulb","word","88","88","710.28","710.28","black","no","legacy","legacy","legacy","0","uniform","1","undefined","undefined","undefined","1","j","0","0","0","0","49","0","0","0","49","NA","45","49","45","0","45","3","49","0","49","Mon Feb 15 15:01:46 2021","The main experiment item","yes","Lexical_Decision_Task.osexp","C:/Users/liber","no","Andale Mono","no","18","no","white","no","yes","576","legacy","45","45","3","C:/Users/liber/subject-5207702.csv","legacy","Lentiform Loewenfeld","3.3.7","yes","yes","600bd7cfb6416f0113b04181","602110864497cf011d9c0822","0","j","NA","j","return","j","NA","j","471","NA","3673","5741","14872","NA","471","2","legacy","1024","2","48000","-16","task","5207702","even","NA","33733","39410","35736","131907","5088","25711","10838","132411","NA","131905","132411","131770","39410","132883","32106","131270","5076","106009","Lexical Decision Task","44","35514","50","yes","1024"
"2.706148589","0","4","hube","non-word","88.23529411764706","88.23529411764706","711.5490196078431","711.5490196078431","black","no","legacy","legacy","legacy","0","uniform","1","undefined","undefined","undefined","1","f","0","0","0","0","50","0","0","0","50","NA","46","50","46","0","46","3","50","0","50","Mon Feb 15 15:01:46 2021","The main experiment item","yes","Lexical_Decision_Task.osexp","C:/Users/liber","no","Andale Mono","no","18","no","white","no","yes","576","legacy","46","46","3","C:/Users/liber/subject-5207702.csv","legacy","Lentiform Loewenfeld","3.3.7","yes","yes","600bd7cfb6416f0113b04181","602110864497cf011d9c0822","0","f","NA","j","return","j","NA","f","775","NA","3673","5741","14872","NA","775","2","legacy","1024","2","48000","-16","task","5207702","even","NA","33733","39410","35736","133587","5088","25711","10838","134091","NA","133585","134091","133451","39410","134868","32106","132951","5076","106009","Lexical Decision Task","45","36289","51","yes","1024"
"2.794720352","0","9","koot","non-word","88.46153846153847","88.46153846153847","711.9230769230769","711.9230769230769","black","no","legacy","legacy","legacy","0","uniform","1","undefined","undefined","undefined","1","f","0","0","0","0","51","0","0","0","51","NA","47","51","47","0","47","3","51","0","51","Mon Feb 15 15:01:46 2021","The main experiment item","yes","Lexical_Decision_Task.osexp","C:/Users/liber","no","Andale Mono","no","18","no","white","no","yes","576","legacy","47","47","3","C:/Users/liber/subject-5207702.csv","legacy","Lentiform Loewenfeld","3.3.7","yes","yes","600bd7cfb6416f0113b04181","602110864497cf011d9c0822","0","f","NA","j","return","j","NA","f","731","NA","3673","5741","14872","NA","731","2","legacy","1024","2","48000","-16","task","5207702","even","NA","33733","39410","35736","135565","5088","25711","10838","136069","NA","135562","136069","135429","39410","136802","32106","134928","5076","106009","Lexical Decision Task","46","37020","52","yes","1024"
"2.907588697","8.91","9","mood","word","88.67924528301887","88.67924528301887","714.3207547169811","714.3207547169811","black","no","legacy","legacy","legacy","0","uniform","1","undefined","undefined","undefined","1","j","0","0","0","0","52","0","0","0","52","NA","48","52","48","0","48","3","52","0","52","Mon Feb 15 15:01:46 2021","The main experiment item","yes","Lexical_Decision_Task.osexp","C:/Users/liber","no","Andale Mono","no","18","no","white","no","yes","576","legacy","48","48","3","C:/Users/liber/subject-5207702.csv","legacy","Lentiform Loewenfeld","3.3.7","yes","yes","600bd7cfb6416f0113b04181","602110864497cf011d9c0822","0","j","NA","j","return","j","NA","j","839","NA","3673","5741","14872","NA","839","2","legacy","1024","2","48000","-16","task","5207702","even","NA","33733","39410","35736","137506","5088","25711","10838","138010","NA","137504","138010","137368","39410","138851","32106","136868","5076","106009","Lexical Decision Task","47","37859","53","yes","1024"
"2.703007489","8.37","3","pulp","word","88.88888888888889","88.88888888888889","713.1481481481482","713.1481481481482","black","no","legacy","legacy","legacy","0","uniform","1","undefined","undefined","undefined","1","j","0","0","0","0","53","0","0","0","53","NA","49","53","49","0","49","3","53","0","53","Mon Feb 15 15:01:46 2021","The main experiment item","yes","Lexical_Decision_Task.osexp","C:/Users/liber","no","Andale Mono","no","18","no","white","no","yes","576","legacy","49","49","3","C:/Users/liber/subject-5207702.csv","legacy","Lentiform Loewenfeld","3.3.7","yes","yes","600bd7cfb6416f0113b04181","602110864497cf011d9c0822","0","j","NA","j","return","j","NA","j","651","NA","3673","5741","14872","NA","651","2","legacy","1024","2","48000","-16","task","5207702","even","NA","33733","39410","35736","139535","5088","25711","10838","140039","NA","139533","140039","139402","39410","140692","32106","138902","5076","106009","Lexical Decision Task","48","38510","54","yes","1024"
"3.22685757","9.99","7","roll","word","89.0909090909091","89.0909090909091","713.6181818181818","713.6181818181818","black","no","legacy","legacy","legacy","0","uniform","1","undefined","undefined","undefined","1","j","0","0","0","0","54","0","0","0","54","0","50","54","50","0","50","3","54","0","54","Mon Feb 15 15:01:46 2021","The main experiment item","yes","Lexical_Decision_Task.osexp","C:/Users/liber","no","Andale Mono","no","18","no","white","no","yes","576","legacy","50","50","3","C:/Users/liber/subject-5207702.csv","legacy","Lentiform Loewenfeld","3.3.7","yes","yes","600bd7cfb6416f0113b04181","602110864497cf011d9c0822","0","j","NA","j","return","j","space","j","739","NA","3673","5741","14872","5181","739","2","legacy","1024","2","48000","-16","task","5207702","even","NA","33733","39410","35736","146705","5088","25711","10838","147208","141405","146704","147210","141257","39410","147951","32106","140757","5076","106009","Lexical Decision Task","49","39249","55","yes","1024"
"3.031812271","6.52","3","gulp","word","87.5","87.5","710.8392857142857","710.8392857142857","black","no","legacy","legacy","legacy","0","uniform","0","undefined","undefined","undefined","0","j","0","0","0","0","55","0","0","0","55","0","51","55","51","0","51","3","55","0","55","Mon Feb 15 15:01:46 2021","The main experiment item","yes","Lexical_Decision_Task.osexp","C:/Users/liber","no","Andale Mono","no","18","no","white","no","yes","576","legacy","51","51","3","C:/Users/liber/subject-5207702.csv","legacy","Lentiform Loewenfeld","3.3.7","yes","yes","600bd7cfb6416f0113b04181","602110864497cf011d9c0822","0","f","NA","j","return","j","space","f","558","NA","3673","5741","14872","5181","558","2","legacy","1024","2","48000","-16","task","5207702","even","NA","33733","39410","35736","148646","5088","25711","10838","149150","141405","148644","149150","148517","39410","149710","32106","148017","5076","106009","Lexical Decision Task","49","39807","56","yes","1024"
"2.9737419","7.69","7","claw","word","87.71929824561404","87.71929824561404","709.2105263157895","709.2105263157895","black","no","legacy","legacy","legacy","0","uniform","1","undefined","undefined","undefined","1","j","0","0","0","0","56","0","0","0","56","0","52","56","52","0","52","3","56","0","56","Mon Feb 15 15:01:46 2021","The main experiment item","yes","Lexical_Decision_Task.osexp","C:/Users/liber","no","Andale Mono","no","18","no","white","no","yes","576","legacy","52","52","3","C:/Users/liber/subject-5207702.csv","legacy","Lentiform Loewenfeld","3.3.7","yes","yes","600bd7cfb6416f0113b04181","602110864497cf011d9c0822","0","j","NA","j","return","j","space","j","618","NA","3673","5741","14872","5181","618","2","legacy","1024","2","48000","-16","task","5207702","even","NA","33733","39410","35736","151411","5088","25711","10838","151915","141405","151409","151915","151266","39410","152534","32106","148017","5076","149766","Lexical Decision Task","50","40425","57","yes","1024"
"2.821076612","0","4","lult","non-word","87.93103448275862","87.93103448275862","707.7586206896551","707.7586206896551","black","no","legacy","legacy","legacy","0","uniform","1","undefined","undefined","undefined","1","f","0","0","0","0","57","0","0","0","57","0","53","57","53","0","53","3","57","0","57","Mon Feb 15 15:01:46 2021","The main experiment item","yes","Lexical_Decision_Task.osexp","C:/Users/liber","no","Andale Mono","no","18","no","white","no","yes","576","legacy","53","53","3","C:/Users/liber/subject-5207702.csv","legacy","Lentiform Loewenfeld","3.3.7","yes","yes","600bd7cfb6416f0113b04181","602110864497cf011d9c0822","0","f","NA","j","return","j","space","f","625","NA","3673","5741","14872","5181","625","2","legacy","1024","2","48000","-16","task","5207702","even","NA","33733","39410","35736","153227","5088","25711","10838","153731","141405","153225","153731","153093","39410","154359","32106","152593","5076","149766","Lexical Decision Task","51","41050","58","yes","1024"
"3.492014979","0","9","yine","non-word","88.13559322033899","88.13559322033899","714.1186440677966","714.1186440677966","black","no","legacy","legacy","legacy","0","uniform","1","undefined","undefined","undefined","1","f","0","0","0","0","58","0","0","0","58","0","54","58","54","0","54","3","58","0","58","Mon Feb 15 15:01:46 2021","The main experiment item","yes","Lexical_Decision_Task.osexp","C:/Users/liber","no","Andale Mono","no","18","no","white","no","yes","576","legacy","54","54","3","C:/Users/liber/subject-5207702.csv","legacy","Lentiform Loewenfeld","3.3.7","yes","yes","600bd7cfb6416f0113b04181","602110864497cf011d9c0822","0","f","NA","j","return","j","space","f","1083","NA","3673","5741","14872","5181","1083","2","legacy","1024","2","48000","-16","task","5207702","even","NA","33733","39410","35736","155076","5088","25711","10838","155580","141405","155073","155580","154918","39410","156664","32106","154417","5076","149766","Lexical Decision Task","52","42133","59","yes","1024"
"3.705778213","0","6","stin","non-word","88.33333333333333","88.33333333333333","717.9","717.9","black","no","legacy","legacy","legacy","0","uniform","1","undefined","undefined","undefined","1","f","0","0","0","0","59","0","0","0","59","0","55","59","55","0","55","3","59","0","59","Mon Feb 15 15:01:46 2021","The main experiment item","yes","Lexical_Decision_Task.osexp","C:/Users/liber","no","Andale Mono","no","18","no","white","no","yes","576","legacy","55","55","3","C:/Users/liber/subject-5207702.csv","legacy","Lentiform Loewenfeld","3.3.7","yes","yes","600bd7cfb6416f0113b04181","602110864497cf011d9c0822","0","f","NA","j","return","j","space","f","941","NA","3673","5741","14872","5181","941","2","legacy","1024","2","48000","-16","task","5207702","even","NA","33733","39410","35736","157356","5088","25711","10838","157860","141405","157355","157860","157221","39410","158802","32106","156721","5076","149766","Lexical Decision Task","53","43074","60","yes","1024"
"2.778633532","0","3","jurp","non-word","86.88524590163935","86.88524590163935","718.3934426229508","718.3934426229508","black","no","legacy","legacy","legacy","0","uniform","0","undefined","undefined","undefined","0","f","0","0","0","0","60","0","0","0","60","0","56","60","56","0","56","3","60","0","60","Mon Feb 15 15:01:46 2021","The main experiment item","yes","Lexical_Decision_Task.osexp","C:/Users/liber","no","Andale Mono","no","18","no","white","no","yes","576","legacy","56","56","3","C:/Users/liber/subject-5207702.csv","legacy","Lentiform Loewenfeld","3.3.7","yes","yes","600bd7cfb6416f0113b04181","602110864497cf011d9c0822","0","j","NA","j","return","j","space","j","748","NA","3673","5741","14872","5181","748","2","legacy","1024","2","48000","-16","task","5207702","even","NA","33733","39410","35736","159515","5088","25711","10838","160019","141405","159512","160019","159358","39410","160769","32106","158857","5076","149766","Lexical Decision Task","53","43822","61","yes","1024"
"2.868644438","10.52","4","town","word","85.48387096774194","85.48387096774194","716.1774193548387","716.1774193548387","black","no","legacy","legacy","legacy","0","uniform","0","undefined","undefined","undefined","0","j","0","0","0","0","61","0","0","0","61","0","57","61","57","0","57","3","61","0","61","Mon Feb 15 15:01:46 2021","The main experiment item","yes","Lexical_Decision_Task.osexp","C:/Users/liber","no","Andale Mono","no","18","no","white","no","yes","576","legacy","57","57","3","C:/Users/liber/subject-5207702.csv","legacy","Lentiform Loewenfeld","3.3.7","yes","yes","600bd7cfb6416f0113b04181","602110864497cf011d9c0822","0","f","NA","j","return","j","space","f","581","NA","3673","5741","14872","5181","581","2","legacy","1024","2","48000","-16","task","5207702","even","NA","33733","39410","35736","162470","5088","25711","10838","162973","141405","162468","162974","162328","39410","163557","32106","158857","5076","160828","Lexical Decision Task","53","44403","62","yes","1024"
"3.090140555","5.81","8","pout","word","85.71428571428571","85.71428571428571","716.031746031746","716.031746031746","black","no","legacy","legacy","legacy","0","uniform","1","undefined","undefined","undefined","1","j","0","0","0","0","62","0","0","0","62","0","58","62","58","0","58","3","62","0","62","Mon Feb 15 15:01:46 2021","The main experiment item","yes","Lexical_Decision_Task.osexp","C:/Users/liber","no","Andale Mono","no","18","no","white","no","yes","576","legacy","58","58","3","C:/Users/liber/subject-5207702.csv","legacy","Lentiform Loewenfeld","3.3.7","yes","yes","600bd7cfb6416f0113b04181","602110864497cf011d9c0822","0","j","NA","j","return","j","space","j","707","NA","3673","5741","14872","5181","707","2","legacy","1024","2","48000","-16","task","5207702","even","NA","33733","39410","35736","165257","5088","25711","10838","165761","141405","165255","165761","165118","39410","166469","32106","158857","5076","163617","Lexical Decision Task","54","45110","63","yes","1024"
"3.274543461","7.46","7","scar","word","85.9375","85.9375","713.953125","713.953125","black","no","legacy","legacy","legacy","0","uniform","1","undefined","undefined","undefined","1","j","0","0","0","0","63","0","0","0","63","0","59","63","59","0","59","3","63","0","63","Mon Feb 15 15:01:46 2021","The main experiment item","yes","Lexical_Decision_Task.osexp","C:/Users/liber","no","Andale Mono","no","18","no","white","no","yes","576","legacy","59","59","3","C:/Users/liber/subject-5207702.csv","legacy","Lentiform Loewenfeld","3.3.7","yes","yes","600bd7cfb6416f0113b04181","602110864497cf011d9c0822","0","j","NA","j","return","j","space","j","583","NA","3673","5741","14872","5181","583","2","legacy","1024","2","48000","-16","task","5207702","even","NA","33733","39410","35736","167164","5088","25711","10838","167667","141405","167162","167668","167027","39410","168253","32106","166527","5076","163617","Lexical Decision Task","55","45693","64","yes","1024"
"2.875447132","0","9","jelt","non-word","84.61538461538461","84.61538461538461","714.4","714.4","black","no","legacy","legacy","legacy","0","uniform","0","undefined","undefined","undefined","0","f","0","0","0","0","64","0","0","0","64","0","60","64","60","0","60","3","64","0","64","Mon Feb 15 15:01:46 2021","The main experiment item","yes","Lexical_Decision_Task.osexp","C:/Users/liber","no","Andale Mono","no","18","no","white","no","yes","576","legacy","60","60","3","C:/Users/liber/subject-5207702.csv","legacy","Lentiform Loewenfeld","3.3.7","yes","yes","600bd7cfb6416f0113b04181","602110864497cf011d9c0822","0","j","NA","j","return","j","space","j","743","NA","3673","5741","14872","5181","743","2","legacy","1024","2","48000","-16","task","5207702","even","NA","33733","39410","35736","168973","5088","25711","10838","169477","141405","168970","169477","168811","39410","170221","32106","168311","5076","163617","Lexical Decision Task","55","46436","65","yes","1024"
"3.353210739","0","9","reet","non-word","84.84848484848484","84.84848484848484","716.3030303030303","716.3030303030303","black","no","legacy","legacy","legacy","0","uniform","1","undefined","undefined","undefined","1","f","0","0","0","0","65","0","0","0","65","0","61","65","61","0","61","3","65","0","65","Mon Feb 15 15:01:46 2021","The main experiment item","yes","Lexical_Decision_Task.osexp","C:/Users/liber","no","Andale Mono","no","18","no","white","no","yes","576","legacy","61","61","3","C:/Users/liber/subject-5207702.csv","legacy","Lentiform Loewenfeld","3.3.7","yes","yes","600bd7cfb6416f0113b04181","602110864497cf011d9c0822","0","f","NA","j","return","j","space","f","840","NA","3673","5741","14872","5181","840","2","legacy","1024","2","48000","-16","task","5207702","even","NA","33733","39410","35736","171920","5088","25711","10838","172424","141405","171918","172424","171779","39410","173267","32106","168311","5076","170279","Lexical Decision Task","56","47276","66","yes","1024"
"3.121778632","0","9","sark","non-word","85.07462686567165","85.07462686567165","715.5671641791045","715.5671641791045","black","no","legacy","legacy","legacy","0","uniform","1","undefined","undefined","undefined","1","f","0","0","0","0","66","0","0","0","66","0","62","66","62","0","62","3","66","0","66","Mon Feb 15 15:01:46 2021","The main experiment item","yes","Lexical_Decision_Task.osexp","C:/Users/liber","no","Andale Mono","no","18","no","white","no","yes","576","legacy","62","62","3","C:/Users/liber/subject-5207702.csv","legacy","Lentiform Loewenfeld","3.3.7","yes","yes","600bd7cfb6416f0113b04181","602110864497cf011d9c0822","0","f","NA","j","return","j","space","f","667","NA","3673","5741","14872","5181","667","2","legacy","1024","2","48000","-16","task","5207702","even","NA","33733","39410","35736","173965","5088","25711","10838","174468","141405","173963","174469","173826","39410","175138","32106","173326","5076","170279","Lexical Decision Task","57","47943","67","yes","1024"
"2.705007959","6.01","4","wept","word","85.29411764705883","85.29411764705883","715.2647058823529","715.2647058823529","black","no","legacy","legacy","legacy","0","uniform","1","undefined","undefined","undefined","1","j","0","0","0","0","67","0","0","0","67","0","63","67","63","0","63","3","67","0","67","Mon Feb 15 15:01:46 2021","The main experiment item","yes","Lexical_Decision_Task.osexp","C:/Users/liber","no","Andale Mono","no","18","no","white","no","yes","576","legacy","63","63","3","C:/Users/liber/subject-5207702.csv","legacy","Lentiform Loewenfeld","3.3.7","yes","yes","600bd7cfb6416f0113b04181","602110864497cf011d9c0822","0","j","NA","j","return","j","space","j","695","NA","3673","5741","14872","5181","695","2","legacy","1024","2","48000","-16","task","5207702","even","NA","33733","39410","35736","175823","5088","25711","10838","176327","141405","175820","176328","175644","39410","177024","32106","175144","5076","170279","Lexical Decision Task","58","48638","68","yes","1024"
"3.081107167","0","6","chot","non-word","85.5072463768116","85.5072463768116","715.8985507246376","715.8985507246376","black","no","legacy","legacy","legacy","0","uniform","1","undefined","undefined","undefined","1","f","0","0","0","0","68","0","0","0","68","0","64","68","64","0","64","3","68","0","68","Mon Feb 15 15:01:46 2021","The main experiment item","yes","Lexical_Decision_Task.osexp","C:/Users/liber","no","Andale Mono","no","18","no","white","no","yes","576","legacy","64","64","3","C:/Users/liber/subject-5207702.csv","legacy","Lentiform Loewenfeld","3.3.7","yes","yes","600bd7cfb6416f0113b04181","602110864497cf011d9c0822","0","f","NA","j","return","j","space","f","759","NA","3673","5741","14872","5181","759","2","legacy","1024","2","48000","-16","task","5207702","even","NA","33733","39410","35736","177664","5088","25711","10838","178166","141405","177662","178166","177556","39410","178927","32106","177056","5076","170279","Lexical Decision Task","59","49397","69","yes","1024"
"3.153104174","10.89","6","door","word","85.71428571428571","85.71428571428571","713.3571428571429","713.3571428571429","black","no","legacy","legacy","legacy","0","uniform","1","undefined","undefined","undefined","1","j","0","0","0","0","69","0","0","0","69","0","65","69","65","0","65","3","69","0","69","Mon Feb 15 15:01:46 2021","The main experiment item","yes","Lexical_Decision_Task.osexp","C:/Users/liber","no","Andale Mono","no","18","no","white","no","yes","576","legacy","65","65","3","C:/Users/liber/subject-5207702.csv","legacy","Lentiform Loewenfeld","3.3.7","yes","yes","600bd7cfb6416f0113b04181","602110864497cf011d9c0822","0","j","NA","j","return","j","space","j","538","NA","3673","5741","14872","5181","538","2","legacy","1024","2","48000","-16","task","5207702","even","NA","33733","39410","35736","179630","5088","25711","10838","180133","141405","179628","180134","179492","39410","180674","32106","178991","5076","170279","Lexical Decision Task","60","49935","70","yes","1024"
"3.194328374","9.42","6","harm","word","85.91549295774648","85.91549295774648","715.169014084507","715.169014084507","black","no","legacy","legacy","legacy","0","uniform","1","undefined","undefined","undefined","1","j","0","0","0","0","70","0","0","0","70","0","66","70","66","0","66","3","70","0","70","Mon Feb 15 15:01:46 2021","The main experiment item","yes","Lexical_Decision_Task.osexp","C:/Users/liber","no","Andale Mono","no","18","no","white","no","yes","576","legacy","66","66","3","C:/Users/liber/subject-5207702.csv","legacy","Lentiform Loewenfeld","3.3.7","yes","yes","600bd7cfb6416f0113b04181","602110864497cf011d9c0822","0","j","NA","j","return","j","space","j","842","NA","3673","5741","14872","5181","842","2","legacy","1024","2","48000","-16","task","5207702","even","NA","33733","39410","35736","181366","5088","25711","10838","181870","141405","181364","181870","181231","39410","182715","32106","180731","5076","170279","Lexical Decision Task","61","50777","71","yes","1024"
"3.259832699","0","9","flar","non-word","84.72222222222223","84.72222222222223","721.0555555555555","721.0555555555555","black","no","legacy","legacy","legacy","0","uniform","0","undefined","undefined","undefined","0","f","0","0","0","0","71","0","0","0","71","0","67","71","67","0","67","3","71","0","71","Mon Feb 15 15:01:46 2021","The main experiment item","yes","Lexical_Decision_Task.osexp","C:/Users/liber","no","Andale Mono","no","18","no","white","no","yes","576","legacy","67","67","3","C:/Users/liber/subject-5207702.csv","legacy","Lentiform Loewenfeld","3.3.7","yes","yes","600bd7cfb6416f0113b04181","602110864497cf011d9c0822","0","j","NA","j","return","j","space","j","1139","NA","3673","5741","14872","5181","1139","2","legacy","1024","2","48000","-16","task","5207702","even","NA","33733","39410","35736","183402","5088","25711","10838","183906","141405","183400","183906","183267","39410","185047","32106","182767","5076","170279","Lexical Decision Task","61","51916","72","yes","1024"
"2.884795364","0","6","flob","non-word","84.93150684931507","84.93150684931507","732.4520547945206","732.4520547945206","black","no","legacy","legacy","legacy","0","uniform","1","undefined","undefined","undefined","1","f","0","0","0","0","72","0","0","0","72","0","68","72","68","0","68","3","72","0","72","Mon Feb 15 15:01:46 2021","The main experiment item","yes","Lexical_Decision_Task.osexp","C:/Users/liber","no","Andale Mono","no","18","no","white","no","yes","576","legacy","68","68","3","C:/Users/liber/subject-5207702.csv","legacy","Lentiform Loewenfeld","3.3.7","yes","yes","600bd7cfb6416f0113b04181","602110864497cf011d9c0822","0","f","NA","j","return","j","space","f","1553","NA","3673","5741","14872","5181","1553","2","legacy","1024","2","48000","-16","task","5207702","even","NA","33733","39410","35736","186740","5088","25711","10838","187244","141405","186737","187244","186602","39410","188799","32106","182767","5076","185101","Lexical Decision Task","62","53469","73","yes","1024"
"2.616654026","9.37","5","gift","word","85.13513513513513","85.13513513513513","730.2432432432432","730.2432432432432","black","no","legacy","legacy","legacy","0","uniform","1","undefined","undefined","undefined","1","j","0","0","0","0","73","0","0","0","73","0","69","73","69","0","69","3","73","0","73","Mon Feb 15 15:01:46 2021","The main experiment item","yes","Lexical_Decision_Task.osexp","C:/Users/liber","no","Andale Mono","no","18","no","white","no","yes","576","legacy","69","69","3","C:/Users/liber/subject-5207702.csv","legacy","Lentiform Loewenfeld","3.3.7","yes","yes","600bd7cfb6416f0113b04181","602110864497cf011d9c0822","0","j","NA","j","return","j","space","j","569","NA","3673","5741","14872","5181","569","2","legacy","1024","2","48000","-16","task","5207702","even","NA","33733","39410","35736","189488","5088","25711","10838","189992","141405","189487","189992","189356","39410","190563","32106","188856","5076","185101","Lexical Decision Task","63","54038","74","yes","1024"
"3.145920145","8.51","8","flew","word","85.33333333333333","85.33333333333333","732.44","732.44","black","no","legacy","legacy","legacy","0","uniform","1","undefined","undefined","undefined","1","j","0","0","0","0","74","0","0","0","74","0","70","74","70","0","70","3","74","0","74","Mon Feb 15 15:01:46 2021","The main experiment item","yes","Lexical_Decision_Task.osexp","C:/Users/liber","no","Andale Mono","no","18","no","white","no","yes","576","legacy","70","70","3","C:/Users/liber/subject-5207702.csv","legacy","Lentiform Loewenfeld","3.3.7","yes","yes","600bd7cfb6416f0113b04181","602110864497cf011d9c0822","0","j","NA","j","return","j","space","j","895","NA","3673","5741","14872","5181","895","2","legacy","1024","2","48000","-16","task","5207702","even","NA","33733","39410","35736","191258","5088","25711","10838","191762","141405","191256","191762","191118","39410","192659","32106","190618","5076","185101","Lexical Decision Task","64","54933","75","yes","1024"
"2.809559715","8.44","4","volt","word","85.52631578947368","85.52631578947368","730.3421052631579","730.3421052631579","black","no","legacy","legacy","legacy","0","uniform","1","undefined","undefined","undefined","1","j","0","0","0","0","75","0","0","0","75","0","71","75","71","0","71","3","75","0","75","Mon Feb 15 15:01:46 2021","The main experiment item","yes","Lexical_Decision_Task.osexp","C:/Users/liber","no","Andale Mono","no","18","no","white","no","yes","576","legacy","71","71","3","C:/Users/liber/subject-5207702.csv","legacy","Lentiform Loewenfeld","3.3.7","yes","yes","600bd7cfb6416f0113b04181","602110864497cf011d9c0822","0","j","NA","j","return","j","space","j","573","NA","3673","5741","14872","5181","573","2","legacy","1024","2","48000","-16","task","5207702","even","NA","33733","39410","35736","193351","5088","25711","10838","193855","141405","193349","193855","193219","39410","194431","32106","192719","5076","185101","Lexical Decision Task","65","55506","76","yes","1024"
"3.269668578","0","7","trag","non-word","85.71428571428571","85.71428571428571","732.2207792207793","732.2207792207793","black","no","legacy","legacy","legacy","0","uniform","1","undefined","undefined","undefined","1","f","0","0","0","0","76","0","0","0","76","0","72","76","72","0","72","3","76","0","76","Mon Feb 15 15:01:46 2021","The main experiment item","yes","Lexical_Decision_Task.osexp","C:/Users/liber","no","Andale Mono","no","18","no","white","no","yes","576","legacy","72","72","3","C:/Users/liber/subject-5207702.csv","legacy","Lentiform Loewenfeld","3.3.7","yes","yes","600bd7cfb6416f0113b04181","602110864497cf011d9c0822","0","f","NA","j","return","j","space","f","875","NA","3673","5741","14872","5181","875","2","legacy","1024","2","48000","-16","task","5207702","even","NA","33733","39410","35736","195076","5088","25711","10838","195580","141405","195074","195581","194942","39410","196459","32106","194442","5076","185101","Lexical Decision Task","66","56381","77","yes","1024"
"3.156347201","0","8","lasp","non-word","84.61538461538461","84.61538461538461","734.1794871794872","734.1794871794872","black","no","legacy","legacy","legacy","0","uniform","0","undefined","undefined","undefined","0","f","0","0","0","0","77","0","0","0","77","0","73","77","73","0","73","3","77","0","77","Mon Feb 15 15:01:46 2021","The main experiment item","yes","Lexical_Decision_Task.osexp","C:/Users/liber","no","Andale Mono","no","18","no","white","no","yes","576","legacy","73","73","3","C:/Users/liber/subject-5207702.csv","legacy","Lentiform Loewenfeld","3.3.7","yes","yes","600bd7cfb6416f0113b04181","602110864497cf011d9c0822","0","j","NA","j","return","j","space","j","885","NA","3673","5741","14872","5181","885","2","legacy","1024","2","48000","-16","task","5207702","even","NA","33733","39410","35736","197155","5088","25711","10838","197658","141405","197154","197658","197018","39410","198543","32106","196518","5076","185101","Lexical Decision Task","66","57266","78","yes","1024"
"3.2757719","0","5","slea","non-word","84.81012658227849","84.81012658227849","735.0379746835443","735.0379746835443","black","no","legacy","legacy","legacy","0","uniform","1","undefined","undefined","undefined","1","f","0","0","0","0","78","0","0","0","78","0","74","78","74","0","74","3","78","0","78","Mon Feb 15 15:01:46 2021","The main experiment item","yes","Lexical_Decision_Task.osexp","C:/Users/liber","no","Andale Mono","no","18","no","white","no","yes","576","legacy","74","74","3","C:/Users/liber/subject-5207702.csv","legacy","Lentiform Loewenfeld","3.3.7","yes","yes","600bd7cfb6416f0113b04181","602110864497cf011d9c0822","0","f","NA","j","return","j","space","f","802","NA","3673","5741","14872","5181","802","2","legacy","1024","2","48000","-16","task","5207702","even","NA","33733","39410","35736","200239","5088","25711","10838","200742","141405","200237","200743","200100","39410","201547","32106","196518","5076","198600","Lexical Decision Task","67","58068","79","yes","1024"
"3.474361976","5.24","6","veer","word","83.75","83.75","732.4625","732.4625","black","no","legacy","legacy","legacy","0","uniform","0","undefined","undefined","undefined","0","j","0","0","0","0","79","0","0","0","79","0","75","79","75","0","75","3","79","0","79","Mon Feb 15 15:01:46 2021","The main experiment item","yes","Lexical_Decision_Task.osexp","C:/Users/liber","no","Andale Mono","no","18","no","white","no","yes","576","legacy","75","75","3","C:/Users/liber/subject-5207702.csv","legacy","Lentiform Loewenfeld","3.3.7","yes","yes","600bd7cfb6416f0113b04181","602110864497cf011d9c0822","0","f","NA","j","return","j","space","f","529","NA","3673","5741","14872","5181","529","2","legacy","1024","2","48000","-16","task","5207702","even","NA","33733","39410","35736","202244","5088","25711","10838","202747","141405","202242","202748","202109","39410","203279","32106","201609","5076","198600","Lexical Decision Task","67","58597","80","yes","1024"
"3.064581521","5.51","6","cask","word","82.71604938271605","82.71604938271605","735.2962962962963","735.2962962962963","black","no","legacy","legacy","legacy","0","uniform","0","undefined","undefined","undefined","0","j","0","0","0","0","80","0","0","0","80","0","76","80","76","0","76","3","80","0","80","Mon Feb 15 15:01:46 2021","The main experiment item","yes","Lexical_Decision_Task.osexp","C:/Users/liber","no","Andale Mono","no","18","no","white","no","yes","576","legacy","76","76","3","C:/Users/liber/subject-5207702.csv","legacy","Lentiform Loewenfeld","3.3.7","yes","yes","600bd7cfb6416f0113b04181","602110864497cf011d9c0822","0","f","NA","j","return","j","space","f","962","NA","3673","5741","14872","5181","962","2","legacy","1024","2","48000","-16","task","5207702","even","NA","33733","39410","35736","204986","5088","25711","10838","205490","141405","204984","205490","204841","39410","206455","32106","201609","5076","203340","Lexical Decision Task","67","59559","81","yes","1024"
"2.937852093","0","7","bamp","non-word","82.92682926829268","82.92682926829268","736.4024390243902","736.4024390243902","black","no","legacy","legacy","legacy","0","uniform","1","undefined","undefined","undefined","1","f","0","0","0","0","81","0","0","0","81","0","77","81","77","0","77","3","81","0","81","Mon Feb 15 15:01:46 2021","The main experiment item","yes","Lexical_Decision_Task.osexp","C:/Users/liber","no","Andale Mono","no","18","no","white","no","yes","576","legacy","77","77","3","C:/Users/liber/subject-5207702.csv","legacy","Lentiform Loewenfeld","3.3.7","yes","yes","600bd7cfb6416f0113b04181","602110864497cf011d9c0822","0","f","NA","j","return","j","space","f","826","NA","3673","5741","14872","5181","826","2","legacy","1024","2","48000","-16","task","5207702","even","NA","33733","39410","35736","208158","5088","25711","10838","208661","141405","208157","208662","208019","39410","209490","32106","201609","5076","206519","Lexical Decision Task","68","60385","82","yes","1024"
"3.149629599","0","2","cleb","non-word","83.13253012048193","83.13253012048193","737.433734939759","737.433734939759","black","no","legacy","legacy","legacy","0","uniform","1","undefined","undefined","undefined","1","f","0","0","0","0","82","0","0","0","82","0","78","82","78","0","78","3","82","0","82","Mon Feb 15 15:01:46 2021","The main experiment item","yes","Lexical_Decision_Task.osexp","C:/Users/liber","no","Andale Mono","no","18","no","white","no","yes","576","legacy","78","78","3","C:/Users/liber/subject-5207702.csv","legacy","Lentiform Loewenfeld","3.3.7","yes","yes","600bd7cfb6416f0113b04181","602110864497cf011d9c0822","0","f","NA","j","return","j","space","f","822","NA","3673","5741","14872","5181","822","2","legacy","1024","2","48000","-16","task","5207702","even","NA","33733","39410","35736","210129","5088","25711","10838","210632","141405","210127","210633","209996","39410","211457","32106","209496","5076","206519","Lexical Decision Task","69","61207","83","yes","1024"
"3.311895072","0","9","gung","non-word","83.33333333333333","83.33333333333333","738.4880952380952","738.4880952380952","black","no","legacy","legacy","legacy","0","uniform","1","undefined","undefined","undefined","1","f","0","0","0","0","83","0","0","0","83","0","79","83","79","0","79","3","83","0","83","Mon Feb 15 15:01:46 2021","The main experiment item","yes","Lexical_Decision_Task.osexp","C:/Users/liber","no","Andale Mono","no","18","no","white","no","yes","576","legacy","79","79","3","C:/Users/liber/subject-5207702.csv","legacy","Lentiform Loewenfeld","3.3.7","yes","yes","600bd7cfb6416f0113b04181","602110864497cf011d9c0822","0","f","NA","j","return","j","space","f","826","NA","3673","5741","14872","5181","826","2","legacy","1024","2","48000","-16","task","5207702","even","NA","33733","39410","35736","212127","5088","25711","10838","212629","141405","212124","212629","212006","39410","213457","32106","211506","5076","206519","Lexical Decision Task","70","62033","84","yes","1024"
"3.028977705","0","7","frow","non-word","83.52941176470588","83.52941176470588","738.6","738.6","black","no","legacy","legacy","legacy","0","uniform","1","undefined","undefined","undefined","1","f","0","0","0","0","84","0","0","0","84","0","80","84","80","0","80","3","84","0","84","Mon Feb 15 15:01:46 2021","The main experiment item","yes","Lexical_Decision_Task.osexp","C:/Users/liber","no","Andale Mono","no","18","no","white","no","yes","576","legacy","80","80","3","C:/Users/liber/subject-5207702.csv","legacy","Lentiform Loewenfeld","3.3.7","yes","yes","600bd7cfb6416f0113b04181","602110864497cf011d9c0822","0","f","NA","j","return","j","space","f","748","NA","3673","5741","14872","5181","748","2","legacy","1024","2","48000","-16","task","5207702","even","NA","33733","39410","35736","214096","5088","25711","10838","214600","141405","214094","214600","214011","39410","215351","32106","213511","5076","206519","Lexical Decision Task","71","62781","85","yes","1024"
"3.363486562","6.93","9","lush","word","83.72093023255815","83.72093023255815","736.4767441860465","736.4767441860465","black","no","legacy","legacy","legacy","0","uniform","1","undefined","undefined","undefined","1","j","0","0","0","0","85","0","0","0","85","0","81","85","81","0","81","3","85","0","85","Mon Feb 15 15:01:46 2021","The main experiment item","yes","Lexical_Decision_Task.osexp","C:/Users/liber","no","Andale Mono","no","18","no","white","no","yes","576","legacy","81","81","3","C:/Users/liber/subject-5207702.csv","legacy","Lentiform Loewenfeld","3.3.7","yes","yes","600bd7cfb6416f0113b04181","602110864497cf011d9c0822","0","j","NA","j","return","j","space","j","556","NA","3673","5741","14872","5181","556","2","legacy","1024","2","48000","-16","task","5207702","even","NA","33733","39410","35736","216041","5088","25711","10838","216544","141405","216038","216545","215906","39410","217103","32106","215406","5076","206519","Lexical Decision Task","72","63337","86","yes","1024"
"2.68604012","0","4","pumb","non-word","82.75862068965517","82.75862068965517","734.9080459770115","734.9080459770115","black","no","legacy","legacy","legacy","0","uniform","0","undefined","undefined","undefined","0","f","0","0","0","0","86","0","0","0","86","0","82","86","82","0","82","3","86","0","86","Mon Feb 15 15:01:46 2021","The main experiment item","yes","Lexical_Decision_Task.osexp","C:/Users/liber","no","Andale Mono","no","18","no","white","no","yes","576","legacy","82","82","3","C:/Users/liber/subject-5207702.csv","legacy","Lentiform Loewenfeld","3.3.7","yes","yes","600bd7cfb6416f0113b04181","602110864497cf011d9c0822","0","j","NA","j","return","j","space","j","600","NA","3673","5741","14872","5181","600","2","legacy","1024","2","48000","-16","task","5207702","even","NA","33733","39410","35736","217707","5088","25711","10838","218210","141405","217705","218210","217612","39410","218811","32106","217112","5076","206519","Lexical Decision Task","72","63937","87","yes","1024"
"3.274157849","0","8","leet","non-word","82.95454545454545","82.95454545454545","735.0454545454545","735.0454545454545","black","no","legacy","legacy","legacy","0","uniform","1","undefined","undefined","undefined","1","f","0","0","0","0","87","0","0","0","87","0","83","87","83","0","83","3","87","0","87","Mon Feb 15 15:01:46 2021","The main experiment item","yes","Lexical_Decision_Task.osexp","C:/Users/liber","no","Andale Mono","no","18","no","white","no","yes","576","legacy","83","83","3","C:/Users/liber/subject-5207702.csv","legacy","Lentiform Loewenfeld","3.3.7","yes","yes","600bd7cfb6416f0113b04181","602110864497cf011d9c0822","0","f","NA","j","return","j","space","f","747","NA","3673","5741","14872","5181","747","2","legacy","1024","2","48000","-16","task","5207702","even","NA","33733","39410","35736","220480","5088","25711","10838","220982","141405","220478","220983","220366","39410","221732","32106","217112","5076","218865","Lexical Decision Task","73","64684","88","yes","1024"
"3.132473155","0","4","glim","non-word","83.14606741573034","83.14606741573034","735.2471910112359","735.2471910112359","black","no","legacy","legacy","legacy","0","uniform","1","undefined","undefined","undefined","1","f","0","0","0","0","88","0","0","0","88","0","84","88","84","0","84","3","88","0","88","Mon Feb 15 15:01:46 2021","The main experiment item","yes","Lexical_Decision_Task.osexp","C:/Users/liber","no","Andale Mono","no","18","no","white","no","yes","576","legacy","84","84","3","C:/Users/liber/subject-5207702.csv","legacy","Lentiform Loewenfeld","3.3.7","yes","yes","600bd7cfb6416f0113b04181","602110864497cf011d9c0822","0","f","NA","j","return","j","space","f","753","NA","3673","5741","14872","5181","753","2","legacy","1024","2","48000","-16","task","5207702","even","NA","33733","39410","35736","222411","5088","25711","10838","222913","141405","222409","222913","222284","39410","223667","32106","221784","5076","218865","Lexical Decision Task","74","65437","89","yes","1024"
"2.839898939","8.99","6","soap","word","83.33333333333333","83.33333333333333","735.4","735.4","black","no","legacy","legacy","legacy","0","uniform","1","undefined","undefined","undefined","1","j","0","0","0","0","89","0","0","0","89","0","85","89","85","0","85","3","89","0","89","Mon Feb 15 15:01:46 2021","The main experiment item","yes","Lexical_Decision_Task.osexp","C:/Users/liber","no","Andale Mono","no","18","no","white","no","yes","576","legacy","85","85","3","C:/Users/liber/subject-5207702.csv","legacy","Lentiform Loewenfeld","3.3.7","yes","yes","600bd7cfb6416f0113b04181","602110864497cf011d9c0822","0","j","NA","j","return","j","space","j","749","NA","3673","5741","14872","5181","749","2","legacy","1024","2","48000","-16","task","5207702","even","NA","33733","39410","35736","224340","5088","25711","10838","224843","141405","224337","224843","224219","39410","225594","32106","223718","5076","218865","Lexical Decision Task","75","66186","90","yes","1024"
"2.6599162","0","6","flug","non-word","83.51648351648352","83.51648351648352","734.978021978022","734.978021978022","black","no","legacy","legacy","legacy","0","uniform","1","undefined","undefined","undefined","1","f","0","0","0","0","90","0","0","0","90","0","86","90","86","0","86","3","90","0","90","Mon Feb 15 15:01:46 2021","The main experiment item","yes","Lexical_Decision_Task.osexp","C:/Users/liber","no","Andale Mono","no","18","no","white","no","yes","576","legacy","86","86","3","C:/Users/liber/subject-5207702.csv","legacy","Lentiform Loewenfeld","3.3.7","yes","yes","600bd7cfb6416f0113b04181","602110864497cf011d9c0822","0","f","NA","j","return","j","space","f","697","NA","3673","5741","14872","5181","697","2","legacy","1024","2","48000","-16","task","5207702","even","NA","33733","39410","35736","226249","5088","25711","10838","226752","141405","226247","226753","226147","39410","227452","32106","225646","5076","218865","Lexical Decision Task","76","66883","91","yes","1024"
"3.495914186","0","4","peng","non-word","82.6086956521739","82.6086956521739","734.945652173913","734.945652173913","black","no","legacy","legacy","legacy","0","uniform","0","undefined","undefined","undefined","0","f","0","0","0","0","91","0","0","0","91","0","87","91","87","0","87","3","91","0","91","Mon Feb 15 15:01:46 2021","The main experiment item","yes","Lexical_Decision_Task.osexp","C:/Users/liber","no","Andale Mono","no","18","no","white","no","yes","576","legacy","87","87","3","C:/Users/liber/subject-5207702.csv","legacy","Lentiform Loewenfeld","3.3.7","yes","yes","600bd7cfb6416f0113b04181","602110864497cf011d9c0822","0","j","NA","j","return","j","space","j","732","NA","3673","5741","14872","5181","732","2","legacy","1024","2","48000","-16","task","5207702","even","NA","33733","39410","35736","228115","5088","25711","10838","228618","141405","228112","228618","228003","39410","229352","32106","227503","5076","218865","Lexical Decision Task","76","67615","92","yes","1024"
"2.771097306","0","9","jold","non-word","82.79569892473118","82.79569892473118","735.0215053763441","735.0215053763441","black","no","legacy","legacy","legacy","0","uniform","1","undefined","undefined","undefined","1","f","0","0","0","0","92","0","0","0","92","0","88","92","88","0","88","3","92","0","92","Mon Feb 15 15:01:46 2021","The main experiment item","yes","Lexical_Decision_Task.osexp","C:/Users/liber","no","Andale Mono","no","18","no","white","no","yes","576","legacy","88","88","3","C:/Users/liber/subject-5207702.csv","legacy","Lentiform Loewenfeld","3.3.7","yes","yes","600bd7cfb6416f0113b04181","602110864497cf011d9c0822","0","f","NA","j","return","j","space","f","742","NA","3673","5741","14872","5181","742","2","legacy","1024","2","48000","-16","task","5207702","even","NA","33733","39410","35736","231054","5088","25711","10838","231557","141405","231052","231558","230916","39410","232303","32106","227503","5076","229416","Lexical Decision Task","77","68357","93","yes","1024"
"2.696356389","0","1","pizz","non-word","82.97872340425532","82.97872340425532","736.4574468085107","736.4574468085107","black","no","legacy","legacy","legacy","0","uniform","1","undefined","undefined","undefined","1","f","0","0","0","0","93","0","0","0","93","0","89","93","89","0","89","3","93","0","93","Mon Feb 15 15:01:46 2021","The main experiment item","yes","Lexical_Decision_Task.osexp","C:/Users/liber","no","Andale Mono","no","18","no","white","no","yes","576","legacy","89","89","3","C:/Users/liber/subject-5207702.csv","legacy","Lentiform Loewenfeld","3.3.7","yes","yes","600bd7cfb6416f0113b04181","602110864497cf011d9c0822","0","f","NA","j","return","j","space","f","870","NA","3673","5741","14872","5181","870","2","legacy","1024","2","48000","-16","task","5207702","even","NA","33733","39410","35736","233000","5088","25711","10838","233504","141405","232998","233504","232860","39410","234378","32106","232360","5076","229416","Lexical Decision Task","78","69227","94","yes","1024"
"2.728085817","10.02","9","bike","word","83.15789473684211","83.15789473684211","734.9473684210526","734.9473684210526","black","no","legacy","legacy","legacy","0","uniform","1","undefined","undefined","undefined","1","j","0","0","0","0","94","0","0","0","94","0","90","94","90","0","90","3","94","0","94","Mon Feb 15 15:01:46 2021","The main experiment item","yes","Lexical_Decision_Task.osexp","C:/Users/liber","no","Andale Mono","no","18","no","white","no","yes","576","legacy","90","90","3","C:/Users/liber/subject-5207702.csv","legacy","Lentiform Loewenfeld","3.3.7","yes","yes","600bd7cfb6416f0113b04181","602110864497cf011d9c0822","0","j","NA","j","return","j","space","j","593","NA","3673","5741","14872","5181","593","2","legacy","1024","2","48000","-16","task","5207702","even","NA","33733","39410","35736","235072","5088","25711","10838","235576","141405","235070","235576","234934","39410","236172","32106","234434","5076","229416","Lexical Decision Task","79","69820","95","yes","1024"
"3.137775856","7.39","5","comb","word","83.33333333333333","83.33333333333333","737.46875","737.46875","black","no","legacy","legacy","legacy","0","uniform","1","undefined","undefined","undefined","1","j","0","0","0","0","95","0","0","0","95","0","91","95","91","0","91","3","95","0","95","Mon Feb 15 15:01:46 2021","The main experiment item","yes","Lexical_Decision_Task.osexp","C:/Users/liber","no","Andale Mono","no","18","no","white","no","yes","576","legacy","91","91","3","C:/Users/liber/subject-5207702.csv","legacy","Lentiform Loewenfeld","3.3.7","yes","yes","600bd7cfb6416f0113b04181","602110864497cf011d9c0822","0","j","NA","j","return","j","space","j","977","NA","3673","5741","14872","5181","977","2","legacy","1024","2","48000","-16","task","5207702","even","NA","33733","39410","35736","236870","5088","25711","10838","237375","141405","236868","237375","236730","39410","238355","32106","236230","5076","229416","Lexical Decision Task","80","70797","96","yes","1024"
"2.708989954","9.28","9","bowl","word","83.50515463917526","83.50515463917526","737.8556701030927","737.8556701030927","black","no","legacy","legacy","legacy","0","uniform","1","undefined","undefined","undefined","1","j","0","0","0","0","96","0","0","0","96","0","92","96","92","0","92","3","96","0","96","Mon Feb 15 15:01:46 2021","The main experiment item","yes","Lexical_Decision_Task.osexp","C:/Users/liber","no","Andale Mono","no","18","no","white","no","yes","576","legacy","92","92","3","C:/Users/liber/subject-5207702.csv","legacy","Lentiform Loewenfeld","3.3.7","yes","yes","600bd7cfb6416f0113b04181","602110864497cf011d9c0822","0","j","NA","j","return","j","space","j","775","NA","3673","5741","14872","5181","775","2","legacy","1024","2","48000","-16","task","5207702","even","NA","33733","39410","35736","239050","5088","25711","10838","239555","141405","239049","239555","238914","39410","240334","32106","238413","5076","229416","Lexical Decision Task","81","71572","97","yes","1024"
"3.397302518","7.01","2","knit","word","83.6734693877551","83.6734693877551","735.3775510204082","735.3775510204082","black","no","legacy","legacy","legacy","0","uniform","1","undefined","undefined","undefined","1","j","0","0","0","0","97","0","0","0","97","0","93","97","93","0","93","3","97","0","97","Mon Feb 15 15:01:46 2021","The main experiment item","yes","Lexical_Decision_Task.osexp","C:/Users/liber","no","Andale Mono","no","18","no","white","no","yes","576","legacy","93","93","3","C:/Users/liber/subject-5207702.csv","legacy","Lentiform Loewenfeld","3.3.7","yes","yes","600bd7cfb6416f0113b04181","602110864497cf011d9c0822","0","j","NA","j","return","j","space","j","495","NA","3673","5741","14872","5181","495","2","legacy","1024","2","48000","-16","task","5207702","even","NA","33733","39410","35736","241000","5088","25711","10838","241504","141405","240997","241504","240865","39410","242001","32106","240364","5076","229416","Lexical Decision Task","82","72067","98","yes","1024"
"3.165936429","0","7","leps","non-word","83.83838383838383","83.83838383838383","734.959595959596","734.959595959596","black","no","legacy","legacy","legacy","0","uniform","1","undefined","undefined","undefined","1","f","0","0","0","0","98","0","0","0","98","0","94","98","94","0","94","3","98","0","98","Mon Feb 15 15:01:46 2021","The main experiment item","yes","Lexical_Decision_Task.osexp","C:/Users/liber","no","Andale Mono","no","18","no","white","no","yes","576","legacy","94","94","3","C:/Users/liber/subject-5207702.csv","legacy","Lentiform Loewenfeld","3.3.7","yes","yes","600bd7cfb6416f0113b04181","602110864497cf011d9c0822","0","f","NA","j","return","j","space","f","694","NA","3673","5741","14872","5181","694","2","legacy","1024","2","48000","-16","task","5207702","even","NA","33733","39410","35736","242692","5088","25711","10838","243196","141405","242691","243196","242560","39410","243894","32106","242060","5076","229416","Lexical Decision Task","83","72761","99","yes","1024"
"2.67699827","0","6","hulf","non-word","84","84","735.59","735.59","black","no","legacy","legacy","legacy","0","uniform","1","undefined","undefined","undefined","1","f","0","0","0","0","99","0","0","0","99","0","95","99","95","0","95","3","99","0","99","Mon Feb 15 15:01:46 2021","The main experiment item","yes","Lexical_Decision_Task.osexp","C:/Users/liber","no","Andale Mono","no","18","no","white","no","yes","576","legacy","95","95","3","C:/Users/liber/subject-5207702.csv","legacy","Lentiform Loewenfeld","3.3.7","yes","yes","600bd7cfb6416f0113b04181","602110864497cf011d9c0822","0","f","NA","j","return","j","space","f","798","NA","3673","5741","14872","5181","798","2","legacy","1024","2","48000","-16","task","5207702","even","NA","33733","39410","35736","244588","5088","25711","10838","245092","141405","244586","245092","244454","39410","245893","32106","243954","5076","229416","Lexical Decision Task","84","73559","100","yes","1024"
"3.039414119","0","9","meep","non-word","84.15841584158416","84.15841584158416","735.6237623762377","735.6237623762377","black","no","legacy","legacy","legacy","0","uniform","1","undefined","undefined","undefined","1","f","0","0","0","0","100","0","0","0","100","0","96","100","96","0","96","3","100","0","100","Mon Feb 15 15:01:46 2021","The main experiment item","yes","Lexical_Decision_Task.osexp","C:/Users/liber","no","Andale Mono","no","18","no","white","no","yes","576","legacy","96","96","3","C:/Users/liber/subject-5207702.csv","legacy","Lentiform Loewenfeld","3.3.7","yes","yes","600bd7cfb6416f0113b04181","602110864497cf011d9c0822","0","f","NA","j","return","j","space","f","739","NA","3673","5741","14872","5181","739","2","legacy","1024","2","48000","-16","task","5207702","even","NA","33733","39410","35736","246596","5088","25711","10838","247100","141405","246594","247100","246454","39410","247841","32106","245954","5076","229416","Lexical Decision Task","85","74298","101","yes","1024"
"2.843025032","0","9","pusk","non-word","84.31372549019608","84.31372549019608","734.3921568627451","734.3921568627451","black","no","legacy","legacy","legacy","0","uniform","1","undefined","undefined","undefined","1","f","0","0","0","0","101","0","0","0","101","0","97","101","97","0","97","3","101","0","101","Mon Feb 15 15:01:46 2021","The main experiment item","yes","Lexical_Decision_Task.osexp","C:/Users/liber","no","Andale Mono","no","18","no","white","no","yes","576","legacy","97","97","3","C:/Users/liber/subject-5207702.csv","legacy","Lentiform Loewenfeld","3.3.7","yes","yes","600bd7cfb6416f0113b04181","602110864497cf011d9c0822","0","f","NA","j","return","j","space","f","610","NA","3673","5741","14872","5181","610","2","legacy","1024","2","48000","-16","task","5207702","even","NA","33733","39410","35736","248537","5088","25711","10838","249041","141405","248536","249041","248401","39410","249655","32106","247901","5076","229416","Lexical Decision Task","86","74908","102","yes","1024"
"3.105055783","0","2","norp","non-word","84.46601941747574","84.46601941747574","733.7184466019418","733.7184466019418","black","no","legacy","legacy","legacy","0","uniform","1","undefined","undefined","undefined","1","f","0","0","0","0","102","0","0","0","102","0","98","102","98","0","98","3","102","0","102","Mon Feb 15 15:01:46 2021","The main experiment item","yes","Lexical_Decision_Task.osexp","C:/Users/liber","no","Andale Mono","no","18","no","white","no","yes","576","legacy","98","98","3","C:/Users/liber/subject-5207702.csv","legacy","Lentiform Loewenfeld","3.3.7","yes","yes","600bd7cfb6416f0113b04181","602110864497cf011d9c0822","0","f","NA","j","return","j","space","f","665","NA","3673","5741","14872","5181","665","2","legacy","1024","2","48000","-16","task","5207702","even","NA","33733","39410","35736","250400","5088","25711","10838","250905","141405","250395","250905","250215","39410","251573","32106","249715","5076","229416","Lexical Decision Task","87","75573","103","yes","1024"
