"Log_BG","Log_Freq_HAL","Ortho_N","Stimulus","Type","acc","accuracy","average_response_time","avg_rt","background","bidi","canvas_backend","clock_backend","color_backend","compensation","coordinates","correct","correct_Experimental_intro","correct_Introduction","correct_Practice_intro","correct_experimenter_kb","correct_response","count_End_Of_Experiment","count_End_Of_Practice","count_Experimental_Loop","count_Experimental_intro","count_Fixation","count_Introduction","count_Practice_Loop","count_Practice_intro","count_Stimulus","count_block_break_feedback","count_experimental_sequence","count_experimenter_kb","count_increment_trial_count","count_init_trial_count","count_logger","count_practice_sequence","count_right","count_task","count_wrong","datetime","description","disable_garbage_collection","experiment_file","experiment_path","font_bold","font_family","font_italic","font_size","font_underline","foreground","form_clicks","fullscreen","height","keyboard_backend","live_row","live_row_Experimental_Loop","live_row_Practice_Loop","logfile","mouse_backend","opensesame_codename","opensesame_version","osf_always_upload_data","osf_always_upload_experiment","osf_datanode_id","osf_id","repeat_cycle","response","response_End_Of_Experiment","response_Experimental_intro","response_Introduction","response_Practice_intro","response_block_break_feedback","response_experimenter_kb","response_time","response_time_End_Of_Experiment","response_time_Experimental_intro","response_time_Introduction","response_time_Practice_intro","response_time_block_break_feedback","response_time_experimenter_kb","round_decimals","sampler_backend","sound_buf_size","sound_channels","sound_freq","sound_sample_size","start","subject_nr","subject_parity","time_End_Of_Experiment","time_End_Of_Practice","time_Experimental_Loop","time_Experimental_intro","time_Fixation","time_Introduction","time_Practice_Loop","time_Practice_intro","time_Stimulus","time_block_break_feedback","time_experimental_sequence","time_experimenter_kb","time_increment_trial_count","time_init_trial_count","time_logger","time_practice_sequence","time_right","time_task","time_wrong","title","total_correct","total_response_time","total_responses","uniform_coordinates","width"
"3.120135028","0","3","vals","non-word","100","100","701.6","701.6","black","no","legacy","legacy","legacy","0","uniform","1","undefined","undefined","undefined","1","f","0","0","0","0","4","0","0","0","4","NA","0","4","0","0","0","3","4","0","4","Wed Mar 24 17:23:11 2021","The main experiment item","yes","Lexical_Decision_Task.osexp","C:/Users/user","no","Andale Mono","no","18","no","white","no","yes","576","legacy","0","0","3","C:/Users/user/subject-5226144.csv","legacy","Lentiform Loewenfeld","3.3.8","yes","yes","600bd7cfb6416f0113b04181","602110864497cf011d9c0822","0","f","NA","j","j","j","NA","f","659","NA","1952","24274","5043","NA","659","2","legacy","1024","2","48000","-16","task","5226144","even","NA","48308","52263","50311","52323","11712","41035","35991","52826","NA","52321","52827","NA","52263","53486","46506","47779","11696","NA","Lexical Decision Task","5","3508","5","yes","1024"
"3.274157849","0","8","leet","non-word","100","100","736.8333333333334","736.8333333333334","black","no","legacy","legacy","legacy","0","uniform","1","undefined","undefined","undefined","1","f","0","0","0","0","5","0","0","0","5","NA","1","5","1","0","1","3","5","0","5","Wed Mar 24 17:23:11 2021","The main experiment item","yes","Lexical_Decision_Task.osexp","C:/Users/user","no","Andale Mono","no","18","no","white","no","yes","576","legacy","1","1","3","C:/Users/user/subject-5226144.csv","legacy","Lentiform Loewenfeld","3.3.8","yes","yes","600bd7cfb6416f0113b04181","602110864497cf011d9c0822","0","f","NA","j","j","j","NA","f","913","NA","1952","24274","5043","NA","913","2","legacy","1024","2","48000","-16","task","5226144","even","NA","48308","52263","50311","54087","11712","41035","35991","54589","NA","54084","54589","53997","52263","55503","46506","53497","11696","NA","Lexical Decision Task","6","4421","6","yes","1024"
"2.875447132","0","9","jelt","non-word","100","100","731.5714285714286","731.5714285714286","black","no","legacy","legacy","legacy","0","uniform","1","undefined","undefined","undefined","1","f","0","0","0","0","6","0","0","0","6","NA","2","6","2","0","2","3","6","0","6","Wed Mar 24 17:23:11 2021","The main experiment item","yes","Lexical_Decision_Task.osexp","C:/Users/user","no","Andale Mono","no","18","no","white","no","yes","576","legacy","2","2","3","C:/Users/user/subject-5226144.csv","legacy","Lentiform Loewenfeld","3.3.8","yes","yes","600bd7cfb6416f0113b04181","602110864497cf011d9c0822","0","f","NA","j","j","j","NA","f","700","NA","1952","24274","5043","NA","700","2","legacy","1024","2","48000","-16","task","5226144","even","NA","48308","52263","50311","56094","11712","41035","35991","56595","NA","56092","56595","56009","52263","57296","46506","55509","11696","NA","Lexical Decision Task","7","5121","7","yes","1024"
"3.076883066","0","8","mout","non-word","100","100","721.625","721.625","black","no","legacy","legacy","legacy","0","uniform","1","undefined","undefined","undefined","1","f","0","0","0","0","7","0","0","0","7","NA","3","7","3","0","3","3","7","0","7","Wed Mar 24 17:23:11 2021","The main experiment item","yes","Lexical_Decision_Task.osexp","C:/Users/user","no","Andale Mono","no","18","no","white","no","yes","576","legacy","3","3","3","C:/Users/user/subject-5226144.csv","legacy","Lentiform Loewenfeld","3.3.8","yes","yes","600bd7cfb6416f0113b04181","602110864497cf011d9c0822","0","f","NA","j","j","j","NA","f","652","NA","1952","24274","5043","NA","652","2","legacy","1024","2","48000","-16","task","5226144","even","NA","48308","52263","50311","57895","11712","41035","35991","58396","NA","57893","58397","57801","52263","59050","46506","57301","11696","NA","Lexical Decision Task","8","5773","8","yes","1024"
"2.67699827","0","6","hulf","non-word","100","100","720.3333333333334","720.3333333333334","black","no","legacy","legacy","legacy","0","uniform","1","undefined","undefined","undefined","1","f","0","0","0","0","8","0","0","0","8","NA","4","8","4","0","4","3","8","0","8","Wed Mar 24 17:23:11 2021","The main experiment item","yes","Lexical_Decision_Task.osexp","C:/Users/user","no","Andale Mono","no","18","no","white","no","yes","576","legacy","4","4","3","C:/Users/user/subject-5226144.csv","legacy","Lentiform Loewenfeld","3.3.8","yes","yes","600bd7cfb6416f0113b04181","602110864497cf011d9c0822","0","f","NA","j","j","j","NA","f","710","NA","1952","24274","5043","NA","710","2","legacy","1024","2","48000","-16","task","5226144","even","NA","48308","52263","50311","59635","11712","41035","35991","60138","NA","59633","60138","59554","52263","60849","46506","59054","11696","NA","Lexical Decision Task","9","6483","9","yes","1024"
"3.153104174","10.89","6","door","word","100","100","696.7","696.7","black","no","legacy","legacy","legacy","0","uniform","1","undefined","undefined","undefined","1","j","0","0","0","0","9","0","0","0","9","NA","5","9","5","0","5","3","9","0","9","Wed Mar 24 17:23:11 2021","The main experiment item","yes","Lexical_Decision_Task.osexp","C:/Users/user","no","Andale Mono","no","18","no","white","no","yes","576","legacy","5","5","3","C:/Users/user/subject-5226144.csv","legacy","Lentiform Loewenfeld","3.3.8","yes","yes","600bd7cfb6416f0113b04181","602110864497cf011d9c0822","0","j","NA","j","j","j","NA","j","484","NA","1952","24274","5043","NA","484","2","legacy","1024","2","48000","-16","task","5226144","even","NA","48308","52263","50311","61435","11712","41035","35991","61937","NA","61433","61937","61355","52263","62423","46506","60855","11696","NA","Lexical Decision Task","10","6967","10","yes","1024"
"2.858136002","0","4","phip","non-word","100","100","690.3636363636364","690.3636363636364","black","no","legacy","legacy","legacy","0","uniform","1","undefined","undefined","undefined","1","f","0","0","0","0","10","0","0","0","10","NA","6","10","6","0","6","3","10","0","10","Wed Mar 24 17:23:11 2021","The main experiment item","yes","Lexical_Decision_Task.osexp","C:/Users/user","no","Andale Mono","no","18","no","white","no","yes","576","legacy","6","6","3","C:/Users/user/subject-5226144.csv","legacy","Lentiform Loewenfeld","3.3.8","yes","yes","600bd7cfb6416f0113b04181","602110864497cf011d9c0822","0","f","NA","j","j","j","NA","f","627","NA","1952","24274","5043","NA","627","2","legacy","1024","2","48000","-16","task","5226144","even","NA","48308","52263","50311","63010","11712","41035","35991","63513","NA","63008","63513","62928","52263","64141","46506","62428","11696","NA","Lexical Decision Task","11","7594","11","yes","1024"
"3.492014979","0","9","yine","non-word","100","100","675","675","black","no","legacy","legacy","legacy","0","uniform","1","undefined","undefined","undefined","1","f","0","0","0","0","11","0","0","0","11","NA","7","11","7","0","7","3","11","0","11","Wed Mar 24 17:23:11 2021","The main experiment item","yes","Lexical_Decision_Task.osexp","C:/Users/user","no","Andale Mono","no","18","no","white","no","yes","576","legacy","7","7","3","C:/Users/user/subject-5226144.csv","legacy","Lentiform Loewenfeld","3.3.8","yes","yes","600bd7cfb6416f0113b04181","602110864497cf011d9c0822","0","f","NA","j","j","j","NA","f","506","NA","1952","24274","5043","NA","506","2","legacy","1024","2","48000","-16","task","5226144","even","NA","48308","52263","50311","64731","11712","41035","35991","65234","NA","64729","65234","64647","52263","65740","46506","64147","11696","NA","Lexical Decision Task","12","8100","12","yes","1024"
"2.937852093","0","7","bamp","non-word","92.3076923076923","92.3076923076923","660.8461538461538","660.8461538461538","black","no","legacy","legacy","legacy","0","uniform","0","undefined","undefined","undefined","0","f","0","0","0","0","12","0","0","0","12","NA","8","12","8","0","8","3","12","0","12","Wed Mar 24 17:23:11 2021","The main experiment item","yes","Lexical_Decision_Task.osexp","C:/Users/user","no","Andale Mono","no","18","no","white","no","yes","576","legacy","8","8","3","C:/Users/user/subject-5226144.csv","legacy","Lentiform Loewenfeld","3.3.8","yes","yes","600bd7cfb6416f0113b04181","602110864497cf011d9c0822","0","j","NA","j","j","j","NA","j","491","NA","1952","24274","5043","NA","491","2","legacy","1024","2","48000","-16","task","5226144","even","NA","48308","52263","50311","66328","11712","41035","35991","66831","NA","66326","66831","66246","52263","67323","46506","65746","11696","NA","Lexical Decision Task","12","8591","13","yes","1024"
"2.695481676","0","7","goke","non-word","92.85714285714286","92.85714285714286","655.5","655.5","black","no","legacy","legacy","legacy","0","uniform","1","undefined","undefined","undefined","1","f","0","0","0","0","13","0","0","0","13","NA","9","13","9","0","9","3","13","0","13","Wed Mar 24 17:23:11 2021","The main experiment item","yes","Lexical_Decision_Task.osexp","C:/Users/user","no","Andale Mono","no","18","no","white","no","yes","576","legacy","9","9","3","C:/Users/user/subject-5226144.csv","legacy","Lentiform Loewenfeld","3.3.8","yes","yes","600bd7cfb6416f0113b04181","602110864497cf011d9c0822","0","f","NA","j","j","j","NA","f","586","NA","1952","24274","5043","NA","586","2","legacy","1024","2","48000","-16","task","5226144","even","NA","48308","52263","50311","68917","11712","41035","35991","69420","NA","68915","69420","68830","52263","70007","46506","65746","11696","67330","Lexical Decision Task","13","9177","14","yes","1024"
"3.22685757","9.99","7","roll","word","93.33333333333333","93.33333333333333","651.6","651.6","black","no","legacy","legacy","legacy","0","uniform","1","undefined","undefined","undefined","1","j","0","0","0","0","14","0","0","0","14","NA","10","14","10","0","10","3","14","0","14","Wed Mar 24 17:23:11 2021","The main experiment item","yes","Lexical_Decision_Task.osexp","C:/Users/user","no","Andale Mono","no","18","no","white","no","yes","576","legacy","10","10","3","C:/Users/user/subject-5226144.csv","legacy","Lentiform Loewenfeld","3.3.8","yes","yes","600bd7cfb6416f0113b04181","602110864497cf011d9c0822","0","j","NA","j","j","j","NA","j","597","NA","1952","24274","5043","NA","597","2","legacy","1024","2","48000","-16","task","5226144","even","NA","48308","52263","50311","70594","11712","41035","35991","71096","NA","70592","71097","70513","52263","71695","46506","70013","11696","67330","Lexical Decision Task","14","9774","15","yes","1024"
"3.531734309","0","6","lerd","non-word","93.75","93.75","654.125","654.125","black","no","legacy","legacy","legacy","0","uniform","1","undefined","undefined","undefined","1","f","0","0","0","0","15","0","0","0","15","NA","11","15","11","0","11","3","15","0","15","Wed Mar 24 17:23:11 2021","The main experiment item","yes","Lexical_Decision_Task.osexp","C:/Users/user","no","Andale Mono","no","18","no","white","no","yes","576","legacy","11","11","3","C:/Users/user/subject-5226144.csv","legacy","Lentiform Loewenfeld","3.3.8","yes","yes","600bd7cfb6416f0113b04181","602110864497cf011d9c0822","0","f","NA","j","j","j","NA","f","692","NA","1952","24274","5043","NA","692","2","legacy","1024","2","48000","-16","task","5226144","even","NA","48308","52263","50311","72282","11712","41035","35991","72786","NA","72281","72786","72202","52263","73478","46506","71702","11696","67330","Lexical Decision Task","15","10466","16","yes","1024"
"2.813801082","5.47","7","nook","word","94.11764705882354","94.11764705882354","675.9411764705883","675.9411764705883","black","no","legacy","legacy","legacy","0","uniform","1","undefined","undefined","undefined","1","j","0","0","0","0","16","0","0","0","16","NA","12","16","12","0","12","3","16","0","16","Wed Mar 24 17:23:11 2021","The main experiment item","yes","Lexical_Decision_Task.osexp","C:/Users/user","no","Andale Mono","no","18","no","white","no","yes","576","legacy","12","12","3","C:/Users/user/subject-5226144.csv","legacy","Lentiform Loewenfeld","3.3.8","yes","yes","600bd7cfb6416f0113b04181","602110864497cf011d9c0822","0","j","NA","j","j","j","NA","j","1025","NA","1952","24274","5043","NA","1025","2","legacy","1024","2","48000","-16","task","5226144","even","NA","48308","52263","50311","74066","11712","41035","35991","74569","NA","74064","74569","73984","52263","75595","46506","73484","11696","67330","Lexical Decision Task","16","11491","17","yes","1024"
"3.174641193","0","3","ramb","non-word","94.44444444444444","94.44444444444444","691.8888888888889","691.8888888888889","black","no","legacy","legacy","legacy","0","uniform","1","undefined","undefined","undefined","1","f","0","0","0","0","17","0","0","0","17","NA","13","17","13","0","13","3","17","0","17","Wed Mar 24 17:23:11 2021","The main experiment item","yes","Lexical_Decision_Task.osexp","C:/Users/user","no","Andale Mono","no","18","no","white","no","yes","576","legacy","13","13","3","C:/Users/user/subject-5226144.csv","legacy","Lentiform Loewenfeld","3.3.8","yes","yes","600bd7cfb6416f0113b04181","602110864497cf011d9c0822","0","f","NA","j","j","j","NA","f","963","NA","1952","24274","5043","NA","963","2","legacy","1024","2","48000","-16","task","5226144","even","NA","48308","52263","50311","76181","11712","41035","35991","76684","NA","76179","76684","76101","52263","77648","46506","75601","11696","67330","Lexical Decision Task","17","12454","18","yes","1024"
"3.068433376","8.09","2","bulb","word","94.73684210526316","94.73684210526316","686.5263157894736","686.5263157894736","black","no","legacy","legacy","legacy","0","uniform","1","undefined","undefined","undefined","1","j","0","0","0","0","18","0","0","0","18","NA","14","18","14","0","14","3","18","0","18","Wed Mar 24 17:23:11 2021","The main experiment item","yes","Lexical_Decision_Task.osexp","C:/Users/user","no","Andale Mono","no","18","no","white","no","yes","576","legacy","14","14","3","C:/Users/user/subject-5226144.csv","legacy","Lentiform Loewenfeld","3.3.8","yes","yes","600bd7cfb6416f0113b04181","602110864497cf011d9c0822","0","j","NA","j","j","j","NA","j","590","NA","1952","24274","5043","NA","590","2","legacy","1024","2","48000","-16","task","5226144","even","NA","48308","52263","50311","78234","11712","41035","35991","78736","NA","78232","78736","78153","52263","79327","46506","77653","11696","67330","Lexical Decision Task","18","13044","19","yes","1024"
"3.197740804","6.74","3","ache","word","95","95","686.3","686.3","black","no","legacy","legacy","legacy","0","uniform","1","undefined","undefined","undefined","1","j","0","0","0","0","19","0","0","0","19","NA","15","19","15","0","15","3","19","0","19","Wed Mar 24 17:23:11 2021","The main experiment item","yes","Lexical_Decision_Task.osexp","C:/Users/user","no","Andale Mono","no","18","no","white","no","yes","576","legacy","15","15","3","C:/Users/user/subject-5226144.csv","legacy","Lentiform Loewenfeld","3.3.8","yes","yes","600bd7cfb6416f0113b04181","602110864497cf011d9c0822","0","j","NA","j","j","j","NA","j","682","NA","1952","24274","5043","NA","682","2","legacy","1024","2","48000","-16","task","5226144","even","NA","48308","52263","50311","79914","11712","41035","35991","80416","NA","79912","80416","79832","52263","81099","46506","79332","11696","67330","Lexical Decision Task","19","13726","20","yes","1024"
"2.892836167","10.01","5","soft","word","95.23809523809524","95.23809523809524","680.1428571428571","680.1428571428571","black","no","legacy","legacy","legacy","0","uniform","1","undefined","undefined","undefined","1","j","0","0","0","0","20","0","0","0","20","NA","16","20","16","0","16","3","20","0","20","Wed Mar 24 17:23:11 2021","The main experiment item","yes","Lexical_Decision_Task.osexp","C:/Users/user","no","Andale Mono","no","18","no","white","no","yes","576","legacy","16","16","3","C:/Users/user/subject-5226144.csv","legacy","Lentiform Loewenfeld","3.3.8","yes","yes","600bd7cfb6416f0113b04181","602110864497cf011d9c0822","0","j","NA","j","j","j","NA","j","557","NA","1952","24274","5043","NA","557","2","legacy","1024","2","48000","-16","task","5226144","even","NA","48308","52263","50311","81683","11712","41035","35991","82187","NA","81682","82187","81604","52263","82744","46506","81104","11696","67330","Lexical Decision Task","20","14283","21","yes","1024"
"2.698387659","6.66","7","skid","word","95.45454545454545","95.45454545454545","682","682","black","no","legacy","legacy","legacy","0","uniform","1","undefined","undefined","undefined","1","j","0","0","0","0","21","0","0","0","21","NA","17","21","17","0","17","3","21","0","21","Wed Mar 24 17:23:11 2021","The main experiment item","yes","Lexical_Decision_Task.osexp","C:/Users/user","no","Andale Mono","no","18","no","white","no","yes","576","legacy","17","17","3","C:/Users/user/subject-5226144.csv","legacy","Lentiform Loewenfeld","3.3.8","yes","yes","600bd7cfb6416f0113b04181","602110864497cf011d9c0822","0","j","NA","j","j","j","NA","j","721","NA","1952","24274","5043","NA","721","2","legacy","1024","2","48000","-16","task","5226144","even","NA","48308","52263","50311","83331","11712","41035","35991","83841","NA","83330","83841","83251","52263","84565","46506","82751","11696","67330","Lexical Decision Task","21","15004","22","yes","1024"
"2.576725172","0","8","gowl","non-word","95.65217391304348","95.65217391304348","682.0434782608696","682.0434782608696","black","no","legacy","legacy","legacy","0","uniform","1","undefined","undefined","undefined","1","f","0","0","0","0","22","0","0","0","22","NA","18","22","18","0","18","3","22","0","22","Wed Mar 24 17:23:11 2021","The main experiment item","yes","Lexical_Decision_Task.osexp","C:/Users/user","no","Andale Mono","no","18","no","white","no","yes","576","legacy","18","18","3","C:/Users/user/subject-5226144.csv","legacy","Lentiform Loewenfeld","3.3.8","yes","yes","600bd7cfb6416f0113b04181","602110864497cf011d9c0822","0","f","NA","j","j","j","NA","f","683","NA","1952","24274","5043","NA","683","2","legacy","1024","2","48000","-16","task","5226144","even","NA","48308","52263","50311","85516","11712","41035","35991","86025","NA","85507","86026","85087","52263","86709","46506","84586","11696","67330","Lexical Decision Task","22","15687","23","yes","1024"
"2.794720352","0","9","koot","non-word","95.83333333333333","95.83333333333333","678.6666666666666","678.6666666666666","black","no","legacy","legacy","legacy","0","uniform","1","undefined","undefined","undefined","1","f","0","0","0","0","23","0","0","0","23","NA","19","23","19","0","19","3","23","0","23","Wed Mar 24 17:23:11 2021","The main experiment item","yes","Lexical_Decision_Task.osexp","C:/Users/user","no","Andale Mono","no","18","no","white","no","yes","576","legacy","19","19","3","C:/Users/user/subject-5226144.csv","legacy","Lentiform Loewenfeld","3.3.8","yes","yes","600bd7cfb6416f0113b04181","602110864497cf011d9c0822","0","f","NA","j","j","j","NA","f","601","NA","1952","24274","5043","NA","601","2","legacy","1024","2","48000","-16","task","5226144","even","NA","48308","52263","50311","87294","11712","41035","35991","87796","NA","87293","87796","87215","52263","88397","46506","86715","11696","67330","Lexical Decision Task","23","16288","24","yes","1024"
"2.6599162","0","6","flug","non-word","96","96","679.2","679.2","black","no","legacy","legacy","legacy","0","uniform","1","undefined","undefined","undefined","1","f","0","0","0","0","24","0","0","0","24","NA","20","24","20","0","20","3","24","0","24","Wed Mar 24 17:23:11 2021","The main experiment item","yes","Lexical_Decision_Task.osexp","C:/Users/user","no","Andale Mono","no","18","no","white","no","yes","576","legacy","20","20","3","C:/Users/user/subject-5226144.csv","legacy","Lentiform Loewenfeld","3.3.8","yes","yes","600bd7cfb6416f0113b04181","602110864497cf011d9c0822","0","f","NA","j","j","j","NA","f","692","NA","1952","24274","5043","NA","692","2","legacy","1024","2","48000","-16","task","5226144","even","NA","48308","52263","50311","88983","11712","41035","35991","89485","NA","88981","89485","88903","52263","90178","46506","88402","11696","67330","Lexical Decision Task","24","16980","25","yes","1024"
"3.145920145","8.51","8","flew","word","96.15384615384616","96.15384615384616","679.8461538461538","679.8461538461538","black","no","legacy","legacy","legacy","0","uniform","1","undefined","undefined","undefined","1","j","0","0","0","0","25","0","0","0","25","NA","21","25","21","0","21","3","25","0","25","Wed Mar 24 17:23:11 2021","The main experiment item","yes","Lexical_Decision_Task.osexp","C:/Users/user","no","Andale Mono","no","18","no","white","no","yes","576","legacy","21","21","3","C:/Users/user/subject-5226144.csv","legacy","Lentiform Loewenfeld","3.3.8","yes","yes","600bd7cfb6416f0113b04181","602110864497cf011d9c0822","0","j","NA","j","j","j","NA","j","696","NA","1952","24274","5043","NA","696","2","legacy","1024","2","48000","-16","task","5226144","even","NA","48308","52263","50311","90771","11712","41035","35991","91273","NA","90769","91273","90684","52263","91970","46506","90184","11696","67330","Lexical Decision Task","25","17676","26","yes","1024"
"2.897810299","0","5","glur","non-word","96.29629629629629","96.29629629629629","676.6666666666666","676.6666666666666","black","no","legacy","legacy","legacy","0","uniform","1","undefined","undefined","undefined","1","f","0","0","0","0","26","0","0","0","26","NA","22","26","22","0","22","3","26","0","26","Wed Mar 24 17:23:11 2021","The main experiment item","yes","Lexical_Decision_Task.osexp","C:/Users/user","no","Andale Mono","no","18","no","white","no","yes","576","legacy","22","22","3","C:/Users/user/subject-5226144.csv","legacy","Lentiform Loewenfeld","3.3.8","yes","yes","600bd7cfb6416f0113b04181","602110864497cf011d9c0822","0","f","NA","j","j","j","NA","f","594","NA","1952","24274","5043","NA","594","2","legacy","1024","2","48000","-16","task","5226144","even","NA","48308","52263","50311","92565","11712","41035","35991","93068","NA","92563","93068","92476","52263","93663","46506","91976","11696","67330","Lexical Decision Task","26","18270","27","yes","1024"
"2.698100546","0","9","mulk","non-word","96.42857142857143","96.42857142857143","675.2142857142857","675.2142857142857","black","no","legacy","legacy","legacy","0","uniform","1","undefined","undefined","undefined","1","f","0","0","0","0","27","0","0","0","27","NA","23","27","23","0","23","3","27","0","27","Wed Mar 24 17:23:11 2021","The main experiment item","yes","Lexical_Decision_Task.osexp","C:/Users/user","no","Andale Mono","no","18","no","white","no","yes","576","legacy","23","23","3","C:/Users/user/subject-5226144.csv","legacy","Lentiform Loewenfeld","3.3.8","yes","yes","600bd7cfb6416f0113b04181","602110864497cf011d9c0822","0","f","NA","j","j","j","NA","f","636","NA","1952","24274","5043","NA","636","2","legacy","1024","2","48000","-16","task","5226144","even","NA","48308","52263","50311","94282","11712","41035","35991","94784","NA","94279","94784","94169","52263","95421","46506","93669","11696","67330","Lexical Decision Task","27","18906","28","yes","1024"
"3.028977705","0","7","frow","non-word","96.55172413793103","96.55172413793103","673.8965517241379","673.8965517241379","black","no","legacy","legacy","legacy","0","uniform","1","undefined","undefined","undefined","1","f","0","0","0","0","28","0","0","0","28","NA","24","28","24","0","24","3","28","0","28","Wed Mar 24 17:23:11 2021","The main experiment item","yes","Lexical_Decision_Task.osexp","C:/Users/user","no","Andale Mono","no","18","no","white","no","yes","576","legacy","24","24","3","C:/Users/user/subject-5226144.csv","legacy","Lentiform Loewenfeld","3.3.8","yes","yes","600bd7cfb6416f0113b04181","602110864497cf011d9c0822","0","f","NA","j","j","j","NA","f","637","NA","1952","24274","5043","NA","637","2","legacy","1024","2","48000","-16","task","5226144","even","NA","48308","52263","50311","96045","11712","41035","35991","96547","NA","96042","96547","95926","52263","97185","46506","95426","11696","67330","Lexical Decision Task","28","19543","29","yes","1024"
"2.705007959","6.01","4","wept","word","96.66666666666667","96.66666666666667","677.4","677.4","black","no","legacy","legacy","legacy","0","uniform","1","undefined","undefined","undefined","1","j","0","0","0","0","29","0","0","0","29","NA","25","29","25","0","25","3","29","0","29","Wed Mar 24 17:23:11 2021","The main experiment item","yes","Lexical_Decision_Task.osexp","C:/Users/user","no","Andale Mono","no","18","no","white","no","yes","576","legacy","25","25","3","C:/Users/user/subject-5226144.csv","legacy","Lentiform Loewenfeld","3.3.8","yes","yes","600bd7cfb6416f0113b04181","602110864497cf011d9c0822","0","j","NA","j","j","j","NA","j","779","NA","1952","24274","5043","NA","779","2","legacy","1024","2","48000","-16","task","5226144","even","NA","48308","52263","50311","97808","11712","41035","35991","98310","NA","97806","98310","97693","52263","99091","46506","97193","11696","67330","Lexical Decision Task","29","20322","30","yes","1024"
"2.838639236","0","4","furg","non-word","96.7741935483871","96.7741935483871","672.4516129032259","672.4516129032259","black","no","legacy","legacy","legacy","0","uniform","1","undefined","undefined","undefined","1","f","0","0","0","0","30","0","0","0","30","NA","26","30","26","0","26","3","30","0","30","Wed Mar 24 17:23:11 2021","The main experiment item","yes","Lexical_Decision_Task.osexp","C:/Users/user","no","Andale Mono","no","18","no","white","no","yes","576","legacy","26","26","3","C:/Users/user/subject-5226144.csv","legacy","Lentiform Loewenfeld","3.3.8","yes","yes","600bd7cfb6416f0113b04181","602110864497cf011d9c0822","0","f","NA","j","j","j","NA","f","524","NA","1952","24274","5043","NA","524","2","legacy","1024","2","48000","-16","task","5226144","even","NA","48308","52263","50311","99713","11712","41035","35991","100215","NA","99711","100215","99596","52263","100740","46506","99096","11696","67330","Lexical Decision Task","30","20846","31","yes","1024"
"2.668385917","5.48","4","twig","word","96.875","96.875","671","671","black","no","legacy","legacy","legacy","0","uniform","1","undefined","undefined","undefined","1","j","0","0","0","0","31","0","0","0","31","NA","27","31","27","0","27","3","31","0","31","Wed Mar 24 17:23:11 2021","The main experiment item","yes","Lexical_Decision_Task.osexp","C:/Users/user","no","Andale Mono","no","18","no","white","no","yes","576","legacy","27","27","3","C:/Users/user/subject-5226144.csv","legacy","Lentiform Loewenfeld","3.3.8","yes","yes","600bd7cfb6416f0113b04181","602110864497cf011d9c0822","0","j","NA","j","j","j","NA","j","626","NA","1952","24274","5043","NA","626","2","legacy","1024","2","48000","-16","task","5226144","even","NA","48308","52263","50311","101369","11712","41035","35991","101870","NA","101366","101871","101258","52263","102498","46506","100758","11696","67330","Lexical Decision Task","31","21472","32","yes","1024"
"2.675164031","8.57","6","glue","word","96.96969696969697","96.96969696969697","666.8787878787879","666.8787878787879","black","no","legacy","legacy","legacy","0","uniform","1","undefined","undefined","undefined","1","j","0","0","0","0","32","0","0","0","32","NA","28","32","28","0","28","3","32","0","32","Wed Mar 24 17:23:11 2021","The main experiment item","yes","Lexical_Decision_Task.osexp","C:/Users/user","no","Andale Mono","no","18","no","white","no","yes","576","legacy","28","28","3","C:/Users/user/subject-5226144.csv","legacy","Lentiform Loewenfeld","3.3.8","yes","yes","600bd7cfb6416f0113b04181","602110864497cf011d9c0822","0","j","NA","j","j","j","NA","j","535","NA","1952","24274","5043","NA","535","2","legacy","1024","2","48000","-16","task","5226144","even","NA","48308","52263","50311","103101","11712","41035","35991","103603","NA","103099","103603","103004","52263","104139","46506","102504","11696","67330","Lexical Decision Task","32","22007","33","yes","1024"
"2.799799878","0","4","ciff","non-word","97.05882352941177","97.05882352941177","662.6764705882352","662.6764705882352","black","no","legacy","legacy","legacy","0","uniform","1","undefined","undefined","undefined","1","f","0","0","0","0","33","0","0","0","33","NA","29","33","29","0","29","3","33","0","33","Wed Mar 24 17:23:11 2021","The main experiment item","yes","Lexical_Decision_Task.osexp","C:/Users/user","no","Andale Mono","no","18","no","white","no","yes","576","legacy","29","29","3","C:/Users/user/subject-5226144.csv","legacy","Lentiform Loewenfeld","3.3.8","yes","yes","600bd7cfb6416f0113b04181","602110864497cf011d9c0822","0","f","NA","j","j","j","NA","f","524","NA","1952","24274","5043","NA","524","2","legacy","1024","2","48000","-16","task","5226144","even","NA","48308","52263","50311","104727","11712","41035","35991","105230","NA","104725","105230","104645","52263","105755","46506","104145","11696","67330","Lexical Decision Task","33","22531","34","yes","1024"
"2.706148589","0","4","hube","non-word","97.14285714285714","97.14285714285714","662.0571428571428","662.0571428571428","black","no","legacy","legacy","legacy","0","uniform","1","undefined","undefined","undefined","1","f","0","0","0","0","34","0","0","0","34","NA","30","34","30","0","30","3","34","0","34","Wed Mar 24 17:23:11 2021","The main experiment item","yes","Lexical_Decision_Task.osexp","C:/Users/user","no","Andale Mono","no","18","no","white","no","yes","576","legacy","30","30","3","C:/Users/user/subject-5226144.csv","legacy","Lentiform Loewenfeld","3.3.8","yes","yes","600bd7cfb6416f0113b04181","602110864497cf011d9c0822","0","f","NA","j","j","j","NA","f","641","NA","1952","24274","5043","NA","641","2","legacy","1024","2","48000","-16","task","5226144","even","NA","48308","52263","50311","106340","11712","41035","35991","106842","NA","106337","106842","106261","52263","107484","46506","105761","11696","67330","Lexical Decision Task","34","23172","35","yes","1024"
"3.090140555","5.81","8","pout","word","97.22222222222223","97.22222222222223","659.4722222222222","659.4722222222222","black","no","legacy","legacy","legacy","0","uniform","1","undefined","undefined","undefined","1","j","0","0","0","0","35","0","0","0","35","NA","31","35","31","0","31","3","35","0","35","Wed Mar 24 17:23:11 2021","The main experiment item","yes","Lexical_Decision_Task.osexp","C:/Users/user","no","Andale Mono","no","18","no","white","no","yes","576","legacy","31","31","3","C:/Users/user/subject-5226144.csv","legacy","Lentiform Loewenfeld","3.3.8","yes","yes","600bd7cfb6416f0113b04181","602110864497cf011d9c0822","0","j","NA","j","j","j","NA","j","569","NA","1952","24274","5043","NA","569","2","legacy","1024","2","48000","-16","task","5226144","even","NA","48308","52263","50311","108069","11712","41035","35991","108573","NA","108068","108573","107990","52263","109143","46506","107490","11696","67330","Lexical Decision Task","35","23741","36","yes","1024"
"2.696644658","5.78","2","yolk","word","94.5945945945946","94.5945945945946","658.2972972972973","658.2972972972973","black","no","legacy","legacy","legacy","0","uniform","0","undefined","undefined","undefined","0","j","0","0","0","0","36","0","0","0","36","NA","32","36","32","0","32","3","36","0","36","Wed Mar 24 17:23:11 2021","The main experiment item","yes","Lexical_Decision_Task.osexp","C:/Users/user","no","Andale Mono","no","18","no","white","no","yes","576","legacy","32","32","3","C:/Users/user/subject-5226144.csv","legacy","Lentiform Loewenfeld","3.3.8","yes","yes","600bd7cfb6416f0113b04181","602110864497cf011d9c0822","0","f","NA","j","j","j","NA","f","616","NA","1952","24274","5043","NA","616","2","legacy","1024","2","48000","-16","task","5226144","even","NA","48308","52263","50311","109732","11712","41035","35991","110233","NA","109730","110233","109649","52263","110850","46506","109149","11696","67330","Lexical Decision Task","35","24357","37","yes","1024"
"3.363486562","6.93","9","lush","word","94.73684210526316","94.73684210526316","654.5","654.5","black","no","legacy","legacy","legacy","0","uniform","1","undefined","undefined","undefined","1","j","0","0","0","0","37","0","0","0","37","NA","33","37","33","0","33","3","37","0","37","Wed Mar 24 17:23:11 2021","The main experiment item","yes","Lexical_Decision_Task.osexp","C:/Users/user","no","Andale Mono","no","18","no","white","no","yes","576","legacy","33","33","3","C:/Users/user/subject-5226144.csv","legacy","Lentiform Loewenfeld","3.3.8","yes","yes","600bd7cfb6416f0113b04181","602110864497cf011d9c0822","0","j","NA","j","j","j","NA","j","514","NA","1952","24274","5043","NA","514","2","legacy","1024","2","48000","-16","task","5226144","even","NA","48308","52263","50311","112438","11712","41035","35991","112940","NA","112436","112940","112356","52263","113454","46506","109149","11696","110856","Lexical Decision Task","36","24871","38","yes","1024"
"3.311895072","0","9","gung","non-word","94.87179487179488","94.87179487179488","655.6923076923077","655.6923076923077","black","no","legacy","legacy","legacy","0","uniform","1","undefined","undefined","undefined","1","f","0","0","0","0","38","0","0","0","38","NA","34","38","34","0","34","3","38","0","38","Wed Mar 24 17:23:11 2021","The main experiment item","yes","Lexical_Decision_Task.osexp","C:/Users/user","no","Andale Mono","no","18","no","white","no","yes","576","legacy","34","34","3","C:/Users/user/subject-5226144.csv","legacy","Lentiform Loewenfeld","3.3.8","yes","yes","600bd7cfb6416f0113b04181","602110864497cf011d9c0822","0","f","NA","j","j","j","NA","f","701","NA","1952","24274","5043","NA","701","2","legacy","1024","2","48000","-16","task","5226144","even","NA","48308","52263","50311","114041","11712","41035","35991","114544","NA","114039","114544","113961","52263","115246","46506","113461","11696","110856","Lexical Decision Task","37","25572","39","yes","1024"
"3.043885998","0","9","gome","non-word","92.5","92.5","654.25","654.25","black","no","legacy","legacy","legacy","0","uniform","0","undefined","undefined","undefined","0","f","0","0","0","0","39","0","0","0","39","NA","35","39","35","0","35","3","39","0","39","Wed Mar 24 17:23:11 2021","The main experiment item","yes","Lexical_Decision_Task.osexp","C:/Users/user","no","Andale Mono","no","18","no","white","no","yes","576","legacy","35","35","3","C:/Users/user/subject-5226144.csv","legacy","Lentiform Loewenfeld","3.3.8","yes","yes","600bd7cfb6416f0113b04181","602110864497cf011d9c0822","0","j","NA","j","j","j","NA","j","598","NA","1952","24274","5043","NA","598","2","legacy","1024","2","48000","-16","task","5226144","even","NA","48308","52263","50311","115841","11712","41035","35991","116344","NA","115839","116344","115752","52263","116943","46506","115252","11696","110856","Lexical Decision Task","37","26170","40","yes","1024"
"3.1430148","7.92","8","bald","word","92.6829268292683","92.6829268292683","651.8536585365854","651.8536585365854","black","no","legacy","legacy","legacy","0","uniform","1","undefined","undefined","undefined","1","j","0","0","0","0","40","0","0","0","40","NA","36","40","36","0","36","3","40","0","40","Wed Mar 24 17:23:11 2021","The main experiment item","yes","Lexical_Decision_Task.osexp","C:/Users/user","no","Andale Mono","no","18","no","white","no","yes","576","legacy","36","36","3","C:/Users/user/subject-5226144.csv","legacy","Lentiform Loewenfeld","3.3.8","yes","yes","600bd7cfb6416f0113b04181","602110864497cf011d9c0822","0","j","NA","j","j","j","NA","j","556","NA","1952","24274","5043","NA","556","2","legacy","1024","2","48000","-16","task","5226144","even","NA","48308","52263","50311","118529","11712","41035","35991","119031","NA","118527","119032","118449","52263","119589","46506","115252","11696","116949","Lexical Decision Task","38","26726","41","yes","1024"
"3.431095062","5.74","9","perk","word","92.85714285714286","92.85714285714286","650.5952380952381","650.5952380952381","black","no","legacy","legacy","legacy","0","uniform","1","undefined","undefined","undefined","1","j","0","0","0","0","41","0","0","0","41","NA","37","41","37","0","37","3","41","0","41","Wed Mar 24 17:23:11 2021","The main experiment item","yes","Lexical_Decision_Task.osexp","C:/Users/user","no","Andale Mono","no","18","no","white","no","yes","576","legacy","37","37","3","C:/Users/user/subject-5226144.csv","legacy","Lentiform Loewenfeld","3.3.8","yes","yes","600bd7cfb6416f0113b04181","602110864497cf011d9c0822","0","j","NA","j","j","j","NA","j","599","NA","1952","24274","5043","NA","599","2","legacy","1024","2","48000","-16","task","5226144","even","NA","48308","52263","50311","120185","11712","41035","35991","120686","NA","120183","120687","120095","52263","121287","46506","119595","11696","116949","Lexical Decision Task","39","27325","42","yes","1024"
"3.208172527","10.27","7","deck","word","93.02325581395348","93.02325581395348","651.046511627907","651.046511627907","black","no","legacy","legacy","legacy","0","uniform","1","undefined","undefined","undefined","1","j","0","0","0","0","42","0","0","0","42","NA","38","42","38","0","38","3","42","0","42","Wed Mar 24 17:23:11 2021","The main experiment item","yes","Lexical_Decision_Task.osexp","C:/Users/user","no","Andale Mono","no","18","no","white","no","yes","576","legacy","38","38","3","C:/Users/user/subject-5226144.csv","legacy","Lentiform Loewenfeld","3.3.8","yes","yes","600bd7cfb6416f0113b04181","602110864497cf011d9c0822","0","j","NA","j","j","j","NA","j","670","NA","1952","24274","5043","NA","670","2","legacy","1024","2","48000","-16","task","5226144","even","NA","48308","52263","50311","121893","11712","41035","35991","122396","NA","121890","122396","121793","52263","123067","46506","121293","11696","116949","Lexical Decision Task","40","27995","43","yes","1024"
"2.819763221","0","2","durp","non-word","90.9090909090909","90.9090909090909","662.1136363636364","662.1136363636364","black","no","legacy","legacy","legacy","0","uniform","0","undefined","undefined","undefined","0","f","0","0","0","0","43","0","0","0","43","NA","39","43","39","0","39","3","43","0","43","Wed Mar 24 17:23:11 2021","The main experiment item","yes","Lexical_Decision_Task.osexp","C:/Users/user","no","Andale Mono","no","18","no","white","no","yes","576","legacy","39","39","3","C:/Users/user/subject-5226144.csv","legacy","Lentiform Loewenfeld","3.3.8","yes","yes","600bd7cfb6416f0113b04181","602110864497cf011d9c0822","0","j","NA","j","j","j","NA","j","1138","NA","1952","24274","5043","NA","1138","2","legacy","1024","2","48000","-16","task","5226144","even","NA","48308","52263","50311","123656","11712","41035","35991","124160","NA","123654","124160","123575","52263","125299","46506","123075","11696","116949","Lexical Decision Task","40","29133","44","yes","1024"
"3.218535505","7.85","7","goat","word","91.11111111111111","91.11111111111111","663.1555555555556","663.1555555555556","black","no","legacy","legacy","legacy","0","uniform","1","undefined","undefined","undefined","1","j","0","0","0","0","44","0","0","0","44","NA","40","44","40","0","40","3","44","0","44","Wed Mar 24 17:23:11 2021","The main experiment item","yes","Lexical_Decision_Task.osexp","C:/Users/user","no","Andale Mono","no","18","no","white","no","yes","576","legacy","40","40","3","C:/Users/user/subject-5226144.csv","legacy","Lentiform Loewenfeld","3.3.8","yes","yes","600bd7cfb6416f0113b04181","602110864497cf011d9c0822","0","j","NA","j","j","j","NA","j","709","NA","1952","24274","5043","NA","709","2","legacy","1024","2","48000","-16","task","5226144","even","NA","48308","52263","50311","126891","11712","41035","35991","127394","NA","126888","127394","126805","52263","128104","46506","123075","11696","125304","Lexical Decision Task","41","29842","45","yes","1024"
"2.69019608","9.01","2","myth","word","91.30434782608695","91.30434782608695","660.9782608695652","660.9782608695652","black","no","legacy","legacy","legacy","0","uniform","1","undefined","undefined","undefined","1","j","0","0","0","0","45","0","0","0","45","NA","41","45","41","0","41","3","45","0","45","Wed Mar 24 17:23:11 2021","The main experiment item","yes","Lexical_Decision_Task.osexp","C:/Users/user","no","Andale Mono","no","18","no","white","no","yes","576","legacy","41","41","3","C:/Users/user/subject-5226144.csv","legacy","Lentiform Loewenfeld","3.3.8","yes","yes","600bd7cfb6416f0113b04181","602110864497cf011d9c0822","0","j","NA","j","j","j","NA","j","563","NA","1952","24274","5043","NA","563","2","legacy","1024","2","48000","-16","task","5226144","even","NA","48308","52263","50311","128689","11712","41035","35991","129191","NA","128687","129191","128610","52263","129755","46506","128110","11696","125304","Lexical Decision Task","42","30405","46","yes","1024"
"2.812467698","0","7","hafe","non-word","91.48936170212765","91.48936170212765","661.1489361702128","661.1489361702128","black","no","legacy","legacy","legacy","0","uniform","1","undefined","undefined","undefined","1","f","0","0","0","0","46","0","0","0","46","NA","42","46","42","0","42","3","46","0","46","Wed Mar 24 17:23:11 2021","The main experiment item","yes","Lexical_Decision_Task.osexp","C:/Users/user","no","Andale Mono","no","18","no","white","no","yes","576","legacy","42","42","3","C:/Users/user/subject-5226144.csv","legacy","Lentiform Loewenfeld","3.3.8","yes","yes","600bd7cfb6416f0113b04181","602110864497cf011d9c0822","0","f","NA","j","j","j","NA","f","669","NA","1952","24274","5043","NA","669","2","legacy","1024","2","48000","-16","task","5226144","even","NA","48308","52263","50311","130343","11712","41035","35991","130844","NA","130341","130844","130261","52263","131514","46506","129761","11696","125304","Lexical Decision Task","43","31074","47","yes","1024"
"2.809559715","8.44","4","volt","word","91.66666666666667","91.66666666666667","659.9583333333334","659.9583333333334","black","no","legacy","legacy","legacy","0","uniform","1","undefined","undefined","undefined","1","j","0","0","0","0","47","0","0","0","47","NA","43","47","43","0","43","3","47","0","47","Wed Mar 24 17:23:11 2021","The main experiment item","yes","Lexical_Decision_Task.osexp","C:/Users/user","no","Andale Mono","no","18","no","white","no","yes","576","legacy","43","43","3","C:/Users/user/subject-5226144.csv","legacy","Lentiform Loewenfeld","3.3.8","yes","yes","600bd7cfb6416f0113b04181","602110864497cf011d9c0822","0","j","NA","j","j","j","NA","j","604","NA","1952","24274","5043","NA","604","2","legacy","1024","2","48000","-16","task","5226144","even","NA","48308","52263","50311","132102","11712","41035","35991","132605","NA","132100","132605","132019","52263","133211","46506","131519","11696","125304","Lexical Decision Task","44","31678","48","yes","1024"
"2.778633532","0","3","jurp","non-word","91.83673469387755","91.83673469387755","658.4897959183673","658.4897959183673","black","no","legacy","legacy","legacy","0","uniform","1","undefined","undefined","undefined","1","f","0","0","0","0","48","0","0","0","48","NA","44","48","44","0","44","3","48","0","48","Wed Mar 24 17:23:11 2021","The main experiment item","yes","Lexical_Decision_Task.osexp","C:/Users/user","no","Andale Mono","no","18","no","white","no","yes","576","legacy","44","44","3","C:/Users/user/subject-5226144.csv","legacy","Lentiform Loewenfeld","3.3.8","yes","yes","600bd7cfb6416f0113b04181","602110864497cf011d9c0822","0","f","NA","j","j","j","NA","f","588","NA","1952","24274","5043","NA","588","2","legacy","1024","2","48000","-16","task","5226144","even","NA","48308","52263","50311","133795","11712","41035","35991","134297","NA","133793","134297","133716","52263","134886","46506","133216","11696","125304","Lexical Decision Task","45","32266","49","yes","1024"
"3.120025233","0","2","nyst","non-word","92","92","660.56","660.56","black","no","legacy","legacy","legacy","0","uniform","1","undefined","undefined","undefined","1","f","0","0","0","0","49","0","0","0","49","NA","45","49","45","0","45","3","49","0","49","Wed Mar 24 17:23:11 2021","The main experiment item","yes","Lexical_Decision_Task.osexp","C:/Users/user","no","Andale Mono","no","18","no","white","no","yes","576","legacy","45","45","3","C:/Users/user/subject-5226144.csv","legacy","Lentiform Loewenfeld","3.3.8","yes","yes","600bd7cfb6416f0113b04181","602110864497cf011d9c0822","0","f","NA","j","j","j","NA","f","762","NA","1952","24274","5043","NA","762","2","legacy","1024","2","48000","-16","task","5226144","even","NA","48308","52263","50311","135471","11712","41035","35991","135973","NA","135469","135973","135392","52263","136736","46506","134892","11696","125304","Lexical Decision Task","46","33028","50","yes","1024"
"2.664328519","0","4","plux","non-word","92.15686274509804","92.15686274509804","658.0392156862745","658.0392156862745","black","no","legacy","legacy","legacy","0","uniform","1","undefined","undefined","undefined","1","f","0","0","0","0","50","0","0","0","50","NA","46","50","46","0","46","3","50","0","50","Wed Mar 24 17:23:11 2021","The main experiment item","yes","Lexical_Decision_Task.osexp","C:/Users/user","no","Andale Mono","no","18","no","white","no","yes","576","legacy","46","46","3","C:/Users/user/subject-5226144.csv","legacy","Lentiform Loewenfeld","3.3.8","yes","yes","600bd7cfb6416f0113b04181","602110864497cf011d9c0822","0","f","NA","j","j","j","NA","f","532","NA","1952","24274","5043","NA","532","2","legacy","1024","2","48000","-16","task","5226144","even","NA","48308","52263","50311","137324","11712","41035","35991","137827","NA","137322","137827","137243","52263","138360","46506","136743","11696","125304","Lexical Decision Task","47","33560","51","yes","1024"
"3.031812271","6.52","3","gulp","word","92.3076923076923","92.3076923076923","656.8846153846154","656.8846153846154","black","no","legacy","legacy","legacy","0","uniform","1","undefined","undefined","undefined","1","j","0","0","0","0","51","0","0","0","51","NA","47","51","47","0","47","3","51","0","51","Wed Mar 24 17:23:11 2021","The main experiment item","yes","Lexical_Decision_Task.osexp","C:/Users/user","no","Andale Mono","no","18","no","white","no","yes","576","legacy","47","47","3","C:/Users/user/subject-5226144.csv","legacy","Lentiform Loewenfeld","3.3.8","yes","yes","600bd7cfb6416f0113b04181","602110864497cf011d9c0822","0","j","NA","j","j","j","NA","j","598","NA","1952","24274","5043","NA","598","2","legacy","1024","2","48000","-16","task","5226144","even","NA","48308","52263","50311","138944","11712","41035","35991","139447","NA","138942","139447","138866","52263","140046","46506","138366","11696","125304","Lexical Decision Task","48","34158","52","yes","1024"
"3.081107167","0","6","chot","non-word","92.45283018867924","92.45283018867924","655.2075471698113","655.2075471698113","black","no","legacy","legacy","legacy","0","uniform","1","undefined","undefined","undefined","1","f","0","0","0","0","52","0","0","0","52","NA","48","52","48","0","48","3","52","0","52","Wed Mar 24 17:23:11 2021","The main experiment item","yes","Lexical_Decision_Task.osexp","C:/Users/user","no","Andale Mono","no","18","no","white","no","yes","576","legacy","48","48","3","C:/Users/user/subject-5226144.csv","legacy","Lentiform Loewenfeld","3.3.8","yes","yes","600bd7cfb6416f0113b04181","602110864497cf011d9c0822","0","f","NA","j","j","j","NA","f","568","NA","1952","24274","5043","NA","568","2","legacy","1024","2","48000","-16","task","5226144","even","NA","48308","52263","50311","140634","11712","41035","35991","141137","NA","140632","141137","140553","52263","141706","46506","140053","11696","125304","Lexical Decision Task","49","34726","53","yes","1024"
"2.972819734","0","4","scew","non-word","92.5925925925926","92.5925925925926","656.2777777777778","656.2777777777778","black","no","legacy","legacy","legacy","0","uniform","1","undefined","undefined","undefined","1","f","0","0","0","0","53","0","0","0","53","NA","49","53","49","0","49","3","53","0","53","Wed Mar 24 17:23:11 2021","The main experiment item","yes","Lexical_Decision_Task.osexp","C:/Users/user","no","Andale Mono","no","18","no","white","no","yes","576","legacy","49","49","3","C:/Users/user/subject-5226144.csv","legacy","Lentiform Loewenfeld","3.3.8","yes","yes","600bd7cfb6416f0113b04181","602110864497cf011d9c0822","0","f","NA","j","j","j","NA","f","713","NA","1952","24274","5043","NA","713","2","legacy","1024","2","48000","-16","task","5226144","even","NA","48308","52263","50311","142291","11712","41035","35991","142794","NA","142289","142794","142211","52263","143508","46506","141711","11696","125304","Lexical Decision Task","50","35439","54","yes","1024"
"2.755364069","7.72","2","hoax","word","92.72727272727273","92.72727272727273","692.1454545454545","692.1454545454545","black","no","legacy","legacy","legacy","0","uniform","1","undefined","undefined","undefined","1","j","0","0","0","0","54","0","0","0","54","0","50","54","50","0","50","3","54","0","54","Wed Mar 24 17:23:11 2021","The main experiment item","yes","Lexical_Decision_Task.osexp","C:/Users/user","no","Andale Mono","no","18","no","white","no","yes","576","legacy","50","50","3","C:/Users/user/subject-5226144.csv","legacy","Lentiform Loewenfeld","3.3.8","yes","yes","600bd7cfb6416f0113b04181","602110864497cf011d9c0822","0","j","NA","j","j","j","space","j","2629","NA","1952","24274","5043","11982","2629","2","legacy","1024","2","48000","-16","task","5226144","even","NA","48308","52263","50311","156139","11712","41035","35991","156641","144066","156137","156641","144015","52263","159271","46506","143515","11696","125304","Lexical Decision Task","51","38068","55","yes","1024"
"3.474361976","5.24","6","veer","word","91.07142857142857","91.07142857142857","694.9821428571429","694.9821428571429","black","no","legacy","legacy","legacy","0","uniform","0","undefined","undefined","undefined","0","j","0","0","0","0","55","0","0","0","55","0","51","55","51","0","51","3","55","0","55","Wed Mar 24 17:23:11 2021","The main experiment item","yes","Lexical_Decision_Task.osexp","C:/Users/user","no","Andale Mono","no","18","no","white","no","yes","576","legacy","51","51","3","C:/Users/user/subject-5226144.csv","legacy","Lentiform Loewenfeld","3.3.8","yes","yes","600bd7cfb6416f0113b04181","602110864497cf011d9c0822","0","f","NA","j","j","j","space","f","851","NA","1952","24274","5043","11982","851","2","legacy","1024","2","48000","-16","task","5226144","even","NA","48308","52263","50311","159867","11712","41035","35991","160371","144066","159865","160371","159787","52263","161223","46506","159287","11696","125304","Lexical Decision Task","51","38919","56","yes","1024"
"3.353210739","0","9","reet","non-word","91.2280701754386","91.2280701754386","695.561403508772","695.561403508772","black","no","legacy","legacy","legacy","0","uniform","1","undefined","undefined","undefined","1","f","0","0","0","0","56","0","0","0","56","0","52","56","52","0","52","3","56","0","56","Wed Mar 24 17:23:11 2021","The main experiment item","yes","Lexical_Decision_Task.osexp","C:/Users/user","no","Andale Mono","no","18","no","white","no","yes","576","legacy","52","52","3","C:/Users/user/subject-5226144.csv","legacy","Lentiform Loewenfeld","3.3.8","yes","yes","600bd7cfb6416f0113b04181","602110864497cf011d9c0822","0","f","NA","j","j","j","space","f","728","NA","1952","24274","5043","11982","728","2","legacy","1024","2","48000","-16","task","5226144","even","NA","48308","52263","50311","162820","11712","41035","35991","163322","144066","162818","163322","162739","52263","164051","46506","159287","11696","161239","Lexical Decision Task","52","39647","57","yes","1024"
"2.713490543","0","3","feps","non-word","91.37931034482759","91.37931034482759","695.3965517241379","695.3965517241379","black","no","legacy","legacy","legacy","0","uniform","1","undefined","undefined","undefined","1","f","0","0","0","0","57","0","0","0","57","0","53","57","53","0","53","3","57","0","57","Wed Mar 24 17:23:11 2021","The main experiment item","yes","Lexical_Decision_Task.osexp","C:/Users/user","no","Andale Mono","no","18","no","white","no","yes","576","legacy","53","53","3","C:/Users/user/subject-5226144.csv","legacy","Lentiform Loewenfeld","3.3.8","yes","yes","600bd7cfb6416f0113b04181","602110864497cf011d9c0822","0","f","NA","j","j","j","space","f","686","NA","1952","24274","5043","11982","686","2","legacy","1024","2","48000","-16","task","5226144","even","NA","48308","52263","50311","164652","11712","41035","35991","165153","144066","164650","165153","164567","52263","165840","46506","164067","11696","161239","Lexical Decision Task","53","40333","58","yes","1024"
"2.80048796","0","8","pife","non-word","91.52542372881356","91.52542372881356","695.8474576271186","695.8474576271186","black","no","legacy","legacy","legacy","0","uniform","1","undefined","undefined","undefined","1","f","0","0","0","0","58","0","0","0","58","0","54","58","54","0","54","3","58","0","58","Wed Mar 24 17:23:11 2021","The main experiment item","yes","Lexical_Decision_Task.osexp","C:/Users/user","no","Andale Mono","no","18","no","white","no","yes","576","legacy","54","54","3","C:/Users/user/subject-5226144.csv","legacy","Lentiform Loewenfeld","3.3.8","yes","yes","600bd7cfb6416f0113b04181","602110864497cf011d9c0822","0","f","NA","j","j","j","space","f","722","NA","1952","24274","5043","11982","722","2","legacy","1024","2","48000","-16","task","5226144","even","NA","48308","52263","50311","166435","11712","41035","35991","166937","144066","166433","166937","166356","52263","167660","46506","165856","11696","161239","Lexical Decision Task","54","41055","59","yes","1024"
"3.105055783","0","2","norp","non-word","91.66666666666667","91.66666666666667","693.9666666666667","693.9666666666667","black","no","legacy","legacy","legacy","0","uniform","1","undefined","undefined","undefined","1","f","0","0","0","0","59","0","0","0","59","0","55","59","55","0","55","3","59","0","59","Wed Mar 24 17:23:11 2021","The main experiment item","yes","Lexical_Decision_Task.osexp","C:/Users/user","no","Andale Mono","no","18","no","white","no","yes","576","legacy","55","55","3","C:/Users/user/subject-5226144.csv","legacy","Lentiform Loewenfeld","3.3.8","yes","yes","600bd7cfb6416f0113b04181","602110864497cf011d9c0822","0","f","NA","j","j","j","space","f","583","NA","1952","24274","5043","11982","583","2","legacy","1024","2","48000","-16","task","5226144","even","NA","48308","52263","50311","168254","11712","41035","35991","168755","144066","168252","168756","168176","52263","169341","46506","167676","11696","161239","Lexical Decision Task","55","41638","60","yes","1024"
"3.037294994","8.64","7","roof","word","91.80327868852459","91.80327868852459","691.2131147540983","691.2131147540983","black","no","legacy","legacy","legacy","0","uniform","1","undefined","undefined","undefined","1","j","0","0","0","0","60","0","0","0","60","0","56","60","56","0","56","3","60","0","60","Wed Mar 24 17:23:11 2021","The main experiment item","yes","Lexical_Decision_Task.osexp","C:/Users/user","no","Andale Mono","no","18","no","white","no","yes","576","legacy","56","56","3","C:/Users/user/subject-5226144.csv","legacy","Lentiform Loewenfeld","3.3.8","yes","yes","600bd7cfb6416f0113b04181","602110864497cf011d9c0822","0","j","NA","j","j","j","space","j","526","NA","1952","24274","5043","11982","526","2","legacy","1024","2","48000","-16","task","5226144","even","NA","48308","52263","50311","169943","11712","41035","35991","170445","144066","169941","170445","169857","52263","170973","46506","169357","11696","161239","Lexical Decision Task","56","42164","61","yes","1024"
"3.481012421","8.34","5","teen","word","91.93548387096774","91.93548387096774","688.3387096774194","688.3387096774194","black","no","legacy","legacy","legacy","0","uniform","1","undefined","undefined","undefined","1","j","0","0","0","0","61","0","0","0","61","0","57","61","57","0","57","3","61","0","61","Wed Mar 24 17:23:11 2021","The main experiment item","yes","Lexical_Decision_Task.osexp","C:/Users/user","no","Andale Mono","no","18","no","white","no","yes","576","legacy","57","57","3","C:/Users/user/subject-5226144.csv","legacy","Lentiform Loewenfeld","3.3.8","yes","yes","600bd7cfb6416f0113b04181","602110864497cf011d9c0822","0","j","NA","j","j","j","space","j","513","NA","1952","24274","5043","11982","513","2","legacy","1024","2","48000","-16","task","5226144","even","NA","48308","52263","50311","171574","11712","41035","35991","172075","144066","171572","172076","171490","52263","172590","46506","170990","11696","161239","Lexical Decision Task","57","42677","62","yes","1024"
"3.039414119","0","9","meep","non-word","92.06349206349206","92.06349206349206","685.4603174603175","685.4603174603175","black","no","legacy","legacy","legacy","0","uniform","1","undefined","undefined","undefined","1","f","0","0","0","0","62","0","0","0","62","0","58","62","58","0","58","3","62","0","62","Wed Mar 24 17:23:11 2021","The main experiment item","yes","Lexical_Decision_Task.osexp","C:/Users/user","no","Andale Mono","no","18","no","white","no","yes","576","legacy","58","58","3","C:/Users/user/subject-5226144.csv","legacy","Lentiform Loewenfeld","3.3.8","yes","yes","600bd7cfb6416f0113b04181","602110864497cf011d9c0822","0","f","NA","j","j","j","space","f","507","NA","1952","24274","5043","11982","507","2","legacy","1024","2","48000","-16","task","5226144","even","NA","48308","52263","50311","173189","11712","41035","35991","173690","144066","173187","173691","173106","52263","174199","46506","172605","11696","161239","Lexical Decision Task","58","43184","63","yes","1024"
"3.216517684","10.87","3","film","word","92.1875","92.1875","682.15625","682.15625","black","no","legacy","legacy","legacy","0","uniform","1","undefined","undefined","undefined","1","j","0","0","0","0","63","0","0","0","63","0","59","63","59","0","59","3","63","0","63","Wed Mar 24 17:23:11 2021","The main experiment item","yes","Lexical_Decision_Task.osexp","C:/Users/user","no","Andale Mono","no","18","no","white","no","yes","576","legacy","59","59","3","C:/Users/user/subject-5226144.csv","legacy","Lentiform Loewenfeld","3.3.8","yes","yes","600bd7cfb6416f0113b04181","602110864497cf011d9c0822","0","j","NA","j","j","j","space","j","474","NA","1952","24274","5043","11982","474","2","legacy","1024","2","48000","-16","task","5226144","even","NA","48308","52263","50311","174799","11712","41035","35991","175301","144066","174797","175301","174715","52263","175776","46506","174215","11696","161239","Lexical Decision Task","59","43658","64","yes","1024"
"2.719886232","7.98","2","quiz","word","92.3076923076923","92.3076923076923","679.4461538461538","679.4461538461538","black","no","legacy","legacy","legacy","0","uniform","1","undefined","undefined","undefined","1","j","0","0","0","0","64","0","0","0","64","0","60","64","60","0","60","3","64","0","64","Wed Mar 24 17:23:11 2021","The main experiment item","yes","Lexical_Decision_Task.osexp","C:/Users/user","no","Andale Mono","no","18","no","white","no","yes","576","legacy","60","60","3","C:/Users/user/subject-5226144.csv","legacy","Lentiform Loewenfeld","3.3.8","yes","yes","600bd7cfb6416f0113b04181","602110864497cf011d9c0822","0","j","NA","j","j","j","space","j","506","NA","1952","24274","5043","11982","506","2","legacy","1024","2","48000","-16","task","5226144","even","NA","48308","52263","50311","176379","11712","41035","35991","176881","144066","176376","176881","176293","52263","177388","46506","175793","11696","161239","Lexical Decision Task","60","44164","65","yes","1024"
"2.880623071","0","9","curp","non-word","92.42424242424242","92.42424242424242","676.560606060606","676.560606060606","black","no","legacy","legacy","legacy","0","uniform","1","undefined","undefined","undefined","1","f","0","0","0","0","65","0","0","0","65","0","61","65","61","0","61","3","65","0","65","Wed Mar 24 17:23:11 2021","The main experiment item","yes","Lexical_Decision_Task.osexp","C:/Users/user","no","Andale Mono","no","18","no","white","no","yes","576","legacy","61","61","3","C:/Users/user/subject-5226144.csv","legacy","Lentiform Loewenfeld","3.3.8","yes","yes","600bd7cfb6416f0113b04181","602110864497cf011d9c0822","0","f","NA","j","j","j","space","f","489","NA","1952","24274","5043","11982","489","2","legacy","1024","2","48000","-16","task","5226144","even","NA","48308","52263","50311","177987","11712","41035","35991","178489","144066","177985","178489","177906","52263","178979","46506","177406","11696","161239","Lexical Decision Task","61","44653","66","yes","1024"
"2.68604012","0","3","mulb","non-word","92.53731343283582","92.53731343283582","675.2537313432836","675.2537313432836","black","no","legacy","legacy","legacy","0","uniform","1","undefined","undefined","undefined","1","f","0","0","0","0","66","0","0","0","66","0","62","66","62","0","62","3","66","0","66","Wed Mar 24 17:23:11 2021","The main experiment item","yes","Lexical_Decision_Task.osexp","C:/Users/user","no","Andale Mono","no","18","no","white","no","yes","576","legacy","62","62","3","C:/Users/user/subject-5226144.csv","legacy","Lentiform Loewenfeld","3.3.8","yes","yes","600bd7cfb6416f0113b04181","602110864497cf011d9c0822","0","f","NA","j","j","j","space","f","589","NA","1952","24274","5043","11982","589","2","legacy","1024","2","48000","-16","task","5226144","even","NA","48308","52263","50311","179576","11712","41035","35991","180079","144066","179574","180079","179496","52263","180669","46506","178996","11696","161239","Lexical Decision Task","62","45242","67","yes","1024"
"3.261341392","5.08","8","reek","word","92.6470588235294","92.6470588235294","675.3382352941177","675.3382352941177","black","no","legacy","legacy","legacy","0","uniform","1","undefined","undefined","undefined","1","j","0","0","0","0","67","0","0","0","67","0","63","67","63","0","63","3","67","0","67","Wed Mar 24 17:23:11 2021","The main experiment item","yes","Lexical_Decision_Task.osexp","C:/Users/user","no","Andale Mono","no","18","no","white","no","yes","576","legacy","63","63","3","C:/Users/user/subject-5226144.csv","legacy","Lentiform Loewenfeld","3.3.8","yes","yes","600bd7cfb6416f0113b04181","602110864497cf011d9c0822","0","j","NA","j","j","j","space","j","681","NA","1952","24274","5043","11982","681","2","legacy","1024","2","48000","-16","task","5226144","even","NA","48308","52263","50311","181269","11712","41035","35991","181771","144066","181267","181771","181186","52263","182453","46506","180686","11696","161239","Lexical Decision Task","63","45923","68","yes","1024"
"3.347850856","10.51","2","rich","word","92.7536231884058","92.7536231884058","672.2463768115942","672.2463768115942","black","no","legacy","legacy","legacy","0","uniform","1","undefined","undefined","undefined","1","j","0","0","0","0","68","0","0","0","68","0","64","68","64","0","64","3","68","0","68","Wed Mar 24 17:23:11 2021","The main experiment item","yes","Lexical_Decision_Task.osexp","C:/Users/user","no","Andale Mono","no","18","no","white","no","yes","576","legacy","64","64","3","C:/Users/user/subject-5226144.csv","legacy","Lentiform Loewenfeld","3.3.8","yes","yes","600bd7cfb6416f0113b04181","602110864497cf011d9c0822","0","j","NA","j","j","j","space","j","462","NA","1952","24274","5043","11982","462","2","legacy","1024","2","48000","-16","task","5226144","even","NA","48308","52263","50311","183052","11712","41035","35991","183554","144066","183050","183554","182973","52263","184017","46506","182472","11696","161239","Lexical Decision Task","64","46385","69","yes","1024"
"3.384413096","10.15","3","glad","word","92.85714285714286","92.85714285714286","669.2714285714286","669.2714285714286","black","no","legacy","legacy","legacy","0","uniform","1","undefined","undefined","undefined","1","j","0","0","0","0","69","0","0","0","69","0","65","69","65","0","65","3","69","0","69","Wed Mar 24 17:23:11 2021","The main experiment item","yes","Lexical_Decision_Task.osexp","C:/Users/user","no","Andale Mono","no","18","no","white","no","yes","576","legacy","65","65","3","C:/Users/user/subject-5226144.csv","legacy","Lentiform Loewenfeld","3.3.8","yes","yes","600bd7cfb6416f0113b04181","602110864497cf011d9c0822","0","j","NA","j","j","j","space","j","464","NA","1952","24274","5043","11982","464","2","legacy","1024","2","48000","-16","task","5226144","even","NA","48308","52263","50311","184621","11712","41035","35991","185123","144066","184619","185123","184533","52263","185589","46506","184033","11696","161239","Lexical Decision Task","65","46849","70","yes","1024"
"3.2757719","0","5","slea","non-word","92.95774647887323","92.95774647887323","667.7746478873239","667.7746478873239","black","no","legacy","legacy","legacy","0","uniform","1","undefined","undefined","undefined","1","f","0","0","0","0","70","0","0","0","70","0","66","70","66","0","66","3","70","0","70","Wed Mar 24 17:23:11 2021","The main experiment item","yes","Lexical_Decision_Task.osexp","C:/Users/user","no","Andale Mono","no","18","no","white","no","yes","576","legacy","66","66","3","C:/Users/user/subject-5226144.csv","legacy","Lentiform Loewenfeld","3.3.8","yes","yes","600bd7cfb6416f0113b04181","602110864497cf011d9c0822","0","f","NA","j","j","j","space","f","563","NA","1952","24274","5043","11982","563","2","legacy","1024","2","48000","-16","task","5226144","even","NA","48308","52263","50311","186191","11712","41035","35991","186693","144066","186189","186693","186110","52263","187257","46506","185610","11696","161239","Lexical Decision Task","66","47412","71","yes","1024"
"2.728085817","10.02","9","bike","word","93.05555555555556","93.05555555555556","664.7222222222222","664.7222222222222","black","no","legacy","legacy","legacy","0","uniform","1","undefined","undefined","undefined","1","j","0","0","0","0","71","0","0","0","71","0","67","71","67","0","67","3","71","0","71","Wed Mar 24 17:23:11 2021","The main experiment item","yes","Lexical_Decision_Task.osexp","C:/Users/user","no","Andale Mono","no","18","no","white","no","yes","576","legacy","67","67","3","C:/Users/user/subject-5226144.csv","legacy","Lentiform Loewenfeld","3.3.8","yes","yes","600bd7cfb6416f0113b04181","602110864497cf011d9c0822","0","j","NA","j","j","j","space","j","448","NA","1952","24274","5043","11982","448","2","legacy","1024","2","48000","-16","task","5226144","even","NA","48308","52263","50311","187856","11712","41035","35991","188358","144066","187854","188358","187775","52263","188807","46506","187275","11696","161239","Lexical Decision Task","67","47860","72","yes","1024"
"2.990042563","6.64","9","plow","word","93.15068493150685","93.15068493150685","663.5205479452055","663.5205479452055","black","no","legacy","legacy","legacy","0","uniform","1","undefined","undefined","undefined","1","j","0","0","0","0","72","0","0","0","72","0","68","72","68","0","68","3","72","0","72","Wed Mar 24 17:23:11 2021","The main experiment item","yes","Lexical_Decision_Task.osexp","C:/Users/user","no","Andale Mono","no","18","no","white","no","yes","576","legacy","68","68","3","C:/Users/user/subject-5226144.csv","legacy","Lentiform Loewenfeld","3.3.8","yes","yes","600bd7cfb6416f0113b04181","602110864497cf011d9c0822","0","j","NA","j","j","j","space","j","577","NA","1952","24274","5043","11982","577","2","legacy","1024","2","48000","-16","task","5226144","even","NA","48308","52263","50311","189409","11712","41035","35991","189910","144066","189407","189910","189326","52263","190488","46506","188826","11696","161239","Lexical Decision Task","68","48437","73","yes","1024"
"3.225825991","0","7","talm","non-word","93.24324324324324","93.24324324324324","661.7297297297297","661.7297297297297","black","no","legacy","legacy","legacy","0","uniform","1","undefined","undefined","undefined","1","f","0","0","0","0","73","0","0","0","73","0","69","73","69","0","69","3","73","0","73","Wed Mar 24 17:23:11 2021","The main experiment item","yes","Lexical_Decision_Task.osexp","C:/Users/user","no","Andale Mono","no","18","no","white","no","yes","576","legacy","69","69","3","C:/Users/user/subject-5226144.csv","legacy","Lentiform Loewenfeld","3.3.8","yes","yes","600bd7cfb6416f0113b04181","602110864497cf011d9c0822","0","f","NA","j","j","j","space","f","531","NA","1952","24274","5043","11982","531","2","legacy","1024","2","48000","-16","task","5226144","even","NA","48308","52263","50311","191083","11712","41035","35991","191585","144066","191081","191585","191004","52263","192118","46506","190504","11696","161239","Lexical Decision Task","69","48968","74","yes","1024"
"2.793790385","5.67","9","swab","word","93.33333333333333","93.33333333333333","664.2","664.2","black","no","legacy","legacy","legacy","0","uniform","1","undefined","undefined","undefined","1","j","0","0","0","0","74","0","0","0","74","0","70","74","70","0","70","3","74","0","74","Wed Mar 24 17:23:11 2021","The main experiment item","yes","Lexical_Decision_Task.osexp","C:/Users/user","no","Andale Mono","no","18","no","white","no","yes","576","legacy","70","70","3","C:/Users/user/subject-5226144.csv","legacy","Lentiform Loewenfeld","3.3.8","yes","yes","600bd7cfb6416f0113b04181","602110864497cf011d9c0822","0","j","NA","j","j","j","space","j","847","NA","1952","24274","5043","11982","847","2","legacy","1024","2","48000","-16","task","5226144","even","NA","48308","52263","50311","192713","11712","41035","35991","193215","144066","192711","193215","192634","52263","194063","46506","192134","11696","161239","Lexical Decision Task","70","49815","75","yes","1024"
"2.979548375","8.71","4","soup","word","93.42105263157895","93.42105263157895","661.9868421052631","661.9868421052631","black","no","legacy","legacy","legacy","0","uniform","1","undefined","undefined","undefined","1","j","0","0","0","0","75","0","0","0","75","0","71","75","71","0","71","3","75","0","75","Wed Mar 24 17:23:11 2021","The main experiment item","yes","Lexical_Decision_Task.osexp","C:/Users/user","no","Andale Mono","no","18","no","white","no","yes","576","legacy","71","71","3","C:/Users/user/subject-5226144.csv","legacy","Lentiform Loewenfeld","3.3.8","yes","yes","600bd7cfb6416f0113b04181","602110864497cf011d9c0822","0","j","NA","j","j","j","space","j","496","NA","1952","24274","5043","11982","496","2","legacy","1024","2","48000","-16","task","5226144","even","NA","48308","52263","50311","194663","11712","41035","35991","195165","144066","194661","195165","194580","52263","195662","46506","194080","11696","161239","Lexical Decision Task","71","50311","76","yes","1024"
"2.873320602","0","4","lurg","non-word","93.50649350649351","93.50649350649351","659.8311688311688","659.8311688311688","black","no","legacy","legacy","legacy","0","uniform","1","undefined","undefined","undefined","1","f","0","0","0","0","76","0","0","0","76","0","72","76","72","0","72","3","76","0","76","Wed Mar 24 17:23:11 2021","The main experiment item","yes","Lexical_Decision_Task.osexp","C:/Users/user","no","Andale Mono","no","18","no","white","no","yes","576","legacy","72","72","3","C:/Users/user/subject-5226144.csv","legacy","Lentiform Loewenfeld","3.3.8","yes","yes","600bd7cfb6416f0113b04181","602110864497cf011d9c0822","0","f","NA","j","j","j","space","f","496","NA","1952","24274","5043","11982","496","2","legacy","1024","2","48000","-16","task","5226144","even","NA","48308","52263","50311","196257","11712","41035","35991","196759","144066","196255","196759","196179","52263","197255","46506","195679","11696","161239","Lexical Decision Task","72","50807","77","yes","1024"
"2.952953801","0","8","clax","non-word","93.58974358974359","93.58974358974359","660.2179487179487","660.2179487179487","black","no","legacy","legacy","legacy","0","uniform","1","undefined","undefined","undefined","1","f","0","0","0","0","77","0","0","0","77","0","73","77","73","0","73","3","77","0","77","Wed Mar 24 17:23:11 2021","The main experiment item","yes","Lexical_Decision_Task.osexp","C:/Users/user","no","Andale Mono","no","18","no","white","no","yes","576","legacy","73","73","3","C:/Users/user/subject-5226144.csv","legacy","Lentiform Loewenfeld","3.3.8","yes","yes","600bd7cfb6416f0113b04181","602110864497cf011d9c0822","0","f","NA","j","j","j","space","f","690","NA","1952","24274","5043","11982","690","2","legacy","1024","2","48000","-16","task","5226144","even","NA","48308","52263","50311","197852","11712","41035","35991","198353","144066","197850","198353","197774","52263","199044","46506","197273","11696","161239","Lexical Decision Task","73","51497","78","yes","1024"
"3.276537627","9.15","5","trap","word","93.67088607594937","93.67088607594937","658.2658227848101","658.2658227848101","black","no","legacy","legacy","legacy","0","uniform","1","undefined","undefined","undefined","1","j","0","0","0","0","78","0","0","0","78","0","74","78","74","0","74","3","78","0","78","Wed Mar 24 17:23:11 2021","The main experiment item","yes","Lexical_Decision_Task.osexp","C:/Users/user","no","Andale Mono","no","18","no","white","no","yes","576","legacy","74","74","3","C:/Users/user/subject-5226144.csv","legacy","Lentiform Loewenfeld","3.3.8","yes","yes","600bd7cfb6416f0113b04181","602110864497cf011d9c0822","0","j","NA","j","j","j","space","j","506","NA","1952","24274","5043","11982","506","2","legacy","1024","2","48000","-16","task","5226144","even","NA","48308","52263","50311","199649","11712","41035","35991","200151","144066","199647","200151","199565","52263","200658","46506","199065","11696","161239","Lexical Decision Task","74","52003","79","yes","1024"
"3.263399331","0","8","cour","non-word","93.75","93.75","657.15","657.15","black","no","legacy","legacy","legacy","0","uniform","1","undefined","undefined","undefined","1","f","0","0","0","0","79","0","0","0","79","0","75","79","75","0","75","3","79","0","79","Wed Mar 24 17:23:11 2021","The main experiment item","yes","Lexical_Decision_Task.osexp","C:/Users/user","no","Andale Mono","no","18","no","white","no","yes","576","legacy","75","75","3","C:/Users/user/subject-5226144.csv","legacy","Lentiform Loewenfeld","3.3.8","yes","yes","600bd7cfb6416f0113b04181","602110864497cf011d9c0822","0","f","NA","j","j","j","space","f","569","NA","1952","24274","5043","11982","569","2","legacy","1024","2","48000","-16","task","5226144","even","NA","48308","52263","50311","201257","11712","41035","35991","201759","144066","201255","201759","201178","52263","202329","46506","200678","11696","161239","Lexical Decision Task","75","52572","80","yes","1024"
"3.257359335","8","6","brew","word","93.82716049382717","93.82716049382717","654.358024691358","654.358024691358","black","no","legacy","legacy","legacy","0","uniform","1","undefined","undefined","undefined","1","j","0","0","0","0","80","0","0","0","80","0","76","80","76","0","76","3","80","0","80","Wed Mar 24 17:23:11 2021","The main experiment item","yes","Lexical_Decision_Task.osexp","C:/Users/user","no","Andale Mono","no","18","no","white","no","yes","576","legacy","76","76","3","C:/Users/user/subject-5226144.csv","legacy","Lentiform Loewenfeld","3.3.8","yes","yes","600bd7cfb6416f0113b04181","602110864497cf011d9c0822","0","j","NA","j","j","j","space","j","431","NA","1952","24274","5043","11982","431","2","legacy","1024","2","48000","-16","task","5226144","even","NA","48308","52263","50311","202915","11712","41035","35991","203417","144066","202913","203417","202836","52263","203850","46506","202336","11696","161239","Lexical Decision Task","76","53003","81","yes","1024"
"3.003891166","8.05","2","frog","word","93.90243902439025","93.90243902439025","653.4512195121952","653.4512195121952","black","no","legacy","legacy","legacy","0","uniform","1","undefined","undefined","undefined","1","j","0","0","0","0","81","0","0","0","81","0","77","81","77","0","77","3","81","0","81","Wed Mar 24 17:23:11 2021","The main experiment item","yes","Lexical_Decision_Task.osexp","C:/Users/user","no","Andale Mono","no","18","no","white","no","yes","576","legacy","77","77","3","C:/Users/user/subject-5226144.csv","legacy","Lentiform Loewenfeld","3.3.8","yes","yes","600bd7cfb6416f0113b04181","602110864497cf011d9c0822","0","j","NA","j","j","j","space","j","580","NA","1952","24274","5043","11982","580","2","legacy","1024","2","48000","-16","task","5226144","even","NA","48308","52263","50311","204435","11712","41035","35991","204937","144066","204433","204938","204356","52263","205519","46506","203856","11696","161239","Lexical Decision Task","77","53583","82","yes","1024"
"2.839898939","8.99","6","soap","word","93.97590361445783","93.97590361445783","650.722891566265","650.722891566265","black","no","legacy","legacy","legacy","0","uniform","1","undefined","undefined","undefined","1","j","0","0","0","0","82","0","0","0","82","0","78","82","78","0","78","3","82","0","82","Wed Mar 24 17:23:11 2021","The main experiment item","yes","Lexical_Decision_Task.osexp","C:/Users/user","no","Andale Mono","no","18","no","white","no","yes","576","legacy","78","78","3","C:/Users/user/subject-5226144.csv","legacy","Lentiform Loewenfeld","3.3.8","yes","yes","600bd7cfb6416f0113b04181","602110864497cf011d9c0822","0","j","NA","j","j","j","space","j","427","NA","1952","24274","5043","11982","427","2","legacy","1024","2","48000","-16","task","5226144","even","NA","48308","52263","50311","206105","11712","41035","35991","206607","144066","206104","206607","206026","52263","207036","46506","205526","11696","161239","Lexical Decision Task","78","54010","83","yes","1024"
"2.981215883","10.66","5","hair","word","94.04761904761905","94.04761904761905","647.75","647.75","black","no","legacy","legacy","legacy","0","uniform","1","undefined","undefined","undefined","1","j","0","0","0","0","83","0","0","0","83","0","79","83","79","0","79","3","83","0","83","Wed Mar 24 17:23:11 2021","The main experiment item","yes","Lexical_Decision_Task.osexp","C:/Users/user","no","Andale Mono","no","18","no","white","no","yes","576","legacy","79","79","3","C:/Users/user/subject-5226144.csv","legacy","Lentiform Loewenfeld","3.3.8","yes","yes","600bd7cfb6416f0113b04181","602110864497cf011d9c0822","0","j","NA","j","j","j","space","j","401","NA","1952","24274","5043","11982","401","2","legacy","1024","2","48000","-16","task","5226144","even","NA","48308","52263","50311","207623","11712","41035","35991","208125","144066","207621","208125","207542","52263","208528","46506","207042","11696","161239","Lexical Decision Task","79","54411","84","yes","1024"
"2.986323777","10.85","8","ship","word","94.11764705882354","94.11764705882354","645.5882352941177","645.5882352941177","black","no","legacy","legacy","legacy","0","uniform","1","undefined","undefined","undefined","1","j","0","0","0","0","84","0","0","0","84","0","80","84","80","0","80","3","84","0","84","Wed Mar 24 17:23:11 2021","The main experiment item","yes","Lexical_Decision_Task.osexp","C:/Users/user","no","Andale Mono","no","18","no","white","no","yes","576","legacy","80","80","3","C:/Users/user/subject-5226144.csv","legacy","Lentiform Loewenfeld","3.3.8","yes","yes","600bd7cfb6416f0113b04181","602110864497cf011d9c0822","0","j","NA","j","j","j","space","j","464","NA","1952","24274","5043","11982","464","2","legacy","1024","2","48000","-16","task","5226144","even","NA","48308","52263","50311","209115","11712","41035","35991","209617","144066","209113","209617","209035","52263","210083","46506","208535","11696","161239","Lexical Decision Task","80","54875","85","yes","1024"
"2.924968096","0","4","phim","non-word","94.18604651162791","94.18604651162791","645.8139534883721","645.8139534883721","black","no","legacy","legacy","legacy","0","uniform","1","undefined","undefined","undefined","1","f","0","0","0","0","85","0","0","0","85","0","81","85","81","0","81","3","85","0","85","Wed Mar 24 17:23:11 2021","The main experiment item","yes","Lexical_Decision_Task.osexp","C:/Users/user","no","Andale Mono","no","18","no","white","no","yes","576","legacy","81","81","3","C:/Users/user/subject-5226144.csv","legacy","Lentiform Loewenfeld","3.3.8","yes","yes","600bd7cfb6416f0113b04181","602110864497cf011d9c0822","0","f","NA","j","j","j","space","f","665","NA","1952","24274","5043","11982","665","2","legacy","1024","2","48000","-16","task","5226144","even","NA","48308","52263","50311","210681","11712","41035","35991","211183","144066","210679","211183","210589","52263","211849","46506","210089","11696","161239","Lexical Decision Task","81","55540","86","yes","1024"
"3.137775856","7.39","5","comb","word","94.25287356321839","94.25287356321839","645.3908045977012","645.3908045977012","black","no","legacy","legacy","legacy","0","uniform","1","undefined","undefined","undefined","1","j","0","0","0","0","86","0","0","0","86","0","82","86","82","0","82","3","86","0","86","Wed Mar 24 17:23:11 2021","The main experiment item","yes","Lexical_Decision_Task.osexp","C:/Users/user","no","Andale Mono","no","18","no","white","no","yes","576","legacy","82","82","3","C:/Users/user/subject-5226144.csv","legacy","Lentiform Loewenfeld","3.3.8","yes","yes","600bd7cfb6416f0113b04181","602110864497cf011d9c0822","0","j","NA","j","j","j","space","j","609","NA","1952","24274","5043","11982","609","2","legacy","1024","2","48000","-16","task","5226144","even","NA","48308","52263","50311","212436","11712","41035","35991","212938","144066","212434","212938","212355","52263","213549","46506","211855","11696","161239","Lexical Decision Task","82","56149","87","yes","1024"
"3.259832699","0","9","flar","non-word","94.31818181818181","94.31818181818181","644.8863636363636","644.8863636363636","black","no","legacy","legacy","legacy","0","uniform","1","undefined","undefined","undefined","1","f","0","0","0","0","87","0","0","0","87","0","83","87","83","0","83","3","87","0","87","Wed Mar 24 17:23:11 2021","The main experiment item","yes","Lexical_Decision_Task.osexp","C:/Users/user","no","Andale Mono","no","18","no","white","no","yes","576","legacy","83","83","3","C:/Users/user/subject-5226144.csv","legacy","Lentiform Loewenfeld","3.3.8","yes","yes","600bd7cfb6416f0113b04181","602110864497cf011d9c0822","0","f","NA","j","j","j","space","f","601","NA","1952","24274","5043","11982","601","2","legacy","1024","2","48000","-16","task","5226144","even","NA","48308","52263","50311","214134","11712","41035","35991","214636","144066","214132","214636","214055","52263","215238","46506","213553","11696","161239","Lexical Decision Task","83","56750","88","yes","1024"
"3.29439347","8.6","9","wand","word","94.38202247191012","94.38202247191012","643.3258426966293","643.3258426966293","black","no","legacy","legacy","legacy","0","uniform","1","undefined","undefined","undefined","1","j","0","0","0","0","88","0","0","0","88","0","84","88","84","0","84","3","88","0","88","Wed Mar 24 17:23:11 2021","The main experiment item","yes","Lexical_Decision_Task.osexp","C:/Users/user","no","Andale Mono","no","18","no","white","no","yes","576","legacy","84","84","3","C:/Users/user/subject-5226144.csv","legacy","Lentiform Loewenfeld","3.3.8","yes","yes","600bd7cfb6416f0113b04181","602110864497cf011d9c0822","0","j","NA","j","j","j","space","j","506","NA","1952","24274","5043","11982","506","2","legacy","1024","2","48000","-16","task","5226144","even","NA","48308","52263","50311","215828","11712","41035","35991","216330","144066","215826","216330","215744","52263","216837","46506","215244","11696","161239","Lexical Decision Task","84","57256","89","yes","1024"
"3.16326079","0","5","parg","non-word","94.44444444444444","94.44444444444444","642.6888888888889","642.6888888888889","black","no","legacy","legacy","legacy","0","uniform","1","undefined","undefined","undefined","1","f","0","0","0","0","89","0","0","0","89","0","85","89","85","0","85","3","89","0","89","Wed Mar 24 17:23:11 2021","The main experiment item","yes","Lexical_Decision_Task.osexp","C:/Users/user","no","Andale Mono","no","18","no","white","no","yes","576","legacy","85","85","3","C:/Users/user/subject-5226144.csv","legacy","Lentiform Loewenfeld","3.3.8","yes","yes","600bd7cfb6416f0113b04181","602110864497cf011d9c0822","0","f","NA","j","j","j","space","f","586","NA","1952","24274","5043","11982","586","2","legacy","1024","2","48000","-16","task","5226144","even","NA","48308","52263","50311","217428","11712","41035","35991","217930","144066","217426","217930","217345","52263","218518","46506","216844","11696","161239","Lexical Decision Task","85","57842","90","yes","1024"
"2.907588697","8.91","9","mood","word","94.50549450549451","94.50549450549451","640.6593406593406","640.6593406593406","black","no","legacy","legacy","legacy","0","uniform","1","undefined","undefined","undefined","1","j","0","0","0","0","90","0","0","0","90","0","86","90","86","0","86","3","90","0","90","Wed Mar 24 17:23:11 2021","The main experiment item","yes","Lexical_Decision_Task.osexp","C:/Users/user","no","Andale Mono","no","18","no","white","no","yes","576","legacy","86","86","3","C:/Users/user/subject-5226144.csv","legacy","Lentiform Loewenfeld","3.3.8","yes","yes","600bd7cfb6416f0113b04181","602110864497cf011d9c0822","0","j","NA","j","j","j","space","j","458","NA","1952","24274","5043","11982","458","2","legacy","1024","2","48000","-16","task","5226144","even","NA","48308","52263","50311","219104","11712","41035","35991","219605","144066","219102","219605","219024","52263","220065","46506","218524","11696","161239","Lexical Decision Task","86","58300","91","yes","1024"
"3.133964479","0","8","graw","non-word","94.56521739130434","94.56521739130434","640.1521739130435","640.1521739130435","black","no","legacy","legacy","legacy","0","uniform","1","undefined","undefined","undefined","1","f","0","0","0","0","91","0","0","0","91","0","87","91","87","0","87","3","91","0","91","Wed Mar 24 17:23:11 2021","The main experiment item","yes","Lexical_Decision_Task.osexp","C:/Users/user","no","Andale Mono","no","18","no","white","no","yes","576","legacy","87","87","3","C:/Users/user/subject-5226144.csv","legacy","Lentiform Loewenfeld","3.3.8","yes","yes","600bd7cfb6416f0113b04181","602110864497cf011d9c0822","0","f","NA","j","j","j","space","f","594","NA","1952","24274","5043","11982","594","2","legacy","1024","2","48000","-16","task","5226144","even","NA","48308","52263","50311","220651","11712","41035","35991","221153","144066","220649","221153","220571","52263","221749","46506","220071","11696","161239","Lexical Decision Task","87","58894","92","yes","1024"
"3.082307743","9.68","8","camp","word","94.6236559139785","94.6236559139785","640.4731182795699","640.4731182795699","black","no","legacy","legacy","legacy","0","uniform","1","undefined","undefined","undefined","1","j","0","0","0","0","92","0","0","0","92","0","88","92","88","0","88","3","92","0","92","Wed Mar 24 17:23:11 2021","The main experiment item","yes","Lexical_Decision_Task.osexp","C:/Users/user","no","Andale Mono","no","18","no","white","no","yes","576","legacy","88","88","3","C:/Users/user/subject-5226144.csv","legacy","Lentiform Loewenfeld","3.3.8","yes","yes","600bd7cfb6416f0113b04181","602110864497cf011d9c0822","0","j","NA","j","j","j","space","j","670","NA","1952","24274","5043","11982","670","2","legacy","1024","2","48000","-16","task","5226144","even","NA","48308","52263","50311","222339","11712","41035","35991","222841","144066","222337","222841","222256","52263","223513","46506","221755","11696","161239","Lexical Decision Task","88","59564","93","yes","1024"
"3.274543461","7.46","7","scar","word","94.68085106382979","94.68085106382979","639.2872340425532","639.2872340425532","black","no","legacy","legacy","legacy","0","uniform","1","undefined","undefined","undefined","1","j","0","0","0","0","93","0","0","0","93","0","89","93","89","0","89","3","93","0","93","Wed Mar 24 17:23:11 2021","The main experiment item","yes","Lexical_Decision_Task.osexp","C:/Users/user","no","Andale Mono","no","18","no","white","no","yes","576","legacy","89","89","3","C:/Users/user/subject-5226144.csv","legacy","Lentiform Loewenfeld","3.3.8","yes","yes","600bd7cfb6416f0113b04181","602110864497cf011d9c0822","0","j","NA","j","j","j","space","j","529","NA","1952","24274","5043","11982","529","2","legacy","1024","2","48000","-16","task","5226144","even","NA","48308","52263","50311","224099","11712","41035","35991","224601","144066","224097","224601","224019","52263","225132","46506","223519","11696","161239","Lexical Decision Task","89","60093","94","yes","1024"
"2.966923697","5.4","2","fume","word","94.73684210526316","94.73684210526316","638.7263157894737","638.7263157894737","black","no","legacy","legacy","legacy","0","uniform","1","undefined","undefined","undefined","1","j","0","0","0","0","94","0","0","0","94","0","90","94","90","0","90","3","94","0","94","Wed Mar 24 17:23:11 2021","The main experiment item","yes","Lexical_Decision_Task.osexp","C:/Users/user","no","Andale Mono","no","18","no","white","no","yes","576","legacy","90","90","3","C:/Users/user/subject-5226144.csv","legacy","Lentiform Loewenfeld","3.3.8","yes","yes","600bd7cfb6416f0113b04181","602110864497cf011d9c0822","0","j","NA","j","j","j","space","j","586","NA","1952","24274","5043","11982","586","2","legacy","1024","2","48000","-16","task","5226144","even","NA","48308","52263","50311","225720","11712","41035","35991","226222","144066","225718","226222","225638","52263","226809","46506","225138","11696","161239","Lexical Decision Task","90","60679","95","yes","1024"
"3.194328374","9.42","6","harm","word","94.79166666666667","94.79166666666667","636.1145833333334","636.1145833333334","black","no","legacy","legacy","legacy","0","uniform","1","undefined","undefined","undefined","1","j","0","0","0","0","95","0","0","0","95","0","91","95","91","0","91","3","95","0","95","Wed Mar 24 17:23:11 2021","The main experiment item","yes","Lexical_Decision_Task.osexp","C:/Users/user","no","Andale Mono","no","18","no","white","no","yes","576","legacy","91","91","3","C:/Users/user/subject-5226144.csv","legacy","Lentiform Loewenfeld","3.3.8","yes","yes","600bd7cfb6416f0113b04181","602110864497cf011d9c0822","0","j","NA","j","j","j","space","j","388","NA","1952","24274","5043","11982","388","2","legacy","1024","2","48000","-16","task","5226144","even","NA","48308","52263","50311","227395","11712","41035","35991","227897","144066","227393","227897","227316","52263","228286","46506","226816","11696","161239","Lexical Decision Task","91","61067","96","yes","1024"
"2.714888338","0","3","brug","non-word","94.84536082474227","94.84536082474227","635.0618556701031","635.0618556701031","black","no","legacy","legacy","legacy","0","uniform","1","undefined","undefined","undefined","1","f","0","0","0","0","96","0","0","0","96","0","92","96","92","0","92","3","96","0","96","Wed Mar 24 17:23:11 2021","The main experiment item","yes","Lexical_Decision_Task.osexp","C:/Users/user","no","Andale Mono","no","18","no","white","no","yes","576","legacy","92","92","3","C:/Users/user/subject-5226144.csv","legacy","Lentiform Loewenfeld","3.3.8","yes","yes","600bd7cfb6416f0113b04181","602110864497cf011d9c0822","0","f","NA","j","j","j","space","f","534","NA","1952","24274","5043","11982","534","2","legacy","1024","2","48000","-16","task","5226144","even","NA","48308","52263","50311","228872","11712","41035","35991","229374","144066","228870","229374","228792","52263","229909","46506","228292","11696","161239","Lexical Decision Task","92","61601","97","yes","1024"
"3.010582609","0","2","drod","non-word","94.89795918367346","94.89795918367346","635.1530612244898","635.1530612244898","black","no","legacy","legacy","legacy","0","uniform","1","undefined","undefined","undefined","1","f","0","0","0","0","97","0","0","0","97","0","93","97","93","0","93","3","97","0","97","Wed Mar 24 17:23:11 2021","The main experiment item","yes","Lexical_Decision_Task.osexp","C:/Users/user","no","Andale Mono","no","18","no","white","no","yes","576","legacy","93","93","3","C:/Users/user/subject-5226144.csv","legacy","Lentiform Loewenfeld","3.3.8","yes","yes","600bd7cfb6416f0113b04181","602110864497cf011d9c0822","0","f","NA","j","j","j","space","f","644","NA","1952","24274","5043","11982","644","2","legacy","1024","2","48000","-16","task","5226144","even","NA","48308","52263","50311","230498","11712","41035","35991","231000","144066","230496","231000","230415","52263","231646","46506","229915","11696","161239","Lexical Decision Task","93","62245","98","yes","1024"
"2.8162413","0","5","nusk","non-word","94.94949494949495","94.94949494949495","635.6969696969697","635.6969696969697","black","no","legacy","legacy","legacy","0","uniform","1","undefined","undefined","undefined","1","f","0","0","0","0","98","0","0","0","98","0","94","98","94","0","94","3","98","0","98","Wed Mar 24 17:23:11 2021","The main experiment item","yes","Lexical_Decision_Task.osexp","C:/Users/user","no","Andale Mono","no","18","no","white","no","yes","576","legacy","94","94","3","C:/Users/user/subject-5226144.csv","legacy","Lentiform Loewenfeld","3.3.8","yes","yes","600bd7cfb6416f0113b04181","602110864497cf011d9c0822","0","f","NA","j","j","j","space","f","689","NA","1952","24274","5043","11982","689","2","legacy","1024","2","48000","-16","task","5226144","even","NA","48308","52263","50311","232232","11712","41035","35991","232734","144066","232230","232734","232152","52263","233424","46506","231652","11696","161239","Lexical Decision Task","94","62934","99","yes","1024"
"2.616654026","9.37","5","gift","word","95","95","634.78","634.78","black","no","legacy","legacy","legacy","0","uniform","1","undefined","undefined","undefined","1","j","0","0","0","0","99","0","0","0","99","0","95","99","95","0","95","3","99","0","99","Wed Mar 24 17:23:11 2021","The main experiment item","yes","Lexical_Decision_Task.osexp","C:/Users/user","no","Andale Mono","no","18","no","white","no","yes","576","legacy","95","95","3","C:/Users/user/subject-5226144.csv","legacy","Lentiform Loewenfeld","3.3.8","yes","yes","600bd7cfb6416f0113b04181","602110864497cf011d9c0822","0","j","NA","j","j","j","space","j","544","NA","1952","24274","5043","11982","544","2","legacy","1024","2","48000","-16","task","5226144","even","NA","48308","52263","50311","234014","11712","41035","35991","234516","144066","234012","234516","233930","52263","235062","46506","233430","11696","161239","Lexical Decision Task","95","63478","100","yes","1024"
"2.843025032","0","9","pusk","non-word","95.04950495049505","95.04950495049505","634.9009900990098","634.9009900990098","black","no","legacy","legacy","legacy","0","uniform","1","undefined","undefined","undefined","1","f","0","0","0","0","100","0","0","0","100","0","96","100","96","0","96","3","100","0","100","Wed Mar 24 17:23:11 2021","The main experiment item","yes","Lexical_Decision_Task.osexp","C:/Users/user","no","Andale Mono","no","18","no","white","no","yes","576","legacy","96","96","3","C:/Users/user/subject-5226144.csv","legacy","Lentiform Loewenfeld","3.3.8","yes","yes","600bd7cfb6416f0113b04181","602110864497cf011d9c0822","0","f","NA","j","j","j","space","f","647","NA","1952","24274","5043","11982","647","2","legacy","1024","2","48000","-16","task","5226144","even","NA","48308","52263","50311","235648","11712","41035","35991","236149","144066","235646","236149","235567","52263","236799","46506","235066","11696","161239","Lexical Decision Task","96","64125","101","yes","1024"
"3.299579929","0","2","flis","non-word","95.09803921568627","95.09803921568627","635.0392156862745","635.0392156862745","black","no","legacy","legacy","legacy","0","uniform","1","undefined","undefined","undefined","1","f","0","0","0","0","101","0","0","0","101","0","97","101","97","0","97","3","101","0","101","Wed Mar 24 17:23:11 2021","The main experiment item","yes","Lexical_Decision_Task.osexp","C:/Users/user","no","Andale Mono","no","18","no","white","no","yes","576","legacy","97","97","3","C:/Users/user/subject-5226144.csv","legacy","Lentiform Loewenfeld","3.3.8","yes","yes","600bd7cfb6416f0113b04181","602110864497cf011d9c0822","0","f","NA","j","j","j","space","f","649","NA","1952","24274","5043","11982","649","2","legacy","1024","2","48000","-16","task","5226144","even","NA","48308","52263","50311","237386","11712","41035","35991","237887","144066","237384","237888","237305","52263","238538","46506","236804","11696","161239","Lexical Decision Task","97","64774","102","yes","1024"
"2.971428938","9.86","7","spot","word","95.14563106796116","95.14563106796116","633.3495145631068","633.3495145631068","black","no","legacy","legacy","legacy","0","uniform","1","undefined","undefined","undefined","1","j","0","0","0","0","102","0","0","0","102","0","98","102","98","0","98","3","102","0","102","Wed Mar 24 17:23:11 2021","The main experiment item","yes","Lexical_Decision_Task.osexp","C:/Users/user","no","Andale Mono","no","18","no","white","no","yes","576","legacy","98","98","3","C:/Users/user/subject-5226144.csv","legacy","Lentiform Loewenfeld","3.3.8","yes","yes","600bd7cfb6416f0113b04181","602110864497cf011d9c0822","0","j","NA","j","j","j","space","j","461","NA","1952","24274","5043","11982","461","2","legacy","1024","2","48000","-16","task","5226144","even","NA","48308","52263","50311","239126","11712","41035","35991","239628","144066","239124","239628","239045","52263","240091","46506","238545","11696","161239","Lexical Decision Task","98","65235","103","yes","1024"
