"Log_BG","Log_Freq_HAL","Ortho_N","Stimulus","Type","acc","accuracy","average_response_time","avg_rt","background","bidi","canvas_backend","clock_backend","color_backend","compensation","coordinates","correct","correct_Experimental_intro","correct_Introduction","correct_Practice_intro","correct_experimenter_kb","correct_response","count_End_Of_Experiment","count_End_Of_Practice","count_Experimental_Loop","count_Experimental_intro","count_Fixation","count_Introduction","count_Practice_Loop","count_Practice_intro","count_Stimulus","count_block_break_feedback","count_experimental_sequence","count_experimenter_kb","count_increment_trial_count","count_init_trial_count","count_logger","count_practice_sequence","count_right","count_task","count_wrong","datetime","description","disable_garbage_collection","experiment_file","experiment_path","font_bold","font_family","font_italic","font_size","font_underline","foreground","form_clicks","fullscreen","height","keyboard_backend","live_row","live_row_Experimental_Loop","live_row_Practice_Loop","logfile","mouse_backend","opensesame_codename","opensesame_version","osf_always_upload_data","osf_always_upload_experiment","osf_datanode_id","osf_id","repeat_cycle","response","response_End_Of_Experiment","response_Experimental_intro","response_Introduction","response_Practice_intro","response_block_break_feedback","response_experimenter_kb","response_time","response_time_End_Of_Experiment","response_time_Experimental_intro","response_time_Introduction","response_time_Practice_intro","response_time_block_break_feedback","response_time_experimenter_kb","round_decimals","sampler_backend","sound_buf_size","sound_channels","sound_freq","sound_sample_size","start","subject_nr","subject_parity","time_End_Of_Experiment","time_End_Of_Practice","time_Experimental_Loop","time_Experimental_intro","time_Fixation","time_Introduction","time_Practice_Loop","time_Practice_intro","time_Stimulus","time_block_break_feedback","time_experimental_sequence","time_experimenter_kb","time_increment_trial_count","time_init_trial_count","time_logger","time_practice_sequence","time_right","time_task","time_wrong","title","total_correct","total_response_time","total_responses","uniform_coordinates","width"
"2.698387659","6.66","7","skid","word","20","20","2352.4","2352.4","black","no","legacy","legacy","legacy","0","uniform","0","undefined","undefined","undefined","0","j","0","0","0","0","4","0","0","0","4","NA","0","4","0","0","0","3","4","0","4","Thu Feb 18 15:09:12 2021","The main experiment item","yes","Lexical_Decision_Task.osexp","/Users/theopitsiaeli","no","Andale Mono","no","18","no","white","no","yes","576","legacy","0","0","3","/Users/theopitsiaeli/subject-5206342.csv","legacy","Lentiform Loewenfeld","3.3.7","yes","yes","600bd7cfb6416f0113b04181","602110864497cf011d9c0822","0","f","NA","space","space","j","NA","f","1552","NA","23327","27928","2926","NA","1552","2","legacy","1024","2","48000","-16","task","5206342","even","NA","52314","77645","54317","77667","3913","34778","31852","78170","NA","77664","78171","NA","77645","79724","47276","41648","3906","50783","Lexical Decision Task","1","11762","5","yes","1024"
"2.778633532","0","3","jurp","non-word","33.333333333333336","33.333333333333336","2153.1666666666665","2153.1666666666665","black","no","legacy","legacy","legacy","0","uniform","1","undefined","undefined","undefined","1","f","0","0","0","0","5","0","0","0","5","NA","1","5","1","0","1","3","5","0","5","Thu Feb 18 15:09:12 2021","The main experiment item","yes","Lexical_Decision_Task.osexp","/Users/theopitsiaeli","no","Andale Mono","no","18","no","white","no","yes","576","legacy","1","1","3","/Users/theopitsiaeli/subject-5206342.csv","legacy","Lentiform Loewenfeld","3.3.7","yes","yes","600bd7cfb6416f0113b04181","602110864497cf011d9c0822","0","f","NA","space","space","j","NA","f","1157","NA","23327","27928","2926","NA","1157","2","legacy","1024","2","48000","-16","task","5206342","even","NA","52314","77645","54317","81295","3913","34778","31852","81798","NA","81292","81798","81229","77645","82956","47276","41648","3906","79729","Lexical Decision Task","2","12919","6","yes","1024"
"3.076883066","0","8","mout","non-word","42.857142857142854","42.857142857142854","2034.4285714285713","2034.4285714285713","black","no","legacy","legacy","legacy","0","uniform","1","undefined","undefined","undefined","1","f","0","0","0","0","6","0","0","0","6","NA","2","6","2","0","2","3","6","0","6","Thu Feb 18 15:09:12 2021","The main experiment item","yes","Lexical_Decision_Task.osexp","/Users/theopitsiaeli","no","Andale Mono","no","18","no","white","no","yes","576","legacy","2","2","3","/Users/theopitsiaeli/subject-5206342.csv","legacy","Lentiform Loewenfeld","3.3.7","yes","yes","600bd7cfb6416f0113b04181","602110864497cf011d9c0822","0","f","NA","space","space","j","NA","f","1322","NA","23327","27928","2926","NA","1322","2","legacy","1024","2","48000","-16","task","5206342","even","NA","52314","77645","54317","83519","3913","34778","31852","84023","NA","83517","84024","83458","77645","85346","47276","82958","3906","79729","Lexical Decision Task","3","14241","7","yes","1024"
"3.218535505","7.85","7","goat","word","50","50","1904.75","1904.75","black","no","legacy","legacy","legacy","0","uniform","1","undefined","undefined","undefined","1","j","0","0","0","0","7","0","0","0","7","NA","3","7","3","0","3","3","7","0","7","Thu Feb 18 15:09:12 2021","The main experiment item","yes","Lexical_Decision_Task.osexp","/Users/theopitsiaeli","no","Andale Mono","no","18","no","white","no","yes","576","legacy","3","3","3","/Users/theopitsiaeli/subject-5206342.csv","legacy","Lentiform Loewenfeld","3.3.7","yes","yes","600bd7cfb6416f0113b04181","602110864497cf011d9c0822","0","j","NA","space","space","j","NA","j","997","NA","23327","27928","2926","NA","997","2","legacy","1024","2","48000","-16","task","5206342","even","NA","52314","77645","54317","85910","3913","34778","31852","86413","NA","85907","86413","85849","77645","87410","47276","85349","3906","79729","Lexical Decision Task","4","15238","8","yes","1024"
"2.873320602","0","4","lurg","non-word","55.55555555555556","55.55555555555556","1794.888888888889","1794.888888888889","black","no","legacy","legacy","legacy","0","uniform","1","undefined","undefined","undefined","1","f","0","0","0","0","8","0","0","0","8","NA","4","8","4","0","4","3","8","0","8","Thu Feb 18 15:09:12 2021","The main experiment item","yes","Lexical_Decision_Task.osexp","/Users/theopitsiaeli","no","Andale Mono","no","18","no","white","no","yes","576","legacy","4","4","3","/Users/theopitsiaeli/subject-5206342.csv","legacy","Lentiform Loewenfeld","3.3.7","yes","yes","600bd7cfb6416f0113b04181","602110864497cf011d9c0822","0","f","NA","space","space","j","NA","f","916","NA","23327","27928","2926","NA","916","2","legacy","1024","2","48000","-16","task","5206342","even","NA","52314","77645","54317","87974","3913","34778","31852","88477","NA","87971","88477","87913","77645","89393","47276","87413","3906","79729","Lexical Decision Task","5","16154","9","yes","1024"
"3.531734309","0","6","lerd","non-word","60","60","1737.7","1737.7","black","no","legacy","legacy","legacy","0","uniform","1","undefined","undefined","undefined","1","f","0","0","0","0","9","0","0","0","9","NA","5","9","5","0","5","3","9","0","9","Thu Feb 18 15:09:12 2021","The main experiment item","yes","Lexical_Decision_Task.osexp","/Users/theopitsiaeli","no","Andale Mono","no","18","no","white","no","yes","576","legacy","5","5","3","/Users/theopitsiaeli/subject-5206342.csv","legacy","Lentiform Loewenfeld","3.3.7","yes","yes","600bd7cfb6416f0113b04181","602110864497cf011d9c0822","0","f","NA","space","space","j","NA","f","1223","NA","23327","27928","2926","NA","1223","2","legacy","1024","2","48000","-16","task","5206342","even","NA","52314","77645","54317","89970","3913","34778","31852","90473","NA","89967","90473","89896","77645","91697","47276","89396","3906","79729","Lexical Decision Task","6","17377","10","yes","1024"
"3.248054965","7.86","5","glow","word","63.63636363636363","63.63636363636363","1646.8181818181818","1646.8181818181818","black","no","legacy","legacy","legacy","0","uniform","1","undefined","undefined","undefined","1","j","0","0","0","0","10","0","0","0","10","NA","6","10","6","0","6","3","10","0","10","Thu Feb 18 15:09:12 2021","The main experiment item","yes","Lexical_Decision_Task.osexp","/Users/theopitsiaeli","no","Andale Mono","no","18","no","white","no","yes","576","legacy","6","6","3","/Users/theopitsiaeli/subject-5206342.csv","legacy","Lentiform Loewenfeld","3.3.7","yes","yes","600bd7cfb6416f0113b04181","602110864497cf011d9c0822","0","j","NA","space","space","j","NA","j","738","NA","23327","27928","2926","NA","738","2","legacy","1024","2","48000","-16","task","5206342","even","NA","52314","77645","54317","92260","3913","34778","31852","92765","NA","92257","92766","92199","77645","93505","47276","91699","3906","79729","Lexical Decision Task","7","18115","11","yes","1024"
"2.709837904","6.85","8","skim","word","58.333333333333336","58.333333333333336","1589.5833333333333","1589.5833333333333","black","no","legacy","legacy","legacy","0","uniform","0","undefined","undefined","undefined","0","j","0","0","0","0","11","0","0","0","11","NA","7","11","7","0","7","3","11","0","11","Thu Feb 18 15:09:12 2021","The main experiment item","yes","Lexical_Decision_Task.osexp","/Users/theopitsiaeli","no","Andale Mono","no","18","no","white","no","yes","576","legacy","7","7","3","/Users/theopitsiaeli/subject-5206342.csv","legacy","Lentiform Loewenfeld","3.3.7","yes","yes","600bd7cfb6416f0113b04181","602110864497cf011d9c0822","0","f","NA","space","space","j","NA","f","960","NA","23327","27928","2926","NA","960","2","legacy","1024","2","48000","-16","task","5206342","even","NA","52314","77645","54317","94069","3913","34778","31852","94574","NA","94066","94575","94008","77645","95535","47276","93508","3906","79729","Lexical Decision Task","7","19075","12","yes","1024"
"2.899638141","0","3","hapt","non-word","61.53846153846154","61.53846153846154","1561.923076923077","1561.923076923077","black","no","legacy","legacy","legacy","0","uniform","1","undefined","undefined","undefined","1","f","0","0","0","0","12","0","0","0","12","NA","8","12","8","0","8","3","12","0","12","Thu Feb 18 15:09:12 2021","The main experiment item","yes","Lexical_Decision_Task.osexp","/Users/theopitsiaeli","no","Andale Mono","no","18","no","white","no","yes","576","legacy","8","8","3","/Users/theopitsiaeli/subject-5206342.csv","legacy","Lentiform Loewenfeld","3.3.7","yes","yes","600bd7cfb6416f0113b04181","602110864497cf011d9c0822","0","f","NA","space","space","j","NA","f","1230","NA","23327","27928","2926","NA","1230","2","legacy","1024","2","48000","-16","task","5206342","even","NA","52314","77645","54317","97103","3913","34778","31852","97607","NA","97100","97607","97038","77645","98837","47276","93508","3906","95538","Lexical Decision Task","8","20305","13","yes","1024"
"3.140404328","10.66","9","deep","word","64.28571428571429","64.28571428571429","1504.7142857142858","1504.7142857142858","black","no","legacy","legacy","legacy","0","uniform","1","undefined","undefined","undefined","1","j","0","0","0","0","13","0","0","0","13","NA","9","13","9","0","9","3","13","0","13","Thu Feb 18 15:09:12 2021","The main experiment item","yes","Lexical_Decision_Task.osexp","/Users/theopitsiaeli","no","Andale Mono","no","18","no","white","no","yes","576","legacy","9","9","3","/Users/theopitsiaeli/subject-5206342.csv","legacy","Lentiform Loewenfeld","3.3.7","yes","yes","600bd7cfb6416f0113b04181","602110864497cf011d9c0822","0","j","NA","space","space","j","NA","j","761","NA","23327","27928","2926","NA","761","2","legacy","1024","2","48000","-16","task","5206342","even","NA","52314","77645","54317","99402","3913","34778","31852","99905","NA","99399","99905","99341","77645","100667","47276","98840","3906","95538","Lexical Decision Task","9","21066","14","yes","1024"
"2.708989954","9.28","9","bowl","word","66.66666666666667","66.66666666666667","1448.0666666666666","1448.0666666666666","black","no","legacy","legacy","legacy","0","uniform","1","undefined","undefined","undefined","1","j","0","0","0","0","14","0","0","0","14","NA","10","14","10","0","10","3","14","0","14","Thu Feb 18 15:09:12 2021","The main experiment item","yes","Lexical_Decision_Task.osexp","/Users/theopitsiaeli","no","Andale Mono","no","18","no","white","no","yes","576","legacy","10","10","3","/Users/theopitsiaeli/subject-5206342.csv","legacy","Lentiform Loewenfeld","3.3.7","yes","yes","600bd7cfb6416f0113b04181","602110864497cf011d9c0822","0","j","NA","space","space","j","NA","j","655","NA","23327","27928","2926","NA","655","2","legacy","1024","2","48000","-16","task","5206342","even","NA","52314","77645","54317","101232","3913","34778","31852","101735","NA","101229","101735","101171","77645","102391","47276","100671","3906","95538","Lexical Decision Task","10","21721","15","yes","1024"
"2.8162413","0","5","nusk","non-word","68.75","68.75","1419.75","1419.75","black","no","legacy","legacy","legacy","0","uniform","1","undefined","undefined","undefined","1","f","0","0","0","0","15","0","0","0","15","NA","11","15","11","0","11","3","15","0","15","Thu Feb 18 15:09:12 2021","The main experiment item","yes","Lexical_Decision_Task.osexp","/Users/theopitsiaeli","no","Andale Mono","no","18","no","white","no","yes","576","legacy","11","11","3","/Users/theopitsiaeli/subject-5206342.csv","legacy","Lentiform Loewenfeld","3.3.7","yes","yes","600bd7cfb6416f0113b04181","602110864497cf011d9c0822","0","f","NA","space","space","j","NA","f","995","NA","23327","27928","2926","NA","995","2","legacy","1024","2","48000","-16","task","5206342","even","NA","52314","77645","54317","102956","3913","34778","31852","103459","NA","102953","103459","102894","77645","104454","47276","102394","3906","95538","Lexical Decision Task","11","22716","16","yes","1024"
"2.981215883","10.66","5","hair","word","70.58823529411765","70.58823529411765","1368.9411764705883","1368.9411764705883","black","no","legacy","legacy","legacy","0","uniform","1","undefined","undefined","undefined","1","j","0","0","0","0","16","0","0","0","16","NA","12","16","12","0","12","3","16","0","16","Thu Feb 18 15:09:12 2021","The main experiment item","yes","Lexical_Decision_Task.osexp","/Users/theopitsiaeli","no","Andale Mono","no","18","no","white","no","yes","576","legacy","12","12","3","/Users/theopitsiaeli/subject-5206342.csv","legacy","Lentiform Loewenfeld","3.3.7","yes","yes","600bd7cfb6416f0113b04181","602110864497cf011d9c0822","0","j","NA","space","space","j","NA","j","556","NA","23327","27928","2926","NA","556","2","legacy","1024","2","48000","-16","task","5206342","even","NA","52314","77645","54317","105019","3913","34778","31852","105522","NA","105016","105523","104957","77645","106079","47276","104457","3906","95538","Lexical Decision Task","12","23272","17","yes","1024"
"2.838639236","0","4","furg","non-word","72.22222222222223","72.22222222222223","1338.611111111111","1338.611111111111","black","no","legacy","legacy","legacy","0","uniform","1","undefined","undefined","undefined","1","f","0","0","0","0","17","0","0","0","17","NA","13","17","13","0","13","3","17","0","17","Thu Feb 18 15:09:12 2021","The main experiment item","yes","Lexical_Decision_Task.osexp","/Users/theopitsiaeli","no","Andale Mono","no","18","no","white","no","yes","576","legacy","13","13","3","/Users/theopitsiaeli/subject-5206342.csv","legacy","Lentiform Loewenfeld","3.3.7","yes","yes","600bd7cfb6416f0113b04181","602110864497cf011d9c0822","0","f","NA","space","space","j","NA","f","823","NA","23327","27928","2926","NA","823","2","legacy","1024","2","48000","-16","task","5206342","even","NA","52314","77645","54317","106645","3913","34778","31852","107148","NA","106642","107149","106583","77645","107973","47276","106083","3906","95538","Lexical Decision Task","13","24095","18","yes","1024"
"3.372543801","9.24","8","coat","word","73.6842105263158","73.6842105263158","1303.157894736842","1303.157894736842","black","no","legacy","legacy","legacy","0","uniform","1","undefined","undefined","undefined","1","j","0","0","0","0","18","0","0","0","18","NA","14","18","14","0","14","3","18","0","18","Thu Feb 18 15:09:12 2021","The main experiment item","yes","Lexical_Decision_Task.osexp","/Users/theopitsiaeli","no","Andale Mono","no","18","no","white","no","yes","576","legacy","14","14","3","/Users/theopitsiaeli/subject-5206342.csv","legacy","Lentiform Loewenfeld","3.3.7","yes","yes","600bd7cfb6416f0113b04181","602110864497cf011d9c0822","0","j","NA","space","space","j","NA","j","665","NA","23327","27928","2926","NA","665","2","legacy","1024","2","48000","-16","task","5206342","even","NA","52314","77645","54317","108537","3913","34778","31852","109040","NA","108534","109041","108476","77645","109706","47276","107976","3906","95538","Lexical Decision Task","14","24760","19","yes","1024"
"2.703007489","8.37","3","pulp","word","75","75","1281.55","1281.55","black","no","legacy","legacy","legacy","0","uniform","1","undefined","undefined","undefined","1","j","0","0","0","0","19","0","0","0","19","NA","15","19","15","0","15","3","19","0","19","Thu Feb 18 15:09:12 2021","The main experiment item","yes","Lexical_Decision_Task.osexp","/Users/theopitsiaeli","no","Andale Mono","no","18","no","white","no","yes","576","legacy","15","15","3","/Users/theopitsiaeli/subject-5206342.csv","legacy","Lentiform Loewenfeld","3.3.7","yes","yes","600bd7cfb6416f0113b04181","602110864497cf011d9c0822","0","j","NA","space","space","j","NA","j","871","NA","23327","27928","2926","NA","871","2","legacy","1024","2","48000","-16","task","5206342","even","NA","52314","77645","54317","110271","3913","34778","31852","110774","NA","110268","110774","110210","77645","111646","47276","109710","3906","95538","Lexical Decision Task","15","25631","20","yes","1024"
"3.20996159","0","4","clee","non-word","76.19047619047619","76.19047619047619","1254.7142857142858","1254.7142857142858","black","no","legacy","legacy","legacy","0","uniform","1","undefined","undefined","undefined","1","f","0","0","0","0","20","0","0","0","20","NA","16","20","16","0","16","3","20","0","20","Thu Feb 18 15:09:12 2021","The main experiment item","yes","Lexical_Decision_Task.osexp","/Users/theopitsiaeli","no","Andale Mono","no","18","no","white","no","yes","576","legacy","16","16","3","/Users/theopitsiaeli/subject-5206342.csv","legacy","Lentiform Loewenfeld","3.3.7","yes","yes","600bd7cfb6416f0113b04181","602110864497cf011d9c0822","0","f","NA","space","space","j","NA","f","718","NA","23327","27928","2926","NA","718","2","legacy","1024","2","48000","-16","task","5206342","even","NA","52314","77645","54317","112218","3913","34778","31852","112721","NA","112214","112721","112149","77645","113440","47276","111649","3906","95538","Lexical Decision Task","16","26349","21","yes","1024"
"2.972357144","0","5","dasp","non-word","77.27272727272727","77.27272727272727","1251.4545454545455","1251.4545454545455","black","no","legacy","legacy","legacy","0","uniform","1","undefined","undefined","undefined","1","f","0","0","0","0","21","0","0","0","21","NA","17","21","17","0","17","3","21","0","21","Thu Feb 18 15:09:12 2021","The main experiment item","yes","Lexical_Decision_Task.osexp","/Users/theopitsiaeli","no","Andale Mono","no","18","no","white","no","yes","576","legacy","17","17","3","/Users/theopitsiaeli/subject-5206342.csv","legacy","Lentiform Loewenfeld","3.3.7","yes","yes","600bd7cfb6416f0113b04181","602110864497cf011d9c0822","0","f","NA","space","space","j","NA","f","1183","NA","23327","27928","2926","NA","1183","2","legacy","1024","2","48000","-16","task","5206342","even","NA","52314","77645","54317","114004","3913","34778","31852","114507","NA","114001","114507","113943","77645","115691","47276","113443","3906","95538","Lexical Decision Task","17","27532","22","yes","1024"
"3.366547468","0","6","plat","non-word","78.26086956521739","78.26086956521739","1234.391304347826","1234.391304347826","black","no","legacy","legacy","legacy","0","uniform","1","undefined","undefined","undefined","1","f","0","0","0","0","22","0","0","0","22","NA","18","22","18","0","18","3","22","0","22","Thu Feb 18 15:09:12 2021","The main experiment item","yes","Lexical_Decision_Task.osexp","/Users/theopitsiaeli","no","Andale Mono","no","18","no","white","no","yes","576","legacy","18","18","3","/Users/theopitsiaeli/subject-5206342.csv","legacy","Lentiform Loewenfeld","3.3.7","yes","yes","600bd7cfb6416f0113b04181","602110864497cf011d9c0822","0","f","NA","space","space","j","NA","f","859","NA","23327","27928","2926","NA","859","2","legacy","1024","2","48000","-16","task","5206342","even","NA","52314","77645","54317","116255","3913","34778","31852","116758","NA","116252","116758","116194","77645","117617","47276","115694","3906","95538","Lexical Decision Task","18","28391","23","yes","1024"
"2.67699827","0","6","hulf","non-word","79.16666666666667","79.16666666666667","1221.9583333333333","1221.9583333333333","black","no","legacy","legacy","legacy","0","uniform","1","undefined","undefined","undefined","1","f","0","0","0","0","23","0","0","0","23","NA","19","23","19","0","19","3","23","0","23","Thu Feb 18 15:09:12 2021","The main experiment item","yes","Lexical_Decision_Task.osexp","/Users/theopitsiaeli","no","Andale Mono","no","18","no","white","no","yes","576","legacy","19","19","3","/Users/theopitsiaeli/subject-5206342.csv","legacy","Lentiform Loewenfeld","3.3.7","yes","yes","600bd7cfb6416f0113b04181","602110864497cf011d9c0822","0","f","NA","space","space","j","NA","f","936","NA","23327","27928","2926","NA","936","2","legacy","1024","2","48000","-16","task","5206342","even","NA","52314","77645","54317","118182","3913","34778","31852","118685","NA","118178","118685","118120","77645","119621","47276","117620","3906","95538","Lexical Decision Task","19","29327","24","yes","1024"
"3.081107167","0","6","chot","non-word","80","80","1231.96","1231.96","black","no","legacy","legacy","legacy","0","uniform","1","undefined","undefined","undefined","1","f","0","0","0","0","24","0","0","0","24","NA","20","24","20","0","20","3","24","0","24","Thu Feb 18 15:09:12 2021","The main experiment item","yes","Lexical_Decision_Task.osexp","/Users/theopitsiaeli","no","Andale Mono","no","18","no","white","no","yes","576","legacy","20","20","3","/Users/theopitsiaeli/subject-5206342.csv","legacy","Lentiform Loewenfeld","3.3.7","yes","yes","600bd7cfb6416f0113b04181","602110864497cf011d9c0822","0","f","NA","space","space","j","NA","f","1472","NA","23327","27928","2926","NA","1472","2","legacy","1024","2","48000","-16","task","5206342","even","NA","52314","77645","54317","120185","3913","34778","31852","120689","NA","120182","120690","120124","77645","122162","47276","119624","3906","95538","Lexical Decision Task","20","30799","25","yes","1024"
"2.576725172","0","8","gowl","non-word","80.76923076923077","80.76923076923077","1238.5","1238.5","black","no","legacy","legacy","legacy","0","uniform","1","undefined","undefined","undefined","1","f","0","0","0","0","25","0","0","0","25","NA","21","25","21","0","21","3","25","0","25","Thu Feb 18 15:09:12 2021","The main experiment item","yes","Lexical_Decision_Task.osexp","/Users/theopitsiaeli","no","Andale Mono","no","18","no","white","no","yes","576","legacy","21","21","3","/Users/theopitsiaeli/subject-5206342.csv","legacy","Lentiform Loewenfeld","3.3.7","yes","yes","600bd7cfb6416f0113b04181","602110864497cf011d9c0822","0","f","NA","space","space","j","NA","f","1402","NA","23327","27928","2926","NA","1402","2","legacy","1024","2","48000","-16","task","5206342","even","NA","52314","77645","54317","122726","3913","34778","31852","123229","NA","122723","123230","122665","77645","124632","47276","122165","3906","95538","Lexical Decision Task","21","32201","26","yes","1024"
"3.153104174","10.89","6","door","word","81.48148148148148","81.48148148148148","1219.6666666666667","1219.6666666666667","black","no","legacy","legacy","legacy","0","uniform","1","undefined","undefined","undefined","1","j","0","0","0","0","26","0","0","0","26","NA","22","26","22","0","22","3","26","0","26","Thu Feb 18 15:09:12 2021","The main experiment item","yes","Lexical_Decision_Task.osexp","/Users/theopitsiaeli","no","Andale Mono","no","18","no","white","no","yes","576","legacy","22","22","3","/Users/theopitsiaeli/subject-5206342.csv","legacy","Lentiform Loewenfeld","3.3.7","yes","yes","600bd7cfb6416f0113b04181","602110864497cf011d9c0822","0","j","NA","space","space","j","NA","j","730","NA","23327","27928","2926","NA","730","2","legacy","1024","2","48000","-16","task","5206342","even","NA","52314","77645","54317","125195","3913","34778","31852","125698","NA","125192","125698","125135","77645","126428","47276","124635","3906","95538","Lexical Decision Task","22","32931","27","yes","1024"
"3.208172527","10.27","7","deck","word","82.14285714285714","82.14285714285714","1203","1203","black","no","legacy","legacy","legacy","0","uniform","1","undefined","undefined","undefined","1","j","0","0","0","0","27","0","0","0","27","NA","23","27","23","0","23","3","27","0","27","Thu Feb 18 15:09:12 2021","The main experiment item","yes","Lexical_Decision_Task.osexp","/Users/theopitsiaeli","no","Andale Mono","no","18","no","white","no","yes","576","legacy","23","23","3","/Users/theopitsiaeli/subject-5206342.csv","legacy","Lentiform Loewenfeld","3.3.7","yes","yes","600bd7cfb6416f0113b04181","602110864497cf011d9c0822","0","j","NA","space","space","j","NA","j","753","NA","23327","27928","2926","NA","753","2","legacy","1024","2","48000","-16","task","5206342","even","NA","52314","77645","54317","126992","3913","34778","31852","127495","NA","126990","127495","126931","77645","128249","47276","126431","3906","95538","Lexical Decision Task","23","33684","28","yes","1024"
"3.067193647","6.73","6","raft","word","82.75862068965517","82.75862068965517","1190.2758620689656","1190.2758620689656","black","no","legacy","legacy","legacy","0","uniform","1","undefined","undefined","undefined","1","j","0","0","0","0","28","0","0","0","28","NA","24","28","24","0","24","3","28","0","28","Thu Feb 18 15:09:12 2021","The main experiment item","yes","Lexical_Decision_Task.osexp","/Users/theopitsiaeli","no","Andale Mono","no","18","no","white","no","yes","576","legacy","24","24","3","/Users/theopitsiaeli/subject-5206342.csv","legacy","Lentiform Loewenfeld","3.3.7","yes","yes","600bd7cfb6416f0113b04181","602110864497cf011d9c0822","0","j","NA","space","space","j","NA","j","834","NA","23327","27928","2926","NA","834","2","legacy","1024","2","48000","-16","task","5206342","even","NA","52314","77645","54317","128813","3913","34778","31852","129316","NA","128810","129316","128752","77645","130151","47276","128252","3906","95538","Lexical Decision Task","24","34518","29","yes","1024"
"2.839898939","8.99","6","soap","word","83.33333333333333","83.33333333333333","1171.0666666666666","1171.0666666666666","black","no","legacy","legacy","legacy","0","uniform","1","undefined","undefined","undefined","1","j","0","0","0","0","29","0","0","0","29","NA","25","29","25","0","25","3","29","0","29","Thu Feb 18 15:09:12 2021","The main experiment item","yes","Lexical_Decision_Task.osexp","/Users/theopitsiaeli","no","Andale Mono","no","18","no","white","no","yes","576","legacy","25","25","3","/Users/theopitsiaeli/subject-5206342.csv","legacy","Lentiform Loewenfeld","3.3.7","yes","yes","600bd7cfb6416f0113b04181","602110864497cf011d9c0822","0","j","NA","space","space","j","NA","j","614","NA","23327","27928","2926","NA","614","2","legacy","1024","2","48000","-16","task","5206342","even","NA","52314","77645","54317","130714","3913","34778","31852","131218","NA","130712","131218","130654","77645","131833","47276","130154","3906","95538","Lexical Decision Task","25","35132","30","yes","1024"
"3.134602053","0","8","jart","non-word","83.87096774193549","83.87096774193549","1158.774193548387","1158.774193548387","black","no","legacy","legacy","legacy","0","uniform","1","undefined","undefined","undefined","1","f","0","0","0","0","30","0","0","0","30","NA","26","30","26","0","26","3","30","0","30","Thu Feb 18 15:09:12 2021","The main experiment item","yes","Lexical_Decision_Task.osexp","/Users/theopitsiaeli","no","Andale Mono","no","18","no","white","no","yes","576","legacy","26","26","3","/Users/theopitsiaeli/subject-5206342.csv","legacy","Lentiform Loewenfeld","3.3.7","yes","yes","600bd7cfb6416f0113b04181","602110864497cf011d9c0822","0","f","NA","space","space","j","NA","f","790","NA","23327","27928","2926","NA","790","2","legacy","1024","2","48000","-16","task","5206342","even","NA","52314","77645","54317","132397","3913","34778","31852","132900","NA","132394","132900","132336","77645","133691","47276","131836","3906","95538","Lexical Decision Task","26","35922","31","yes","1024"
"3.168400243","9.12","6","horn","word","84.375","84.375","1142.625","1142.625","black","no","legacy","legacy","legacy","0","uniform","1","undefined","undefined","undefined","1","j","0","0","0","0","31","0","0","0","31","NA","27","31","27","0","27","3","31","0","31","Thu Feb 18 15:09:12 2021","The main experiment item","yes","Lexical_Decision_Task.osexp","/Users/theopitsiaeli","no","Andale Mono","no","18","no","white","no","yes","576","legacy","27","27","3","/Users/theopitsiaeli/subject-5206342.csv","legacy","Lentiform Loewenfeld","3.3.7","yes","yes","600bd7cfb6416f0113b04181","602110864497cf011d9c0822","0","j","NA","space","space","j","NA","j","642","NA","23327","27928","2926","NA","642","2","legacy","1024","2","48000","-16","task","5206342","even","NA","52314","77645","54317","134255","3913","34778","31852","134757","NA","134252","134758","134194","77645","135401","47276","133694","3906","95538","Lexical Decision Task","27","36564","32","yes","1024"
"3.378276681","6.39","8","bran","word","81.81818181818181","81.81818181818181","1134.4848484848485","1134.4848484848485","black","no","legacy","legacy","legacy","0","uniform","0","undefined","undefined","undefined","0","j","0","0","0","0","32","0","0","0","32","NA","28","32","28","0","28","3","32","0","32","Thu Feb 18 15:09:12 2021","The main experiment item","yes","Lexical_Decision_Task.osexp","/Users/theopitsiaeli","no","Andale Mono","no","18","no","white","no","yes","576","legacy","28","28","3","/Users/theopitsiaeli/subject-5206342.csv","legacy","Lentiform Loewenfeld","3.3.7","yes","yes","600bd7cfb6416f0113b04181","602110864497cf011d9c0822","0","f","NA","space","space","j","NA","f","874","NA","23327","27928","2926","NA","874","2","legacy","1024","2","48000","-16","task","5206342","even","NA","52314","77645","54317","135965","3913","34778","31852","136469","NA","135962","136470","135904","77645","137345","47276","135404","3906","95538","Lexical Decision Task","27","37438","33","yes","1024"
"2.794720352","0","9","koot","non-word","82.3529411764706","82.3529411764706","1136.8823529411766","1136.8823529411766","black","no","legacy","legacy","legacy","0","uniform","1","undefined","undefined","undefined","1","f","0","0","0","0","33","0","0","0","33","NA","29","33","29","0","29","3","33","0","33","Thu Feb 18 15:09:12 2021","The main experiment item","yes","Lexical_Decision_Task.osexp","/Users/theopitsiaeli","no","Andale Mono","no","18","no","white","no","yes","576","legacy","29","29","3","/Users/theopitsiaeli/subject-5206342.csv","legacy","Lentiform Loewenfeld","3.3.7","yes","yes","600bd7cfb6416f0113b04181","602110864497cf011d9c0822","0","f","NA","space","space","j","NA","f","1216","NA","23327","27928","2926","NA","1216","2","legacy","1024","2","48000","-16","task","5206342","even","NA","52314","77645","54317","138915","3913","34778","31852","139419","NA","138910","139419","138848","77645","140636","47276","135404","3906","137348","Lexical Decision Task","28","38654","34","yes","1024"
"3.443783828","7.65","3","verb","word","82.85714285714286","82.85714285714286","1127.2285714285715","1127.2285714285715","black","no","legacy","legacy","legacy","0","uniform","1","undefined","undefined","undefined","1","j","0","0","0","0","34","0","0","0","34","NA","30","34","30","0","30","3","34","0","34","Thu Feb 18 15:09:12 2021","The main experiment item","yes","Lexical_Decision_Task.osexp","/Users/theopitsiaeli","no","Andale Mono","no","18","no","white","no","yes","576","legacy","30","30","3","/Users/theopitsiaeli/subject-5206342.csv","legacy","Lentiform Loewenfeld","3.3.7","yes","yes","600bd7cfb6416f0113b04181","602110864497cf011d9c0822","0","j","NA","space","space","j","NA","j","799","NA","23327","27928","2926","NA","799","2","legacy","1024","2","48000","-16","task","5206342","even","NA","52314","77645","54317","141200","3913","34778","31852","141703","NA","141197","141703","141139","77645","142502","47276","140639","3906","137348","Lexical Decision Task","29","39453","35","yes","1024"
"3.156347201","0","8","lasp","non-word","83.33333333333333","83.33333333333333","1116.9722222222222","1116.9722222222222","black","no","legacy","legacy","legacy","0","uniform","1","undefined","undefined","undefined","1","f","0","0","0","0","35","0","0","0","35","NA","31","35","31","0","31","3","35","0","35","Thu Feb 18 15:09:12 2021","The main experiment item","yes","Lexical_Decision_Task.osexp","/Users/theopitsiaeli","no","Andale Mono","no","18","no","white","no","yes","576","legacy","31","31","3","/Users/theopitsiaeli/subject-5206342.csv","legacy","Lentiform Loewenfeld","3.3.7","yes","yes","600bd7cfb6416f0113b04181","602110864497cf011d9c0822","0","f","NA","space","space","j","NA","f","758","NA","23327","27928","2926","NA","758","2","legacy","1024","2","48000","-16","task","5206342","even","NA","52314","77645","54317","143068","3913","34778","31852","143571","NA","143064","143571","143006","77645","144330","47276","142506","3906","137348","Lexical Decision Task","30","40211","36","yes","1024"
"3.303771854","0","9","dath","non-word","83.78378378378379","83.78378378378379","1107.162162162162","1107.162162162162","black","no","legacy","legacy","legacy","0","uniform","1","undefined","undefined","undefined","1","f","0","0","0","0","36","0","0","0","36","NA","32","36","32","0","32","3","36","0","36","Thu Feb 18 15:09:12 2021","The main experiment item","yes","Lexical_Decision_Task.osexp","/Users/theopitsiaeli","no","Andale Mono","no","18","no","white","no","yes","576","legacy","32","32","3","/Users/theopitsiaeli/subject-5206342.csv","legacy","Lentiform Loewenfeld","3.3.7","yes","yes","600bd7cfb6416f0113b04181","602110864497cf011d9c0822","0","f","NA","space","space","j","NA","f","754","NA","23327","27928","2926","NA","754","2","legacy","1024","2","48000","-16","task","5206342","even","NA","52314","77645","54317","144894","3913","34778","31852","145397","NA","144891","145397","144833","77645","146152","47276","144333","3906","137348","Lexical Decision Task","31","40965","37","yes","1024"
"3.031812271","6.52","3","gulp","word","84.21052631578948","84.21052631578948","1098.8157894736842","1098.8157894736842","black","no","legacy","legacy","legacy","0","uniform","1","undefined","undefined","undefined","1","j","0","0","0","0","37","0","0","0","37","NA","33","37","33","0","33","3","37","0","37","Thu Feb 18 15:09:12 2021","The main experiment item","yes","Lexical_Decision_Task.osexp","/Users/theopitsiaeli","no","Andale Mono","no","18","no","white","no","yes","576","legacy","33","33","3","/Users/theopitsiaeli/subject-5206342.csv","legacy","Lentiform Loewenfeld","3.3.7","yes","yes","600bd7cfb6416f0113b04181","602110864497cf011d9c0822","0","j","NA","space","space","j","NA","j","790","NA","23327","27928","2926","NA","790","2","legacy","1024","2","48000","-16","task","5206342","even","NA","52314","77645","54317","146715","3913","34778","31852","147218","NA","146712","147218","146654","77645","148008","47276","146154","3906","137348","Lexical Decision Task","32","41755","38","yes","1024"
"2.814027728","8.2","4","foam","word","84.61538461538461","84.61538461538461","1086.923076923077","1086.923076923077","black","no","legacy","legacy","legacy","0","uniform","1","undefined","undefined","undefined","1","j","0","0","0","0","38","0","0","0","38","NA","34","38","34","0","34","3","38","0","38","Thu Feb 18 15:09:12 2021","The main experiment item","yes","Lexical_Decision_Task.osexp","/Users/theopitsiaeli","no","Andale Mono","no","18","no","white","no","yes","576","legacy","34","34","3","/Users/theopitsiaeli/subject-5206342.csv","legacy","Lentiform Loewenfeld","3.3.7","yes","yes","600bd7cfb6416f0113b04181","602110864497cf011d9c0822","0","j","NA","space","space","j","NA","j","635","NA","23327","27928","2926","NA","635","2","legacy","1024","2","48000","-16","task","5206342","even","NA","52314","77645","54317","148573","3913","34778","31852","149076","NA","148570","149077","148512","77645","149713","47276","148012","3906","137348","Lexical Decision Task","33","42390","39","yes","1024"
"2.713490543","0","3","feps","non-word","85","85","1076.125","1076.125","black","no","legacy","legacy","legacy","0","uniform","1","undefined","undefined","undefined","1","f","0","0","0","0","39","0","0","0","39","NA","35","39","35","0","35","3","39","0","39","Thu Feb 18 15:09:12 2021","The main experiment item","yes","Lexical_Decision_Task.osexp","/Users/theopitsiaeli","no","Andale Mono","no","18","no","white","no","yes","576","legacy","35","35","3","/Users/theopitsiaeli/subject-5206342.csv","legacy","Lentiform Loewenfeld","3.3.7","yes","yes","600bd7cfb6416f0113b04181","602110864497cf011d9c0822","0","f","NA","space","space","j","NA","f","655","NA","23327","27928","2926","NA","655","2","legacy","1024","2","48000","-16","task","5206342","even","NA","52314","77645","54317","150277","3913","34778","31852","150780","NA","150274","150780","150216","77645","151436","47276","149716","3906","137348","Lexical Decision Task","34","43045","40","yes","1024"
"2.807758206","6.25","4","hurl","word","85.36585365853658","85.36585365853658","1071.0487804878048","1071.0487804878048","black","no","legacy","legacy","legacy","0","uniform","1","undefined","undefined","undefined","1","j","0","0","0","0","40","0","0","0","40","NA","36","40","36","0","36","3","40","0","40","Thu Feb 18 15:09:12 2021","The main experiment item","yes","Lexical_Decision_Task.osexp","/Users/theopitsiaeli","no","Andale Mono","no","18","no","white","no","yes","576","legacy","36","36","3","/Users/theopitsiaeli/subject-5206342.csv","legacy","Lentiform Loewenfeld","3.3.7","yes","yes","600bd7cfb6416f0113b04181","602110864497cf011d9c0822","0","j","NA","space","space","j","NA","j","868","NA","23327","27928","2926","NA","868","2","legacy","1024","2","48000","-16","task","5206342","even","NA","52314","77645","54317","152000","3913","34778","31852","152503","NA","151997","152504","151939","77645","153373","47276","151439","3906","137348","Lexical Decision Task","35","43913","41","yes","1024"
"2.80048796","0","8","pife","non-word","85.71428571428571","85.71428571428571","1060.5714285714287","1060.5714285714287","black","no","legacy","legacy","legacy","0","uniform","1","undefined","undefined","undefined","1","f","0","0","0","0","41","0","0","0","41","NA","37","41","37","0","37","3","41","0","41","Thu Feb 18 15:09:12 2021","The main experiment item","yes","Lexical_Decision_Task.osexp","/Users/theopitsiaeli","no","Andale Mono","no","18","no","white","no","yes","576","legacy","37","37","3","/Users/theopitsiaeli/subject-5206342.csv","legacy","Lentiform Loewenfeld","3.3.7","yes","yes","600bd7cfb6416f0113b04181","602110864497cf011d9c0822","0","f","NA","space","space","j","NA","f","631","NA","23327","27928","2926","NA","631","2","legacy","1024","2","48000","-16","task","5206342","even","NA","52314","77645","54317","153940","3913","34778","31852","154445","NA","153935","154445","153876","77645","155077","47276","153376","3906","137348","Lexical Decision Task","36","44544","42","yes","1024"
"3.037294994","8.64","7","roof","word","86.04651162790698","86.04651162790698","1048.5813953488373","1048.5813953488373","black","no","legacy","legacy","legacy","0","uniform","1","undefined","undefined","undefined","1","j","0","0","0","0","42","0","0","0","42","NA","38","42","38","0","38","3","42","0","42","Thu Feb 18 15:09:12 2021","The main experiment item","yes","Lexical_Decision_Task.osexp","/Users/theopitsiaeli","no","Andale Mono","no","18","no","white","no","yes","576","legacy","38","38","3","/Users/theopitsiaeli/subject-5206342.csv","legacy","Lentiform Loewenfeld","3.3.7","yes","yes","600bd7cfb6416f0113b04181","602110864497cf011d9c0822","0","j","NA","space","space","j","NA","j","545","NA","23327","27928","2926","NA","545","2","legacy","1024","2","48000","-16","task","5206342","even","NA","52314","77645","54317","155641","3913","34778","31852","156145","NA","155638","156145","155580","77645","156691","47276","155080","3906","137348","Lexical Decision Task","37","45089","43","yes","1024"
"3.257359335","8","6","brew","word","86.36363636363636","86.36363636363636","1040.0227272727273","1040.0227272727273","black","no","legacy","legacy","legacy","0","uniform","1","undefined","undefined","undefined","1","j","0","0","0","0","43","0","0","0","43","NA","39","43","39","0","39","3","43","0","43","Thu Feb 18 15:09:12 2021","The main experiment item","yes","Lexical_Decision_Task.osexp","/Users/theopitsiaeli","no","Andale Mono","no","18","no","white","no","yes","576","legacy","39","39","3","/Users/theopitsiaeli/subject-5206342.csv","legacy","Lentiform Loewenfeld","3.3.7","yes","yes","600bd7cfb6416f0113b04181","602110864497cf011d9c0822","0","j","NA","space","space","j","NA","j","672","NA","23327","27928","2926","NA","672","2","legacy","1024","2","48000","-16","task","5206342","even","NA","52314","77645","54317","157257","3913","34778","31852","157762","NA","157254","157762","157195","77645","158435","47276","156695","3906","137348","Lexical Decision Task","38","45761","44","yes","1024"
"3.382617311","0","4","pret","non-word","86.66666666666667","86.66666666666667","1036.0444444444445","1036.0444444444445","black","no","legacy","legacy","legacy","0","uniform","1","undefined","undefined","undefined","1","f","0","0","0","0","44","0","0","0","44","NA","40","44","40","0","40","3","44","0","44","Thu Feb 18 15:09:12 2021","The main experiment item","yes","Lexical_Decision_Task.osexp","/Users/theopitsiaeli","no","Andale Mono","no","18","no","white","no","yes","576","legacy","40","40","3","/Users/theopitsiaeli/subject-5206342.csv","legacy","Lentiform Loewenfeld","3.3.7","yes","yes","600bd7cfb6416f0113b04181","602110864497cf011d9c0822","0","f","NA","space","space","j","NA","f","861","NA","23327","27928","2926","NA","861","2","legacy","1024","2","48000","-16","task","5206342","even","NA","52314","77645","54317","158999","3913","34778","31852","159503","NA","158996","159504","158938","77645","160366","47276","158438","3906","137348","Lexical Decision Task","39","46622","45","yes","1024"
"2.69019608","9.01","2","myth","word","86.95652173913044","86.95652173913044","1026.1739130434783","1026.1739130434783","black","no","legacy","legacy","legacy","0","uniform","1","undefined","undefined","undefined","1","j","0","0","0","0","45","0","0","0","45","NA","41","45","41","0","41","3","45","0","45","Thu Feb 18 15:09:12 2021","The main experiment item","yes","Lexical_Decision_Task.osexp","/Users/theopitsiaeli","no","Andale Mono","no","18","no","white","no","yes","576","legacy","41","41","3","/Users/theopitsiaeli/subject-5206342.csv","legacy","Lentiform Loewenfeld","3.3.7","yes","yes","600bd7cfb6416f0113b04181","602110864497cf011d9c0822","0","j","NA","space","space","j","NA","j","582","NA","23327","27928","2926","NA","582","2","legacy","1024","2","48000","-16","task","5206342","even","NA","52314","77645","54317","160930","3913","34778","31852","161433","NA","160928","161434","160869","77645","162017","47276","160369","3906","137348","Lexical Decision Task","40","47204","46","yes","1024"
"2.966923697","5.4","2","fume","word","87.23404255319149","87.23404255319149","1019.8936170212766","1019.8936170212766","black","no","legacy","legacy","legacy","0","uniform","1","undefined","undefined","undefined","1","j","0","0","0","0","46","0","0","0","46","NA","42","46","42","0","42","3","46","0","46","Thu Feb 18 15:09:12 2021","The main experiment item","yes","Lexical_Decision_Task.osexp","/Users/theopitsiaeli","no","Andale Mono","no","18","no","white","no","yes","576","legacy","42","42","3","/Users/theopitsiaeli/subject-5206342.csv","legacy","Lentiform Loewenfeld","3.3.7","yes","yes","600bd7cfb6416f0113b04181","602110864497cf011d9c0822","0","j","NA","space","space","j","NA","j","731","NA","23327","27928","2926","NA","731","2","legacy","1024","2","48000","-16","task","5206342","even","NA","52314","77645","54317","162583","3913","34778","31852","163087","NA","162578","163088","162520","77645","163820","47276","162020","3906","137348","Lexical Decision Task","41","47935","47","yes","1024"
"2.813801082","5.47","7","nook","word","85.41666666666667","85.41666666666667","1012.5","1012.5","black","no","legacy","legacy","legacy","0","uniform","0","undefined","undefined","undefined","0","j","0","0","0","0","47","0","0","0","47","NA","43","47","43","0","43","3","47","0","47","Thu Feb 18 15:09:12 2021","The main experiment item","yes","Lexical_Decision_Task.osexp","/Users/theopitsiaeli","no","Andale Mono","no","18","no","white","no","yes","576","legacy","43","43","3","/Users/theopitsiaeli/subject-5206342.csv","legacy","Lentiform Loewenfeld","3.3.7","yes","yes","600bd7cfb6416f0113b04181","602110864497cf011d9c0822","0","f","NA","space","space","j","NA","f","665","NA","23327","27928","2926","NA","665","2","legacy","1024","2","48000","-16","task","5206342","even","NA","52314","77645","54317","164385","3913","34778","31852","164889","NA","164381","164890","164323","77645","165556","47276","163823","3906","137348","Lexical Decision Task","41","48600","48","yes","1024"
"3.003891166","8.05","2","frog","word","85.71428571428571","85.71428571428571","1002.0408163265306","1002.0408163265306","black","no","legacy","legacy","legacy","0","uniform","1","undefined","undefined","undefined","1","j","0","0","0","0","48","0","0","0","48","NA","44","48","44","0","44","3","48","0","48","Thu Feb 18 15:09:12 2021","The main experiment item","yes","Lexical_Decision_Task.osexp","/Users/theopitsiaeli","no","Andale Mono","no","18","no","white","no","yes","576","legacy","44","44","3","/Users/theopitsiaeli/subject-5206342.csv","legacy","Lentiform Loewenfeld","3.3.7","yes","yes","600bd7cfb6416f0113b04181","602110864497cf011d9c0822","0","j","NA","space","space","j","NA","j","500","NA","23327","27928","2926","NA","500","2","legacy","1024","2","48000","-16","task","5206342","even","NA","52314","77645","54317","167124","3913","34778","31852","167627","NA","167120","167627","167059","77645","168128","47276","163823","3906","165559","Lexical Decision Task","42","49100","49","yes","1024"
"2.782472624","10.55","2","huge","word","86","86","993.62","993.62","black","no","legacy","legacy","legacy","0","uniform","1","undefined","undefined","undefined","1","j","0","0","0","0","49","0","0","0","49","NA","45","49","45","0","45","3","49","0","49","Thu Feb 18 15:09:12 2021","The main experiment item","yes","Lexical_Decision_Task.osexp","/Users/theopitsiaeli","no","Andale Mono","no","18","no","white","no","yes","576","legacy","45","45","3","/Users/theopitsiaeli/subject-5206342.csv","legacy","Lentiform Loewenfeld","3.3.7","yes","yes","600bd7cfb6416f0113b04181","602110864497cf011d9c0822","0","j","NA","space","space","j","NA","j","581","NA","23327","27928","2926","NA","581","2","legacy","1024","2","48000","-16","task","5206342","even","NA","52314","77645","54317","168695","3913","34778","31852","169199","NA","168690","169200","168631","77645","169782","47276","168131","3906","165559","Lexical Decision Task","43","49681","50","yes","1024"
"2.746890964","9.67","3","plug","word","86.27450980392157","86.27450980392157","986.6470588235294","986.6470588235294","black","no","legacy","legacy","legacy","0","uniform","1","undefined","undefined","undefined","1","j","0","0","0","0","50","0","0","0","50","NA","46","50","46","0","46","3","50","0","50","Thu Feb 18 15:09:12 2021","The main experiment item","yes","Lexical_Decision_Task.osexp","/Users/theopitsiaeli","no","Andale Mono","no","18","no","white","no","yes","576","legacy","46","46","3","/Users/theopitsiaeli/subject-5206342.csv","legacy","Lentiform Loewenfeld","3.3.7","yes","yes","600bd7cfb6416f0113b04181","602110864497cf011d9c0822","0","j","NA","space","space","j","NA","j","638","NA","23327","27928","2926","NA","638","2","legacy","1024","2","48000","-16","task","5206342","even","NA","52314","77645","54317","170347","3913","34778","31852","170849","NA","170344","170849","170285","77645","171488","47276","169785","3906","165559","Lexical Decision Task","44","50319","51","yes","1024"
"3.043885998","0","9","gome","non-word","86.53846153846153","86.53846153846153","990.5192307692307","990.5192307692307","black","no","legacy","legacy","legacy","0","uniform","1","undefined","undefined","undefined","1","f","0","0","0","0","51","0","0","0","51","NA","47","51","47","0","47","3","51","0","51","Thu Feb 18 15:09:12 2021","The main experiment item","yes","Lexical_Decision_Task.osexp","/Users/theopitsiaeli","no","Andale Mono","no","18","no","white","no","yes","576","legacy","47","47","3","/Users/theopitsiaeli/subject-5206342.csv","legacy","Lentiform Loewenfeld","3.3.7","yes","yes","600bd7cfb6416f0113b04181","602110864497cf011d9c0822","0","f","NA","space","space","j","NA","f","1188","NA","23327","27928","2926","NA","1188","2","legacy","1024","2","48000","-16","task","5206342","even","NA","52314","77645","54317","172051","3913","34778","31852","172554","NA","172048","172554","171990","77645","173743","47276","171490","3906","165559","Lexical Decision Task","45","51507","52","yes","1024"
"3.230789326","5.38","5","prim","word","86.79245283018868","86.79245283018868","993.3207547169811","993.3207547169811","black","no","legacy","legacy","legacy","0","uniform","1","undefined","undefined","undefined","1","j","0","0","0","0","52","0","0","0","52","NA","48","52","48","0","48","3","52","0","52","Thu Feb 18 15:09:12 2021","The main experiment item","yes","Lexical_Decision_Task.osexp","/Users/theopitsiaeli","no","Andale Mono","no","18","no","white","no","yes","576","legacy","48","48","3","/Users/theopitsiaeli/subject-5206342.csv","legacy","Lentiform Loewenfeld","3.3.7","yes","yes","600bd7cfb6416f0113b04181","602110864497cf011d9c0822","0","j","NA","space","space","j","NA","j","1139","NA","23327","27928","2926","NA","1139","2","legacy","1024","2","48000","-16","task","5206342","even","NA","52314","77645","54317","174311","3913","34778","31852","174815","NA","174308","174815","174245","77645","175955","47276","173745","3906","165559","Lexical Decision Task","46","52646","53","yes","1024"
"3.529815197","0","3","lerm","non-word","87.03703703703704","87.03703703703704","989.9444444444445","989.9444444444445","black","no","legacy","legacy","legacy","0","uniform","1","undefined","undefined","undefined","1","f","0","0","0","0","53","0","0","0","53","NA","49","53","49","0","49","3","53","0","53","Thu Feb 18 15:09:12 2021","The main experiment item","yes","Lexical_Decision_Task.osexp","/Users/theopitsiaeli","no","Andale Mono","no","18","no","white","no","yes","576","legacy","49","49","3","/Users/theopitsiaeli/subject-5206342.csv","legacy","Lentiform Loewenfeld","3.3.7","yes","yes","600bd7cfb6416f0113b04181","602110864497cf011d9c0822","0","f","NA","space","space","j","NA","f","811","NA","23327","27928","2926","NA","811","2","legacy","1024","2","48000","-16","task","5206342","even","NA","52314","77645","54317","176518","3913","34778","31852","177024","NA","176515","177024","176458","77645","177836","47276","175958","3906","165559","Lexical Decision Task","47","53457","54","yes","1024"
"3.263399331","0","8","cour","non-word","87.27272727272727","87.27272727272727","1001.1454545454545","1001.1454545454545","black","no","legacy","legacy","legacy","0","uniform","1","undefined","undefined","undefined","1","f","0","0","0","0","54","0","0","0","54","0","50","54","50","0","50","3","54","0","54","Thu Feb 18 15:09:12 2021","The main experiment item","yes","Lexical_Decision_Task.osexp","/Users/theopitsiaeli","no","Andale Mono","no","18","no","white","no","yes","576","legacy","50","50","3","/Users/theopitsiaeli/subject-5206342.csv","legacy","Lentiform Loewenfeld","3.3.7","yes","yes","600bd7cfb6416f0113b04181","602110864497cf011d9c0822","0","f","NA","space","space","j","space","f","1606","NA","23327","27928","2926","36540","1606","2","legacy","1024","2","48000","-16","task","5206342","even","NA","52314","77645","54317","214954","3913","34778","31852","215458","178374","214952","215458","178339","77645","217065","47276","177839","3906","165559","Lexical Decision Task","48","55063","55","yes","1024"
"2.86332286","6.71","2","feud","word","87.5","87.5","1000.4285714285714","1000.4285714285714","black","no","legacy","legacy","legacy","0","uniform","1","undefined","undefined","undefined","1","j","0","0","0","0","55","0","0","0","55","0","51","55","51","0","51","3","55","0","55","Thu Feb 18 15:09:12 2021","The main experiment item","yes","Lexical_Decision_Task.osexp","/Users/theopitsiaeli","no","Andale Mono","no","18","no","white","no","yes","576","legacy","51","51","3","/Users/theopitsiaeli/subject-5206342.csv","legacy","Lentiform Loewenfeld","3.3.7","yes","yes","600bd7cfb6416f0113b04181","602110864497cf011d9c0822","0","j","NA","space","space","j","space","j","961","NA","23327","27928","2926","36540","961","2","legacy","1024","2","48000","-16","task","5206342","even","NA","52314","77645","54317","217629","3913","34778","31852","218132","178374","217626","218132","217568","77645","219094","47276","217068","3906","165559","Lexical Decision Task","49","56024","56","yes","1024"
"2.68604012","0","3","mulb","non-word","87.71929824561404","87.71929824561404","998.6491228070175","998.6491228070175","black","no","legacy","legacy","legacy","0","uniform","1","undefined","undefined","undefined","1","f","0","0","0","0","56","0","0","0","56","0","52","56","52","0","52","3","56","0","56","Thu Feb 18 15:09:12 2021","The main experiment item","yes","Lexical_Decision_Task.osexp","/Users/theopitsiaeli","no","Andale Mono","no","18","no","white","no","yes","576","legacy","52","52","3","/Users/theopitsiaeli/subject-5206342.csv","legacy","Lentiform Loewenfeld","3.3.7","yes","yes","600bd7cfb6416f0113b04181","602110864497cf011d9c0822","0","f","NA","space","space","j","space","f","899","NA","23327","27928","2926","36540","899","2","legacy","1024","2","48000","-16","task","5206342","even","NA","52314","77645","54317","219659","3913","34778","31852","220163","178374","219656","220163","219597","77645","221063","47276","219097","3906","165559","Lexical Decision Task","50","56923","57","yes","1024"
"2.68604012","0","4","pumb","non-word","87.93103448275862","87.93103448275862","998.8448275862069","998.8448275862069","black","no","legacy","legacy","legacy","0","uniform","1","undefined","undefined","undefined","1","f","0","0","0","0","57","0","0","0","57","0","53","57","53","0","53","3","57","0","57","Thu Feb 18 15:09:12 2021","The main experiment item","yes","Lexical_Decision_Task.osexp","/Users/theopitsiaeli","no","Andale Mono","no","18","no","white","no","yes","576","legacy","53","53","3","/Users/theopitsiaeli/subject-5206342.csv","legacy","Lentiform Loewenfeld","3.3.7","yes","yes","600bd7cfb6416f0113b04181","602110864497cf011d9c0822","0","f","NA","space","space","j","space","f","1010","NA","23327","27928","2926","36540","1010","2","legacy","1024","2","48000","-16","task","5206342","even","NA","52314","77645","54317","221628","3913","34778","31852","222133","178374","221625","222134","221566","77645","223145","47276","221066","3906","165559","Lexical Decision Task","51","57933","58","yes","1024"
"3.131833513","7.66","4","limb","word","88.13559322033899","88.13559322033899","993.6779661016949","993.6779661016949","black","no","legacy","legacy","legacy","0","uniform","1","undefined","undefined","undefined","1","j","0","0","0","0","58","0","0","0","58","0","54","58","54","0","54","3","58","0","58","Thu Feb 18 15:09:12 2021","The main experiment item","yes","Lexical_Decision_Task.osexp","/Users/theopitsiaeli","no","Andale Mono","no","18","no","white","no","yes","576","legacy","54","54","3","/Users/theopitsiaeli/subject-5206342.csv","legacy","Lentiform Loewenfeld","3.3.7","yes","yes","600bd7cfb6416f0113b04181","602110864497cf011d9c0822","0","j","NA","space","space","j","space","j","694","NA","23327","27928","2926","36540","694","2","legacy","1024","2","48000","-16","task","5206342","even","NA","52314","77645","54317","223710","3913","34778","31852","224213","178374","223707","224213","223648","77645","224908","47276","223148","3906","165559","Lexical Decision Task","52","58627","59","yes","1024"
"2.899092422","7.27","6","snag","word","88.33333333333333","88.33333333333333","989.5333333333333","989.5333333333333","black","no","legacy","legacy","legacy","0","uniform","1","undefined","undefined","undefined","1","j","0","0","0","0","59","0","0","0","59","0","55","59","55","0","55","3","59","0","59","Thu Feb 18 15:09:12 2021","The main experiment item","yes","Lexical_Decision_Task.osexp","/Users/theopitsiaeli","no","Andale Mono","no","18","no","white","no","yes","576","legacy","55","55","3","/Users/theopitsiaeli/subject-5206342.csv","legacy","Lentiform Loewenfeld","3.3.7","yes","yes","600bd7cfb6416f0113b04181","602110864497cf011d9c0822","0","j","NA","space","space","j","space","j","745","NA","23327","27928","2926","36540","745","2","legacy","1024","2","48000","-16","task","5206342","even","NA","52314","77645","54317","225473","3913","34778","31852","225976","178374","225470","225976","225411","77645","226722","47276","224911","3906","165559","Lexical Decision Task","53","59372","60","yes","1024"
"2.6599162","0","2","saff","non-word","88.52459016393442","88.52459016393442","984.0983606557377","984.0983606557377","black","no","legacy","legacy","legacy","0","uniform","1","undefined","undefined","undefined","1","f","0","0","0","0","60","0","0","0","60","0","56","60","56","0","56","3","60","0","60","Thu Feb 18 15:09:12 2021","The main experiment item","yes","Lexical_Decision_Task.osexp","/Users/theopitsiaeli","no","Andale Mono","no","18","no","white","no","yes","576","legacy","56","56","3","/Users/theopitsiaeli/subject-5206342.csv","legacy","Lentiform Loewenfeld","3.3.7","yes","yes","600bd7cfb6416f0113b04181","602110864497cf011d9c0822","0","f","NA","space","space","j","space","f","658","NA","23327","27928","2926","36540","658","2","legacy","1024","2","48000","-16","task","5206342","even","NA","52314","77645","54317","227286","3913","34778","31852","227789","178374","227284","227789","227225","77645","228448","47276","226725","3906","165559","Lexical Decision Task","54","60030","61","yes","1024"
"2.979548375","8.71","4","soup","word","88.70967741935483","88.70967741935483","977.258064516129","977.258064516129","black","no","legacy","legacy","legacy","0","uniform","1","undefined","undefined","undefined","1","j","0","0","0","0","61","0","0","0","61","0","57","61","57","0","57","3","61","0","61","Thu Feb 18 15:09:12 2021","The main experiment item","yes","Lexical_Decision_Task.osexp","/Users/theopitsiaeli","no","Andale Mono","no","18","no","white","no","yes","576","legacy","57","57","3","/Users/theopitsiaeli/subject-5206342.csv","legacy","Lentiform Loewenfeld","3.3.7","yes","yes","600bd7cfb6416f0113b04181","602110864497cf011d9c0822","0","j","NA","space","space","j","space","j","560","NA","23327","27928","2926","36540","560","2","legacy","1024","2","48000","-16","task","5206342","even","NA","52314","77645","54317","229011","3913","34778","31852","229514","178374","229008","229514","228950","77645","230074","47276","228450","3906","165559","Lexical Decision Task","55","60590","62","yes","1024"
"3.133964479","0","8","graw","non-word","88.88888888888889","88.88888888888889","973.8412698412699","973.8412698412699","black","no","legacy","legacy","legacy","0","uniform","1","undefined","undefined","undefined","1","f","0","0","0","0","62","0","0","0","62","0","58","62","58","0","58","3","62","0","62","Thu Feb 18 15:09:12 2021","The main experiment item","yes","Lexical_Decision_Task.osexp","/Users/theopitsiaeli","no","Andale Mono","no","18","no","white","no","yes","576","legacy","58","58","3","/Users/theopitsiaeli/subject-5206342.csv","legacy","Lentiform Loewenfeld","3.3.7","yes","yes","600bd7cfb6416f0113b04181","602110864497cf011d9c0822","0","f","NA","space","space","j","space","f","762","NA","23327","27928","2926","36540","762","2","legacy","1024","2","48000","-16","task","5206342","even","NA","52314","77645","54317","230640","3913","34778","31852","231143","178374","230637","231143","230578","77645","231906","47276","230078","3906","165559","Lexical Decision Task","56","61352","63","yes","1024"
"2.755364069","7.72","2","hoax","word","89.0625","89.0625","970.40625","970.40625","black","no","legacy","legacy","legacy","0","uniform","1","undefined","undefined","undefined","1","j","0","0","0","0","63","0","0","0","63","0","59","63","59","0","59","3","63","0","63","Thu Feb 18 15:09:12 2021","The main experiment item","yes","Lexical_Decision_Task.osexp","/Users/theopitsiaeli","no","Andale Mono","no","18","no","white","no","yes","576","legacy","59","59","3","/Users/theopitsiaeli/subject-5206342.csv","legacy","Lentiform Loewenfeld","3.3.7","yes","yes","600bd7cfb6416f0113b04181","602110864497cf011d9c0822","0","j","NA","space","space","j","space","j","754","NA","23327","27928","2926","36540","754","2","legacy","1024","2","48000","-16","task","5206342","even","NA","52314","77645","54317","232471","3913","34778","31852","232974","178374","232468","232974","232409","77645","233729","47276","231909","3906","165559","Lexical Decision Task","57","62106","64","yes","1024"
"3.066077331","0","7","vorn","non-word","89.23076923076923","89.23076923076923","967.8","967.8","black","no","legacy","legacy","legacy","0","uniform","1","undefined","undefined","undefined","1","f","0","0","0","0","64","0","0","0","64","0","60","64","60","0","60","3","64","0","64","Thu Feb 18 15:09:12 2021","The main experiment item","yes","Lexical_Decision_Task.osexp","/Users/theopitsiaeli","no","Andale Mono","no","18","no","white","no","yes","576","legacy","60","60","3","/Users/theopitsiaeli/subject-5206342.csv","legacy","Lentiform Loewenfeld","3.3.7","yes","yes","600bd7cfb6416f0113b04181","602110864497cf011d9c0822","0","f","NA","space","space","j","space","f","801","NA","23327","27928","2926","36540","801","2","legacy","1024","2","48000","-16","task","5206342","even","NA","52314","77645","54317","234292","3913","34778","31852","234795","178374","234289","234795","234231","77645","235596","47276","233731","3906","165559","Lexical Decision Task","58","62907","65","yes","1024"
"3.353210739","0","9","reet","non-word","89.39393939393939","89.39393939393939","966.6212121212121","966.6212121212121","black","no","legacy","legacy","legacy","0","uniform","1","undefined","undefined","undefined","1","f","0","0","0","0","65","0","0","0","65","0","61","65","61","0","61","3","65","0","65","Thu Feb 18 15:09:12 2021","The main experiment item","yes","Lexical_Decision_Task.osexp","/Users/theopitsiaeli","no","Andale Mono","no","18","no","white","no","yes","576","legacy","61","61","3","/Users/theopitsiaeli/subject-5206342.csv","legacy","Lentiform Loewenfeld","3.3.7","yes","yes","600bd7cfb6416f0113b04181","602110864497cf011d9c0822","0","f","NA","space","space","j","space","f","890","NA","23327","27928","2926","36540","890","2","legacy","1024","2","48000","-16","task","5206342","even","NA","52314","77645","54317","236160","3913","34778","31852","236663","178374","236158","236664","236099","77645","237554","47276","235599","3906","165559","Lexical Decision Task","59","63797","66","yes","1024"
"3.216517684","10.87","3","film","word","89.55223880597015","89.55223880597015","960.2089552238806","960.2089552238806","black","no","legacy","legacy","legacy","0","uniform","1","undefined","undefined","undefined","1","j","0","0","0","0","66","0","0","0","66","0","62","66","62","0","62","3","66","0","66","Thu Feb 18 15:09:12 2021","The main experiment item","yes","Lexical_Decision_Task.osexp","/Users/theopitsiaeli","no","Andale Mono","no","18","no","white","no","yes","576","legacy","62","62","3","/Users/theopitsiaeli/subject-5206342.csv","legacy","Lentiform Loewenfeld","3.3.7","yes","yes","600bd7cfb6416f0113b04181","602110864497cf011d9c0822","0","j","NA","space","space","j","space","j","537","NA","23327","27928","2926","36540","537","2","legacy","1024","2","48000","-16","task","5206342","even","NA","52314","77645","54317","238118","3913","34778","31852","238621","178374","238115","238621","238057","77645","239159","47276","237557","3906","165559","Lexical Decision Task","60","64334","67","yes","1024"
"2.897810299","0","5","glur","non-word","89.70588235294117","89.70588235294117","957.6764705882352","957.6764705882352","black","no","legacy","legacy","legacy","0","uniform","1","undefined","undefined","undefined","1","f","0","0","0","0","67","0","0","0","67","0","63","67","63","0","63","3","67","0","67","Thu Feb 18 15:09:12 2021","The main experiment item","yes","Lexical_Decision_Task.osexp","/Users/theopitsiaeli","no","Andale Mono","no","18","no","white","no","yes","576","legacy","63","63","3","/Users/theopitsiaeli/subject-5206342.csv","legacy","Lentiform Loewenfeld","3.3.7","yes","yes","600bd7cfb6416f0113b04181","602110864497cf011d9c0822","0","f","NA","space","space","j","space","f","788","NA","23327","27928","2926","36540","788","2","legacy","1024","2","48000","-16","task","5206342","even","NA","52314","77645","54317","239725","3913","34778","31852","240228","178374","239722","240228","239663","77645","241017","47276","239162","3906","165559","Lexical Decision Task","61","65122","68","yes","1024"
"2.64476673","0","5","moft","non-word","89.85507246376811","89.85507246376811","953.1304347826087","953.1304347826087","black","no","legacy","legacy","legacy","0","uniform","1","undefined","undefined","undefined","1","f","0","0","0","0","68","0","0","0","68","0","64","68","64","0","64","3","68","0","68","Thu Feb 18 15:09:12 2021","The main experiment item","yes","Lexical_Decision_Task.osexp","/Users/theopitsiaeli","no","Andale Mono","no","18","no","white","no","yes","576","legacy","64","64","3","/Users/theopitsiaeli/subject-5206342.csv","legacy","Lentiform Loewenfeld","3.3.7","yes","yes","600bd7cfb6416f0113b04181","602110864497cf011d9c0822","0","f","NA","space","space","j","space","f","644","NA","23327","27928","2926","36540","644","2","legacy","1024","2","48000","-16","task","5206342","even","NA","52314","77645","54317","241582","3913","34778","31852","242085","178374","241579","242085","241520","77645","242730","47276","241020","3906","165559","Lexical Decision Task","62","65766","69","yes","1024"
"2.75025376","10.2","6","jump","word","90","90","948","948","black","no","legacy","legacy","legacy","0","uniform","1","undefined","undefined","undefined","1","j","0","0","0","0","69","0","0","0","69","0","65","69","65","0","65","3","69","0","69","Thu Feb 18 15:09:12 2021","The main experiment item","yes","Lexical_Decision_Task.osexp","/Users/theopitsiaeli","no","Andale Mono","no","18","no","white","no","yes","576","legacy","65","65","3","/Users/theopitsiaeli/subject-5206342.csv","legacy","Lentiform Loewenfeld","3.3.7","yes","yes","600bd7cfb6416f0113b04181","602110864497cf011d9c0822","0","j","NA","space","space","j","space","j","594","NA","23327","27928","2926","36540","594","2","legacy","1024","2","48000","-16","task","5206342","even","NA","52314","77645","54317","243294","3913","34778","31852","243797","178374","243291","243797","243233","77645","244392","47276","242733","3906","165559","Lexical Decision Task","63","66360","70","yes","1024"
"2.821076612","0","4","lult","non-word","90.14084507042253","90.14084507042253","943.4084507042254","943.4084507042254","black","no","legacy","legacy","legacy","0","uniform","1","undefined","undefined","undefined","1","f","0","0","0","0","70","0","0","0","70","0","66","70","66","0","66","3","70","0","70","Thu Feb 18 15:09:12 2021","The main experiment item","yes","Lexical_Decision_Task.osexp","/Users/theopitsiaeli","no","Andale Mono","no","18","no","white","no","yes","576","legacy","66","66","3","/Users/theopitsiaeli/subject-5206342.csv","legacy","Lentiform Loewenfeld","3.3.7","yes","yes","600bd7cfb6416f0113b04181","602110864497cf011d9c0822","0","f","NA","space","space","j","space","f","622","NA","23327","27928","2926","36540","622","2","legacy","1024","2","48000","-16","task","5206342","even","NA","52314","77645","54317","244957","3913","34778","31852","245460","178374","244953","245460","244895","77645","246083","47276","244395","3906","165559","Lexical Decision Task","64","66982","71","yes","1024"
"3.159867847","5.98","5","brim","word","88.88888888888889","88.88888888888889","940.8194444444445","940.8194444444445","black","no","legacy","legacy","legacy","0","uniform","0","undefined","undefined","undefined","0","j","0","0","0","0","71","0","0","0","71","0","67","71","67","0","67","3","71","0","71","Thu Feb 18 15:09:12 2021","The main experiment item","yes","Lexical_Decision_Task.osexp","/Users/theopitsiaeli","no","Andale Mono","no","18","no","white","no","yes","576","legacy","67","67","3","/Users/theopitsiaeli/subject-5206342.csv","legacy","Lentiform Loewenfeld","3.3.7","yes","yes","600bd7cfb6416f0113b04181","602110864497cf011d9c0822","0","f","NA","space","space","j","space","f","757","NA","23327","27928","2926","36540","757","2","legacy","1024","2","48000","-16","task","5206342","even","NA","52314","77645","54317","246648","3913","34778","31852","247151","178374","246645","247151","246586","77645","247909","47276","246086","3906","165559","Lexical Decision Task","64","67739","72","yes","1024"
"3.149629599","0","2","cleb","non-word","89.04109589041096","89.04109589041096","937.8493150684932","937.8493150684932","black","no","legacy","legacy","legacy","0","uniform","1","undefined","undefined","undefined","1","f","0","0","0","0","72","0","0","0","72","0","68","72","68","0","68","3","72","0","72","Thu Feb 18 15:09:12 2021","The main experiment item","yes","Lexical_Decision_Task.osexp","/Users/theopitsiaeli","no","Andale Mono","no","18","no","white","no","yes","576","legacy","68","68","3","/Users/theopitsiaeli/subject-5206342.csv","legacy","Lentiform Loewenfeld","3.3.7","yes","yes","600bd7cfb6416f0113b04181","602110864497cf011d9c0822","0","f","NA","space","space","j","space","f","724","NA","23327","27928","2926","36540","724","2","legacy","1024","2","48000","-16","task","5206342","even","NA","52314","77645","54317","249478","3913","34778","31852","249981","178374","249475","249981","249412","77645","250706","47276","246086","3906","247912","Lexical Decision Task","65","68463","73","yes","1024"
"2.980306438","0","7","slun","non-word","89.1891891891892","89.1891891891892","935.5135135135135","935.5135135135135","black","no","legacy","legacy","legacy","0","uniform","1","undefined","undefined","undefined","1","f","0","0","0","0","73","0","0","0","73","0","69","73","69","0","69","3","73","0","73","Thu Feb 18 15:09:12 2021","The main experiment item","yes","Lexical_Decision_Task.osexp","/Users/theopitsiaeli","no","Andale Mono","no","18","no","white","no","yes","576","legacy","69","69","3","/Users/theopitsiaeli/subject-5206342.csv","legacy","Lentiform Loewenfeld","3.3.7","yes","yes","600bd7cfb6416f0113b04181","602110864497cf011d9c0822","0","f","NA","space","space","j","space","f","765","NA","23327","27928","2926","36540","765","2","legacy","1024","2","48000","-16","task","5206342","even","NA","52314","77645","54317","251270","3913","34778","31852","251773","178374","251267","251773","251209","77645","252539","47276","250709","3906","247912","Lexical Decision Task","66","69228","74","yes","1024"
"3.174641193","0","3","ramb","non-word","88","88","932.72","932.72","black","no","legacy","legacy","legacy","0","uniform","0","undefined","undefined","undefined","0","f","0","0","0","0","74","0","0","0","74","0","70","74","70","0","70","3","74","0","74","Thu Feb 18 15:09:12 2021","The main experiment item","yes","Lexical_Decision_Task.osexp","/Users/theopitsiaeli","no","Andale Mono","no","18","no","white","no","yes","576","legacy","70","70","3","/Users/theopitsiaeli/subject-5206342.csv","legacy","Lentiform Loewenfeld","3.3.7","yes","yes","600bd7cfb6416f0113b04181","602110864497cf011d9c0822","0","j","NA","space","space","j","space","j","726","NA","23327","27928","2926","36540","726","2","legacy","1024","2","48000","-16","task","5206342","even","NA","52314","77645","54317","253103","3913","34778","31852","253606","178374","253100","253606","253042","77645","254333","47276","252542","3906","247912","Lexical Decision Task","66","69954","75","yes","1024"
"3.488597715","0","9","nain","non-word","88.15789473684211","88.15789473684211","930.2631578947369","930.2631578947369","black","no","legacy","legacy","legacy","0","uniform","1","undefined","undefined","undefined","1","f","0","0","0","0","75","0","0","0","75","0","71","75","71","0","71","3","75","0","75","Thu Feb 18 15:09:12 2021","The main experiment item","yes","Lexical_Decision_Task.osexp","/Users/theopitsiaeli","no","Andale Mono","no","18","no","white","no","yes","576","legacy","71","71","3","/Users/theopitsiaeli/subject-5206342.csv","legacy","Lentiform Loewenfeld","3.3.7","yes","yes","600bd7cfb6416f0113b04181","602110864497cf011d9c0822","0","f","NA","space","space","j","space","f","746","NA","23327","27928","2926","36540","746","2","legacy","1024","2","48000","-16","task","5206342","even","NA","52314","77645","54317","255900","3913","34778","31852","256403","178374","255897","256404","255836","77645","257151","47276","252542","3906","254336","Lexical Decision Task","67","70700","76","yes","1024"
"3.311895072","0","9","gung","non-word","88.31168831168831","88.31168831168831","928.1948051948052","928.1948051948052","black","no","legacy","legacy","legacy","0","uniform","1","undefined","undefined","undefined","1","f","0","0","0","0","76","0","0","0","76","0","72","76","72","0","72","3","76","0","76","Thu Feb 18 15:09:12 2021","The main experiment item","yes","Lexical_Decision_Task.osexp","/Users/theopitsiaeli","no","Andale Mono","no","18","no","white","no","yes","576","legacy","72","72","3","/Users/theopitsiaeli/subject-5206342.csv","legacy","Lentiform Loewenfeld","3.3.7","yes","yes","600bd7cfb6416f0113b04181","602110864497cf011d9c0822","0","f","NA","space","space","j","space","f","771","NA","23327","27928","2926","36540","771","2","legacy","1024","2","48000","-16","task","5206342","even","NA","52314","77645","54317","257716","3913","34778","31852","258219","178374","257713","258219","257654","77645","258991","47276","257154","3906","254336","Lexical Decision Task","68","71471","77","yes","1024"
"2.616654026","9.37","5","gift","word","88.46153846153847","88.46153846153847","924.6282051282051","924.6282051282051","black","no","legacy","legacy","legacy","0","uniform","1","undefined","undefined","undefined","1","j","0","0","0","0","77","0","0","0","77","0","73","77","73","0","73","3","77","0","77","Thu Feb 18 15:09:12 2021","The main experiment item","yes","Lexical_Decision_Task.osexp","/Users/theopitsiaeli","no","Andale Mono","no","18","no","white","no","yes","576","legacy","73","73","3","/Users/theopitsiaeli/subject-5206342.csv","legacy","Lentiform Loewenfeld","3.3.7","yes","yes","600bd7cfb6416f0113b04181","602110864497cf011d9c0822","0","j","NA","space","space","j","space","j","650","NA","23327","27928","2926","36540","650","2","legacy","1024","2","48000","-16","task","5206342","even","NA","52314","77645","54317","259557","3913","34778","31852","260061","178374","259554","260061","259494","77645","260712","47276","258994","3906","254336","Lexical Decision Task","69","72121","78","yes","1024"
"3.299579929","0","2","flis","non-word","88.60759493670886","88.60759493670886","922.7341772151899","922.7341772151899","black","no","legacy","legacy","legacy","0","uniform","1","undefined","undefined","undefined","1","f","0","0","0","0","78","0","0","0","78","0","74","78","74","0","74","3","78","0","78","Thu Feb 18 15:09:12 2021","The main experiment item","yes","Lexical_Decision_Task.osexp","/Users/theopitsiaeli","no","Andale Mono","no","18","no","white","no","yes","576","legacy","74","74","3","/Users/theopitsiaeli/subject-5206342.csv","legacy","Lentiform Loewenfeld","3.3.7","yes","yes","600bd7cfb6416f0113b04181","602110864497cf011d9c0822","0","f","NA","space","space","j","space","f","775","NA","23327","27928","2926","36540","775","2","legacy","1024","2","48000","-16","task","5206342","even","NA","52314","77645","54317","261277","3913","34778","31852","261781","178374","261274","261781","261215","77645","262557","47276","260715","3906","254336","Lexical Decision Task","70","72896","79","yes","1024"
"2.696644658","5.78","2","yolk","word","88.75","88.75","922.4875","922.4875","black","no","legacy","legacy","legacy","0","uniform","1","undefined","undefined","undefined","1","j","0","0","0","0","79","0","0","0","79","0","75","79","75","0","75","3","79","0","79","Thu Feb 18 15:09:12 2021","The main experiment item","yes","Lexical_Decision_Task.osexp","/Users/theopitsiaeli","no","Andale Mono","no","18","no","white","no","yes","576","legacy","75","75","3","/Users/theopitsiaeli/subject-5206342.csv","legacy","Lentiform Loewenfeld","3.3.7","yes","yes","600bd7cfb6416f0113b04181","602110864497cf011d9c0822","0","j","NA","space","space","j","space","j","903","NA","23327","27928","2926","36540","903","2","legacy","1024","2","48000","-16","task","5206342","even","NA","52314","77645","54317","263122","3913","34778","31852","263625","178374","263120","263625","263060","77645","264528","47276","262560","3906","254336","Lexical Decision Task","71","73799","80","yes","1024"
"3.145920145","8.51","8","flew","word","88.88888888888889","88.88888888888889","919.4444444444445","919.4444444444445","black","no","legacy","legacy","legacy","0","uniform","1","undefined","undefined","undefined","1","j","0","0","0","0","80","0","0","0","80","0","76","80","76","0","76","3","80","0","80","Thu Feb 18 15:09:12 2021","The main experiment item","yes","Lexical_Decision_Task.osexp","/Users/theopitsiaeli","no","Andale Mono","no","18","no","white","no","yes","576","legacy","76","76","3","/Users/theopitsiaeli/subject-5206342.csv","legacy","Lentiform Loewenfeld","3.3.7","yes","yes","600bd7cfb6416f0113b04181","602110864497cf011d9c0822","0","j","NA","space","space","j","space","j","676","NA","23327","27928","2926","36540","676","2","legacy","1024","2","48000","-16","task","5206342","even","NA","52314","77645","54317","265094","3913","34778","31852","265597","178374","265090","265598","265032","77645","266275","47276","264532","3906","254336","Lexical Decision Task","72","74475","81","yes","1024"
"2.893578687","8.69","3","surf","word","89.02439024390245","89.02439024390245","916.0731707317074","916.0731707317074","black","no","legacy","legacy","legacy","0","uniform","1","undefined","undefined","undefined","1","j","0","0","0","0","81","0","0","0","81","0","77","81","77","0","77","3","81","0","81","Thu Feb 18 15:09:12 2021","The main experiment item","yes","Lexical_Decision_Task.osexp","/Users/theopitsiaeli","no","Andale Mono","no","18","no","white","no","yes","576","legacy","77","77","3","/Users/theopitsiaeli/subject-5206342.csv","legacy","Lentiform Loewenfeld","3.3.7","yes","yes","600bd7cfb6416f0113b04181","602110864497cf011d9c0822","0","j","NA","space","space","j","space","j","643","NA","23327","27928","2926","36540","643","2","legacy","1024","2","48000","-16","task","5206342","even","NA","52314","77645","54317","266839","3913","34778","31852","267342","178374","266836","267342","266778","77645","267986","47276","266278","3906","254336","Lexical Decision Task","73","75118","82","yes","1024"
"2.803231716","5.26","3","kiln","word","87.95180722891567","87.95180722891567","913.0722891566265","913.0722891566265","black","no","legacy","legacy","legacy","0","uniform","0","undefined","undefined","undefined","0","j","0","0","0","0","82","0","0","0","82","0","78","82","78","0","78","3","82","0","82","Thu Feb 18 15:09:12 2021","The main experiment item","yes","Lexical_Decision_Task.osexp","/Users/theopitsiaeli","no","Andale Mono","no","18","no","white","no","yes","576","legacy","78","78","3","/Users/theopitsiaeli/subject-5206342.csv","legacy","Lentiform Loewenfeld","3.3.7","yes","yes","600bd7cfb6416f0113b04181","602110864497cf011d9c0822","0","f","NA","space","space","j","space","f","667","NA","23327","27928","2926","36540","667","2","legacy","1024","2","48000","-16","task","5206342","even","NA","52314","77645","54317","268548","3913","34778","31852","269055","178374","268545","269055","268490","77645","269723","47276","267990","3906","254336","Lexical Decision Task","73","75785","83","yes","1024"
"2.695770526","7.34","6","pawn","word","88.0952380952381","88.0952380952381","910.4404761904761","910.4404761904761","black","no","legacy","legacy","legacy","0","uniform","1","undefined","undefined","undefined","1","j","0","0","0","0","83","0","0","0","83","0","79","83","79","0","79","3","83","0","83","Thu Feb 18 15:09:12 2021","The main experiment item","yes","Lexical_Decision_Task.osexp","/Users/theopitsiaeli","no","Andale Mono","no","18","no","white","no","yes","576","legacy","79","79","3","/Users/theopitsiaeli/subject-5206342.csv","legacy","Lentiform Loewenfeld","3.3.7","yes","yes","600bd7cfb6416f0113b04181","602110864497cf011d9c0822","0","j","NA","space","space","j","space","j","692","NA","23327","27928","2926","36540","692","2","legacy","1024","2","48000","-16","task","5206342","even","NA","52314","77645","54317","271291","3913","34778","31852","271794","178374","271288","271794","271226","77645","272487","47276","267990","3906","269726","Lexical Decision Task","74","76477","84","yes","1024"
"3.067070856","9.39","3","loud","word","88.23529411764706","88.23529411764706","907.2117647058824","907.2117647058824","black","no","legacy","legacy","legacy","0","uniform","1","undefined","undefined","undefined","1","j","0","0","0","0","84","0","0","0","84","0","80","84","80","0","80","3","84","0","84","Thu Feb 18 15:09:12 2021","The main experiment item","yes","Lexical_Decision_Task.osexp","/Users/theopitsiaeli","no","Andale Mono","no","18","no","white","no","yes","576","legacy","80","80","3","/Users/theopitsiaeli/subject-5206342.csv","legacy","Lentiform Loewenfeld","3.3.7","yes","yes","600bd7cfb6416f0113b04181","602110864497cf011d9c0822","0","j","NA","space","space","j","space","j","636","NA","23327","27928","2926","36540","636","2","legacy","1024","2","48000","-16","task","5206342","even","NA","52314","77645","54317","273052","3913","34778","31852","273557","178374","273050","273557","272991","77645","274194","47276","272491","3906","269726","Lexical Decision Task","75","77113","85","yes","1024"
"3.088136089","8.32","9","worm","word","88.37209302325581","88.37209302325581","902.9186046511628","902.9186046511628","black","no","legacy","legacy","legacy","0","uniform","1","undefined","undefined","undefined","1","j","0","0","0","0","85","0","0","0","85","0","81","85","81","0","81","3","85","0","85","Thu Feb 18 15:09:12 2021","The main experiment item","yes","Lexical_Decision_Task.osexp","/Users/theopitsiaeli","no","Andale Mono","no","18","no","white","no","yes","576","legacy","81","81","3","/Users/theopitsiaeli/subject-5206342.csv","legacy","Lentiform Loewenfeld","3.3.7","yes","yes","600bd7cfb6416f0113b04181","602110864497cf011d9c0822","0","j","NA","space","space","j","space","j","538","NA","23327","27928","2926","36540","538","2","legacy","1024","2","48000","-16","task","5206342","even","NA","52314","77645","54317","274761","3913","34778","31852","275265","178374","274757","275265","274697","77645","275804","47276","274197","3906","269726","Lexical Decision Task","76","77651","86","yes","1024"
"3.197740804","6.74","3","ache","word","88.50574712643679","88.50574712643679","899.8275862068965","899.8275862068965","black","no","legacy","legacy","legacy","0","uniform","1","undefined","undefined","undefined","1","j","0","0","0","0","86","0","0","0","86","0","82","86","82","0","82","3","86","0","86","Thu Feb 18 15:09:12 2021","The main experiment item","yes","Lexical_Decision_Task.osexp","/Users/theopitsiaeli","no","Andale Mono","no","18","no","white","no","yes","576","legacy","82","82","3","/Users/theopitsiaeli/subject-5206342.csv","legacy","Lentiform Loewenfeld","3.3.7","yes","yes","600bd7cfb6416f0113b04181","602110864497cf011d9c0822","0","j","NA","space","space","j","space","j","634","NA","23327","27928","2926","36540","634","2","legacy","1024","2","48000","-16","task","5206342","even","NA","52314","77645","54317","276371","3913","34778","31852","276875","178374","276366","276875","276307","77645","277510","47276","275807","3906","269726","Lexical Decision Task","77","78285","87","yes","1024"
"3.225825991","0","7","talm","non-word","88.63636363636364","88.63636363636364","899.4318181818181","899.4318181818181","black","no","legacy","legacy","legacy","0","uniform","1","undefined","undefined","undefined","1","f","0","0","0","0","87","0","0","0","87","0","83","87","83","0","83","3","87","0","87","Thu Feb 18 15:09:12 2021","The main experiment item","yes","Lexical_Decision_Task.osexp","/Users/theopitsiaeli","no","Andale Mono","no","18","no","white","no","yes","576","legacy","83","83","3","/Users/theopitsiaeli/subject-5206342.csv","legacy","Lentiform Loewenfeld","3.3.7","yes","yes","600bd7cfb6416f0113b04181","602110864497cf011d9c0822","0","f","NA","space","space","j","space","f","865","NA","23327","27928","2926","36540","865","2","legacy","1024","2","48000","-16","task","5206342","even","NA","52314","77645","54317","278075","3913","34778","31852","278578","178374","278072","278578","278013","77645","279444","47276","277513","3906","269726","Lexical Decision Task","78","79150","88","yes","1024"
"3.481012421","8.34","5","teen","word","88.76404494382022","88.76404494382022","895.4606741573034","895.4606741573034","black","no","legacy","legacy","legacy","0","uniform","1","undefined","undefined","undefined","1","j","0","0","0","0","88","0","0","0","88","0","84","88","84","0","84","3","88","0","88","Thu Feb 18 15:09:12 2021","The main experiment item","yes","Lexical_Decision_Task.osexp","/Users/theopitsiaeli","no","Andale Mono","no","18","no","white","no","yes","576","legacy","84","84","3","/Users/theopitsiaeli/subject-5206342.csv","legacy","Lentiform Loewenfeld","3.3.7","yes","yes","600bd7cfb6416f0113b04181","602110864497cf011d9c0822","0","j","NA","space","space","j","space","j","546","NA","23327","27928","2926","36540","546","2","legacy","1024","2","48000","-16","task","5206342","even","NA","52314","77645","54317","280008","3913","34778","31852","280511","178374","280005","280511","279947","77645","281058","47276","279447","3906","269726","Lexical Decision Task","79","79696","89","yes","1024"
"2.898725182","0","7","turl","non-word","87.77777777777777","87.77777777777777","904.4333333333333","904.4333333333333","black","no","legacy","legacy","legacy","0","uniform","0","undefined","undefined","undefined","0","f","0","0","0","0","89","0","0","0","89","0","85","89","85","0","85","3","89","0","89","Thu Feb 18 15:09:12 2021","The main experiment item","yes","Lexical_Decision_Task.osexp","/Users/theopitsiaeli","no","Andale Mono","no","18","no","white","no","yes","576","legacy","85","85","3","/Users/theopitsiaeli/subject-5206342.csv","legacy","Lentiform Loewenfeld","3.3.7","yes","yes","600bd7cfb6416f0113b04181","602110864497cf011d9c0822","0","j","NA","space","space","j","space","j","1703","NA","23327","27928","2926","36540","1703","2","legacy","1024","2","48000","-16","task","5206342","even","NA","52314","77645","54317","281628","3913","34778","31852","282131","178374","281625","282131","281562","77645","283835","47276","281062","3906","269726","Lexical Decision Task","79","81399","90","yes","1024"
"2.695481676","0","7","goke","non-word","87.91208791208791","87.91208791208791","903","903","black","no","legacy","legacy","legacy","0","uniform","1","undefined","undefined","undefined","1","f","0","0","0","0","90","0","0","0","90","0","86","90","86","0","86","3","90","0","90","Thu Feb 18 15:09:12 2021","The main experiment item","yes","Lexical_Decision_Task.osexp","/Users/theopitsiaeli","no","Andale Mono","no","18","no","white","no","yes","576","legacy","86","86","3","/Users/theopitsiaeli/subject-5206342.csv","legacy","Lentiform Loewenfeld","3.3.7","yes","yes","600bd7cfb6416f0113b04181","602110864497cf011d9c0822","0","f","NA","space","space","j","space","f","774","NA","23327","27928","2926","36540","774","2","legacy","1024","2","48000","-16","task","5206342","even","NA","52314","77645","54317","285404","3913","34778","31852","285908","178374","285400","285908","285338","77645","286683","47276","281062","3906","283838","Lexical Decision Task","80","82173","91","yes","1024"
"2.990042563","6.64","9","plow","word","86.95652173913044","86.95652173913044","908.9782608695652","908.9782608695652","black","no","legacy","legacy","legacy","0","uniform","0","undefined","undefined","undefined","0","j","0","0","0","0","91","0","0","0","91","0","87","91","87","0","87","3","91","0","91","Thu Feb 18 15:09:12 2021","The main experiment item","yes","Lexical_Decision_Task.osexp","/Users/theopitsiaeli","no","Andale Mono","no","18","no","white","no","yes","576","legacy","87","87","3","/Users/theopitsiaeli/subject-5206342.csv","legacy","Lentiform Loewenfeld","3.3.7","yes","yes","600bd7cfb6416f0113b04181","602110864497cf011d9c0822","0","f","NA","space","space","j","space","f","1453","NA","23327","27928","2926","36540","1453","2","legacy","1024","2","48000","-16","task","5206342","even","NA","52314","77645","54317","287247","3913","34778","31852","287750","178374","287244","287750","287187","77645","289204","47276","286687","3906","283838","Lexical Decision Task","80","83626","92","yes","1024"
"3.091901331","0","9","nipe","non-word","87.09677419354838","87.09677419354838","908.3978494623656","908.3978494623656","black","no","legacy","legacy","legacy","0","uniform","1","undefined","undefined","undefined","1","f","0","0","0","0","92","0","0","0","92","0","88","92","88","0","88","3","92","0","92","Thu Feb 18 15:09:12 2021","The main experiment item","yes","Lexical_Decision_Task.osexp","/Users/theopitsiaeli","no","Andale Mono","no","18","no","white","no","yes","576","legacy","88","88","3","/Users/theopitsiaeli/subject-5206342.csv","legacy","Lentiform Loewenfeld","3.3.7","yes","yes","600bd7cfb6416f0113b04181","602110864497cf011d9c0822","0","f","NA","space","space","j","space","f","855","NA","23327","27928","2926","36540","855","2","legacy","1024","2","48000","-16","task","5206342","even","NA","52314","77645","54317","290771","3913","34778","31852","291275","178374","290768","291275","290707","77645","292131","47276","286687","3906","289207","Lexical Decision Task","81","84481","93","yes","1024"
"3.316948329","0","1","besc","non-word","87.23404255319149","87.23404255319149","908.7021276595744","908.7021276595744","black","no","legacy","legacy","legacy","0","uniform","1","undefined","undefined","undefined","1","f","0","0","0","0","93","0","0","0","93","0","89","93","89","0","89","3","93","0","93","Thu Feb 18 15:09:12 2021","The main experiment item","yes","Lexical_Decision_Task.osexp","/Users/theopitsiaeli","no","Andale Mono","no","18","no","white","no","yes","576","legacy","89","89","3","/Users/theopitsiaeli/subject-5206342.csv","legacy","Lentiform Loewenfeld","3.3.7","yes","yes","600bd7cfb6416f0113b04181","602110864497cf011d9c0822","0","f","NA","space","space","j","space","f","937","NA","23327","27928","2926","36540","937","2","legacy","1024","2","48000","-16","task","5206342","even","NA","52314","77645","54317","292695","3913","34778","31852","293200","178374","292693","293200","292634","77645","294138","47276","292134","3906","289207","Lexical Decision Task","82","85418","94","yes","1024"
"2.868644438","10.52","4","town","word","87.36842105263158","87.36842105263158","903.8421052631579","903.8421052631579","black","no","legacy","legacy","legacy","0","uniform","1","undefined","undefined","undefined","1","j","0","0","0","0","94","0","0","0","94","0","90","94","90","0","90","3","94","0","94","Thu Feb 18 15:09:12 2021","The main experiment item","yes","Lexical_Decision_Task.osexp","/Users/theopitsiaeli","no","Andale Mono","no","18","no","white","no","yes","576","legacy","90","90","3","/Users/theopitsiaeli/subject-5206342.csv","legacy","Lentiform Loewenfeld","3.3.7","yes","yes","600bd7cfb6416f0113b04181","602110864497cf011d9c0822","0","j","NA","space","space","j","space","j","447","NA","23327","27928","2926","36540","447","2","legacy","1024","2","48000","-16","task","5206342","even","NA","52314","77645","54317","294702","3913","34778","31852","295206","178374","294699","295206","294641","77645","295654","47276","294141","3906","289207","Lexical Decision Task","83","85865","95","yes","1024"
"2.953276337","6.32","4","thaw","word","87.5","87.5","904.125","904.125","black","no","legacy","legacy","legacy","0","uniform","1","undefined","undefined","undefined","1","j","0","0","0","0","95","0","0","0","95","0","91","95","91","0","91","3","95","0","95","Thu Feb 18 15:09:12 2021","The main experiment item","yes","Lexical_Decision_Task.osexp","/Users/theopitsiaeli","no","Andale Mono","no","18","no","white","no","yes","576","legacy","91","91","3","/Users/theopitsiaeli/subject-5206342.csv","legacy","Lentiform Loewenfeld","3.3.7","yes","yes","600bd7cfb6416f0113b04181","602110864497cf011d9c0822","0","j","NA","space","space","j","space","j","931","NA","23327","27928","2926","36540","931","2","legacy","1024","2","48000","-16","task","5206342","even","NA","52314","77645","54317","296219","3913","34778","31852","296723","178374","296216","296723","296157","77645","297655","47276","295657","3906","289207","Lexical Decision Task","84","86796","96","yes","1024"
"2.983324025","9.56","2","debt","word","87.62886597938144","87.62886597938144","901.3711340206186","901.3711340206186","black","no","legacy","legacy","legacy","0","uniform","1","undefined","undefined","undefined","1","j","0","0","0","0","96","0","0","0","96","0","92","96","92","0","92","3","96","0","96","Thu Feb 18 15:09:12 2021","The main experiment item","yes","Lexical_Decision_Task.osexp","/Users/theopitsiaeli","no","Andale Mono","no","18","no","white","no","yes","576","legacy","92","92","3","/Users/theopitsiaeli/subject-5206342.csv","legacy","Lentiform Loewenfeld","3.3.7","yes","yes","600bd7cfb6416f0113b04181","602110864497cf011d9c0822","0","j","NA","space","space","j","space","j","637","NA","23327","27928","2926","36540","637","2","legacy","1024","2","48000","-16","task","5206342","even","NA","52314","77645","54317","298220","3913","34778","31852","298724","178374","298217","298724","298159","77645","299362","47276","297659","3906","289207","Lexical Decision Task","85","87433","97","yes","1024"
"3.282244367","0","6","fute","non-word","87.75510204081633","87.75510204081633","901.530612244898","901.530612244898","black","no","legacy","legacy","legacy","0","uniform","1","undefined","undefined","undefined","1","f","0","0","0","0","97","0","0","0","97","0","93","97","93","0","93","3","97","0","97","Thu Feb 18 15:09:12 2021","The main experiment item","yes","Lexical_Decision_Task.osexp","/Users/theopitsiaeli","no","Andale Mono","no","18","no","white","no","yes","576","legacy","93","93","3","/Users/theopitsiaeli/subject-5206342.csv","legacy","Lentiform Loewenfeld","3.3.7","yes","yes","600bd7cfb6416f0113b04181","602110864497cf011d9c0822","0","f","NA","space","space","j","space","f","917","NA","23327","27928","2926","36540","917","2","legacy","1024","2","48000","-16","task","5206342","even","NA","52314","77645","54317","299928","3913","34778","31852","300432","178374","299925","300432","299866","77645","301350","47276","299366","3906","289207","Lexical Decision Task","86","88350","98","yes","1024"
"3.010582609","0","2","drod","non-word","87.87878787878788","87.87878787878788","899.8383838383838","899.8383838383838","black","no","legacy","legacy","legacy","0","uniform","1","undefined","undefined","undefined","1","f","0","0","0","0","98","0","0","0","98","0","94","98","94","0","94","3","98","0","98","Thu Feb 18 15:09:12 2021","The main experiment item","yes","Lexical_Decision_Task.osexp","/Users/theopitsiaeli","no","Andale Mono","no","18","no","white","no","yes","576","legacy","94","94","3","/Users/theopitsiaeli/subject-5206342.csv","legacy","Lentiform Loewenfeld","3.3.7","yes","yes","600bd7cfb6416f0113b04181","602110864497cf011d9c0822","0","f","NA","space","space","j","space","f","734","NA","23327","27928","2926","36540","734","2","legacy","1024","2","48000","-16","task","5206342","even","NA","52314","77645","54317","301915","3913","34778","31852","302419","178374","301912","302420","301854","77645","303155","47276","301353","3906","289207","Lexical Decision Task","87","89084","99","yes","1024"
"3.120025233","0","2","nyst","non-word","88","88","898.87","898.87","black","no","legacy","legacy","legacy","0","uniform","1","undefined","undefined","undefined","1","f","0","0","0","0","99","0","0","0","99","0","95","99","95","0","95","3","99","0","99","Thu Feb 18 15:09:12 2021","The main experiment item","yes","Lexical_Decision_Task.osexp","/Users/theopitsiaeli","no","Andale Mono","no","18","no","white","no","yes","576","legacy","95","95","3","/Users/theopitsiaeli/subject-5206342.csv","legacy","Lentiform Loewenfeld","3.3.7","yes","yes","600bd7cfb6416f0113b04181","602110864497cf011d9c0822","0","f","NA","space","space","j","space","f","803","NA","23327","27928","2926","36540","803","2","legacy","1024","2","48000","-16","task","5206342","even","NA","52314","77645","54317","303721","3913","34778","31852","304226","178374","303718","304226","303659","77645","305030","47276","303158","3906","289207","Lexical Decision Task","88","89887","100","yes","1024"
"3.374198258","0","8","vist","non-word","87.12871287128714","87.12871287128714","894.8613861386139","894.8613861386139","black","no","legacy","legacy","legacy","0","uniform","0","undefined","undefined","undefined","0","f","0","0","0","0","100","0","0","0","100","0","96","100","96","0","96","3","100","0","100","Thu Feb 18 15:09:12 2021","The main experiment item","yes","Lexical_Decision_Task.osexp","/Users/theopitsiaeli","no","Andale Mono","no","18","no","white","no","yes","576","legacy","96","96","3","/Users/theopitsiaeli/subject-5206342.csv","legacy","Lentiform Loewenfeld","3.3.7","yes","yes","600bd7cfb6416f0113b04181","602110864497cf011d9c0822","0","j","NA","space","space","j","space","j","494","NA","23327","27928","2926","36540","494","2","legacy","1024","2","48000","-16","task","5206342","even","NA","52314","77645","54317","305596","3913","34778","31852","306099","178374","305593","306099","305534","77645","306594","47276","305033","3906","289207","Lexical Decision Task","88","90381","101","yes","1024"
