"Log_BG","Log_Freq_HAL","Ortho_N","Stimulus","Type","acc","accuracy","average_response_time","avg_rt","background","bidi","canvas_backend","clock_backend","color_backend","compensation","coordinates","correct","correct_Experimental_intro","correct_Introduction","correct_Practice_intro","correct_experimenter_kb","correct_response","count_End_Of_Experiment","count_End_Of_Practice","count_Experimental_Loop","count_Experimental_intro","count_Fixation","count_Introduction","count_Practice_Loop","count_Practice_intro","count_Stimulus","count_block_break_feedback","count_experimental_sequence","count_experimenter_kb","count_increment_trial_count","count_init_trial_count","count_logger","count_practice_sequence","count_right","count_task","count_wrong","datetime","description","disable_garbage_collection","experiment_file","experiment_path","font_bold","font_family","font_italic","font_size","font_underline","foreground","form_clicks","fullscreen","height","keyboard_backend","live_row","live_row_Experimental_Loop","live_row_Practice_Loop","logfile","mouse_backend","opensesame_codename","opensesame_version","osf_always_upload_data","osf_always_upload_experiment","osf_datanode_id","osf_id","repeat_cycle","response","response_End_Of_Experiment","response_Experimental_intro","response_Introduction","response_Practice_intro","response_block_break_feedback","response_experimenter_kb","response_time","response_time_End_Of_Experiment","response_time_Experimental_intro","response_time_Introduction","response_time_Practice_intro","response_time_block_break_feedback","response_time_experimenter_kb","round_decimals","sampler_backend","sound_buf_size","sound_channels","sound_freq","sound_sample_size","start","subject_nr","subject_parity","time_End_Of_Experiment","time_End_Of_Practice","time_Experimental_Loop","time_Experimental_intro","time_Fixation","time_Introduction","time_Practice_Loop","time_Practice_intro","time_Stimulus","time_block_break_feedback","time_experimental_sequence","time_experimenter_kb","time_increment_trial_count","time_init_trial_count","time_logger","time_practice_sequence","time_right","time_task","time_wrong","title","total_correct","total_response_time","total_responses","uniform_coordinates","width"
"2.80048796","0","8","pife","non-word","100","100","783","783","black","no","legacy","legacy","legacy","0","uniform","1","undefined","undefined","undefined","1","f","0","0","0","0","4","0","0","0","4","NA","0","4","0","0","0","3","4","0","4","Fri Feb 19 14:08:59 2021","The main experiment item","yes","Lexical_Decision_Task.osexp","/Users/danielmolinacamacho","no","Andale Mono","no","18","no","white","no","yes","576","legacy","0","0","3","/Users/danielmolinacamacho/subject-5125618.csv","legacy","Lentiform Loewenfeld","3.3.7","yes","yes","600bd7cfb6416f0113b04181","602110864497cf011d9c0822","0","f","NA","j","j","j","NA","f","737","NA","3065","19805","10231","NA","737","2","legacy","1024","2","48000","-16","task","5125618","even","NA","43102","48171","45106","48202","5585","35639","25404","48706","NA","48200","48706","NA","48171","49444","41433","42573","5524","NA","Lexical Decision Task","5","3915","5","yes","1024"
"2.953276337","6.32","4","thaw","word","83.33333333333333","83.33333333333333","769","769","black","no","legacy","legacy","legacy","0","uniform","0","undefined","undefined","undefined","0","j","0","0","0","0","5","0","0","0","5","NA","1","5","1","0","1","3","5","0","5","Fri Feb 19 14:08:59 2021","The main experiment item","yes","Lexical_Decision_Task.osexp","/Users/danielmolinacamacho","no","Andale Mono","no","18","no","white","no","yes","576","legacy","1","1","3","/Users/danielmolinacamacho/subject-5125618.csv","legacy","Lentiform Loewenfeld","3.3.7","yes","yes","600bd7cfb6416f0113b04181","602110864497cf011d9c0822","0","f","NA","j","j","j","NA","f","699","NA","3065","19805","10231","NA","699","2","legacy","1024","2","48000","-16","task","5125618","even","NA","43102","48171","45106","50010","5585","35639","25404","50513","NA","50007","50514","49954","48171","51214","41433","49454","5524","NA","Lexical Decision Task","5","4614","6","yes","1024"
"3.195807436","0","6","stup","non-word","85.71428571428571","85.71428571428571","822.2857142857143","822.2857142857143","black","no","legacy","legacy","legacy","0","uniform","1","undefined","undefined","undefined","1","f","0","0","0","0","6","0","0","0","6","NA","2","6","2","0","2","3","6","0","6","Fri Feb 19 14:08:59 2021","The main experiment item","yes","Lexical_Decision_Task.osexp","/Users/danielmolinacamacho","no","Andale Mono","no","18","no","white","no","yes","576","legacy","2","2","3","/Users/danielmolinacamacho/subject-5125618.csv","legacy","Lentiform Loewenfeld","3.3.7","yes","yes","600bd7cfb6416f0113b04181","602110864497cf011d9c0822","0","f","NA","j","j","j","NA","f","1142","NA","3065","19805","10231","NA","1142","2","legacy","1024","2","48000","-16","task","5125618","even","NA","43102","48171","45106","52776","5585","35639","25404","53280","NA","52773","53281","52719","48171","54424","41433","49454","5524","51219","Lexical Decision Task","6","5756","7","yes","1024"
"2.9737419","7.69","7","claw","word","87.5","87.5","792.125","792.125","black","no","legacy","legacy","legacy","0","uniform","1","undefined","undefined","undefined","1","j","0","0","0","0","7","0","0","0","7","NA","3","7","3","0","3","3","7","0","7","Fri Feb 19 14:08:59 2021","The main experiment item","yes","Lexical_Decision_Task.osexp","/Users/danielmolinacamacho","no","Andale Mono","no","18","no","white","no","yes","576","legacy","3","3","3","/Users/danielmolinacamacho/subject-5125618.csv","legacy","Lentiform Loewenfeld","3.3.7","yes","yes","600bd7cfb6416f0113b04181","602110864497cf011d9c0822","0","j","NA","j","j","j","NA","j","581","NA","3065","19805","10231","NA","581","2","legacy","1024","2","48000","-16","task","5125618","even","NA","43102","48171","45106","54982","5585","35639","25404","55486","NA","54979","55486","54929","48171","56068","41433","54429","5524","51219","Lexical Decision Task","7","6337","8","yes","1024"
"3.440331212","7.35","6","stew","word","88.88888888888889","88.88888888888889","773.5555555555555","773.5555555555555","black","no","legacy","legacy","legacy","0","uniform","1","undefined","undefined","undefined","1","j","0","0","0","0","8","0","0","0","8","NA","4","8","4","0","4","3","8","0","8","Fri Feb 19 14:08:59 2021","The main experiment item","yes","Lexical_Decision_Task.osexp","/Users/danielmolinacamacho","no","Andale Mono","no","18","no","white","no","yes","576","legacy","4","4","3","/Users/danielmolinacamacho/subject-5125618.csv","legacy","Lentiform Loewenfeld","3.3.7","yes","yes","600bd7cfb6416f0113b04181","602110864497cf011d9c0822","0","j","NA","j","j","j","NA","j","625","NA","3065","19805","10231","NA","625","2","legacy","1024","2","48000","-16","task","5125618","even","NA","43102","48171","45106","56627","5585","35639","25404","57132","NA","56624","57132","56574","48171","57758","41433","56073","5524","51219","Lexical Decision Task","8","6962","9","yes","1024"
"3.156347201","0","8","lasp","non-word","90","90","794.8","794.8","black","no","legacy","legacy","legacy","0","uniform","1","undefined","undefined","undefined","1","f","0","0","0","0","9","0","0","0","9","NA","5","9","5","0","5","3","9","0","9","Fri Feb 19 14:08:59 2021","The main experiment item","yes","Lexical_Decision_Task.osexp","/Users/danielmolinacamacho","no","Andale Mono","no","18","no","white","no","yes","576","legacy","5","5","3","/Users/danielmolinacamacho/subject-5125618.csv","legacy","Lentiform Loewenfeld","3.3.7","yes","yes","600bd7cfb6416f0113b04181","602110864497cf011d9c0822","0","f","NA","j","j","j","NA","f","986","NA","3065","19805","10231","NA","986","2","legacy","1024","2","48000","-16","task","5125618","even","NA","43102","48171","45106","58317","5585","35639","25404","58821","NA","58314","58821","58264","48171","59807","41433","57763","5524","51219","Lexical Decision Task","9","7948","10","yes","1024"
"3.088136089","8.32","9","worm","word","90.9090909090909","90.9090909090909","790.1818181818181","790.1818181818181","black","no","legacy","legacy","legacy","0","uniform","1","undefined","undefined","undefined","1","j","0","0","0","0","10","0","0","0","10","NA","6","10","6","0","6","3","10","0","10","Fri Feb 19 14:08:59 2021","The main experiment item","yes","Lexical_Decision_Task.osexp","/Users/danielmolinacamacho","no","Andale Mono","no","18","no","white","no","yes","576","legacy","6","6","3","/Users/danielmolinacamacho/subject-5125618.csv","legacy","Lentiform Loewenfeld","3.3.7","yes","yes","600bd7cfb6416f0113b04181","602110864497cf011d9c0822","0","j","NA","j","j","j","NA","j","744","NA","3065","19805","10231","NA","744","2","legacy","1024","2","48000","-16","task","5125618","even","NA","43102","48171","45106","60366","5585","35639","25404","60870","NA","60363","60871","60313","48171","61615","41433","59812","5524","51219","Lexical Decision Task","10","8692","11","yes","1024"
"2.924968096","0","4","phim","non-word","91.66666666666667","91.66666666666667","782.8333333333334","782.8333333333334","black","no","legacy","legacy","legacy","0","uniform","1","undefined","undefined","undefined","1","f","0","0","0","0","11","0","0","0","11","NA","7","11","7","0","7","3","11","0","11","Fri Feb 19 14:08:59 2021","The main experiment item","yes","Lexical_Decision_Task.osexp","/Users/danielmolinacamacho","no","Andale Mono","no","18","no","white","no","yes","576","legacy","7","7","3","/Users/danielmolinacamacho/subject-5125618.csv","legacy","Lentiform Loewenfeld","3.3.7","yes","yes","600bd7cfb6416f0113b04181","602110864497cf011d9c0822","0","f","NA","j","j","j","NA","f","702","NA","3065","19805","10231","NA","702","2","legacy","1024","2","48000","-16","task","5125618","even","NA","43102","48171","45106","62173","5585","35639","25404","62677","NA","62171","62678","62121","48171","63381","41433","61620","5524","51219","Lexical Decision Task","11","9394","12","yes","1024"
"2.616654026","9.37","5","gift","word","92.3076923076923","92.3076923076923","770.3846153846154","770.3846153846154","black","no","legacy","legacy","legacy","0","uniform","1","undefined","undefined","undefined","1","j","0","0","0","0","12","0","0","0","12","NA","8","12","8","0","8","3","12","0","12","Fri Feb 19 14:08:59 2021","The main experiment item","yes","Lexical_Decision_Task.osexp","/Users/danielmolinacamacho","no","Andale Mono","no","18","no","white","no","yes","576","legacy","8","8","3","/Users/danielmolinacamacho/subject-5125618.csv","legacy","Lentiform Loewenfeld","3.3.7","yes","yes","600bd7cfb6416f0113b04181","602110864497cf011d9c0822","0","j","NA","j","j","j","NA","j","621","NA","3065","19805","10231","NA","621","2","legacy","1024","2","48000","-16","task","5125618","even","NA","43102","48171","45106","63940","5585","35639","25404","64444","NA","63938","64445","63887","48171","65067","41433","63387","5524","51219","Lexical Decision Task","12","10015","13","yes","1024"
"3.094121596","0","8","fode","non-word","92.85714285714286","92.85714285714286","768.8571428571429","768.8571428571429","black","no","legacy","legacy","legacy","0","uniform","1","undefined","undefined","undefined","1","f","0","0","0","0","13","0","0","0","13","NA","9","13","9","0","9","3","13","0","13","Fri Feb 19 14:08:59 2021","The main experiment item","yes","Lexical_Decision_Task.osexp","/Users/danielmolinacamacho","no","Andale Mono","no","18","no","white","no","yes","576","legacy","9","9","3","/Users/danielmolinacamacho/subject-5125618.csv","legacy","Lentiform Loewenfeld","3.3.7","yes","yes","600bd7cfb6416f0113b04181","602110864497cf011d9c0822","0","f","NA","j","j","j","NA","f","749","NA","3065","19805","10231","NA","749","2","legacy","1024","2","48000","-16","task","5125618","even","NA","43102","48171","45106","65627","5585","35639","25404","66130","NA","65624","66131","65573","48171","66881","41433","65073","5524","51219","Lexical Decision Task","13","10764","14","yes","1024"
"3.22685757","9.99","7","roll","word","93.33333333333333","93.33333333333333","761.7333333333333","761.7333333333333","black","no","legacy","legacy","legacy","0","uniform","1","undefined","undefined","undefined","1","j","0","0","0","0","14","0","0","0","14","NA","10","14","10","0","10","3","14","0","14","Fri Feb 19 14:08:59 2021","The main experiment item","yes","Lexical_Decision_Task.osexp","/Users/danielmolinacamacho","no","Andale Mono","no","18","no","white","no","yes","576","legacy","10","10","3","/Users/danielmolinacamacho/subject-5125618.csv","legacy","Lentiform Loewenfeld","3.3.7","yes","yes","600bd7cfb6416f0113b04181","602110864497cf011d9c0822","0","j","NA","j","j","j","NA","j","662","NA","3065","19805","10231","NA","662","2","legacy","1024","2","48000","-16","task","5125618","even","NA","43102","48171","45106","67440","5585","35639","25404","67944","NA","67437","67945","67387","48171","68608","41433","66886","5524","51219","Lexical Decision Task","14","11426","15","yes","1024"
"3.153001286","8.7","5","palm","word","93.75","93.75","750.3125","750.3125","black","no","legacy","legacy","legacy","0","uniform","1","undefined","undefined","undefined","1","j","0","0","0","0","15","0","0","0","15","NA","11","15","11","0","11","3","15","0","15","Fri Feb 19 14:08:59 2021","The main experiment item","yes","Lexical_Decision_Task.osexp","/Users/danielmolinacamacho","no","Andale Mono","no","18","no","white","no","yes","576","legacy","11","11","3","/Users/danielmolinacamacho/subject-5125618.csv","legacy","Lentiform Loewenfeld","3.3.7","yes","yes","600bd7cfb6416f0113b04181","602110864497cf011d9c0822","0","j","NA","j","j","j","NA","j","579","NA","3065","19805","10231","NA","579","2","legacy","1024","2","48000","-16","task","5125618","even","NA","43102","48171","45106","69166","5585","35639","25404","69669","NA","69163","69670","69113","48171","70250","41433","68613","5524","51219","Lexical Decision Task","15","12005","16","yes","1024"
"2.705007959","6.01","4","wept","word","94.11764705882354","94.11764705882354","762.5882352941177","762.5882352941177","black","no","legacy","legacy","legacy","0","uniform","1","undefined","undefined","undefined","1","j","0","0","0","0","16","0","0","0","16","NA","12","16","12","0","12","3","16","0","16","Fri Feb 19 14:08:59 2021","The main experiment item","yes","Lexical_Decision_Task.osexp","/Users/danielmolinacamacho","no","Andale Mono","no","18","no","white","no","yes","576","legacy","12","12","3","/Users/danielmolinacamacho/subject-5125618.csv","legacy","Lentiform Loewenfeld","3.3.7","yes","yes","600bd7cfb6416f0113b04181","602110864497cf011d9c0822","0","j","NA","j","j","j","NA","j","959","NA","3065","19805","10231","NA","959","2","legacy","1024","2","48000","-16","task","5125618","even","NA","43102","48171","45106","70809","5585","35639","25404","71313","NA","70807","71314","70756","48171","72274","41433","70255","5524","51219","Lexical Decision Task","16","12964","17","yes","1024"
"2.86332286","6.71","2","feud","word","94.44444444444444","94.44444444444444","764.1111111111111","764.1111111111111","black","no","legacy","legacy","legacy","0","uniform","1","undefined","undefined","undefined","1","j","0","0","0","0","17","0","0","0","17","NA","13","17","13","0","13","3","17","0","17","Fri Feb 19 14:08:59 2021","The main experiment item","yes","Lexical_Decision_Task.osexp","/Users/danielmolinacamacho","no","Andale Mono","no","18","no","white","no","yes","576","legacy","13","13","3","/Users/danielmolinacamacho/subject-5125618.csv","legacy","Lentiform Loewenfeld","3.3.7","yes","yes","600bd7cfb6416f0113b04181","602110864497cf011d9c0822","0","j","NA","j","j","j","NA","j","790","NA","3065","19805","10231","NA","790","2","legacy","1024","2","48000","-16","task","5125618","even","NA","43102","48171","45106","72832","5585","35639","25404","73336","NA","72829","73337","72780","48171","74127","41433","72279","5524","51219","Lexical Decision Task","17","13754","18","yes","1024"
"2.576725172","0","8","gowl","non-word","94.73684210526316","94.73684210526316","762.6842105263158","762.6842105263158","black","no","legacy","legacy","legacy","0","uniform","1","undefined","undefined","undefined","1","f","0","0","0","0","18","0","0","0","18","NA","14","18","14","0","14","3","18","0","18","Fri Feb 19 14:08:59 2021","The main experiment item","yes","Lexical_Decision_Task.osexp","/Users/danielmolinacamacho","no","Andale Mono","no","18","no","white","no","yes","576","legacy","14","14","3","/Users/danielmolinacamacho/subject-5125618.csv","legacy","Lentiform Loewenfeld","3.3.7","yes","yes","600bd7cfb6416f0113b04181","602110864497cf011d9c0822","0","f","NA","j","j","j","NA","f","737","NA","3065","19805","10231","NA","737","2","legacy","1024","2","48000","-16","task","5125618","even","NA","43102","48171","45106","74686","5585","35639","25404","75190","NA","74684","75191","74633","48171","75928","41433","74133","5524","51219","Lexical Decision Task","18","14491","19","yes","1024"
"3.209246849","0","7","slem","non-word","95","95","770.05","770.05","black","no","legacy","legacy","legacy","0","uniform","1","undefined","undefined","undefined","1","f","0","0","0","0","19","0","0","0","19","NA","15","19","15","0","15","3","19","0","19","Fri Feb 19 14:08:59 2021","The main experiment item","yes","Lexical_Decision_Task.osexp","/Users/danielmolinacamacho","no","Andale Mono","no","18","no","white","no","yes","576","legacy","15","15","3","/Users/danielmolinacamacho/subject-5125618.csv","legacy","Lentiform Loewenfeld","3.3.7","yes","yes","600bd7cfb6416f0113b04181","602110864497cf011d9c0822","0","f","NA","j","j","j","NA","f","910","NA","3065","19805","10231","NA","910","2","legacy","1024","2","48000","-16","task","5125618","even","NA","43102","48171","45106","76487","5585","35639","25404","76991","NA","76485","76992","76434","48171","77903","41433","75934","5524","51219","Lexical Decision Task","19","15401","20","yes","1024"
"2.67699827","0","6","hulf","non-word","95.23809523809524","95.23809523809524","813.047619047619","813.047619047619","black","no","legacy","legacy","legacy","0","uniform","1","undefined","undefined","undefined","1","f","0","0","0","0","20","0","0","0","20","NA","16","20","16","0","16","3","20","0","20","Fri Feb 19 14:08:59 2021","The main experiment item","yes","Lexical_Decision_Task.osexp","/Users/danielmolinacamacho","no","Andale Mono","no","18","no","white","no","yes","576","legacy","16","16","3","/Users/danielmolinacamacho/subject-5125618.csv","legacy","Lentiform Loewenfeld","3.3.7","yes","yes","600bd7cfb6416f0113b04181","602110864497cf011d9c0822","0","f","NA","j","j","j","NA","f","1673","NA","3065","19805","10231","NA","1673","2","legacy","1024","2","48000","-16","task","5125618","even","NA","43102","48171","45106","78462","5585","35639","25404","78965","NA","78459","78966","78409","48171","80640","41433","77908","5524","51219","Lexical Decision Task","20","17074","21","yes","1024"
"3.29439347","8.6","9","wand","word","95.45454545454545","95.45454545454545","809.9545454545455","809.9545454545455","black","no","legacy","legacy","legacy","0","uniform","1","undefined","undefined","undefined","1","j","0","0","0","0","21","0","0","0","21","NA","17","21","17","0","17","3","21","0","21","Fri Feb 19 14:08:59 2021","The main experiment item","yes","Lexical_Decision_Task.osexp","/Users/danielmolinacamacho","no","Andale Mono","no","18","no","white","no","yes","576","legacy","17","17","3","/Users/danielmolinacamacho/subject-5125618.csv","legacy","Lentiform Loewenfeld","3.3.7","yes","yes","600bd7cfb6416f0113b04181","602110864497cf011d9c0822","0","j","NA","j","j","j","NA","j","745","NA","3065","19805","10231","NA","745","2","legacy","1024","2","48000","-16","task","5125618","even","NA","43102","48171","45106","81199","5585","35639","25404","81702","NA","81196","81703","81146","48171","82449","41433","80646","5524","51219","Lexical Decision Task","21","17819","22","yes","1024"
"2.799799878","0","4","ciff","non-word","95.65217391304348","95.65217391304348","826.1739130434783","826.1739130434783","black","no","legacy","legacy","legacy","0","uniform","1","undefined","undefined","undefined","1","f","0","0","0","0","22","0","0","0","22","NA","18","22","18","0","18","3","22","0","22","Fri Feb 19 14:08:59 2021","The main experiment item","yes","Lexical_Decision_Task.osexp","/Users/danielmolinacamacho","no","Andale Mono","no","18","no","white","no","yes","576","legacy","18","18","3","/Users/danielmolinacamacho/subject-5125618.csv","legacy","Lentiform Loewenfeld","3.3.7","yes","yes","600bd7cfb6416f0113b04181","602110864497cf011d9c0822","0","f","NA","j","j","j","NA","f","1183","NA","3065","19805","10231","NA","1183","2","legacy","1024","2","48000","-16","task","5125618","even","NA","43102","48171","45106","83009","5585","35639","25404","83513","NA","83006","83513","82955","48171","84697","41433","82455","5524","51219","Lexical Decision Task","22","19002","23","yes","1024"
"2.6599162","0","6","flug","non-word","95.83333333333333","95.83333333333333","832.5833333333334","832.5833333333334","black","no","legacy","legacy","legacy","0","uniform","1","undefined","undefined","undefined","1","f","0","0","0","0","23","0","0","0","23","NA","19","23","19","0","19","3","23","0","23","Fri Feb 19 14:08:59 2021","The main experiment item","yes","Lexical_Decision_Task.osexp","/Users/danielmolinacamacho","no","Andale Mono","no","18","no","white","no","yes","576","legacy","19","19","3","/Users/danielmolinacamacho/subject-5125618.csv","legacy","Lentiform Loewenfeld","3.3.7","yes","yes","600bd7cfb6416f0113b04181","602110864497cf011d9c0822","0","f","NA","j","j","j","NA","f","980","NA","3065","19805","10231","NA","980","2","legacy","1024","2","48000","-16","task","5125618","even","NA","43102","48171","45106","85257","5585","35639","25404","85761","NA","85254","85761","85203","48171","86742","41433","84702","5524","51219","Lexical Decision Task","23","19982","24","yes","1024"
"2.893578687","8.69","3","surf","word","96","96","841.04","841.04","black","no","legacy","legacy","legacy","0","uniform","1","undefined","undefined","undefined","1","j","0","0","0","0","24","0","0","0","24","NA","20","24","20","0","20","3","24","0","24","Fri Feb 19 14:08:59 2021","The main experiment item","yes","Lexical_Decision_Task.osexp","/Users/danielmolinacamacho","no","Andale Mono","no","18","no","white","no","yes","576","legacy","20","20","3","/Users/danielmolinacamacho/subject-5125618.csv","legacy","Lentiform Loewenfeld","3.3.7","yes","yes","600bd7cfb6416f0113b04181","602110864497cf011d9c0822","0","j","NA","j","j","j","NA","j","1044","NA","3065","19805","10231","NA","1044","2","legacy","1024","2","48000","-16","task","5125618","even","NA","43102","48171","45106","87301","5585","35639","25404","87805","NA","87298","87806","87248","48171","88851","41433","86747","5524","51219","Lexical Decision Task","24","21026","25","yes","1024"
"2.907588697","8.91","9","mood","word","96.15384615384616","96.15384615384616","834.1538461538462","834.1538461538462","black","no","legacy","legacy","legacy","0","uniform","1","undefined","undefined","undefined","1","j","0","0","0","0","25","0","0","0","25","NA","21","25","21","0","21","3","25","0","25","Fri Feb 19 14:08:59 2021","The main experiment item","yes","Lexical_Decision_Task.osexp","/Users/danielmolinacamacho","no","Andale Mono","no","18","no","white","no","yes","576","legacy","21","21","3","/Users/danielmolinacamacho/subject-5125618.csv","legacy","Lentiform Loewenfeld","3.3.7","yes","yes","600bd7cfb6416f0113b04181","602110864497cf011d9c0822","0","j","NA","j","j","j","NA","j","662","NA","3065","19805","10231","NA","662","2","legacy","1024","2","48000","-16","task","5125618","even","NA","43102","48171","45106","89415","5585","35639","25404","89918","NA","89412","89919","89357","48171","90582","41433","88856","5524","51219","Lexical Decision Task","25","21688","26","yes","1024"
"3.140404328","10.66","9","deep","word","96.29629629629629","96.29629629629629","832","832","black","no","legacy","legacy","legacy","0","uniform","1","undefined","undefined","undefined","1","j","0","0","0","0","26","0","0","0","26","NA","22","26","22","0","22","3","26","0","26","Fri Feb 19 14:08:59 2021","The main experiment item","yes","Lexical_Decision_Task.osexp","/Users/danielmolinacamacho","no","Andale Mono","no","18","no","white","no","yes","576","legacy","22","22","3","/Users/danielmolinacamacho/subject-5125618.csv","legacy","Lentiform Loewenfeld","3.3.7","yes","yes","600bd7cfb6416f0113b04181","602110864497cf011d9c0822","0","j","NA","j","j","j","NA","j","776","NA","3065","19805","10231","NA","776","2","legacy","1024","2","48000","-16","task","5125618","even","NA","43102","48171","45106","91141","5585","35639","25404","91645","NA","91138","91646","91088","48171","92423","41433","90588","5524","51219","Lexical Decision Task","26","22464","27","yes","1024"
"2.868644438","10.52","4","town","word","96.42857142857143","96.42857142857143","826.6071428571429","826.6071428571429","black","no","legacy","legacy","legacy","0","uniform","1","undefined","undefined","undefined","1","j","0","0","0","0","27","0","0","0","27","NA","23","27","23","0","23","3","27","0","27","Fri Feb 19 14:08:59 2021","The main experiment item","yes","Lexical_Decision_Task.osexp","/Users/danielmolinacamacho","no","Andale Mono","no","18","no","white","no","yes","576","legacy","23","23","3","/Users/danielmolinacamacho/subject-5125618.csv","legacy","Lentiform Loewenfeld","3.3.7","yes","yes","600bd7cfb6416f0113b04181","602110864497cf011d9c0822","0","j","NA","j","j","j","NA","j","681","NA","3065","19805","10231","NA","681","2","legacy","1024","2","48000","-16","task","5125618","even","NA","43102","48171","45106","92981","5585","35639","25404","93485","NA","92978","93486","92928","48171","94168","41433","92428","5524","51219","Lexical Decision Task","27","23145","28","yes","1024"
"3.010582609","0","2","drod","non-word","96.55172413793103","96.55172413793103","825.6896551724138","825.6896551724138","black","no","legacy","legacy","legacy","0","uniform","1","undefined","undefined","undefined","1","f","0","0","0","0","28","0","0","0","28","NA","24","28","24","0","24","3","28","0","28","Fri Feb 19 14:08:59 2021","The main experiment item","yes","Lexical_Decision_Task.osexp","/Users/danielmolinacamacho","no","Andale Mono","no","18","no","white","no","yes","576","legacy","24","24","3","/Users/danielmolinacamacho/subject-5125618.csv","legacy","Lentiform Loewenfeld","3.3.7","yes","yes","600bd7cfb6416f0113b04181","602110864497cf011d9c0822","0","f","NA","j","j","j","NA","f","800","NA","3065","19805","10231","NA","800","2","legacy","1024","2","48000","-16","task","5125618","even","NA","43102","48171","45106","94726","5585","35639","25404","95230","NA","94723","95231","94673","48171","96032","41433","94173","5524","51219","Lexical Decision Task","28","23945","29","yes","1024"
"3.003891166","8.05","2","frog","word","96.66666666666667","96.66666666666667","821.9333333333333","821.9333333333333","black","no","legacy","legacy","legacy","0","uniform","1","undefined","undefined","undefined","1","j","0","0","0","0","29","0","0","0","29","NA","25","29","25","0","25","3","29","0","29","Fri Feb 19 14:08:59 2021","The main experiment item","yes","Lexical_Decision_Task.osexp","/Users/danielmolinacamacho","no","Andale Mono","no","18","no","white","no","yes","576","legacy","25","25","3","/Users/danielmolinacamacho/subject-5125618.csv","legacy","Lentiform Loewenfeld","3.3.7","yes","yes","600bd7cfb6416f0113b04181","602110864497cf011d9c0822","0","j","NA","j","j","j","NA","j","713","NA","3065","19805","10231","NA","713","2","legacy","1024","2","48000","-16","task","5125618","even","NA","43102","48171","45106","96591","5585","35639","25404","97094","NA","96588","97095","96537","48171","97809","41433","96037","5524","51219","Lexical Decision Task","29","24658","30","yes","1024"
"3.039414119","0","9","meep","non-word","96.7741935483871","96.7741935483871","818.741935483871","818.741935483871","black","no","legacy","legacy","legacy","0","uniform","1","undefined","undefined","undefined","1","f","0","0","0","0","30","0","0","0","30","NA","26","30","26","0","26","3","30","0","30","Fri Feb 19 14:08:59 2021","The main experiment item","yes","Lexical_Decision_Task.osexp","/Users/danielmolinacamacho","no","Andale Mono","no","18","no","white","no","yes","576","legacy","26","26","3","/Users/danielmolinacamacho/subject-5125618.csv","legacy","Lentiform Loewenfeld","3.3.7","yes","yes","600bd7cfb6416f0113b04181","602110864497cf011d9c0822","0","f","NA","j","j","j","NA","f","723","NA","3065","19805","10231","NA","723","2","legacy","1024","2","48000","-16","task","5125618","even","NA","43102","48171","45106","98370","5585","35639","25404","98873","NA","98367","98874","98316","48171","99598","41433","97815","5524","51219","Lexical Decision Task","30","25381","31","yes","1024"
"3.274157849","0","8","leet","non-word","96.875","96.875","830.625","830.625","black","no","legacy","legacy","legacy","0","uniform","1","undefined","undefined","undefined","1","f","0","0","0","0","31","0","0","0","31","NA","27","31","27","0","27","3","31","0","31","Fri Feb 19 14:08:59 2021","The main experiment item","yes","Lexical_Decision_Task.osexp","/Users/danielmolinacamacho","no","Andale Mono","no","18","no","white","no","yes","576","legacy","27","27","3","/Users/danielmolinacamacho/subject-5125618.csv","legacy","Lentiform Loewenfeld","3.3.7","yes","yes","600bd7cfb6416f0113b04181","602110864497cf011d9c0822","0","f","NA","j","j","j","NA","f","1199","NA","3065","19805","10231","NA","1199","2","legacy","1024","2","48000","-16","task","5125618","even","NA","43102","48171","45106","100157","5585","35639","25404","100660","NA","100154","100661","100104","48171","101860","41433","99603","5524","51219","Lexical Decision Task","31","26580","32","yes","1024"
"3.174641193","0","3","ramb","non-word","96.96969696969697","96.96969696969697","832.3939393939394","832.3939393939394","black","no","legacy","legacy","legacy","0","uniform","1","undefined","undefined","undefined","1","f","0","0","0","0","32","0","0","0","32","NA","28","32","28","0","28","3","32","0","32","Fri Feb 19 14:08:59 2021","The main experiment item","yes","Lexical_Decision_Task.osexp","/Users/danielmolinacamacho","no","Andale Mono","no","18","no","white","no","yes","576","legacy","28","28","3","/Users/danielmolinacamacho/subject-5125618.csv","legacy","Lentiform Loewenfeld","3.3.7","yes","yes","600bd7cfb6416f0113b04181","602110864497cf011d9c0822","0","f","NA","j","j","j","NA","f","889","NA","3065","19805","10231","NA","889","2","legacy","1024","2","48000","-16","task","5125618","even","NA","43102","48171","45106","102420","5585","35639","25404","102923","NA","102417","102924","102366","48171","103813","41433","101866","5524","51219","Lexical Decision Task","32","27469","33","yes","1024"
"3.2757719","0","5","slea","non-word","97.05882352941177","97.05882352941177","831.5588235294117","831.5588235294117","black","no","legacy","legacy","legacy","0","uniform","1","undefined","undefined","undefined","1","f","0","0","0","0","33","0","0","0","33","NA","29","33","29","0","29","3","33","0","33","Fri Feb 19 14:08:59 2021","The main experiment item","yes","Lexical_Decision_Task.osexp","/Users/danielmolinacamacho","no","Andale Mono","no","18","no","white","no","yes","576","legacy","29","29","3","/Users/danielmolinacamacho/subject-5125618.csv","legacy","Lentiform Loewenfeld","3.3.7","yes","yes","600bd7cfb6416f0113b04181","602110864497cf011d9c0822","0","f","NA","j","j","j","NA","f","804","NA","3065","19805","10231","NA","804","2","legacy","1024","2","48000","-16","task","5125618","even","NA","43102","48171","45106","104374","5585","35639","25404","104877","NA","104371","104878","104320","48171","105683","41433","103819","5524","51219","Lexical Decision Task","33","28273","34","yes","1024"
"3.119255889","6.63","2","itch","word","97.14285714285714","97.14285714285714","826.7428571428571","826.7428571428571","black","no","legacy","legacy","legacy","0","uniform","1","undefined","undefined","undefined","1","j","0","0","0","0","34","0","0","0","34","NA","30","34","30","0","30","3","34","0","34","Fri Feb 19 14:08:59 2021","The main experiment item","yes","Lexical_Decision_Task.osexp","/Users/danielmolinacamacho","no","Andale Mono","no","18","no","white","no","yes","576","legacy","30","30","3","/Users/danielmolinacamacho/subject-5125618.csv","legacy","Lentiform Loewenfeld","3.3.7","yes","yes","600bd7cfb6416f0113b04181","602110864497cf011d9c0822","0","j","NA","j","j","j","NA","j","663","NA","3065","19805","10231","NA","663","2","legacy","1024","2","48000","-16","task","5125618","even","NA","43102","48171","45106","106242","5585","35639","25404","106747","NA","106240","106747","106189","48171","107410","41433","105689","5524","51219","Lexical Decision Task","34","28936","35","yes","1024"
"2.972357144","0","5","dasp","non-word","97.22222222222223","97.22222222222223","827.1666666666666","827.1666666666666","black","no","legacy","legacy","legacy","0","uniform","1","undefined","undefined","undefined","1","f","0","0","0","0","35","0","0","0","35","NA","31","35","31","0","31","3","35","0","35","Fri Feb 19 14:08:59 2021","The main experiment item","yes","Lexical_Decision_Task.osexp","/Users/danielmolinacamacho","no","Andale Mono","no","18","no","white","no","yes","576","legacy","31","31","3","/Users/danielmolinacamacho/subject-5125618.csv","legacy","Lentiform Loewenfeld","3.3.7","yes","yes","600bd7cfb6416f0113b04181","602110864497cf011d9c0822","0","f","NA","j","j","j","NA","f","842","NA","3065","19805","10231","NA","842","2","legacy","1024","2","48000","-16","task","5125618","even","NA","43102","48171","45106","107969","5585","35639","25404","108472","NA","107966","108473","107916","48171","109316","41433","107416","5524","51219","Lexical Decision Task","35","29778","36","yes","1024"
"2.812467698","0","7","hafe","non-word","97.29729729729729","97.29729729729729","825.1081081081081","825.1081081081081","black","no","legacy","legacy","legacy","0","uniform","1","undefined","undefined","undefined","1","f","0","0","0","0","36","0","0","0","36","NA","32","36","32","0","32","3","36","0","36","Fri Feb 19 14:08:59 2021","The main experiment item","yes","Lexical_Decision_Task.osexp","/Users/danielmolinacamacho","no","Andale Mono","no","18","no","white","no","yes","576","legacy","32","32","3","/Users/danielmolinacamacho/subject-5125618.csv","legacy","Lentiform Loewenfeld","3.3.7","yes","yes","600bd7cfb6416f0113b04181","602110864497cf011d9c0822","0","f","NA","j","j","j","NA","f","751","NA","3065","19805","10231","NA","751","2","legacy","1024","2","48000","-16","task","5125618","even","NA","43102","48171","45106","109875","5585","35639","25404","110379","NA","109872","110379","109821","48171","111131","41433","109321","5524","51219","Lexical Decision Task","36","30529","37","yes","1024"
"2.755364069","7.72","2","hoax","word","97.36842105263158","97.36842105263158","823.4473684210526","823.4473684210526","black","no","legacy","legacy","legacy","0","uniform","1","undefined","undefined","undefined","1","j","0","0","0","0","37","0","0","0","37","NA","33","37","33","0","33","3","37","0","37","Fri Feb 19 14:08:59 2021","The main experiment item","yes","Lexical_Decision_Task.osexp","/Users/danielmolinacamacho","no","Andale Mono","no","18","no","white","no","yes","576","legacy","33","33","3","/Users/danielmolinacamacho/subject-5125618.csv","legacy","Lentiform Loewenfeld","3.3.7","yes","yes","600bd7cfb6416f0113b04181","602110864497cf011d9c0822","0","j","NA","j","j","j","NA","j","762","NA","3065","19805","10231","NA","762","2","legacy","1024","2","48000","-16","task","5125618","even","NA","43102","48171","45106","111691","5585","35639","25404","112194","NA","111688","112195","111637","48171","112958","41433","111137","5524","51219","Lexical Decision Task","37","31291","38","yes","1024"
"3.384413096","10.15","3","glad","word","97.43589743589743","97.43589743589743","819.7692307692307","819.7692307692307","black","no","legacy","legacy","legacy","0","uniform","1","undefined","undefined","undefined","1","j","0","0","0","0","38","0","0","0","38","NA","34","38","34","0","34","3","38","0","38","Fri Feb 19 14:08:59 2021","The main experiment item","yes","Lexical_Decision_Task.osexp","/Users/danielmolinacamacho","no","Andale Mono","no","18","no","white","no","yes","576","legacy","34","34","3","/Users/danielmolinacamacho/subject-5125618.csv","legacy","Lentiform Loewenfeld","3.3.7","yes","yes","600bd7cfb6416f0113b04181","602110864497cf011d9c0822","0","j","NA","j","j","j","NA","j","680","NA","3065","19805","10231","NA","680","2","legacy","1024","2","48000","-16","task","5125618","even","NA","43102","48171","45106","113518","5585","35639","25404","114021","NA","113514","114022","113464","48171","114703","41433","112963","5524","51219","Lexical Decision Task","38","31971","39","yes","1024"
"2.990042563","6.64","9","plow","word","97.5","97.5","819.625","819.625","black","no","legacy","legacy","legacy","0","uniform","1","undefined","undefined","undefined","1","j","0","0","0","0","39","0","0","0","39","NA","35","39","35","0","35","3","39","0","39","Fri Feb 19 14:08:59 2021","The main experiment item","yes","Lexical_Decision_Task.osexp","/Users/danielmolinacamacho","no","Andale Mono","no","18","no","white","no","yes","576","legacy","35","35","3","/Users/danielmolinacamacho/subject-5125618.csv","legacy","Lentiform Loewenfeld","3.3.7","yes","yes","600bd7cfb6416f0113b04181","602110864497cf011d9c0822","0","j","NA","j","j","j","NA","j","814","NA","3065","19805","10231","NA","814","2","legacy","1024","2","48000","-16","task","5125618","even","NA","43102","48171","45106","115261","5585","35639","25404","115765","NA","115259","115766","115208","48171","116581","41433","114708","5524","51219","Lexical Decision Task","39","32785","40","yes","1024"
"3.382617311","0","4","pret","non-word","97.5609756097561","97.5609756097561","825.780487804878","825.780487804878","black","no","legacy","legacy","legacy","0","uniform","1","undefined","undefined","undefined","1","f","0","0","0","0","40","0","0","0","40","NA","36","40","36","0","36","3","40","0","40","Fri Feb 19 14:08:59 2021","The main experiment item","yes","Lexical_Decision_Task.osexp","/Users/danielmolinacamacho","no","Andale Mono","no","18","no","white","no","yes","576","legacy","36","36","3","/Users/danielmolinacamacho/subject-5125618.csv","legacy","Lentiform Loewenfeld","3.3.7","yes","yes","600bd7cfb6416f0113b04181","602110864497cf011d9c0822","0","f","NA","j","j","j","NA","f","1072","NA","3065","19805","10231","NA","1072","2","legacy","1024","2","48000","-16","task","5125618","even","NA","43102","48171","45106","117140","5585","35639","25404","117643","NA","117137","117644","117086","48171","118717","41433","116586","5524","51219","Lexical Decision Task","40","33857","41","yes","1024"
"3.134602053","0","8","jart","non-word","97.61904761904762","97.61904761904762","823","823","black","no","legacy","legacy","legacy","0","uniform","1","undefined","undefined","undefined","1","f","0","0","0","0","41","0","0","0","41","NA","37","41","37","0","37","3","41","0","41","Fri Feb 19 14:08:59 2021","The main experiment item","yes","Lexical_Decision_Task.osexp","/Users/danielmolinacamacho","no","Andale Mono","no","18","no","white","no","yes","576","legacy","37","37","3","/Users/danielmolinacamacho/subject-5125618.csv","legacy","Lentiform Loewenfeld","3.3.7","yes","yes","600bd7cfb6416f0113b04181","602110864497cf011d9c0822","0","f","NA","j","j","j","NA","f","709","NA","3065","19805","10231","NA","709","2","legacy","1024","2","48000","-16","task","5125618","even","NA","43102","48171","45106","119277","5585","35639","25404","119781","NA","119274","119782","119223","48171","120492","41433","118722","5524","51219","Lexical Decision Task","41","34566","42","yes","1024"
"3.194328374","9.42","6","harm","word","97.67441860465117","97.67441860465117","828.3255813953489","828.3255813953489","black","no","legacy","legacy","legacy","0","uniform","1","undefined","undefined","undefined","1","j","0","0","0","0","42","0","0","0","42","NA","38","42","38","0","38","3","42","0","42","Fri Feb 19 14:08:59 2021","The main experiment item","yes","Lexical_Decision_Task.osexp","/Users/danielmolinacamacho","no","Andale Mono","no","18","no","white","no","yes","576","legacy","38","38","3","/Users/danielmolinacamacho/subject-5125618.csv","legacy","Lentiform Loewenfeld","3.3.7","yes","yes","600bd7cfb6416f0113b04181","602110864497cf011d9c0822","0","j","NA","j","j","j","NA","j","1052","NA","3065","19805","10231","NA","1052","2","legacy","1024","2","48000","-16","task","5125618","even","NA","43102","48171","45106","121051","5585","35639","25404","121555","NA","121048","121556","120997","48171","122609","41433","120497","5524","51219","Lexical Decision Task","42","35618","43","yes","1024"
"2.981215883","10.66","5","hair","word","97.72727272727273","97.72727272727273","825.3863636363636","825.3863636363636","black","no","legacy","legacy","legacy","0","uniform","1","undefined","undefined","undefined","1","j","0","0","0","0","43","0","0","0","43","NA","39","43","39","0","39","3","43","0","43","Fri Feb 19 14:08:59 2021","The main experiment item","yes","Lexical_Decision_Task.osexp","/Users/danielmolinacamacho","no","Andale Mono","no","18","no","white","no","yes","576","legacy","39","39","3","/Users/danielmolinacamacho/subject-5125618.csv","legacy","Lentiform Loewenfeld","3.3.7","yes","yes","600bd7cfb6416f0113b04181","602110864497cf011d9c0822","0","j","NA","j","j","j","NA","j","699","NA","3065","19805","10231","NA","699","2","legacy","1024","2","48000","-16","task","5125618","even","NA","43102","48171","45106","123168","5585","35639","25404","123671","NA","123165","123672","123115","48171","124372","41433","122615","5524","51219","Lexical Decision Task","43","36317","44","yes","1024"
"2.845304797","0","6","buct","non-word","97.77777777777777","97.77777777777777","826.7333333333333","826.7333333333333","black","no","legacy","legacy","legacy","0","uniform","1","undefined","undefined","undefined","1","f","0","0","0","0","44","0","0","0","44","NA","40","44","40","0","40","3","44","0","44","Fri Feb 19 14:08:59 2021","The main experiment item","yes","Lexical_Decision_Task.osexp","/Users/danielmolinacamacho","no","Andale Mono","no","18","no","white","no","yes","576","legacy","40","40","3","/Users/danielmolinacamacho/subject-5125618.csv","legacy","Lentiform Loewenfeld","3.3.7","yes","yes","600bd7cfb6416f0113b04181","602110864497cf011d9c0822","0","f","NA","j","j","j","NA","f","886","NA","3065","19805","10231","NA","886","2","legacy","1024","2","48000","-16","task","5125618","even","NA","43102","48171","45106","124931","5585","35639","25404","125435","NA","124928","125436","124878","48171","126323","41433","124378","5524","51219","Lexical Decision Task","44","37203","45","yes","1024"
"3.165936429","0","7","leps","non-word","97.82608695652173","97.82608695652173","836.4565217391304","836.4565217391304","black","no","legacy","legacy","legacy","0","uniform","1","undefined","undefined","undefined","1","f","0","0","0","0","45","0","0","0","45","NA","41","45","41","0","41","3","45","0","45","Fri Feb 19 14:08:59 2021","The main experiment item","yes","Lexical_Decision_Task.osexp","/Users/danielmolinacamacho","no","Andale Mono","no","18","no","white","no","yes","576","legacy","41","41","3","/Users/danielmolinacamacho/subject-5125618.csv","legacy","Lentiform Loewenfeld","3.3.7","yes","yes","600bd7cfb6416f0113b04181","602110864497cf011d9c0822","0","f","NA","j","j","j","NA","f","1274","NA","3065","19805","10231","NA","1274","2","legacy","1024","2","48000","-16","task","5125618","even","NA","43102","48171","45106","126882","5585","35639","25404","127386","NA","126879","127386","126829","48171","128661","41433","126329","5524","51219","Lexical Decision Task","45","38477","46","yes","1024"
"2.842815106","7.86","8","lump","word","97.87234042553192","97.87234042553192","837.4893617021277","837.4893617021277","black","no","legacy","legacy","legacy","0","uniform","1","undefined","undefined","undefined","1","j","0","0","0","0","46","0","0","0","46","NA","42","46","42","0","42","3","46","0","46","Fri Feb 19 14:08:59 2021","The main experiment item","yes","Lexical_Decision_Task.osexp","/Users/danielmolinacamacho","no","Andale Mono","no","18","no","white","no","yes","576","legacy","42","42","3","/Users/danielmolinacamacho/subject-5125618.csv","legacy","Lentiform Loewenfeld","3.3.7","yes","yes","600bd7cfb6416f0113b04181","602110864497cf011d9c0822","0","j","NA","j","j","j","NA","j","885","NA","3065","19805","10231","NA","885","2","legacy","1024","2","48000","-16","task","5125618","even","NA","43102","48171","45106","129219","5585","35639","25404","129722","NA","129216","129723","129166","48171","130609","41433","128666","5524","51219","Lexical Decision Task","46","39362","47","yes","1024"
"3.230789326","5.38","5","prim","word","95.83333333333333","95.83333333333333","843.6875","843.6875","black","no","legacy","legacy","legacy","0","uniform","0","undefined","undefined","undefined","0","j","0","0","0","0","47","0","0","0","47","NA","43","47","43","0","43","3","47","0","47","Fri Feb 19 14:08:59 2021","The main experiment item","yes","Lexical_Decision_Task.osexp","/Users/danielmolinacamacho","no","Andale Mono","no","18","no","white","no","yes","576","legacy","43","43","3","/Users/danielmolinacamacho/subject-5125618.csv","legacy","Lentiform Loewenfeld","3.3.7","yes","yes","600bd7cfb6416f0113b04181","602110864497cf011d9c0822","0","f","NA","j","j","j","NA","f","1135","NA","3065","19805","10231","NA","1135","2","legacy","1024","2","48000","-16","task","5125618","even","NA","43102","48171","45106","131168","5585","35639","25404","131671","NA","131165","131672","131115","48171","132808","41433","130615","5524","51219","Lexical Decision Task","46","40497","48","yes","1024"
"3.062080345","0","6","tomp","non-word","95.91836734693878","95.91836734693878","843.8979591836735","843.8979591836735","black","no","legacy","legacy","legacy","0","uniform","1","undefined","undefined","undefined","1","f","0","0","0","0","48","0","0","0","48","NA","44","48","44","0","44","3","48","0","48","Fri Feb 19 14:08:59 2021","The main experiment item","yes","Lexical_Decision_Task.osexp","/Users/danielmolinacamacho","no","Andale Mono","no","18","no","white","no","yes","576","legacy","44","44","3","/Users/danielmolinacamacho/subject-5125618.csv","legacy","Lentiform Loewenfeld","3.3.7","yes","yes","600bd7cfb6416f0113b04181","602110864497cf011d9c0822","0","f","NA","j","j","j","NA","f","854","NA","3065","19805","10231","NA","854","2","legacy","1024","2","48000","-16","task","5125618","even","NA","43102","48171","45106","134370","5585","35639","25404","134873","NA","134367","134874","134314","48171","135729","41433","130615","5524","132813","Lexical Decision Task","47","41351","49","yes","1024"
"3.299579929","0","2","flis","non-word","96","96","843.52","843.52","black","no","legacy","legacy","legacy","0","uniform","1","undefined","undefined","undefined","1","f","0","0","0","0","49","0","0","0","49","NA","45","49","45","0","45","3","49","0","49","Fri Feb 19 14:08:59 2021","The main experiment item","yes","Lexical_Decision_Task.osexp","/Users/danielmolinacamacho","no","Andale Mono","no","18","no","white","no","yes","576","legacy","45","45","3","/Users/danielmolinacamacho/subject-5125618.csv","legacy","Lentiform Loewenfeld","3.3.7","yes","yes","600bd7cfb6416f0113b04181","602110864497cf011d9c0822","0","f","NA","j","j","j","NA","f","825","NA","3065","19805","10231","NA","825","2","legacy","1024","2","48000","-16","task","5125618","even","NA","43102","48171","45106","136288","5585","35639","25404","136791","NA","136285","136792","136235","48171","137618","41433","135735","5524","132813","Lexical Decision Task","48","42176","50","yes","1024"
"3.132473155","0","4","glim","non-word","94.11764705882354","94.11764705882354","852.7843137254902","852.7843137254902","black","no","legacy","legacy","legacy","0","uniform","0","undefined","undefined","undefined","0","f","0","0","0","0","50","0","0","0","50","NA","46","50","46","0","46","3","50","0","50","Fri Feb 19 14:08:59 2021","The main experiment item","yes","Lexical_Decision_Task.osexp","/Users/danielmolinacamacho","no","Andale Mono","no","18","no","white","no","yes","576","legacy","46","46","3","/Users/danielmolinacamacho/subject-5125618.csv","legacy","Lentiform Loewenfeld","3.3.7","yes","yes","600bd7cfb6416f0113b04181","602110864497cf011d9c0822","0","j","NA","j","j","j","NA","j","1316","NA","3065","19805","10231","NA","1316","2","legacy","1024","2","48000","-16","task","5125618","even","NA","43102","48171","45106","138177","5585","35639","25404","138680","NA","138174","138681","138123","48171","139998","41433","137622","5524","132813","Lexical Decision Task","48","43492","51","yes","1024"
"2.708989954","9.28","9","bowl","word","94.23076923076923","94.23076923076923","848.1346153846154","848.1346153846154","black","no","legacy","legacy","legacy","0","uniform","1","undefined","undefined","undefined","1","j","0","0","0","0","51","0","0","0","51","NA","47","51","47","0","47","3","51","0","51","Fri Feb 19 14:08:59 2021","The main experiment item","yes","Lexical_Decision_Task.osexp","/Users/danielmolinacamacho","no","Andale Mono","no","18","no","white","no","yes","576","legacy","47","47","3","/Users/danielmolinacamacho/subject-5125618.csv","legacy","Lentiform Loewenfeld","3.3.7","yes","yes","600bd7cfb6416f0113b04181","602110864497cf011d9c0822","0","j","NA","j","j","j","NA","j","611","NA","3065","19805","10231","NA","611","2","legacy","1024","2","48000","-16","task","5125618","even","NA","43102","48171","45106","141560","5585","35639","25404","142063","NA","141557","142064","141504","48171","142676","41433","137622","5524","140004","Lexical Decision Task","49","44103","52","yes","1024"
"2.937852093","0","7","bamp","non-word","94.33962264150944","94.33962264150944","847.3396226415094","847.3396226415094","black","no","legacy","legacy","legacy","0","uniform","1","undefined","undefined","undefined","1","f","0","0","0","0","52","0","0","0","52","NA","48","52","48","0","48","3","52","0","52","Fri Feb 19 14:08:59 2021","The main experiment item","yes","Lexical_Decision_Task.osexp","/Users/danielmolinacamacho","no","Andale Mono","no","18","no","white","no","yes","576","legacy","48","48","3","/Users/danielmolinacamacho/subject-5125618.csv","legacy","Lentiform Loewenfeld","3.3.7","yes","yes","600bd7cfb6416f0113b04181","602110864497cf011d9c0822","0","f","NA","j","j","j","NA","f","806","NA","3065","19805","10231","NA","806","2","legacy","1024","2","48000","-16","task","5125618","even","NA","43102","48171","45106","143235","5585","35639","25404","143738","NA","143232","143739","143182","48171","144546","41433","142681","5524","140004","Lexical Decision Task","50","44909","53","yes","1024"
"2.68604012","0","4","pumb","non-word","94.44444444444444","94.44444444444444","856.2777777777778","856.2777777777778","black","no","legacy","legacy","legacy","0","uniform","1","undefined","undefined","undefined","1","f","0","0","0","0","53","0","0","0","53","NA","49","53","49","0","49","3","53","0","53","Fri Feb 19 14:08:59 2021","The main experiment item","yes","Lexical_Decision_Task.osexp","/Users/danielmolinacamacho","no","Andale Mono","no","18","no","white","no","yes","576","legacy","49","49","3","/Users/danielmolinacamacho/subject-5125618.csv","legacy","Lentiform Loewenfeld","3.3.7","yes","yes","600bd7cfb6416f0113b04181","602110864497cf011d9c0822","0","f","NA","j","j","j","NA","f","1330","NA","3065","19805","10231","NA","1330","2","legacy","1024","2","48000","-16","task","5125618","even","NA","43102","48171","45106","145105","5585","35639","25404","145610","NA","145102","145610","145052","48171","146941","41433","144551","5524","140004","Lexical Decision Task","51","46239","54","yes","1024"
"2.966923697","5.4","2","fume","word","92.72727272727273","92.72727272727273","863.3818181818182","863.3818181818182","black","no","legacy","legacy","legacy","0","uniform","0","undefined","undefined","undefined","0","j","0","0","0","0","54","0","0","0","54","0","50","54","50","0","50","3","54","0","54","Fri Feb 19 14:08:59 2021","The main experiment item","yes","Lexical_Decision_Task.osexp","/Users/danielmolinacamacho","no","Andale Mono","no","18","no","white","no","yes","576","legacy","50","50","3","/Users/danielmolinacamacho/subject-5125618.csv","legacy","Lentiform Loewenfeld","3.3.7","yes","yes","600bd7cfb6416f0113b04181","602110864497cf011d9c0822","0","f","NA","j","j","j","j","f","1247","NA","3065","19805","10231","22418","1247","2","legacy","1024","2","48000","-16","task","5125618","even","NA","43102","48171","45106","169947","5585","35639","25404","170451","147474","169944","170451","147447","48171","171699","41433","146946","5524","140004","Lexical Decision Task","51","47486","55","yes","1024"
"3.374198258","0","8","vist","non-word","92.85714285714286","92.85714285714286","872.9285714285714","872.9285714285714","black","no","legacy","legacy","legacy","0","uniform","1","undefined","undefined","undefined","1","f","0","0","0","0","55","0","0","0","55","0","51","55","51","0","51","3","55","0","55","Fri Feb 19 14:08:59 2021","The main experiment item","yes","Lexical_Decision_Task.osexp","/Users/danielmolinacamacho","no","Andale Mono","no","18","no","white","no","yes","576","legacy","51","51","3","/Users/danielmolinacamacho/subject-5125618.csv","legacy","Lentiform Loewenfeld","3.3.7","yes","yes","600bd7cfb6416f0113b04181","602110864497cf011d9c0822","0","f","NA","j","j","j","j","f","1398","NA","3065","19805","10231","22418","1398","2","legacy","1024","2","48000","-16","task","5125618","even","NA","43102","48171","45106","173262","5585","35639","25404","173766","147474","173259","173767","173205","48171","175166","41433","146946","5524","171704","Lexical Decision Task","52","48884","56","yes","1024"
"2.7084209","0","8","vump","non-word","92.98245614035088","92.98245614035088","870.5263157894736","870.5263157894736","black","no","legacy","legacy","legacy","0","uniform","1","undefined","undefined","undefined","1","f","0","0","0","0","56","0","0","0","56","0","52","56","52","0","52","3","56","0","56","Fri Feb 19 14:08:59 2021","The main experiment item","yes","Lexical_Decision_Task.osexp","/Users/danielmolinacamacho","no","Andale Mono","no","18","no","white","no","yes","576","legacy","52","52","3","/Users/danielmolinacamacho/subject-5125618.csv","legacy","Lentiform Loewenfeld","3.3.7","yes","yes","600bd7cfb6416f0113b04181","602110864497cf011d9c0822","0","f","NA","j","j","j","j","f","736","NA","3065","19805","10231","22418","736","2","legacy","1024","2","48000","-16","task","5125618","even","NA","43102","48171","45106","175724","5585","35639","25404","176228","147474","175721","176229","175671","48171","176966","41433","175171","5524","171704","Lexical Decision Task","53","49620","57","yes","1024"
"2.696356389","0","1","pizz","non-word","93.10344827586206","93.10344827586206","869.4137931034483","869.4137931034483","black","no","legacy","legacy","legacy","0","uniform","1","undefined","undefined","undefined","1","f","0","0","0","0","57","0","0","0","57","0","53","57","53","0","53","3","57","0","57","Fri Feb 19 14:08:59 2021","The main experiment item","yes","Lexical_Decision_Task.osexp","/Users/danielmolinacamacho","no","Andale Mono","no","18","no","white","no","yes","576","legacy","53","53","3","/Users/danielmolinacamacho/subject-5125618.csv","legacy","Lentiform Loewenfeld","3.3.7","yes","yes","600bd7cfb6416f0113b04181","602110864497cf011d9c0822","0","f","NA","j","j","j","j","f","806","NA","3065","19805","10231","22418","806","2","legacy","1024","2","48000","-16","task","5125618","even","NA","43102","48171","45106","177525","5585","35639","25404","178028","147474","177522","178029","177472","48171","178836","41433","176971","5524","171704","Lexical Decision Task","54","50426","58","yes","1024"
"2.986323777","10.85","8","ship","word","93.22033898305085","93.22033898305085","868.8813559322034","868.8813559322034","black","no","legacy","legacy","legacy","0","uniform","1","undefined","undefined","undefined","1","j","0","0","0","0","58","0","0","0","58","0","54","58","54","0","54","3","58","0","58","Fri Feb 19 14:08:59 2021","The main experiment item","yes","Lexical_Decision_Task.osexp","/Users/danielmolinacamacho","no","Andale Mono","no","18","no","white","no","yes","576","legacy","54","54","3","/Users/danielmolinacamacho/subject-5125618.csv","legacy","Lentiform Loewenfeld","3.3.7","yes","yes","600bd7cfb6416f0113b04181","602110864497cf011d9c0822","0","j","NA","j","j","j","j","j","838","NA","3065","19805","10231","22418","838","2","legacy","1024","2","48000","-16","task","5125618","even","NA","43102","48171","45106","179403","5585","35639","25404","179907","147474","179400","179908","179341","48171","180747","41433","178841","5524","171704","Lexical Decision Task","55","51264","59","yes","1024"
"3.261341392","5.08","8","reek","word","93.33333333333333","93.33333333333333","865.3666666666667","865.3666666666667","black","no","legacy","legacy","legacy","0","uniform","1","undefined","undefined","undefined","1","j","0","0","0","0","59","0","0","0","59","0","55","59","55","0","55","3","59","0","59","Fri Feb 19 14:08:59 2021","The main experiment item","yes","Lexical_Decision_Task.osexp","/Users/danielmolinacamacho","no","Andale Mono","no","18","no","white","no","yes","576","legacy","55","55","3","/Users/danielmolinacamacho/subject-5125618.csv","legacy","Lentiform Loewenfeld","3.3.7","yes","yes","600bd7cfb6416f0113b04181","602110864497cf011d9c0822","0","j","NA","j","j","j","j","j","658","NA","3065","19805","10231","22418","658","2","legacy","1024","2","48000","-16","task","5125618","even","NA","43102","48171","45106","181306","5585","35639","25404","181809","147474","181303","181810","181252","48171","182469","41433","180752","5524","171704","Lexical Decision Task","56","51922","60","yes","1024"
"2.952953801","0","8","clax","non-word","93.44262295081967","93.44262295081967","864.5737704918033","864.5737704918033","black","no","legacy","legacy","legacy","0","uniform","1","undefined","undefined","undefined","1","f","0","0","0","0","60","0","0","0","60","0","56","60","56","0","56","3","60","0","60","Fri Feb 19 14:08:59 2021","The main experiment item","yes","Lexical_Decision_Task.osexp","/Users/danielmolinacamacho","no","Andale Mono","no","18","no","white","no","yes","576","legacy","56","56","3","/Users/danielmolinacamacho/subject-5125618.csv","legacy","Lentiform Loewenfeld","3.3.7","yes","yes","600bd7cfb6416f0113b04181","602110864497cf011d9c0822","0","f","NA","j","j","j","j","f","817","NA","3065","19805","10231","22418","817","2","legacy","1024","2","48000","-16","task","5125618","even","NA","43102","48171","45106","183027","5585","35639","25404","183531","147474","183025","183532","182974","48171","184350","41433","182474","5524","171704","Lexical Decision Task","57","52739","61","yes","1024"
"3.037294994","8.64","7","roof","word","93.54838709677419","93.54838709677419","859.8548387096774","859.8548387096774","black","no","legacy","legacy","legacy","0","uniform","1","undefined","undefined","undefined","1","j","0","0","0","0","61","0","0","0","61","0","57","61","57","0","57","3","61","0","61","Fri Feb 19 14:08:59 2021","The main experiment item","yes","Lexical_Decision_Task.osexp","/Users/danielmolinacamacho","no","Andale Mono","no","18","no","white","no","yes","576","legacy","57","57","3","/Users/danielmolinacamacho/subject-5125618.csv","legacy","Lentiform Loewenfeld","3.3.7","yes","yes","600bd7cfb6416f0113b04181","602110864497cf011d9c0822","0","j","NA","j","j","j","j","j","572","NA","3065","19805","10231","22418","572","2","legacy","1024","2","48000","-16","task","5125618","even","NA","43102","48171","45106","184910","5585","35639","25404","185414","147474","184907","185414","184856","48171","185987","41433","184355","5524","171704","Lexical Decision Task","58","53311","62","yes","1024"
"2.778633532","0","3","jurp","non-word","93.65079365079364","93.65079365079364","857.4761904761905","857.4761904761905","black","no","legacy","legacy","legacy","0","uniform","1","undefined","undefined","undefined","1","f","0","0","0","0","62","0","0","0","62","0","58","62","58","0","58","3","62","0","62","Fri Feb 19 14:08:59 2021","The main experiment item","yes","Lexical_Decision_Task.osexp","/Users/danielmolinacamacho","no","Andale Mono","no","18","no","white","no","yes","576","legacy","58","58","3","/Users/danielmolinacamacho/subject-5125618.csv","legacy","Lentiform Loewenfeld","3.3.7","yes","yes","600bd7cfb6416f0113b04181","602110864497cf011d9c0822","0","f","NA","j","j","j","j","f","710","NA","3065","19805","10231","22418","710","2","legacy","1024","2","48000","-16","task","5125618","even","NA","43102","48171","45106","186547","5585","35639","25404","187050","147474","186544","187051","186493","48171","187762","41433","185992","5524","171704","Lexical Decision Task","59","54021","63","yes","1024"
"2.695770526","7.34","6","pawn","word","93.75","93.75","862.234375","862.234375","black","no","legacy","legacy","legacy","0","uniform","1","undefined","undefined","undefined","1","j","0","0","0","0","63","0","0","0","63","0","59","63","59","0","59","3","63","0","63","Fri Feb 19 14:08:59 2021","The main experiment item","yes","Lexical_Decision_Task.osexp","/Users/danielmolinacamacho","no","Andale Mono","no","18","no","white","no","yes","576","legacy","59","59","3","/Users/danielmolinacamacho/subject-5125618.csv","legacy","Lentiform Loewenfeld","3.3.7","yes","yes","600bd7cfb6416f0113b04181","602110864497cf011d9c0822","0","j","NA","j","j","j","j","j","1162","NA","3065","19805","10231","22418","1162","2","legacy","1024","2","48000","-16","task","5125618","even","NA","43102","48171","45106","188321","5585","35639","25404","188825","147474","188319","188826","188268","48171","189989","41433","187768","5524","171704","Lexical Decision Task","60","55183","64","yes","1024"
"2.746890964","9.67","3","plug","word","93.84615384615384","93.84615384615384","860.5692307692308","860.5692307692308","black","no","legacy","legacy","legacy","0","uniform","1","undefined","undefined","undefined","1","j","0","0","0","0","64","0","0","0","64","0","60","64","60","0","60","3","64","0","64","Fri Feb 19 14:08:59 2021","The main experiment item","yes","Lexical_Decision_Task.osexp","/Users/danielmolinacamacho","no","Andale Mono","no","18","no","white","no","yes","576","legacy","60","60","3","/Users/danielmolinacamacho/subject-5125618.csv","legacy","Lentiform Loewenfeld","3.3.7","yes","yes","600bd7cfb6416f0113b04181","602110864497cf011d9c0822","0","j","NA","j","j","j","j","j","754","NA","3065","19805","10231","22418","754","2","legacy","1024","2","48000","-16","task","5125618","even","NA","43102","48171","45106","190548","5585","35639","25404","191052","147474","190545","191053","190495","48171","191808","41433","189994","5524","171704","Lexical Decision Task","61","55937","65","yes","1024"
"3.145920145","8.51","8","flew","word","93.93939393939394","93.93939393939394","860.530303030303","860.530303030303","black","no","legacy","legacy","legacy","0","uniform","1","undefined","undefined","undefined","1","j","0","0","0","0","65","0","0","0","65","0","61","65","61","0","61","3","65","0","65","Fri Feb 19 14:08:59 2021","The main experiment item","yes","Lexical_Decision_Task.osexp","/Users/danielmolinacamacho","no","Andale Mono","no","18","no","white","no","yes","576","legacy","61","61","3","/Users/danielmolinacamacho/subject-5125618.csv","legacy","Lentiform Loewenfeld","3.3.7","yes","yes","600bd7cfb6416f0113b04181","602110864497cf011d9c0822","0","j","NA","j","j","j","j","j","858","NA","3065","19805","10231","22418","858","2","legacy","1024","2","48000","-16","task","5125618","even","NA","43102","48171","45106","192367","5585","35639","25404","192870","147474","192364","192871","192314","48171","193730","41433","191814","5524","171704","Lexical Decision Task","62","56795","66","yes","1024"
"3.269668578","0","7","trag","non-word","94.02985074626865","94.02985074626865","858.6865671641791","858.6865671641791","black","no","legacy","legacy","legacy","0","uniform","1","undefined","undefined","undefined","1","f","0","0","0","0","66","0","0","0","66","0","62","66","62","0","62","3","66","0","66","Fri Feb 19 14:08:59 2021","The main experiment item","yes","Lexical_Decision_Task.osexp","/Users/danielmolinacamacho","no","Andale Mono","no","18","no","white","no","yes","576","legacy","62","62","3","/Users/danielmolinacamacho/subject-5125618.csv","legacy","Lentiform Loewenfeld","3.3.7","yes","yes","600bd7cfb6416f0113b04181","602110864497cf011d9c0822","0","f","NA","j","j","j","j","f","737","NA","3065","19805","10231","22418","737","2","legacy","1024","2","48000","-16","task","5125618","even","NA","43102","48171","45106","194290","5585","35639","25404","194794","147474","194288","194795","194237","48171","195533","41433","193736","5524","171704","Lexical Decision Task","63","57532","67","yes","1024"
"3.068433376","8.09","2","bulb","word","94.11764705882354","94.11764705882354","856.0294117647059","856.0294117647059","black","no","legacy","legacy","legacy","0","uniform","1","undefined","undefined","undefined","1","j","0","0","0","0","67","0","0","0","67","0","63","67","63","0","63","3","67","0","67","Fri Feb 19 14:08:59 2021","The main experiment item","yes","Lexical_Decision_Task.osexp","/Users/danielmolinacamacho","no","Andale Mono","no","18","no","white","no","yes","576","legacy","63","63","3","/Users/danielmolinacamacho/subject-5125618.csv","legacy","Lentiform Loewenfeld","3.3.7","yes","yes","600bd7cfb6416f0113b04181","602110864497cf011d9c0822","0","j","NA","j","j","j","j","j","678","NA","3065","19805","10231","22418","678","2","legacy","1024","2","48000","-16","task","5125618","even","NA","43102","48171","45106","196092","5585","35639","25404","196596","147474","196090","196597","196039","48171","197276","41433","195539","5524","171704","Lexical Decision Task","64","58210","68","yes","1024"
"3.353210739","0","9","reet","non-word","94.20289855072464","94.20289855072464","854.6086956521739","854.6086956521739","black","no","legacy","legacy","legacy","0","uniform","1","undefined","undefined","undefined","1","f","0","0","0","0","68","0","0","0","68","0","64","68","64","0","64","3","68","0","68","Fri Feb 19 14:08:59 2021","The main experiment item","yes","Lexical_Decision_Task.osexp","/Users/danielmolinacamacho","no","Andale Mono","no","18","no","white","no","yes","576","legacy","64","64","3","/Users/danielmolinacamacho/subject-5125618.csv","legacy","Lentiform Loewenfeld","3.3.7","yes","yes","600bd7cfb6416f0113b04181","602110864497cf011d9c0822","0","f","NA","j","j","j","j","f","758","NA","3065","19805","10231","22418","758","2","legacy","1024","2","48000","-16","task","5125618","even","NA","43102","48171","45106","197835","5585","35639","25404","198339","147474","197832","198340","197782","48171","199099","41433","197282","5524","171704","Lexical Decision Task","65","58968","69","yes","1024"
"2.664011697","8.19","4","hawk","word","94.28571428571429","94.28571428571429","852.9","852.9","black","no","legacy","legacy","legacy","0","uniform","1","undefined","undefined","undefined","1","j","0","0","0","0","69","0","0","0","69","0","65","69","65","0","65","3","69","0","69","Fri Feb 19 14:08:59 2021","The main experiment item","yes","Lexical_Decision_Task.osexp","/Users/danielmolinacamacho","no","Andale Mono","no","18","no","white","no","yes","576","legacy","65","65","3","/Users/danielmolinacamacho/subject-5125618.csv","legacy","Lentiform Loewenfeld","3.3.7","yes","yes","600bd7cfb6416f0113b04181","602110864497cf011d9c0822","0","j","NA","j","j","j","j","j","735","NA","3065","19805","10231","22418","735","2","legacy","1024","2","48000","-16","task","5125618","even","NA","43102","48171","45106","199659","5585","35639","25404","200162","147474","199656","200163","199605","48171","200899","41433","199105","5524","171704","Lexical Decision Task","66","59703","70","yes","1024"
"2.814027728","8.2","4","foam","word","94.36619718309859","94.36619718309859","849.943661971831","849.943661971831","black","no","legacy","legacy","legacy","0","uniform","1","undefined","undefined","undefined","1","j","0","0","0","0","70","0","0","0","70","0","66","70","66","0","66","3","70","0","70","Fri Feb 19 14:08:59 2021","The main experiment item","yes","Lexical_Decision_Task.osexp","/Users/danielmolinacamacho","no","Andale Mono","no","18","no","white","no","yes","576","legacy","66","66","3","/Users/danielmolinacamacho/subject-5125618.csv","legacy","Lentiform Loewenfeld","3.3.7","yes","yes","600bd7cfb6416f0113b04181","602110864497cf011d9c0822","0","j","NA","j","j","j","j","j","643","NA","3065","19805","10231","22418","643","2","legacy","1024","2","48000","-16","task","5125618","even","NA","43102","48171","45106","201458","5585","35639","25404","201962","147474","201455","201963","201405","48171","202607","41433","200904","5524","171704","Lexical Decision Task","67","60346","71","yes","1024"
"3.081107167","0","6","chot","non-word","94.44444444444444","94.44444444444444","849.8472222222222","849.8472222222222","black","no","legacy","legacy","legacy","0","uniform","1","undefined","undefined","undefined","1","f","0","0","0","0","71","0","0","0","71","0","67","71","67","0","67","3","71","0","71","Fri Feb 19 14:08:59 2021","The main experiment item","yes","Lexical_Decision_Task.osexp","/Users/danielmolinacamacho","no","Andale Mono","no","18","no","white","no","yes","576","legacy","67","67","3","/Users/danielmolinacamacho/subject-5125618.csv","legacy","Lentiform Loewenfeld","3.3.7","yes","yes","600bd7cfb6416f0113b04181","602110864497cf011d9c0822","0","f","NA","j","j","j","j","f","843","NA","3065","19805","10231","22418","843","2","legacy","1024","2","48000","-16","task","5125618","even","NA","43102","48171","45106","203166","5585","35639","25404","203670","147474","203164","203671","203113","48171","204515","41433","202613","5524","171704","Lexical Decision Task","68","61189","72","yes","1024"
"2.920123326","7.43","4","duel","word","94.52054794520548","94.52054794520548","846.4246575342465","846.4246575342465","black","no","legacy","legacy","legacy","0","uniform","1","undefined","undefined","undefined","1","j","0","0","0","0","72","0","0","0","72","0","68","72","68","0","68","3","72","0","72","Fri Feb 19 14:08:59 2021","The main experiment item","yes","Lexical_Decision_Task.osexp","/Users/danielmolinacamacho","no","Andale Mono","no","18","no","white","no","yes","576","legacy","68","68","3","/Users/danielmolinacamacho/subject-5125618.csv","legacy","Lentiform Loewenfeld","3.3.7","yes","yes","600bd7cfb6416f0113b04181","602110864497cf011d9c0822","0","j","NA","j","j","j","j","j","600","NA","3065","19805","10231","22418","600","2","legacy","1024","2","48000","-16","task","5125618","even","NA","43102","48171","45106","205074","5585","35639","25404","205578","147474","205071","205578","205020","48171","206179","41433","204520","5524","171704","Lexical Decision Task","69","61789","73","yes","1024"
"3.488597715","0","9","nain","non-word","94.5945945945946","94.5945945945946","843.7837837837837","843.7837837837837","black","no","legacy","legacy","legacy","0","uniform","1","undefined","undefined","undefined","1","f","0","0","0","0","73","0","0","0","73","0","69","73","69","0","69","3","73","0","73","Fri Feb 19 14:08:59 2021","The main experiment item","yes","Lexical_Decision_Task.osexp","/Users/danielmolinacamacho","no","Andale Mono","no","18","no","white","no","yes","576","legacy","69","69","3","/Users/danielmolinacamacho/subject-5125618.csv","legacy","Lentiform Loewenfeld","3.3.7","yes","yes","600bd7cfb6416f0113b04181","602110864497cf011d9c0822","0","f","NA","j","j","j","j","f","651","NA","3065","19805","10231","22418","651","2","legacy","1024","2","48000","-16","task","5125618","even","NA","43102","48171","45106","206737","5585","35639","25404","207241","147474","206734","207242","206684","48171","207894","41433","206184","5524","171704","Lexical Decision Task","70","62440","74","yes","1024"
"3.100255637","0","6","brax","non-word","94.66666666666667","94.66666666666667","842.4","842.4","black","no","legacy","legacy","legacy","0","uniform","1","undefined","undefined","undefined","1","f","0","0","0","0","74","0","0","0","74","0","70","74","70","0","70","3","74","0","74","Fri Feb 19 14:08:59 2021","The main experiment item","yes","Lexical_Decision_Task.osexp","/Users/danielmolinacamacho","no","Andale Mono","no","18","no","white","no","yes","576","legacy","70","70","3","/Users/danielmolinacamacho/subject-5125618.csv","legacy","Lentiform Loewenfeld","3.3.7","yes","yes","600bd7cfb6416f0113b04181","602110864497cf011d9c0822","0","f","NA","j","j","j","j","f","740","NA","3065","19805","10231","22418","740","2","legacy","1024","2","48000","-16","task","5125618","even","NA","43102","48171","45106","208454","5585","35639","25404","208957","147474","208451","208958","208400","48171","209699","41433","207900","5524","171704","Lexical Decision Task","71","63180","75","yes","1024"
"2.696644658","5.78","2","yolk","word","94.73684210526316","94.73684210526316","848.078947368421","848.078947368421","black","no","legacy","legacy","legacy","0","uniform","1","undefined","undefined","undefined","1","j","0","0","0","0","75","0","0","0","75","0","71","75","71","0","71","3","75","0","75","Fri Feb 19 14:08:59 2021","The main experiment item","yes","Lexical_Decision_Task.osexp","/Users/danielmolinacamacho","no","Andale Mono","no","18","no","white","no","yes","576","legacy","71","71","3","/Users/danielmolinacamacho/subject-5125618.csv","legacy","Lentiform Loewenfeld","3.3.7","yes","yes","600bd7cfb6416f0113b04181","602110864497cf011d9c0822","0","j","NA","j","j","j","j","j","1274","NA","3065","19805","10231","22418","1274","2","legacy","1024","2","48000","-16","task","5125618","even","NA","43102","48171","45106","210258","5585","35639","25404","210761","147474","210255","210762","210204","48171","212037","41433","209704","5524","171704","Lexical Decision Task","72","64454","76","yes","1024"
"3.077974404","10.41","8","tool","word","94.8051948051948","94.8051948051948","844.9090909090909","844.9090909090909","black","no","legacy","legacy","legacy","0","uniform","1","undefined","undefined","undefined","1","j","0","0","0","0","76","0","0","0","76","0","72","76","72","0","72","3","76","0","76","Fri Feb 19 14:08:59 2021","The main experiment item","yes","Lexical_Decision_Task.osexp","/Users/danielmolinacamacho","no","Andale Mono","no","18","no","white","no","yes","576","legacy","72","72","3","/Users/danielmolinacamacho/subject-5125618.csv","legacy","Lentiform Loewenfeld","3.3.7","yes","yes","600bd7cfb6416f0113b04181","602110864497cf011d9c0822","0","j","NA","j","j","j","j","j","604","NA","3065","19805","10231","22418","604","2","legacy","1024","2","48000","-16","task","5125618","even","NA","43102","48171","45106","212597","5585","35639","25404","213100","147474","212594","213101","212543","48171","213706","41433","212043","5524","171704","Lexical Decision Task","73","65058","77","yes","1024"
"3.282244367","0","6","fute","non-word","94.87179487179488","94.87179487179488","850.3717948717949","850.3717948717949","black","no","legacy","legacy","legacy","0","uniform","1","undefined","undefined","undefined","1","f","0","0","0","0","77","0","0","0","77","0","73","77","73","0","73","3","77","0","77","Fri Feb 19 14:08:59 2021","The main experiment item","yes","Lexical_Decision_Task.osexp","/Users/danielmolinacamacho","no","Andale Mono","no","18","no","white","no","yes","576","legacy","73","73","3","/Users/danielmolinacamacho/subject-5125618.csv","legacy","Lentiform Loewenfeld","3.3.7","yes","yes","600bd7cfb6416f0113b04181","602110864497cf011d9c0822","0","f","NA","j","j","j","j","f","1271","NA","3065","19805","10231","22418","1271","2","legacy","1024","2","48000","-16","task","5125618","even","NA","43102","48171","45106","214266","5585","35639","25404","214769","147474","214263","214770","214212","48171","216042","41433","213711","5524","171704","Lexical Decision Task","74","66329","78","yes","1024"
"3.252447662","9.67","9","boat","word","94.9367088607595","94.9367088607595","846.5822784810126","846.5822784810126","black","no","legacy","legacy","legacy","0","uniform","1","undefined","undefined","undefined","1","j","0","0","0","0","78","0","0","0","78","0","74","78","74","0","74","3","78","0","78","Fri Feb 19 14:08:59 2021","The main experiment item","yes","Lexical_Decision_Task.osexp","/Users/danielmolinacamacho","no","Andale Mono","no","18","no","white","no","yes","576","legacy","74","74","3","/Users/danielmolinacamacho/subject-5125618.csv","legacy","Lentiform Loewenfeld","3.3.7","yes","yes","600bd7cfb6416f0113b04181","602110864497cf011d9c0822","0","j","NA","j","j","j","j","j","551","NA","3065","19805","10231","22418","551","2","legacy","1024","2","48000","-16","task","5125618","even","NA","43102","48171","45106","216601","5585","35639","25404","217104","147474","216598","217105","216548","48171","217657","41433","216047","5524","171704","Lexical Decision Task","75","66880","79","yes","1024"
"2.714888338","0","3","brug","non-word","95","95","844.6875","844.6875","black","no","legacy","legacy","legacy","0","uniform","1","undefined","undefined","undefined","1","f","0","0","0","0","79","0","0","0","79","0","75","79","75","0","75","3","79","0","79","Fri Feb 19 14:08:59 2021","The main experiment item","yes","Lexical_Decision_Task.osexp","/Users/danielmolinacamacho","no","Andale Mono","no","18","no","white","no","yes","576","legacy","75","75","3","/Users/danielmolinacamacho/subject-5125618.csv","legacy","Lentiform Loewenfeld","3.3.7","yes","yes","600bd7cfb6416f0113b04181","602110864497cf011d9c0822","0","f","NA","j","j","j","j","f","695","NA","3065","19805","10231","22418","695","2","legacy","1024","2","48000","-16","task","5125618","even","NA","43102","48171","45106","218216","5585","35639","25404","218720","147474","218214","218721","218163","48171","219417","41433","217662","5524","171704","Lexical Decision Task","76","67575","80","yes","1024"
"3.431095062","5.74","9","perk","word","95.06172839506173","95.06172839506173","843.7037037037037","843.7037037037037","black","no","legacy","legacy","legacy","0","uniform","1","undefined","undefined","undefined","1","j","0","0","0","0","80","0","0","0","80","0","76","80","76","0","76","3","80","0","80","Fri Feb 19 14:08:59 2021","The main experiment item","yes","Lexical_Decision_Task.osexp","/Users/danielmolinacamacho","no","Andale Mono","no","18","no","white","no","yes","576","legacy","76","76","3","/Users/danielmolinacamacho/subject-5125618.csv","legacy","Lentiform Loewenfeld","3.3.7","yes","yes","600bd7cfb6416f0113b04181","602110864497cf011d9c0822","0","j","NA","j","j","j","j","j","765","NA","3065","19805","10231","22418","765","2","legacy","1024","2","48000","-16","task","5125618","even","NA","43102","48171","45106","219975","5585","35639","25404","220478","147474","219972","220479","219922","48171","221245","41433","219421","5524","171704","Lexical Decision Task","77","68340","81","yes","1024"
"3.168400243","9.12","6","horn","word","95.1219512195122","95.1219512195122","840.9268292682926","840.9268292682926","black","no","legacy","legacy","legacy","0","uniform","1","undefined","undefined","undefined","1","j","0","0","0","0","81","0","0","0","81","0","77","81","77","0","77","3","81","0","81","Fri Feb 19 14:08:59 2021","The main experiment item","yes","Lexical_Decision_Task.osexp","/Users/danielmolinacamacho","no","Andale Mono","no","18","no","white","no","yes","576","legacy","77","77","3","/Users/danielmolinacamacho/subject-5125618.csv","legacy","Lentiform Loewenfeld","3.3.7","yes","yes","600bd7cfb6416f0113b04181","602110864497cf011d9c0822","0","j","NA","j","j","j","j","j","616","NA","3065","19805","10231","22418","616","2","legacy","1024","2","48000","-16","task","5125618","even","NA","43102","48171","45106","221804","5585","35639","25404","222308","147474","221801","222308","221751","48171","222926","41433","221250","5524","171704","Lexical Decision Task","78","68956","82","yes","1024"
"3.378276681","6.39","8","bran","word","93.97590361445783","93.97590361445783","839.0963855421687","839.0963855421687","black","no","legacy","legacy","legacy","0","uniform","0","undefined","undefined","undefined","0","j","0","0","0","0","82","0","0","0","82","0","78","82","78","0","78","3","82","0","82","Fri Feb 19 14:08:59 2021","The main experiment item","yes","Lexical_Decision_Task.osexp","/Users/danielmolinacamacho","no","Andale Mono","no","18","no","white","no","yes","576","legacy","78","78","3","/Users/danielmolinacamacho/subject-5125618.csv","legacy","Lentiform Loewenfeld","3.3.7","yes","yes","600bd7cfb6416f0113b04181","602110864497cf011d9c0822","0","f","NA","j","j","j","j","f","689","NA","3065","19805","10231","22418","689","2","legacy","1024","2","48000","-16","task","5125618","even","NA","43102","48171","45106","223485","5585","35639","25404","223988","147474","223481","223989","223431","48171","224680","41433","222931","5524","171704","Lexical Decision Task","78","69645","83","yes","1024"
"3.307211407","6.07","7","honk","word","92.85714285714286","92.85714285714286","841.7261904761905","841.7261904761905","black","no","legacy","legacy","legacy","0","uniform","0","undefined","undefined","undefined","0","j","0","0","0","0","83","0","0","0","83","0","79","83","79","0","79","3","83","0","83","Fri Feb 19 14:08:59 2021","The main experiment item","yes","Lexical_Decision_Task.osexp","/Users/danielmolinacamacho","no","Andale Mono","no","18","no","white","no","yes","576","legacy","79","79","3","/Users/danielmolinacamacho/subject-5125618.csv","legacy","Lentiform Loewenfeld","3.3.7","yes","yes","600bd7cfb6416f0113b04181","602110864497cf011d9c0822","0","f","NA","j","j","j","j","f","1060","NA","3065","19805","10231","22418","1060","2","legacy","1024","2","48000","-16","task","5125618","even","NA","43102","48171","45106","226242","5585","35639","25404","226746","147474","226239","226747","226185","48171","227808","41433","222931","5524","224685","Lexical Decision Task","78","70705","84","yes","1024"
"2.972819734","0","4","scew","non-word","92.94117647058823","92.94117647058823","843.0470588235294","843.0470588235294","black","no","legacy","legacy","legacy","0","uniform","1","undefined","undefined","undefined","1","f","0","0","0","0","84","0","0","0","84","0","80","84","80","0","80","3","84","0","84","Fri Feb 19 14:08:59 2021","The main experiment item","yes","Lexical_Decision_Task.osexp","/Users/danielmolinacamacho","no","Andale Mono","no","18","no","white","no","yes","576","legacy","80","80","3","/Users/danielmolinacamacho/subject-5125618.csv","legacy","Lentiform Loewenfeld","3.3.7","yes","yes","600bd7cfb6416f0113b04181","602110864497cf011d9c0822","0","f","NA","j","j","j","j","f","954","NA","3065","19805","10231","22418","954","2","legacy","1024","2","48000","-16","task","5125618","even","NA","43102","48171","45106","229371","5585","35639","25404","229876","147474","229368","229876","229314","48171","230831","41433","222931","5524","227814","Lexical Decision Task","79","71659","85","yes","1024"
"2.709837904","6.85","8","skim","word","93.02325581395348","93.02325581395348","844.5","844.5","black","no","legacy","legacy","legacy","0","uniform","1","undefined","undefined","undefined","1","j","0","0","0","0","85","0","0","0","85","0","81","85","81","0","81","3","85","0","85","Fri Feb 19 14:08:59 2021","The main experiment item","yes","Lexical_Decision_Task.osexp","/Users/danielmolinacamacho","no","Andale Mono","no","18","no","white","no","yes","576","legacy","81","81","3","/Users/danielmolinacamacho/subject-5125618.csv","legacy","Lentiform Loewenfeld","3.3.7","yes","yes","600bd7cfb6416f0113b04181","602110864497cf011d9c0822","0","j","NA","j","j","j","j","j","968","NA","3065","19805","10231","22418","968","2","legacy","1024","2","48000","-16","task","5125618","even","NA","43102","48171","45106","231389","5585","35639","25404","231893","147474","231386","231894","231336","48171","232863","41433","230835","5524","227814","Lexical Decision Task","80","72627","86","yes","1024"
"2.983324025","9.56","2","debt","word","93.10344827586206","93.10344827586206","842.1034482758621","842.1034482758621","black","no","legacy","legacy","legacy","0","uniform","1","undefined","undefined","undefined","1","j","0","0","0","0","86","0","0","0","86","0","82","86","82","0","82","3","86","0","86","Fri Feb 19 14:08:59 2021","The main experiment item","yes","Lexical_Decision_Task.osexp","/Users/danielmolinacamacho","no","Andale Mono","no","18","no","white","no","yes","576","legacy","82","82","3","/Users/danielmolinacamacho/subject-5125618.csv","legacy","Lentiform Loewenfeld","3.3.7","yes","yes","600bd7cfb6416f0113b04181","602110864497cf011d9c0822","0","j","NA","j","j","j","j","j","636","NA","3065","19805","10231","22418","636","2","legacy","1024","2","48000","-16","task","5125618","even","NA","43102","48171","45106","233423","5585","35639","25404","233926","147474","233420","233927","233369","48171","234565","41433","232869","5524","227814","Lexical Decision Task","81","73263","87","yes","1024"
"3.20996159","0","4","clee","non-word","93.18181818181819","93.18181818181819","840.5909090909091","840.5909090909091","black","no","legacy","legacy","legacy","0","uniform","1","undefined","undefined","undefined","1","f","0","0","0","0","87","0","0","0","87","0","83","87","83","0","83","3","87","0","87","Fri Feb 19 14:08:59 2021","The main experiment item","yes","Lexical_Decision_Task.osexp","/Users/danielmolinacamacho","no","Andale Mono","no","18","no","white","no","yes","576","legacy","83","83","3","/Users/danielmolinacamacho/subject-5125618.csv","legacy","Lentiform Loewenfeld","3.3.7","yes","yes","600bd7cfb6416f0113b04181","602110864497cf011d9c0822","0","f","NA","j","j","j","j","f","709","NA","3065","19805","10231","22418","709","2","legacy","1024","2","48000","-16","task","5125618","even","NA","43102","48171","45106","235123","5585","35639","25404","235628","147474","235121","235628","235070","48171","236338","41433","234570","5524","227814","Lexical Decision Task","82","73972","88","yes","1024"
"2.839898939","8.99","6","soap","word","93.25842696629213","93.25842696629213","836.7640449438202","836.7640449438202","black","no","legacy","legacy","legacy","0","uniform","1","undefined","undefined","undefined","1","j","0","0","0","0","88","0","0","0","88","0","84","88","84","0","84","3","88","0","88","Fri Feb 19 14:08:59 2021","The main experiment item","yes","Lexical_Decision_Task.osexp","/Users/danielmolinacamacho","no","Andale Mono","no","18","no","white","no","yes","576","legacy","84","84","3","/Users/danielmolinacamacho/subject-5125618.csv","legacy","Lentiform Loewenfeld","3.3.7","yes","yes","600bd7cfb6416f0113b04181","602110864497cf011d9c0822","0","j","NA","j","j","j","j","j","500","NA","3065","19805","10231","22418","500","2","legacy","1024","2","48000","-16","task","5125618","even","NA","43102","48171","45106","236897","5585","35639","25404","237401","147474","236894","237402","236844","48171","237903","41433","236344","5524","227814","Lexical Decision Task","83","74472","89","yes","1024"
"3.049218023","7.4","9","robe","word","93.33333333333333","93.33333333333333","835.7333333333333","835.7333333333333","black","no","legacy","legacy","legacy","0","uniform","1","undefined","undefined","undefined","1","j","0","0","0","0","89","0","0","0","89","0","85","89","85","0","85","3","89","0","89","Fri Feb 19 14:08:59 2021","The main experiment item","yes","Lexical_Decision_Task.osexp","/Users/danielmolinacamacho","no","Andale Mono","no","18","no","white","no","yes","576","legacy","85","85","3","/Users/danielmolinacamacho/subject-5125618.csv","legacy","Lentiform Loewenfeld","3.3.7","yes","yes","600bd7cfb6416f0113b04181","602110864497cf011d9c0822","0","j","NA","j","j","j","j","j","744","NA","3065","19805","10231","22418","744","2","legacy","1024","2","48000","-16","task","5125618","even","NA","43102","48171","45106","238462","5585","35639","25404","238966","147474","238460","238967","238409","48171","239712","41433","237909","5524","227814","Lexical Decision Task","84","75216","90","yes","1024"
"2.794720352","0","9","koot","non-word","93.4065934065934","93.4065934065934","835.9230769230769","835.9230769230769","black","no","legacy","legacy","legacy","0","uniform","1","undefined","undefined","undefined","1","f","0","0","0","0","90","0","0","0","90","0","86","90","86","0","86","3","90","0","90","Fri Feb 19 14:08:59 2021","The main experiment item","yes","Lexical_Decision_Task.osexp","/Users/danielmolinacamacho","no","Andale Mono","no","18","no","white","no","yes","576","legacy","86","86","3","/Users/danielmolinacamacho/subject-5125618.csv","legacy","Lentiform Loewenfeld","3.3.7","yes","yes","600bd7cfb6416f0113b04181","602110864497cf011d9c0822","0","f","NA","j","j","j","j","f","853","NA","3065","19805","10231","22418","853","2","legacy","1024","2","48000","-16","task","5125618","even","NA","43102","48171","45106","240275","5585","35639","25404","240779","147474","240273","240780","240222","48171","241634","41433","239722","5524","227814","Lexical Decision Task","85","76069","91","yes","1024"
"3.492014979","0","9","yine","non-word","93.47826086956522","93.47826086956522","836.4782608695652","836.4782608695652","black","no","legacy","legacy","legacy","0","uniform","1","undefined","undefined","undefined","1","f","0","0","0","0","91","0","0","0","91","0","87","91","87","0","87","3","91","0","91","Fri Feb 19 14:08:59 2021","The main experiment item","yes","Lexical_Decision_Task.osexp","/Users/danielmolinacamacho","no","Andale Mono","no","18","no","white","no","yes","576","legacy","87","87","3","/Users/danielmolinacamacho/subject-5125618.csv","legacy","Lentiform Loewenfeld","3.3.7","yes","yes","600bd7cfb6416f0113b04181","602110864497cf011d9c0822","0","f","NA","j","j","j","j","f","887","NA","3065","19805","10231","22418","887","2","legacy","1024","2","48000","-16","task","5125618","even","NA","43102","48171","45106","242194","5585","35639","25404","242698","147474","242191","242699","242141","48171","243587","41433","241641","5524","227814","Lexical Decision Task","86","76956","92","yes","1024"
"3.091901331","0","9","nipe","non-word","93.54838709677419","93.54838709677419","843.6774193548387","843.6774193548387","black","no","legacy","legacy","legacy","0","uniform","1","undefined","undefined","undefined","1","f","0","0","0","0","92","0","0","0","92","0","88","92","88","0","88","3","92","0","92","Fri Feb 19 14:08:59 2021","The main experiment item","yes","Lexical_Decision_Task.osexp","/Users/danielmolinacamacho","no","Andale Mono","no","18","no","white","no","yes","576","legacy","88","88","3","/Users/danielmolinacamacho/subject-5125618.csv","legacy","Lentiform Loewenfeld","3.3.7","yes","yes","600bd7cfb6416f0113b04181","602110864497cf011d9c0822","0","f","NA","j","j","j","j","f","1506","NA","3065","19805","10231","22418","1506","2","legacy","1024","2","48000","-16","task","5125618","even","NA","43102","48171","45106","244147","5585","35639","25404","244651","147474","244144","244651","244093","48171","246158","41433","243593","5524","227814","Lexical Decision Task","87","78462","93","yes","1024"
"2.675164031","8.57","6","glue","word","93.61702127659575","93.61702127659575","841.8085106382979","841.8085106382979","black","no","legacy","legacy","legacy","0","uniform","1","undefined","undefined","undefined","1","j","0","0","0","0","93","0","0","0","93","0","89","93","89","0","89","3","93","0","93","Fri Feb 19 14:08:59 2021","The main experiment item","yes","Lexical_Decision_Task.osexp","/Users/danielmolinacamacho","no","Andale Mono","no","18","no","white","no","yes","576","legacy","89","89","3","/Users/danielmolinacamacho/subject-5125618.csv","legacy","Lentiform Loewenfeld","3.3.7","yes","yes","600bd7cfb6416f0113b04181","602110864497cf011d9c0822","0","j","NA","j","j","j","j","j","668","NA","3065","19805","10231","22418","668","2","legacy","1024","2","48000","-16","task","5125618","even","NA","43102","48171","45106","246717","5585","35639","25404","247220","147474","246714","247221","246663","48171","247890","41433","246163","5524","227814","Lexical Decision Task","88","79130","94","yes","1024"
"2.719886232","7.98","2","quiz","word","93.6842105263158","93.6842105263158","844.6736842105263","844.6736842105263","black","no","legacy","legacy","legacy","0","uniform","1","undefined","undefined","undefined","1","j","0","0","0","0","94","0","0","0","94","0","90","94","90","0","90","3","94","0","94","Fri Feb 19 14:08:59 2021","The main experiment item","yes","Lexical_Decision_Task.osexp","/Users/danielmolinacamacho","no","Andale Mono","no","18","no","white","no","yes","576","legacy","90","90","3","/Users/danielmolinacamacho/subject-5125618.csv","legacy","Lentiform Loewenfeld","3.3.7","yes","yes","600bd7cfb6416f0113b04181","602110864497cf011d9c0822","0","j","NA","j","j","j","j","j","1114","NA","3065","19805","10231","22418","1114","2","legacy","1024","2","48000","-16","task","5125618","even","NA","43102","48171","45106","248449","5585","35639","25404","248953","147474","248447","248954","248396","48171","250070","41433","247895","5524","227814","Lexical Decision Task","89","80244","95","yes","1024"
"3.216517684","10.87","3","film","word","93.75","93.75","843.1041666666666","843.1041666666666","black","no","legacy","legacy","legacy","0","uniform","1","undefined","undefined","undefined","1","j","0","0","0","0","95","0","0","0","95","0","91","95","91","0","91","3","95","0","95","Fri Feb 19 14:08:59 2021","The main experiment item","yes","Lexical_Decision_Task.osexp","/Users/danielmolinacamacho","no","Andale Mono","no","18","no","white","no","yes","576","legacy","91","91","3","/Users/danielmolinacamacho/subject-5125618.csv","legacy","Lentiform Loewenfeld","3.3.7","yes","yes","600bd7cfb6416f0113b04181","602110864497cf011d9c0822","0","j","NA","j","j","j","j","j","694","NA","3065","19805","10231","22418","694","2","legacy","1024","2","48000","-16","task","5125618","even","NA","43102","48171","45106","250629","5585","35639","25404","251133","147474","250626","251134","250576","48171","251830","41433","250075","5524","227814","Lexical Decision Task","90","80938","96","yes","1024"
"2.819763221","0","2","durp","non-word","93.81443298969072","93.81443298969072","841.9484536082474","841.9484536082474","black","no","legacy","legacy","legacy","0","uniform","1","undefined","undefined","undefined","1","f","0","0","0","0","96","0","0","0","96","0","92","96","92","0","92","3","96","0","96","Fri Feb 19 14:08:59 2021","The main experiment item","yes","Lexical_Decision_Task.osexp","/Users/danielmolinacamacho","no","Andale Mono","no","18","no","white","no","yes","576","legacy","92","92","3","/Users/danielmolinacamacho/subject-5125618.csv","legacy","Lentiform Loewenfeld","3.3.7","yes","yes","600bd7cfb6416f0113b04181","602110864497cf011d9c0822","0","f","NA","j","j","j","j","f","731","NA","3065","19805","10231","22418","731","2","legacy","1024","2","48000","-16","task","5125618","even","NA","43102","48171","45106","252390","5585","35639","25404","252893","147474","252387","252894","252336","48171","253626","41433","251835","5524","227814","Lexical Decision Task","91","81669","97","yes","1024"
"3.259832699","0","9","flar","non-word","93.87755102040816","93.87755102040816","842.9897959183673","842.9897959183673","black","no","legacy","legacy","legacy","0","uniform","1","undefined","undefined","undefined","1","f","0","0","0","0","97","0","0","0","97","0","93","97","93","0","93","3","97","0","97","Fri Feb 19 14:08:59 2021","The main experiment item","yes","Lexical_Decision_Task.osexp","/Users/danielmolinacamacho","no","Andale Mono","no","18","no","white","no","yes","576","legacy","93","93","3","/Users/danielmolinacamacho/subject-5125618.csv","legacy","Lentiform Loewenfeld","3.3.7","yes","yes","600bd7cfb6416f0113b04181","602110864497cf011d9c0822","0","f","NA","j","j","j","j","f","944","NA","3065","19805","10231","22418","944","2","legacy","1024","2","48000","-16","task","5125618","even","NA","43102","48171","45106","254186","5585","35639","25404","254689","147474","254183","254690","254132","48171","255635","41433","253632","5524","227814","Lexical Decision Task","92","82613","98","yes","1024"
"3.16326079","0","5","parg","non-word","93.93939393939394","93.93939393939394","840.8484848484849","840.8484848484849","black","no","legacy","legacy","legacy","0","uniform","1","undefined","undefined","undefined","1","f","0","0","0","0","98","0","0","0","98","0","94","98","94","0","94","3","98","0","98","Fri Feb 19 14:08:59 2021","The main experiment item","yes","Lexical_Decision_Task.osexp","/Users/danielmolinacamacho","no","Andale Mono","no","18","no","white","no","yes","576","legacy","94","94","3","/Users/danielmolinacamacho/subject-5125618.csv","legacy","Lentiform Loewenfeld","3.3.7","yes","yes","600bd7cfb6416f0113b04181","602110864497cf011d9c0822","0","f","NA","j","j","j","j","f","631","NA","3065","19805","10231","22418","631","2","legacy","1024","2","48000","-16","task","5125618","even","NA","43102","48171","45106","256194","5585","35639","25404","256698","147474","256192","256699","256141","48171","257331","41433","255640","5524","227814","Lexical Decision Task","93","83244","99","yes","1024"
"3.028977705","0","7","frow","non-word","94","94","857.57","857.57","black","no","legacy","legacy","legacy","0","uniform","1","undefined","undefined","undefined","1","f","0","0","0","0","99","0","0","0","99","0","95","99","95","0","95","3","99","0","99","Fri Feb 19 14:08:59 2021","The main experiment item","yes","Lexical_Decision_Task.osexp","/Users/danielmolinacamacho","no","Andale Mono","no","18","no","white","no","yes","576","legacy","95","95","3","/Users/danielmolinacamacho/subject-5125618.csv","legacy","Lentiform Loewenfeld","3.3.7","yes","yes","600bd7cfb6416f0113b04181","602110864497cf011d9c0822","0","f","NA","j","j","j","j","f","2513","NA","3065","19805","10231","22418","2513","2","legacy","1024","2","48000","-16","task","5125618","even","NA","43102","48171","45106","257890","5585","35639","25404","258394","147474","257887","258395","257837","48171","260909","41433","257337","5524","227814","Lexical Decision Task","94","85757","100","yes","1024"
"2.858136002","0","4","phip","non-word","94.05940594059406","94.05940594059406","857.7623762376238","857.7623762376238","black","no","legacy","legacy","legacy","0","uniform","1","undefined","undefined","undefined","1","f","0","0","0","0","100","0","0","0","100","0","96","100","96","0","96","3","100","0","100","Fri Feb 19 14:08:59 2021","The main experiment item","yes","Lexical_Decision_Task.osexp","/Users/danielmolinacamacho","no","Andale Mono","no","18","no","white","no","yes","576","legacy","96","96","3","/Users/danielmolinacamacho/subject-5125618.csv","legacy","Lentiform Loewenfeld","3.3.7","yes","yes","600bd7cfb6416f0113b04181","602110864497cf011d9c0822","0","f","NA","j","j","j","j","f","877","NA","3065","19805","10231","22418","877","2","legacy","1024","2","48000","-16","task","5125618","even","NA","43102","48171","45106","261468","5585","35639","25404","261971","147474","261465","261972","261414","48171","262851","41433","260914","5524","227814","Lexical Decision Task","95","86634","101","yes","1024"
