"Log_BG","Log_Freq_HAL","Ortho_N","Stimulus","Type","acc","accuracy","average_response_time","avg_rt","background","bidi","canvas_backend","clock_backend","color_backend","compensation","coordinates","correct","correct_Experimental_intro","correct_Introduction","correct_Practice_intro","correct_experimenter_kb","correct_response","count_End_Of_Experiment","count_End_Of_Practice","count_Experimental_Loop","count_Experimental_intro","count_Fixation","count_Introduction","count_Practice_Loop","count_Practice_intro","count_Stimulus","count_block_break_feedback","count_experimental_sequence","count_experimenter_kb","count_increment_trial_count","count_init_trial_count","count_logger","count_practice_sequence","count_right","count_task","count_wrong","datetime","description","disable_garbage_collection","experiment_file","experiment_path","font_bold","font_family","font_italic","font_size","font_underline","foreground","form_clicks","fullscreen","height","keyboard_backend","live_row","live_row_Experimental_Loop","live_row_Practice_Loop","logfile","mouse_backend","opensesame_codename","opensesame_version","osf_always_upload_data","osf_always_upload_experiment","osf_datanode_id","osf_id","repeat_cycle","response","response_End_Of_Experiment","response_Experimental_intro","response_Introduction","response_Practice_intro","response_block_break_feedback","response_experimenter_kb","response_time","response_time_End_Of_Experiment","response_time_Experimental_intro","response_time_Introduction","response_time_Practice_intro","response_time_block_break_feedback","response_time_experimenter_kb","round_decimals","sampler_backend","sound_buf_size","sound_channels","sound_freq","sound_sample_size","start","subject_nr","subject_parity","time_End_Of_Experiment","time_End_Of_Practice","time_Experimental_Loop","time_Experimental_intro","time_Fixation","time_Introduction","time_Practice_Loop","time_Practice_intro","time_Stimulus","time_block_break_feedback","time_experimental_sequence","time_experimenter_kb","time_increment_trial_count","time_init_trial_count","time_logger","time_practice_sequence","time_right","time_task","time_wrong","title","total_correct","total_response_time","total_responses","uniform_coordinates","width"
"2.728085817","10.02","9","bike","word","100","100","773","773","black","no","legacy","legacy","legacy","0","uniform","1","undefined","undefined","undefined","1","j","0","0","0","0","4","0","0","0","4","NA","0","4","0","0","0","3","4","0","4","Sun Mar 14 21:23:03 2021","The main experiment item","yes","Lexical_Decision_Task.osexp","C:/Users/sophi","no","Andale Mono","no","18","no","white","no","yes","576","legacy","0","0","3","C:/Users/sophi/subject-5202236.csv","legacy","Lentiform Loewenfeld","3.3.8","yes","yes","600bd7cfb6416f0113b04181","602110864497cf011d9c0822","0","j","NA","i","j","j","NA","j","960","NA","2656","14086","5327","NA","960","2","legacy","1024","2","48000","-16","task","5202236","even","NA","45959","50617","47960","50680","18297","37733","32405","51183","NA","50678","51183","NA","50617","52143","44460","45432","18281","NA","Lexical Decision Task","5","3865","5","yes","1024"
"2.695770526","7.34","6","pawn","word","100","100","739.1666666666666","739.1666666666666","black","no","legacy","legacy","legacy","0","uniform","1","undefined","undefined","undefined","1","j","0","0","0","0","5","0","0","0","5","NA","1","5","1","0","1","3","5","0","5","Sun Mar 14 21:23:03 2021","The main experiment item","yes","Lexical_Decision_Task.osexp","C:/Users/sophi","no","Andale Mono","no","18","no","white","no","yes","576","legacy","1","1","3","C:/Users/sophi/subject-5202236.csv","legacy","Lentiform Loewenfeld","3.3.8","yes","yes","600bd7cfb6416f0113b04181","602110864497cf011d9c0822","0","j","NA","i","j","j","NA","j","570","NA","2656","14086","5327","NA","570","2","legacy","1024","2","48000","-16","task","5202236","even","NA","45959","50617","47960","53311","18297","37733","32405","53812","NA","53309","53813","53128","50617","54383","44460","52628","18281","NA","Lexical Decision Task","6","4435","6","yes","1024"
"2.809559715","8.44","4","volt","word","100","100","725","725","black","no","legacy","legacy","legacy","0","uniform","1","undefined","undefined","undefined","1","j","0","0","0","0","6","0","0","0","6","NA","2","6","2","0","2","3","6","0","6","Sun Mar 14 21:23:03 2021","The main experiment item","yes","Lexical_Decision_Task.osexp","C:/Users/sophi","no","Andale Mono","no","18","no","white","no","yes","576","legacy","2","2","3","C:/Users/sophi/subject-5202236.csv","legacy","Lentiform Loewenfeld","3.3.8","yes","yes","600bd7cfb6416f0113b04181","602110864497cf011d9c0822","0","j","NA","i","j","j","NA","j","640","NA","2656","14086","5327","NA","640","2","legacy","1024","2","48000","-16","task","5202236","even","NA","45959","50617","47960","55636","18297","37733","32405","56137","NA","55634","56138","55544","50617","56779","44460","55043","18281","NA","Lexical Decision Task","7","5075","7","yes","1024"
"3.208978517","10.33","4","fish","word","100","100","730.75","730.75","black","no","legacy","legacy","legacy","0","uniform","1","undefined","undefined","undefined","1","j","0","0","0","0","7","0","0","0","7","NA","3","7","3","0","3","3","7","0","7","Sun Mar 14 21:23:03 2021","The main experiment item","yes","Lexical_Decision_Task.osexp","C:/Users/sophi","no","Andale Mono","no","18","no","white","no","yes","576","legacy","3","3","3","C:/Users/sophi/subject-5202236.csv","legacy","Lentiform Loewenfeld","3.3.8","yes","yes","600bd7cfb6416f0113b04181","602110864497cf011d9c0822","0","j","NA","i","j","j","NA","j","771","NA","2656","14086","5327","NA","771","2","legacy","1024","2","48000","-16","task","5202236","even","NA","45959","50617","47960","58239","18297","37733","32405","58740","NA","58237","58741","58154","50617","59513","44460","57654","18281","NA","Lexical Decision Task","8","5846","8","yes","1024"
"2.86332286","6.71","2","feud","word","100","100","794.8888888888889","794.8888888888889","black","no","legacy","legacy","legacy","0","uniform","1","undefined","undefined","undefined","1","j","0","0","0","0","8","0","0","0","8","NA","4","8","4","0","4","3","8","0","8","Sun Mar 14 21:23:03 2021","The main experiment item","yes","Lexical_Decision_Task.osexp","C:/Users/sophi","no","Andale Mono","no","18","no","white","no","yes","576","legacy","4","4","3","C:/Users/sophi/subject-5202236.csv","legacy","Lentiform Loewenfeld","3.3.8","yes","yes","600bd7cfb6416f0113b04181","602110864497cf011d9c0822","0","j","NA","i","j","j","NA","j","1308","NA","2656","14086","5327","NA","1308","2","legacy","1024","2","48000","-16","task","5202236","even","NA","45959","50617","47960","60133","18297","37733","32405","60634","NA","60131","60634","60051","50617","61943","44460","59551","18281","NA","Lexical Decision Task","9","7154","9","yes","1024"
"3.218535505","7.85","7","goat","word","100","100","930.5","930.5","black","no","legacy","legacy","legacy","0","uniform","1","undefined","undefined","undefined","1","j","0","0","0","0","9","0","0","0","9","NA","5","9","5","0","5","3","9","0","9","Sun Mar 14 21:23:03 2021","The main experiment item","yes","Lexical_Decision_Task.osexp","C:/Users/sophi","no","Andale Mono","no","18","no","white","no","yes","576","legacy","5","5","3","C:/Users/sophi/subject-5202236.csv","legacy","Lentiform Loewenfeld","3.3.8","yes","yes","600bd7cfb6416f0113b04181","602110864497cf011d9c0822","0","j","NA","i","j","j","NA","j","2151","NA","2656","14086","5327","NA","2151","2","legacy","1024","2","48000","-16","task","5202236","even","NA","45959","50617","47960","62570","18297","37733","32405","63072","NA","62567","63072","62487","50617","65224","44460","61986","18281","NA","Lexical Decision Task","10","9305","10","yes","1024"
"2.9737419","7.69","7","claw","word","90.9090909090909","90.9090909090909","1118.6363636363637","1118.6363636363637","black","no","legacy","legacy","legacy","0","uniform","0","undefined","undefined","undefined","0","j","0","0","0","0","10","0","0","0","10","NA","6","10","6","0","6","3","10","0","10","Sun Mar 14 21:23:03 2021","The main experiment item","yes","Lexical_Decision_Task.osexp","C:/Users/sophi","no","Andale Mono","no","18","no","white","no","yes","576","legacy","6","6","3","C:/Users/sophi/subject-5202236.csv","legacy","Lentiform Loewenfeld","3.3.8","yes","yes","600bd7cfb6416f0113b04181","602110864497cf011d9c0822","0","None","NA","i","j","j","NA","None","3000","NA","2656","14086","5327","NA","3000","2","legacy","1024","2","48000","-16","task","5202236","even","NA","45959","50617","47960","65852","18297","37733","32405","66354","NA","65850","66355","65769","50617","69355","44460","65269","18281","NA","Lexical Decision Task","10","12305","11","yes","1024"
"3.495914186","0","4","peng","non-word","83.33333333333333","83.33333333333333","1089.6666666666667","1089.6666666666667","black","no","legacy","legacy","legacy","0","uniform","0","undefined","undefined","undefined","0","f","0","0","0","0","11","0","0","0","11","NA","7","11","7","0","7","3","11","0","11","Sun Mar 14 21:23:03 2021","The main experiment item","yes","Lexical_Decision_Task.osexp","C:/Users/sophi","no","Andale Mono","no","18","no","white","no","yes","576","legacy","7","7","3","C:/Users/sophi/subject-5202236.csv","legacy","Lentiform Loewenfeld","3.3.8","yes","yes","600bd7cfb6416f0113b04181","602110864497cf011d9c0822","0","j","NA","i","j","j","NA","j","771","NA","2656","14086","5327","NA","771","2","legacy","1024","2","48000","-16","task","5202236","even","NA","45959","50617","47960","71066","18297","37733","32405","71567","NA","71063","71568","70983","50617","72340","44460","65269","18281","69483","Lexical Decision Task","10","13076","12","yes","1024"
"3.077974404","10.41","8","tool","word","84.61538461538461","84.61538461538461","1088.3076923076924","1088.3076923076924","black","no","legacy","legacy","legacy","0","uniform","1","undefined","undefined","undefined","1","j","0","0","0","0","12","0","0","0","12","NA","8","12","8","0","8","3","12","0","12","Sun Mar 14 21:23:03 2021","The main experiment item","yes","Lexical_Decision_Task.osexp","C:/Users/sophi","no","Andale Mono","no","18","no","white","no","yes","576","legacy","8","8","3","C:/Users/sophi/subject-5202236.csv","legacy","Lentiform Loewenfeld","3.3.8","yes","yes","600bd7cfb6416f0113b04181","602110864497cf011d9c0822","0","j","NA","i","j","j","NA","j","1072","NA","2656","14086","5327","NA","1072","2","legacy","1024","2","48000","-16","task","5202236","even","NA","45959","50617","47960","73966","18297","37733","32405","74469","NA","73964","74469","73879","50617","75541","44460","65269","18281","72379","Lexical Decision Task","11","14148","13","yes","1024"
"2.980911938","7.15","7","hoop","word","85.71428571428571","85.71428571428571","1123.7142857142858","1123.7142857142858","black","no","legacy","legacy","legacy","0","uniform","1","undefined","undefined","undefined","1","j","0","0","0","0","13","0","0","0","13","NA","9","13","9","0","9","3","13","0","13","Sun Mar 14 21:23:03 2021","The main experiment item","yes","Lexical_Decision_Task.osexp","C:/Users/sophi","no","Andale Mono","no","18","no","white","no","yes","576","legacy","9","9","3","C:/Users/sophi/subject-5202236.csv","legacy","Lentiform Loewenfeld","3.3.8","yes","yes","600bd7cfb6416f0113b04181","602110864497cf011d9c0822","0","j","NA","i","j","j","NA","j","1584","NA","2656","14086","5327","NA","1584","2","legacy","1024","2","48000","-16","task","5202236","even","NA","45959","50617","47960","76161","18297","37733","32405","76663","NA","76159","76663","76080","50617","78248","44460","75580","18281","72379","Lexical Decision Task","12","15732","14","yes","1024"
"3.067193647","6.73","6","raft","word","86.66666666666667","86.66666666666667","1226.2","1226.2","black","no","legacy","legacy","legacy","0","uniform","1","undefined","undefined","undefined","1","j","0","0","0","0","14","0","0","0","14","NA","10","14","10","0","10","3","14","0","14","Sun Mar 14 21:23:03 2021","The main experiment item","yes","Lexical_Decision_Task.osexp","C:/Users/sophi","no","Andale Mono","no","18","no","white","no","yes","576","legacy","10","10","3","C:/Users/sophi/subject-5202236.csv","legacy","Lentiform Loewenfeld","3.3.8","yes","yes","600bd7cfb6416f0113b04181","602110864497cf011d9c0822","0","j","NA","i","j","j","NA","j","2661","NA","2656","14086","5327","NA","2661","2","legacy","1024","2","48000","-16","task","5202236","even","NA","45959","50617","47960","78949","18297","37733","32405","79451","NA","78947","79452","78868","50617","82114","44460","78367","18281","72379","Lexical Decision Task","13","18393","15","yes","1024"
"3.120135028","0","3","vals","non-word","87.5","87.5","1207.9375","1207.9375","black","no","legacy","legacy","legacy","0","uniform","1","undefined","undefined","undefined","1","f","0","0","0","0","15","0","0","0","15","NA","11","15","11","0","11","3","15","0","15","Sun Mar 14 21:23:03 2021","The main experiment item","yes","Lexical_Decision_Task.osexp","C:/Users/sophi","no","Andale Mono","no","18","no","white","no","yes","576","legacy","11","11","3","C:/Users/sophi/subject-5202236.csv","legacy","Lentiform Loewenfeld","3.3.8","yes","yes","600bd7cfb6416f0113b04181","602110864497cf011d9c0822","0","f","NA","i","j","j","NA","f","934","NA","2656","14086","5327","NA","934","2","legacy","1024","2","48000","-16","task","5202236","even","NA","45959","50617","47960","82731","18297","37733","32405","83233","NA","82729","83233","82651","50617","84168","44460","82151","18281","72379","Lexical Decision Task","14","19327","16","yes","1024"
"2.898725182","0","7","turl","non-word","88.23529411764706","88.23529411764706","1220.6470588235295","1220.6470588235295","black","no","legacy","legacy","legacy","0","uniform","1","undefined","undefined","undefined","1","f","0","0","0","0","16","0","0","0","16","NA","12","16","12","0","12","3","16","0","16","Sun Mar 14 21:23:03 2021","The main experiment item","yes","Lexical_Decision_Task.osexp","C:/Users/sophi","no","Andale Mono","no","18","no","white","no","yes","576","legacy","12","12","3","C:/Users/sophi/subject-5202236.csv","legacy","Lentiform Loewenfeld","3.3.8","yes","yes","600bd7cfb6416f0113b04181","602110864497cf011d9c0822","0","f","NA","i","j","j","NA","f","1424","NA","2656","14086","5327","NA","1424","2","legacy","1024","2","48000","-16","task","5202236","even","NA","45959","50617","47960","84884","18297","37733","32405","85387","NA","84882","85388","84802","50617","86812","44460","84302","18281","72379","Lexical Decision Task","15","20751","17","yes","1024"
"2.698100546","0","9","mulk","non-word","88.88888888888889","88.88888888888889","1205.1666666666667","1205.1666666666667","black","no","legacy","legacy","legacy","0","uniform","1","undefined","undefined","undefined","1","f","0","0","0","0","17","0","0","0","17","NA","13","17","13","0","13","3","17","0","17","Sun Mar 14 21:23:03 2021","The main experiment item","yes","Lexical_Decision_Task.osexp","C:/Users/sophi","no","Andale Mono","no","18","no","white","no","yes","576","legacy","13","13","3","C:/Users/sophi/subject-5202236.csv","legacy","Lentiform Loewenfeld","3.3.8","yes","yes","600bd7cfb6416f0113b04181","602110864497cf011d9c0822","0","f","NA","i","j","j","NA","f","942","NA","2656","14086","5327","NA","942","2","legacy","1024","2","48000","-16","task","5202236","even","NA","45959","50617","47960","87522","18297","37733","32405","88024","NA","87519","88024","87436","50617","88967","44460","86936","18281","72379","Lexical Decision Task","16","21693","18","yes","1024"
"3.303771854","0","9","dath","non-word","89.47368421052632","89.47368421052632","1222.421052631579","1222.421052631579","black","no","legacy","legacy","legacy","0","uniform","1","undefined","undefined","undefined","1","f","0","0","0","0","18","0","0","0","18","NA","14","18","14","0","14","3","18","0","18","Sun Mar 14 21:23:03 2021","The main experiment item","yes","Lexical_Decision_Task.osexp","C:/Users/sophi","no","Andale Mono","no","18","no","white","no","yes","576","legacy","14","14","3","C:/Users/sophi/subject-5202236.csv","legacy","Lentiform Loewenfeld","3.3.8","yes","yes","600bd7cfb6416f0113b04181","602110864497cf011d9c0822","0","f","NA","i","j","j","NA","f","1533","NA","2656","14086","5327","NA","1533","2","legacy","1024","2","48000","-16","task","5202236","even","NA","45959","50617","47960","89587","18297","37733","32405","90090","NA","89585","90090","89497","50617","91624","44460","88997","18281","72379","Lexical Decision Task","17","23226","19","yes","1024"
"2.744553742","0","2","nawk","non-word","90","90","1218.1","1218.1","black","no","legacy","legacy","legacy","0","uniform","1","undefined","undefined","undefined","1","f","0","0","0","0","19","0","0","0","19","NA","15","19","15","0","15","3","19","0","19","Sun Mar 14 21:23:03 2021","The main experiment item","yes","Lexical_Decision_Task.osexp","C:/Users/sophi","no","Andale Mono","no","18","no","white","no","yes","576","legacy","15","15","3","C:/Users/sophi/subject-5202236.csv","legacy","Lentiform Loewenfeld","3.3.8","yes","yes","600bd7cfb6416f0113b04181","602110864497cf011d9c0822","0","f","NA","i","j","j","NA","f","1136","NA","2656","14086","5327","NA","1136","2","legacy","1024","2","48000","-16","task","5202236","even","NA","45959","50617","47960","92262","18297","37733","32405","92763","NA","92258","92763","92176","50617","93900","44460","91676","18281","72379","Lexical Decision Task","18","24362","20","yes","1024"
"2.880623071","0","9","curp","non-word","90.47619047619048","90.47619047619048","1187.3809523809523","1187.3809523809523","black","no","legacy","legacy","legacy","0","uniform","1","undefined","undefined","undefined","1","f","0","0","0","0","20","0","0","0","20","NA","16","20","16","0","16","3","20","0","20","Sun Mar 14 21:23:03 2021","The main experiment item","yes","Lexical_Decision_Task.osexp","C:/Users/sophi","no","Andale Mono","no","18","no","white","no","yes","576","legacy","16","16","3","C:/Users/sophi/subject-5202236.csv","legacy","Lentiform Loewenfeld","3.3.8","yes","yes","600bd7cfb6416f0113b04181","602110864497cf011d9c0822","0","f","NA","i","j","j","NA","f","573","NA","2656","14086","5327","NA","573","2","legacy","1024","2","48000","-16","task","5202236","even","NA","45959","50617","47960","94549","18297","37733","32405","95051","NA","94547","95051","94448","50617","95625","44460","93948","18281","72379","Lexical Decision Task","19","24935","21","yes","1024"
"2.875447132","0","9","jelt","non-word","90.9090909090909","90.9090909090909","1161.909090909091","1161.909090909091","black","no","legacy","legacy","legacy","0","uniform","1","undefined","undefined","undefined","1","f","0","0","0","0","21","0","0","0","21","NA","17","21","17","0","17","3","21","0","21","Sun Mar 14 21:23:03 2021","The main experiment item","yes","Lexical_Decision_Task.osexp","C:/Users/sophi","no","Andale Mono","no","18","no","white","no","yes","576","legacy","17","17","3","C:/Users/sophi/subject-5202236.csv","legacy","Lentiform Loewenfeld","3.3.8","yes","yes","600bd7cfb6416f0113b04181","602110864497cf011d9c0822","0","f","NA","i","j","j","NA","f","627","NA","2656","14086","5327","NA","627","2","legacy","1024","2","48000","-16","task","5202236","even","NA","45959","50617","47960","96281","18297","37733","32405","96783","NA","96279","96784","96196","50617","97411","44460","95695","18281","72379","Lexical Decision Task","20","25562","22","yes","1024"
"3.149629599","0","2","cleb","non-word","91.30434782608695","91.30434782608695","1131.7826086956522","1131.7826086956522","black","no","legacy","legacy","legacy","0","uniform","1","undefined","undefined","undefined","1","f","0","0","0","0","22","0","0","0","22","NA","18","22","18","0","18","3","22","0","22","Sun Mar 14 21:23:03 2021","The main experiment item","yes","Lexical_Decision_Task.osexp","C:/Users/sophi","no","Andale Mono","no","18","no","white","no","yes","576","legacy","18","18","3","C:/Users/sophi/subject-5202236.csv","legacy","Lentiform Loewenfeld","3.3.8","yes","yes","600bd7cfb6416f0113b04181","602110864497cf011d9c0822","0","f","NA","i","j","j","NA","f","469","NA","2656","14086","5327","NA","469","2","legacy","1024","2","48000","-16","task","5202236","even","NA","45959","50617","47960","98054","18297","37733","32405","98557","NA","98052","98557","97944","50617","99027","44460","97444","18281","72379","Lexical Decision Task","21","26031","23","yes","1024"
"3.197740804","6.74","3","ache","word","87.5","87.5","1103.5833333333333","1103.5833333333333","black","no","legacy","legacy","legacy","0","uniform","0","undefined","undefined","undefined","0","j","0","0","0","0","23","0","0","0","23","NA","19","23","19","0","19","3","23","0","23","Sun Mar 14 21:23:03 2021","The main experiment item","yes","Lexical_Decision_Task.osexp","C:/Users/sophi","no","Andale Mono","no","18","no","white","no","yes","576","legacy","19","19","3","C:/Users/sophi/subject-5202236.csv","legacy","Lentiform Loewenfeld","3.3.8","yes","yes","600bd7cfb6416f0113b04181","602110864497cf011d9c0822","0","f","NA","i","j","j","NA","f","455","NA","2656","14086","5327","NA","455","2","legacy","1024","2","48000","-16","task","5202236","even","NA","45959","50617","47960","99654","18297","37733","32405","100157","NA","99652","100157","99562","50617","100613","44460","99062","18281","72379","Lexical Decision Task","21","26486","24","yes","1024"
"2.813801082","5.47","7","nook","word","88","88","1085.6","1085.6","black","no","legacy","legacy","legacy","0","uniform","1","undefined","undefined","undefined","1","j","0","0","0","0","24","0","0","0","24","NA","20","24","20","0","20","3","24","0","24","Sun Mar 14 21:23:03 2021","The main experiment item","yes","Lexical_Decision_Task.osexp","C:/Users/sophi","no","Andale Mono","no","18","no","white","no","yes","576","legacy","20","20","3","C:/Users/sophi/subject-5202236.csv","legacy","Lentiform Loewenfeld","3.3.8","yes","yes","600bd7cfb6416f0113b04181","602110864497cf011d9c0822","0","j","NA","i","j","j","NA","j","654","NA","2656","14086","5327","NA","654","2","legacy","1024","2","48000","-16","task","5202236","even","NA","45959","50617","47960","102237","18297","37733","32405","102740","NA","102235","102740","102156","50617","103395","44460","99062","18281","100656","Lexical Decision Task","22","27140","25","yes","1024"
"3.153001286","8.7","5","palm","word","88.46153846153847","88.46153846153847","1062","1062","black","no","legacy","legacy","legacy","0","uniform","1","undefined","undefined","undefined","1","j","0","0","0","0","25","0","0","0","25","NA","21","25","21","0","21","3","25","0","25","Sun Mar 14 21:23:03 2021","The main experiment item","yes","Lexical_Decision_Task.osexp","C:/Users/sophi","no","Andale Mono","no","18","no","white","no","yes","576","legacy","21","21","3","C:/Users/sophi/subject-5202236.csv","legacy","Lentiform Loewenfeld","3.3.8","yes","yes","600bd7cfb6416f0113b04181","602110864497cf011d9c0822","0","j","NA","i","j","j","NA","j","472","NA","2656","14086","5327","NA","472","2","legacy","1024","2","48000","-16","task","5202236","even","NA","45959","50617","47960","104018","18297","37733","32405","104521","NA","104016","104521","103934","50617","104993","44460","103434","18281","100656","Lexical Decision Task","23","27612","26","yes","1024"
"2.953276337","6.32","4","thaw","word","88.88888888888889","88.88888888888889","1046.4444444444443","1046.4444444444443","black","no","legacy","legacy","legacy","0","uniform","1","undefined","undefined","undefined","1","j","0","0","0","0","26","0","0","0","26","NA","22","26","22","0","22","3","26","0","26","Sun Mar 14 21:23:03 2021","The main experiment item","yes","Lexical_Decision_Task.osexp","C:/Users/sophi","no","Andale Mono","no","18","no","white","no","yes","576","legacy","22","22","3","C:/Users/sophi/subject-5202236.csv","legacy","Lentiform Loewenfeld","3.3.8","yes","yes","600bd7cfb6416f0113b04181","602110864497cf011d9c0822","0","j","NA","i","j","j","NA","j","642","NA","2656","14086","5327","NA","642","2","legacy","1024","2","48000","-16","task","5202236","even","NA","45959","50617","47960","105615","18297","37733","32405","106116","NA","105612","106117","105533","50617","106760","44460","105033","18281","100656","Lexical Decision Task","24","28254","27","yes","1024"
"3.29439347","8.6","9","wand","word","89.28571428571429","89.28571428571429","1026.857142857143","1026.857142857143","black","no","legacy","legacy","legacy","0","uniform","1","undefined","undefined","undefined","1","j","0","0","0","0","27","0","0","0","27","NA","23","27","23","0","23","3","27","0","27","Sun Mar 14 21:23:03 2021","The main experiment item","yes","Lexical_Decision_Task.osexp","C:/Users/sophi","no","Andale Mono","no","18","no","white","no","yes","576","legacy","23","23","3","C:/Users/sophi/subject-5202236.csv","legacy","Lentiform Loewenfeld","3.3.8","yes","yes","600bd7cfb6416f0113b04181","602110864497cf011d9c0822","0","j","NA","i","j","j","NA","j","498","NA","2656","14086","5327","NA","498","2","legacy","1024","2","48000","-16","task","5202236","even","NA","45959","50617","47960","107391","18297","37733","32405","107894","NA","107389","107894","107310","50617","108393","44460","106809","18281","100656","Lexical Decision Task","25","28752","28","yes","1024"
"3.440331212","7.35","6","stew","word","89.65517241379311","89.65517241379311","1011.9655172413793","1011.9655172413793","black","no","legacy","legacy","legacy","0","uniform","1","undefined","undefined","undefined","1","j","0","0","0","0","28","0","0","0","28","NA","24","28","24","0","24","3","28","0","28","Sun Mar 14 21:23:03 2021","The main experiment item","yes","Lexical_Decision_Task.osexp","C:/Users/sophi","no","Andale Mono","no","18","no","white","no","yes","576","legacy","24","24","3","C:/Users/sophi/subject-5202236.csv","legacy","Lentiform Loewenfeld","3.3.8","yes","yes","600bd7cfb6416f0113b04181","602110864497cf011d9c0822","0","j","NA","i","j","j","NA","j","595","NA","2656","14086","5327","NA","595","2","legacy","1024","2","48000","-16","task","5202236","even","NA","45959","50617","47960","109876","18297","37733","32405","110379","NA","109874","110380","109790","50617","110976","44460","109290","18281","100656","Lexical Decision Task","26","29347","29","yes","1024"
"3.16326079","0","5","parg","non-word","90","90","1003.9666666666667","1003.9666666666667","black","no","legacy","legacy","legacy","0","uniform","1","undefined","undefined","undefined","1","f","0","0","0","0","29","0","0","0","29","NA","25","29","25","0","25","3","29","0","29","Sun Mar 14 21:23:03 2021","The main experiment item","yes","Lexical_Decision_Task.osexp","C:/Users/sophi","no","Andale Mono","no","18","no","white","no","yes","576","legacy","25","25","3","C:/Users/sophi/subject-5202236.csv","legacy","Lentiform Loewenfeld","3.3.8","yes","yes","600bd7cfb6416f0113b04181","602110864497cf011d9c0822","0","f","NA","i","j","j","NA","f","772","NA","2656","14086","5327","NA","772","2","legacy","1024","2","48000","-16","task","5202236","even","NA","45959","50617","47960","111614","18297","37733","32405","112117","NA","111612","112117","111510","50617","112890","44460","111010","18281","100656","Lexical Decision Task","27","30119","30","yes","1024"
"3.137775856","7.39","5","comb","word","90.3225806451613","90.3225806451613","990.8064516129032","990.8064516129032","black","no","legacy","legacy","legacy","0","uniform","1","undefined","undefined","undefined","1","j","0","0","0","0","30","0","0","0","30","NA","26","30","26","0","26","3","30","0","30","Sun Mar 14 21:23:03 2021","The main experiment item","yes","Lexical_Decision_Task.osexp","C:/Users/sophi","no","Andale Mono","no","18","no","white","no","yes","576","legacy","26","26","3","C:/Users/sophi/subject-5202236.csv","legacy","Lentiform Loewenfeld","3.3.8","yes","yes","600bd7cfb6416f0113b04181","602110864497cf011d9c0822","0","j","NA","i","j","j","NA","j","596","NA","2656","14086","5327","NA","596","2","legacy","1024","2","48000","-16","task","5202236","even","NA","45959","50617","47960","113600","18297","37733","32405","114103","NA","113598","114103","113518","50617","114700","44460","113018","18281","100656","Lexical Decision Task","28","30715","31","yes","1024"
"2.8162413","0","5","nusk","non-word","90.625","90.625","975.375","975.375","black","no","legacy","legacy","legacy","0","uniform","1","undefined","undefined","undefined","1","f","0","0","0","0","31","0","0","0","31","NA","27","31","27","0","27","3","31","0","31","Sun Mar 14 21:23:03 2021","The main experiment item","yes","Lexical_Decision_Task.osexp","C:/Users/sophi","no","Andale Mono","no","18","no","white","no","yes","576","legacy","27","27","3","C:/Users/sophi/subject-5202236.csv","legacy","Lentiform Loewenfeld","3.3.8","yes","yes","600bd7cfb6416f0113b04181","602110864497cf011d9c0822","0","f","NA","i","j","j","NA","f","497","NA","2656","14086","5327","NA","497","2","legacy","1024","2","48000","-16","task","5202236","even","NA","45959","50617","47960","115317","18297","37733","32405","115820","NA","115315","115820","115234","50617","116318","44460","114734","18281","100656","Lexical Decision Task","29","31212","32","yes","1024"
"3.031408464","0","7","drow","non-word","90.9090909090909","90.9090909090909","978.8181818181819","978.8181818181819","black","no","legacy","legacy","legacy","0","uniform","1","undefined","undefined","undefined","1","f","0","0","0","0","32","0","0","0","32","NA","28","32","28","0","28","3","32","0","32","Sun Mar 14 21:23:03 2021","The main experiment item","yes","Lexical_Decision_Task.osexp","C:/Users/sophi","no","Andale Mono","no","18","no","white","no","yes","576","legacy","28","28","3","C:/Users/sophi/subject-5202236.csv","legacy","Lentiform Loewenfeld","3.3.8","yes","yes","600bd7cfb6416f0113b04181","602110864497cf011d9c0822","0","f","NA","i","j","j","NA","f","1089","NA","2656","14086","5327","NA","1089","2","legacy","1024","2","48000","-16","task","5202236","even","NA","45959","50617","47960","116940","18297","37733","32405","117442","NA","116938","117442","116857","50617","118532","44460","116357","18281","100656","Lexical Decision Task","30","32301","33","yes","1024"
"3.088136089","8.32","9","worm","word","88.23529411764706","88.23529411764706","1038.264705882353","1038.264705882353","black","no","legacy","legacy","legacy","0","uniform","0","undefined","undefined","undefined","0","j","0","0","0","0","33","0","0","0","33","NA","29","33","29","0","29","3","33","0","33","Sun Mar 14 21:23:03 2021","The main experiment item","yes","Lexical_Decision_Task.osexp","C:/Users/sophi","no","Andale Mono","no","18","no","white","no","yes","576","legacy","29","29","3","C:/Users/sophi/subject-5202236.csv","legacy","Lentiform Loewenfeld","3.3.8","yes","yes","600bd7cfb6416f0113b04181","602110864497cf011d9c0822","0","None","NA","i","j","j","NA","None","3000","NA","2656","14086","5327","NA","3000","2","legacy","1024","2","48000","-16","task","5202236","even","NA","45959","50617","47960","120367","18297","37733","32405","120870","NA","120365","120870","120282","50617","123870","44460","119782","18281","100656","Lexical Decision Task","30","35301","34","yes","1024"
"3.374137706","10.21","4","tree","word","88.57142857142857","88.57142857142857","1047.057142857143","1047.057142857143","black","no","legacy","legacy","legacy","0","uniform","1","undefined","undefined","undefined","1","j","0","0","0","0","34","0","0","0","34","NA","30","34","30","0","30","3","34","0","34","Sun Mar 14 21:23:03 2021","The main experiment item","yes","Lexical_Decision_Task.osexp","C:/Users/sophi","no","Andale Mono","no","18","no","white","no","yes","576","legacy","30","30","3","C:/Users/sophi/subject-5202236.csv","legacy","Lentiform Loewenfeld","3.3.8","yes","yes","600bd7cfb6416f0113b04181","602110864497cf011d9c0822","0","j","NA","i","j","j","NA","j","1346","NA","2656","14086","5327","NA","1346","2","legacy","1024","2","48000","-16","task","5202236","even","NA","45959","50617","47960","125494","18297","37733","32405","125995","NA","125491","125996","125405","50617","127343","44460","119782","18281","123905","Lexical Decision Task","31","36647","35","yes","1024"
"3.168890155","0","6","thet","non-word","88.88888888888889","88.88888888888889","1041.3333333333333","1041.3333333333333","black","no","legacy","legacy","legacy","0","uniform","1","undefined","undefined","undefined","1","f","0","0","0","0","35","0","0","0","35","NA","31","35","31","0","31","3","35","0","35","Sun Mar 14 21:23:03 2021","The main experiment item","yes","Lexical_Decision_Task.osexp","C:/Users/sophi","no","Andale Mono","no","18","no","white","no","yes","576","legacy","31","31","3","C:/Users/sophi/subject-5202236.csv","legacy","Lentiform Loewenfeld","3.3.8","yes","yes","600bd7cfb6416f0113b04181","602110864497cf011d9c0822","0","f","NA","i","j","j","NA","f","841","NA","2656","14086","5327","NA","841","2","legacy","1024","2","48000","-16","task","5202236","even","NA","45959","50617","47960","127972","18297","37733","32405","128474","NA","127970","128474","127886","50617","129316","44460","127386","18281","123905","Lexical Decision Task","32","37488","36","yes","1024"
"2.68604012","0","4","pumb","non-word","89.1891891891892","89.1891891891892","1040.8108108108108","1040.8108108108108","black","no","legacy","legacy","legacy","0","uniform","1","undefined","undefined","undefined","1","f","0","0","0","0","36","0","0","0","36","NA","32","36","32","0","32","3","36","0","36","Sun Mar 14 21:23:03 2021","The main experiment item","yes","Lexical_Decision_Task.osexp","C:/Users/sophi","no","Andale Mono","no","18","no","white","no","yes","576","legacy","32","32","3","C:/Users/sophi/subject-5202236.csv","legacy","Lentiform Loewenfeld","3.3.8","yes","yes","600bd7cfb6416f0113b04181","602110864497cf011d9c0822","0","f","NA","i","j","j","NA","f","1022","NA","2656","14086","5327","NA","1022","2","legacy","1024","2","48000","-16","task","5202236","even","NA","45959","50617","47960","129975","18297","37733","32405","130477","NA","129972","130477","129893","50617","131500","44460","129393","18281","123905","Lexical Decision Task","33","38510","37","yes","1024"
"3.121778632","0","9","sark","non-word","89.47368421052632","89.47368421052632","1029.5","1029.5","black","no","legacy","legacy","legacy","0","uniform","1","undefined","undefined","undefined","1","f","0","0","0","0","37","0","0","0","37","NA","33","37","33","0","33","3","37","0","37","Sun Mar 14 21:23:03 2021","The main experiment item","yes","Lexical_Decision_Task.osexp","C:/Users/sophi","no","Andale Mono","no","18","no","white","no","yes","576","legacy","33","33","3","C:/Users/sophi/subject-5202236.csv","legacy","Lentiform Loewenfeld","3.3.8","yes","yes","600bd7cfb6416f0113b04181","602110864497cf011d9c0822","0","f","NA","i","j","j","NA","f","611","NA","2656","14086","5327","NA","611","2","legacy","1024","2","48000","-16","task","5202236","even","NA","45959","50617","47960","132145","18297","37733","32405","132647","NA","132143","132647","132055","50617","133259","44460","131555","18281","123905","Lexical Decision Task","34","39121","38","yes","1024"
"3.131833513","7.66","4","limb","word","89.74358974358974","89.74358974358974","1023.1025641025641","1023.1025641025641","black","no","legacy","legacy","legacy","0","uniform","1","undefined","undefined","undefined","1","j","0","0","0","0","38","0","0","0","38","NA","34","38","34","0","34","3","38","0","38","Sun Mar 14 21:23:03 2021","The main experiment item","yes","Lexical_Decision_Task.osexp","C:/Users/sophi","no","Andale Mono","no","18","no","white","no","yes","576","legacy","34","34","3","C:/Users/sophi/subject-5202236.csv","legacy","Lentiform Loewenfeld","3.3.8","yes","yes","600bd7cfb6416f0113b04181","602110864497cf011d9c0822","0","j","NA","i","j","j","NA","j","780","NA","2656","14086","5327","NA","780","2","legacy","1024","2","48000","-16","task","5202236","even","NA","45959","50617","47960","133932","18297","37733","32405","134435","NA","133929","134435","133843","50617","135217","44460","133342","18281","123905","Lexical Decision Task","35","39901","39","yes","1024"
"3.165936429","0","7","leps","non-word","90","90","1016.225","1016.225","black","no","legacy","legacy","legacy","0","uniform","1","undefined","undefined","undefined","1","f","0","0","0","0","39","0","0","0","39","NA","35","39","35","0","35","3","39","0","39","Sun Mar 14 21:23:03 2021","The main experiment item","yes","Lexical_Decision_Task.osexp","C:/Users/sophi","no","Andale Mono","no","18","no","white","no","yes","576","legacy","35","35","3","C:/Users/sophi/subject-5202236.csv","legacy","Lentiform Loewenfeld","3.3.8","yes","yes","600bd7cfb6416f0113b04181","602110864497cf011d9c0822","0","f","NA","i","j","j","NA","f","748","NA","2656","14086","5327","NA","748","2","legacy","1024","2","48000","-16","task","5202236","even","NA","45959","50617","47960","135855","18297","37733","32405","136357","NA","135853","136358","135773","50617","137107","44460","135273","18281","123905","Lexical Decision Task","36","40649","40","yes","1024"
"3.067070856","9.39","3","loud","word","87.8048780487805","87.8048780487805","1064.6097560975609","1064.6097560975609","black","no","legacy","legacy","legacy","0","uniform","0","undefined","undefined","undefined","0","j","0","0","0","0","40","0","0","0","40","NA","36","40","36","0","36","3","40","0","40","Sun Mar 14 21:23:03 2021","The main experiment item","yes","Lexical_Decision_Task.osexp","C:/Users/sophi","no","Andale Mono","no","18","no","white","no","yes","576","legacy","36","36","3","C:/Users/sophi/subject-5202236.csv","legacy","Lentiform Loewenfeld","3.3.8","yes","yes","600bd7cfb6416f0113b04181","602110864497cf011d9c0822","0","None","NA","i","j","j","NA","None","3000","NA","2656","14086","5327","NA","3000","2","legacy","1024","2","48000","-16","task","5202236","even","NA","45959","50617","47960","137754","18297","37733","32405","138256","NA","137751","138256","137671","50617","141256","44460","137170","18281","123905","Lexical Decision Task","36","43649","41","yes","1024"
"3.378276681","6.39","8","bran","word","85.71428571428571","85.71428571428571","1056.0714285714287","1056.0714285714287","black","no","legacy","legacy","legacy","0","uniform","0","undefined","undefined","undefined","0","j","0","0","0","0","41","0","0","0","41","NA","37","41","37","0","37","3","41","0","41","Sun Mar 14 21:23:03 2021","The main experiment item","yes","Lexical_Decision_Task.osexp","C:/Users/sophi","no","Andale Mono","no","18","no","white","no","yes","576","legacy","37","37","3","C:/Users/sophi/subject-5202236.csv","legacy","Lentiform Loewenfeld","3.3.8","yes","yes","600bd7cfb6416f0113b04181","602110864497cf011d9c0822","0","f","NA","i","j","j","NA","f","706","NA","2656","14086","5327","NA","706","2","legacy","1024","2","48000","-16","task","5202236","even","NA","45959","50617","47960","142989","18297","37733","32405","143490","NA","142987","143491","142900","50617","144198","44460","137170","18281","141399","Lexical Decision Task","36","44355","42","yes","1024"
"3.363486562","6.93","9","lush","word","86.04651162790698","86.04651162790698","1045.906976744186","1045.906976744186","black","no","legacy","legacy","legacy","0","uniform","1","undefined","undefined","undefined","1","j","0","0","0","0","42","0","0","0","42","NA","38","42","38","0","38","3","42","0","42","Sun Mar 14 21:23:03 2021","The main experiment item","yes","Lexical_Decision_Task.osexp","C:/Users/sophi","no","Andale Mono","no","18","no","white","no","yes","576","legacy","38","38","3","C:/Users/sophi/subject-5202236.csv","legacy","Lentiform Loewenfeld","3.3.8","yes","yes","600bd7cfb6416f0113b04181","602110864497cf011d9c0822","0","j","NA","i","j","j","NA","j","619","NA","2656","14086","5327","NA","619","2","legacy","1024","2","48000","-16","task","5202236","even","NA","45959","50617","47960","146668","18297","37733","32405","147171","NA","146666","147171","146581","50617","147791","44460","137170","18281","145081","Lexical Decision Task","37","44974","43","yes","1024"
"3.066077331","0","7","vorn","non-word","86.36363636363636","86.36363636363636","1044.840909090909","1044.840909090909","black","no","legacy","legacy","legacy","0","uniform","1","undefined","undefined","undefined","1","f","0","0","0","0","43","0","0","0","43","NA","39","43","39","0","39","3","43","0","43","Sun Mar 14 21:23:03 2021","The main experiment item","yes","Lexical_Decision_Task.osexp","C:/Users/sophi","no","Andale Mono","no","18","no","white","no","yes","576","legacy","39","39","3","C:/Users/sophi/subject-5202236.csv","legacy","Lentiform Loewenfeld","3.3.8","yes","yes","600bd7cfb6416f0113b04181","602110864497cf011d9c0822","0","f","NA","i","j","j","NA","f","999","NA","2656","14086","5327","NA","999","2","legacy","1024","2","48000","-16","task","5202236","even","NA","45959","50617","47960","148502","18297","37733","32405","149003","NA","148500","149003","148417","50617","150003","44460","147917","18281","145081","Lexical Decision Task","38","45973","44","yes","1024"
"3.384413096","10.15","3","glad","word","86.66666666666667","86.66666666666667","1036.7555555555555","1036.7555555555555","black","no","legacy","legacy","legacy","0","uniform","1","undefined","undefined","undefined","1","j","0","0","0","0","44","0","0","0","44","NA","40","44","40","0","40","3","44","0","44","Sun Mar 14 21:23:03 2021","The main experiment item","yes","Lexical_Decision_Task.osexp","C:/Users/sophi","no","Andale Mono","no","18","no","white","no","yes","576","legacy","40","40","3","C:/Users/sophi/subject-5202236.csv","legacy","Lentiform Loewenfeld","3.3.8","yes","yes","600bd7cfb6416f0113b04181","602110864497cf011d9c0822","0","j","NA","i","j","j","NA","j","681","NA","2656","14086","5327","NA","681","2","legacy","1024","2","48000","-16","task","5202236","even","NA","45959","50617","47960","150632","18297","37733","32405","151134","NA","150630","151134","150550","50617","151816","44460","150050","18281","145081","Lexical Decision Task","39","46654","45","yes","1024"
"3.257359335","8","6","brew","word","86.95652173913044","86.95652173913044","1032.2173913043478","1032.2173913043478","black","no","legacy","legacy","legacy","0","uniform","1","undefined","undefined","undefined","1","j","0","0","0","0","45","0","0","0","45","NA","41","45","41","0","41","3","45","0","45","Sun Mar 14 21:23:03 2021","The main experiment item","yes","Lexical_Decision_Task.osexp","C:/Users/sophi","no","Andale Mono","no","18","no","white","no","yes","576","legacy","41","41","3","C:/Users/sophi/subject-5202236.csv","legacy","Lentiform Loewenfeld","3.3.8","yes","yes","600bd7cfb6416f0113b04181","602110864497cf011d9c0822","0","j","NA","i","j","j","NA","j","828","NA","2656","14086","5327","NA","828","2","legacy","1024","2","48000","-16","task","5202236","even","NA","45959","50617","47960","152476","18297","37733","32405","152979","NA","152474","152979","152393","50617","153807","44460","151892","18281","145081","Lexical Decision Task","40","47482","46","yes","1024"
"3.195807436","0","6","stup","non-word","87.23404255319149","87.23404255319149","1030.0425531914893","1030.0425531914893","black","no","legacy","legacy","legacy","0","uniform","1","undefined","undefined","undefined","1","f","0","0","0","0","46","0","0","0","46","NA","42","46","42","0","42","3","46","0","46","Sun Mar 14 21:23:03 2021","The main experiment item","yes","Lexical_Decision_Task.osexp","C:/Users/sophi","no","Andale Mono","no","18","no","white","no","yes","576","legacy","42","42","3","C:/Users/sophi/subject-5202236.csv","legacy","Lentiform Loewenfeld","3.3.8","yes","yes","600bd7cfb6416f0113b04181","602110864497cf011d9c0822","0","f","NA","i","j","j","NA","f","930","NA","2656","14086","5327","NA","930","2","legacy","1024","2","48000","-16","task","5202236","even","NA","45959","50617","47960","154436","18297","37733","32405","154937","NA","154434","154938","154346","50617","155869","44460","153845","18281","145081","Lexical Decision Task","41","48412","47","yes","1024"
"2.703007489","8.37","3","pulp","word","87.5","87.5","1025.2916666666667","1025.2916666666667","black","no","legacy","legacy","legacy","0","uniform","1","undefined","undefined","undefined","1","j","0","0","0","0","47","0","0","0","47","NA","43","47","43","0","43","3","47","0","47","Sun Mar 14 21:23:03 2021","The main experiment item","yes","Lexical_Decision_Task.osexp","C:/Users/sophi","no","Andale Mono","no","18","no","white","no","yes","576","legacy","43","43","3","C:/Users/sophi/subject-5202236.csv","legacy","Lentiform Loewenfeld","3.3.8","yes","yes","600bd7cfb6416f0113b04181","602110864497cf011d9c0822","0","j","NA","i","j","j","NA","j","802","NA","2656","14086","5327","NA","802","2","legacy","1024","2","48000","-16","task","5202236","even","NA","45959","50617","47960","156544","18297","37733","32405","157046","NA","156542","157046","156458","50617","157850","44460","155958","18281","145081","Lexical Decision Task","42","49214","48","yes","1024"
"2.698387659","6.66","7","skid","word","87.75510204081633","87.75510204081633","1022.1836734693877","1022.1836734693877","black","no","legacy","legacy","legacy","0","uniform","1","undefined","undefined","undefined","1","j","0","0","0","0","48","0","0","0","48","NA","44","48","44","0","44","3","48","0","48","Sun Mar 14 21:23:03 2021","The main experiment item","yes","Lexical_Decision_Task.osexp","C:/Users/sophi","no","Andale Mono","no","18","no","white","no","yes","576","legacy","44","44","3","C:/Users/sophi/subject-5202236.csv","legacy","Lentiform Loewenfeld","3.3.8","yes","yes","600bd7cfb6416f0113b04181","602110864497cf011d9c0822","0","j","NA","i","j","j","NA","j","873","NA","2656","14086","5327","NA","873","2","legacy","1024","2","48000","-16","task","5202236","even","NA","45959","50617","47960","158488","18297","37733","32405","158989","NA","158486","158990","158401","50617","159864","44460","157901","18281","145081","Lexical Decision Task","43","50087","49","yes","1024"
"2.990042563","6.64","9","plow","word","86","86","1016.62","1016.62","black","no","legacy","legacy","legacy","0","uniform","0","undefined","undefined","undefined","0","j","0","0","0","0","49","0","0","0","49","NA","45","49","45","0","45","3","49","0","49","Sun Mar 14 21:23:03 2021","The main experiment item","yes","Lexical_Decision_Task.osexp","C:/Users/sophi","no","Andale Mono","no","18","no","white","no","yes","576","legacy","45","45","3","C:/Users/sophi/subject-5202236.csv","legacy","Lentiform Loewenfeld","3.3.8","yes","yes","600bd7cfb6416f0113b04181","602110864497cf011d9c0822","0","f","NA","i","j","j","NA","f","744","NA","2656","14086","5327","NA","744","2","legacy","1024","2","48000","-16","task","5202236","even","NA","45959","50617","47960","162119","18297","37733","32405","162621","NA","162117","162621","162036","50617","163367","44460","161536","18281","145081","Lexical Decision Task","43","50831","50","yes","1024"
"3.20996159","0","4","clee","non-word","86.27450980392157","86.27450980392157","1009.9803921568628","1009.9803921568628","black","no","legacy","legacy","legacy","0","uniform","1","undefined","undefined","undefined","1","f","0","0","0","0","50","0","0","0","50","NA","46","50","46","0","46","3","50","0","50","Sun Mar 14 21:23:03 2021","The main experiment item","yes","Lexical_Decision_Task.osexp","C:/Users/sophi","no","Andale Mono","no","18","no","white","no","yes","576","legacy","46","46","3","C:/Users/sophi/subject-5202236.csv","legacy","Lentiform Loewenfeld","3.3.8","yes","yes","600bd7cfb6416f0113b04181","602110864497cf011d9c0822","0","f","NA","i","j","j","NA","f","678","NA","2656","14086","5327","NA","678","2","legacy","1024","2","48000","-16","task","5202236","even","NA","45959","50617","47960","165030","18297","37733","32405","165534","NA","165027","165535","164920","50617","166214","44460","161536","18281","163419","Lexical Decision Task","44","51509","51","yes","1024"
"2.892836167","10.01","5","soft","word","86.53846153846153","86.53846153846153","1006.1923076923077","1006.1923076923077","black","no","legacy","legacy","legacy","0","uniform","1","undefined","undefined","undefined","1","j","0","0","0","0","51","0","0","0","51","NA","47","51","47","0","47","3","51","0","51","Sun Mar 14 21:23:03 2021","The main experiment item","yes","Lexical_Decision_Task.osexp","C:/Users/sophi","no","Andale Mono","no","18","no","white","no","yes","576","legacy","47","47","3","C:/Users/sophi/subject-5202236.csv","legacy","Lentiform Loewenfeld","3.3.8","yes","yes","600bd7cfb6416f0113b04181","602110864497cf011d9c0822","0","j","NA","i","j","j","NA","j","813","NA","2656","14086","5327","NA","813","2","legacy","1024","2","48000","-16","task","5202236","even","NA","45959","50617","47960","166884","18297","37733","32405","167386","NA","166881","167386","166773","50617","168200","44460","166273","18281","163419","Lexical Decision Task","45","52322","52","yes","1024"
"3.347850856","10.51","2","rich","word","86.79245283018868","86.79245283018868","1028.4905660377358","1028.4905660377358","black","no","legacy","legacy","legacy","0","uniform","1","undefined","undefined","undefined","1","j","0","0","0","0","52","0","0","0","52","NA","48","52","48","0","48","3","52","0","52","Sun Mar 14 21:23:03 2021","The main experiment item","yes","Lexical_Decision_Task.osexp","C:/Users/sophi","no","Andale Mono","no","18","no","white","no","yes","576","legacy","48","48","3","C:/Users/sophi/subject-5202236.csv","legacy","Lentiform Loewenfeld","3.3.8","yes","yes","600bd7cfb6416f0113b04181","602110864497cf011d9c0822","0","j","NA","i","j","j","NA","j","2188","NA","2656","14086","5327","NA","2188","2","legacy","1024","2","48000","-16","task","5202236","even","NA","45959","50617","47960","168830","18297","37733","32405","169331","NA","168828","169331","168748","50617","171520","44460","168248","18281","163419","Lexical Decision Task","46","54510","53","yes","1024"
"2.75025376","10.2","6","jump","word","87.03703703703704","87.03703703703704","1028.6296296296296","1028.6296296296296","black","no","legacy","legacy","legacy","0","uniform","1","undefined","undefined","undefined","1","j","0","0","0","0","53","0","0","0","53","NA","49","53","49","0","49","3","53","0","53","Sun Mar 14 21:23:03 2021","The main experiment item","yes","Lexical_Decision_Task.osexp","C:/Users/sophi","no","Andale Mono","no","18","no","white","no","yes","576","legacy","49","49","3","C:/Users/sophi/subject-5202236.csv","legacy","Lentiform Loewenfeld","3.3.8","yes","yes","600bd7cfb6416f0113b04181","602110864497cf011d9c0822","0","j","NA","i","j","j","NA","j","1036","NA","2656","14086","5327","NA","1036","2","legacy","1024","2","48000","-16","task","5202236","even","NA","45959","50617","47960","172160","18297","37733","32405","172662","NA","172158","172662","172074","50617","173699","44460","171574","18281","163419","Lexical Decision Task","47","55546","54","yes","1024"
"3.091901331","0","9","nipe","non-word","87.27272727272727","87.27272727272727","1028.2181818181818","1028.2181818181818","black","no","legacy","legacy","legacy","0","uniform","1","undefined","undefined","undefined","1","f","0","0","0","0","54","0","0","0","54","0","50","54","50","0","50","3","54","0","54","Sun Mar 14 21:23:03 2021","The main experiment item","yes","Lexical_Decision_Task.osexp","C:/Users/sophi","no","Andale Mono","no","18","no","white","no","yes","576","legacy","50","50","3","C:/Users/sophi/subject-5202236.csv","legacy","Lentiform Loewenfeld","3.3.8","yes","yes","600bd7cfb6416f0113b04181","602110864497cf011d9c0822","0","f","NA","i","j","j","l","f","1006","NA","2656","14086","5327","13048","1006","2","legacy","1024","2","48000","-16","task","5202236","even","NA","45959","50617","47960","187463","18297","37733","32405","187964","174313","187461","187965","174246","50617","188972","44460","173746","18281","163419","Lexical Decision Task","48","56552","55","yes","1024"
"2.858136002","0","4","phip","non-word","87.5","87.5","1025.2857142857142","1025.2857142857142","black","no","legacy","legacy","legacy","0","uniform","1","undefined","undefined","undefined","1","f","0","0","0","0","55","0","0","0","55","0","51","55","51","0","51","3","55","0","55","Sun Mar 14 21:23:03 2021","The main experiment item","yes","Lexical_Decision_Task.osexp","C:/Users/sophi","no","Andale Mono","no","18","no","white","no","yes","576","legacy","51","51","3","C:/Users/sophi/subject-5202236.csv","legacy","Lentiform Loewenfeld","3.3.8","yes","yes","600bd7cfb6416f0113b04181","602110864497cf011d9c0822","0","f","NA","i","j","j","l","f","864","NA","2656","14086","5327","13048","864","2","legacy","1024","2","48000","-16","task","5202236","even","NA","45959","50617","47960","189630","18297","37733","32405","190131","174313","189629","190132","189543","50617","190997","44460","189042","18281","163419","Lexical Decision Task","49","57416","56","yes","1024"
"3.259832699","0","9","flar","non-word","85.96491228070175","85.96491228070175","1017.7894736842105","1017.7894736842105","black","no","legacy","legacy","legacy","0","uniform","0","undefined","undefined","undefined","0","f","0","0","0","0","56","0","0","0","56","0","52","56","52","0","52","3","56","0","56","Sun Mar 14 21:23:03 2021","The main experiment item","yes","Lexical_Decision_Task.osexp","C:/Users/sophi","no","Andale Mono","no","18","no","white","no","yes","576","legacy","52","52","3","C:/Users/sophi/subject-5202236.csv","legacy","Lentiform Loewenfeld","3.3.8","yes","yes","600bd7cfb6416f0113b04181","602110864497cf011d9c0822","0","j","NA","i","j","j","l","j","598","NA","2656","14086","5327","13048","598","2","legacy","1024","2","48000","-16","task","5202236","even","NA","45959","50617","47960","192208","18297","37733","32405","192710","174313","192206","192711","192126","50617","193311","44460","191626","18281","163419","Lexical Decision Task","49","58014","57","yes","1024"
"3.20871002","7.15","8","cram","word","86.20689655172414","86.20689655172414","1016.4137931034483","1016.4137931034483","black","no","legacy","legacy","legacy","0","uniform","1","undefined","undefined","undefined","1","j","0","0","0","0","57","0","0","0","57","0","53","57","53","0","53","3","57","0","57","Sun Mar 14 21:23:03 2021","The main experiment item","yes","Lexical_Decision_Task.osexp","C:/Users/sophi","no","Andale Mono","no","18","no","white","no","yes","576","legacy","53","53","3","C:/Users/sophi/subject-5202236.csv","legacy","Lentiform Loewenfeld","3.3.8","yes","yes","600bd7cfb6416f0113b04181","602110864497cf011d9c0822","0","j","NA","i","j","j","l","j","938","NA","2656","14086","5327","13048","938","2","legacy","1024","2","48000","-16","task","5202236","even","NA","45959","50617","47960","195515","18297","37733","32405","196016","174313","195512","196017","195421","50617","196957","44460","191626","18281","193921","Lexical Decision Task","50","58952","58","yes","1024"
"2.664328519","0","4","plux","non-word","86.44067796610169","86.44067796610169","1015.5932203389831","1015.5932203389831","black","no","legacy","legacy","legacy","0","uniform","1","undefined","undefined","undefined","1","f","0","0","0","0","58","0","0","0","58","0","54","58","54","0","54","3","58","0","58","Sun Mar 14 21:23:03 2021","The main experiment item","yes","Lexical_Decision_Task.osexp","C:/Users/sophi","no","Andale Mono","no","18","no","white","no","yes","576","legacy","54","54","3","C:/Users/sophi/subject-5202236.csv","legacy","Lentiform Loewenfeld","3.3.8","yes","yes","600bd7cfb6416f0113b04181","602110864497cf011d9c0822","0","f","NA","i","j","j","l","f","968","NA","2656","14086","5327","13048","968","2","legacy","1024","2","48000","-16","task","5202236","even","NA","45959","50617","47960","198780","18297","37733","32405","199284","174313","198778","199284","198693","50617","200253","44460","198193","18281","193921","Lexical Decision Task","51","59920","59","yes","1024"
"2.746890964","9.67","3","plug","word","86.66666666666667","86.66666666666667","1013.4","1013.4","black","no","legacy","legacy","legacy","0","uniform","1","undefined","undefined","undefined","1","j","0","0","0","0","59","0","0","0","59","0","55","59","55","0","55","3","59","0","59","Sun Mar 14 21:23:03 2021","The main experiment item","yes","Lexical_Decision_Task.osexp","C:/Users/sophi","no","Andale Mono","no","18","no","white","no","yes","576","legacy","55","55","3","C:/Users/sophi/subject-5202236.csv","legacy","Lentiform Loewenfeld","3.3.8","yes","yes","600bd7cfb6416f0113b04181","602110864497cf011d9c0822","0","j","NA","i","j","j","l","j","884","NA","2656","14086","5327","13048","884","2","legacy","1024","2","48000","-16","task","5202236","even","NA","45959","50617","47960","201067","18297","37733","32405","201570","174313","201065","201571","200986","50617","202456","44460","200486","18281","193921","Lexical Decision Task","52","60804","60","yes","1024"
"2.814027728","8.2","4","foam","word","86.88524590163935","86.88524590163935","1013.1475409836065","1013.1475409836065","black","no","legacy","legacy","legacy","0","uniform","1","undefined","undefined","undefined","1","j","0","0","0","0","60","0","0","0","60","0","56","60","56","0","56","3","60","0","60","Sun Mar 14 21:23:03 2021","The main experiment item","yes","Lexical_Decision_Task.osexp","C:/Users/sophi","no","Andale Mono","no","18","no","white","no","yes","576","legacy","56","56","3","C:/Users/sophi/subject-5202236.csv","legacy","Lentiform Loewenfeld","3.3.8","yes","yes","600bd7cfb6416f0113b04181","602110864497cf011d9c0822","0","j","NA","i","j","j","l","j","998","NA","2656","14086","5327","13048","998","2","legacy","1024","2","48000","-16","task","5202236","even","NA","45959","50617","47960","203530","18297","37733","32405","204031","174313","203528","204032","203444","50617","205031","44460","202944","18281","193921","Lexical Decision Task","53","61802","61","yes","1024"
"2.594027722","9.08","8","skip","word","87.09677419354838","87.09677419354838","1020.4032258064516","1020.4032258064516","black","no","legacy","legacy","legacy","0","uniform","1","undefined","undefined","undefined","1","j","0","0","0","0","61","0","0","0","61","0","57","61","57","0","57","3","61","0","61","Sun Mar 14 21:23:03 2021","The main experiment item","yes","Lexical_Decision_Task.osexp","C:/Users/sophi","no","Andale Mono","no","18","no","white","no","yes","576","legacy","57","57","3","C:/Users/sophi/subject-5202236.csv","legacy","Lentiform Loewenfeld","3.3.8","yes","yes","600bd7cfb6416f0113b04181","602110864497cf011d9c0822","0","j","NA","i","j","j","l","j","1463","NA","2656","14086","5327","13048","1463","2","legacy","1024","2","48000","-16","task","5202236","even","NA","45959","50617","47960","206233","18297","37733","32405","206735","174313","206231","206735","206153","50617","208200","44460","205653","18281","193921","Lexical Decision Task","54","63265","62","yes","1024"
"2.696644658","5.78","2","yolk","word","85.71428571428571","85.71428571428571","1051.8253968253969","1051.8253968253969","black","no","legacy","legacy","legacy","0","uniform","0","undefined","undefined","undefined","0","j","0","0","0","0","62","0","0","0","62","0","58","62","58","0","58","3","62","0","62","Sun Mar 14 21:23:03 2021","The main experiment item","yes","Lexical_Decision_Task.osexp","C:/Users/sophi","no","Andale Mono","no","18","no","white","no","yes","576","legacy","58","58","3","C:/Users/sophi/subject-5202236.csv","legacy","Lentiform Loewenfeld","3.3.8","yes","yes","600bd7cfb6416f0113b04181","602110864497cf011d9c0822","0","None","NA","i","j","j","l","None","3000","NA","2656","14086","5327","13048","3000","2","legacy","1024","2","48000","-16","task","5202236","even","NA","45959","50617","47960","208936","18297","37733","32405","209437","174313","208933","209438","208853","50617","212438","44460","208353","18281","193921","Lexical Decision Task","54","66265","63","yes","1024"
"3.105055783","0","2","norp","non-word","84.375","84.375","1082.265625","1082.265625","black","no","legacy","legacy","legacy","0","uniform","0","undefined","undefined","undefined","0","f","0","0","0","0","63","0","0","0","63","0","59","63","59","0","59","3","63","0","63","Sun Mar 14 21:23:03 2021","The main experiment item","yes","Lexical_Decision_Task.osexp","C:/Users/sophi","no","Andale Mono","no","18","no","white","no","yes","576","legacy","59","59","3","C:/Users/sophi/subject-5202236.csv","legacy","Lentiform Loewenfeld","3.3.8","yes","yes","600bd7cfb6416f0113b04181","602110864497cf011d9c0822","0","None","NA","i","j","j","l","None","3000","NA","2656","14086","5327","13048","3000","2","legacy","1024","2","48000","-16","task","5202236","even","NA","45959","50617","47960","214888","18297","37733","32405","215389","174313","214886","215390","214798","50617","218390","44460","208353","18281","213298","Lexical Decision Task","54","69265","64","yes","1024"
"2.67699827","0","6","hulf","non-word","83.07692307692308","83.07692307692308","1111.7692307692307","1111.7692307692307","black","no","legacy","legacy","legacy","0","uniform","0","undefined","undefined","undefined","0","f","0","0","0","0","64","0","0","0","64","0","60","64","60","0","60","3","64","0","64","Sun Mar 14 21:23:03 2021","The main experiment item","yes","Lexical_Decision_Task.osexp","C:/Users/sophi","no","Andale Mono","no","18","no","white","no","yes","576","legacy","60","60","3","C:/Users/sophi/subject-5202236.csv","legacy","Lentiform Loewenfeld","3.3.8","yes","yes","600bd7cfb6416f0113b04181","602110864497cf011d9c0822","0","None","NA","i","j","j","l","None","3000","NA","2656","14086","5327","13048","3000","2","legacy","1024","2","48000","-16","task","5202236","even","NA","45959","50617","47960","220009","18297","37733","32405","220513","174313","220007","220513","219921","50617","223513","44460","208353","18281","218421","Lexical Decision Task","54","72265","65","yes","1024"
"2.782472624","10.55","2","huge","word","83.33333333333333","83.33333333333333","1103.6969696969697","1103.6969696969697","black","no","legacy","legacy","legacy","0","uniform","1","undefined","undefined","undefined","1","j","0","0","0","0","65","0","0","0","65","0","61","65","61","0","61","3","65","0","65","Sun Mar 14 21:23:03 2021","The main experiment item","yes","Lexical_Decision_Task.osexp","C:/Users/sophi","no","Andale Mono","no","18","no","white","no","yes","576","legacy","61","61","3","C:/Users/sophi/subject-5202236.csv","legacy","Lentiform Loewenfeld","3.3.8","yes","yes","600bd7cfb6416f0113b04181","602110864497cf011d9c0822","0","j","NA","i","j","j","l","j","579","NA","2656","14086","5327","13048","579","2","legacy","1024","2","48000","-16","task","5202236","even","NA","45959","50617","47960","225164","18297","37733","32405","225666","174313","225161","225666","225080","50617","226246","44460","208353","18281","223580","Lexical Decision Task","55","72844","66","yes","1024"
"3.282244367","0","6","fute","non-word","83.58208955223881","83.58208955223881","1098.1940298507463","1098.1940298507463","black","no","legacy","legacy","legacy","0","uniform","1","undefined","undefined","undefined","1","f","0","0","0","0","66","0","0","0","66","0","62","66","62","0","62","3","66","0","66","Sun Mar 14 21:23:03 2021","The main experiment item","yes","Lexical_Decision_Task.osexp","C:/Users/sophi","no","Andale Mono","no","18","no","white","no","yes","576","legacy","62","62","3","C:/Users/sophi/subject-5202236.csv","legacy","Lentiform Loewenfeld","3.3.8","yes","yes","600bd7cfb6416f0113b04181","602110864497cf011d9c0822","0","f","NA","i","j","j","l","f","735","NA","2656","14086","5327","13048","735","2","legacy","1024","2","48000","-16","task","5202236","even","NA","45959","50617","47960","226953","18297","37733","32405","227456","174313","226951","227456","226867","50617","228192","44460","226366","18281","223580","Lexical Decision Task","56","73579","67","yes","1024"
"3.368162872","0","4","ferk","non-word","83.82352941176471","83.82352941176471","1091.9558823529412","1091.9558823529412","black","no","legacy","legacy","legacy","0","uniform","1","undefined","undefined","undefined","1","f","0","0","0","0","67","0","0","0","67","0","63","67","63","0","63","3","67","0","67","Sun Mar 14 21:23:03 2021","The main experiment item","yes","Lexical_Decision_Task.osexp","C:/Users/sophi","no","Andale Mono","no","18","no","white","no","yes","576","legacy","63","63","3","C:/Users/sophi/subject-5202236.csv","legacy","Lentiform Loewenfeld","3.3.8","yes","yes","600bd7cfb6416f0113b04181","602110864497cf011d9c0822","0","f","NA","i","j","j","l","f","674","NA","2656","14086","5327","13048","674","2","legacy","1024","2","48000","-16","task","5202236","even","NA","45959","50617","47960","228801","18297","37733","32405","229303","174313","228799","229304","228720","50617","229979","44460","228220","18281","223580","Lexical Decision Task","57","74253","68","yes","1024"
"2.6599162","0","6","flug","non-word","84.05797101449275","84.05797101449275","1086.2173913043478","1086.2173913043478","black","no","legacy","legacy","legacy","0","uniform","1","undefined","undefined","undefined","1","f","0","0","0","0","68","0","0","0","68","0","64","68","64","0","64","3","68","0","68","Sun Mar 14 21:23:03 2021","The main experiment item","yes","Lexical_Decision_Task.osexp","C:/Users/sophi","no","Andale Mono","no","18","no","white","no","yes","576","legacy","64","64","3","C:/Users/sophi/subject-5202236.csv","legacy","Lentiform Loewenfeld","3.3.8","yes","yes","600bd7cfb6416f0113b04181","602110864497cf011d9c0822","0","f","NA","i","j","j","l","f","696","NA","2656","14086","5327","13048","696","2","legacy","1024","2","48000","-16","task","5202236","even","NA","45959","50617","47960","230710","18297","37733","32405","231211","174313","230709","231212","230629","50617","231909","44460","230129","18281","223580","Lexical Decision Task","58","74949","69","yes","1024"
"3.397302518","7.01","2","knit","word","84.28571428571429","84.28571428571429","1078.4","1078.4","black","no","legacy","legacy","legacy","0","uniform","1","undefined","undefined","undefined","1","j","0","0","0","0","69","0","0","0","69","0","65","69","65","0","65","3","69","0","69","Sun Mar 14 21:23:03 2021","The main experiment item","yes","Lexical_Decision_Task.osexp","C:/Users/sophi","no","Andale Mono","no","18","no","white","no","yes","576","legacy","65","65","3","C:/Users/sophi/subject-5202236.csv","legacy","Lentiform Loewenfeld","3.3.8","yes","yes","600bd7cfb6416f0113b04181","602110864497cf011d9c0822","0","j","NA","i","j","j","l","j","539","NA","2656","14086","5327","13048","539","2","legacy","1024","2","48000","-16","task","5202236","even","NA","45959","50617","47960","232529","18297","37733","32405","233031","174313","232527","233031","232448","50617","233571","44460","231948","18281","223580","Lexical Decision Task","59","75488","70","yes","1024"
"2.986323777","10.85","8","ship","word","84.50704225352112","84.50704225352112","1070.774647887324","1070.774647887324","black","no","legacy","legacy","legacy","0","uniform","1","undefined","undefined","undefined","1","j","0","0","0","0","70","0","0","0","70","0","66","70","66","0","66","3","70","0","70","Sun Mar 14 21:23:03 2021","The main experiment item","yes","Lexical_Decision_Task.osexp","C:/Users/sophi","no","Andale Mono","no","18","no","white","no","yes","576","legacy","66","66","3","C:/Users/sophi/subject-5202236.csv","legacy","Lentiform Loewenfeld","3.3.8","yes","yes","600bd7cfb6416f0113b04181","602110864497cf011d9c0822","0","j","NA","i","j","j","l","j","537","NA","2656","14086","5327","13048","537","2","legacy","1024","2","48000","-16","task","5202236","even","NA","45959","50617","47960","234202","18297","37733","32405","234703","174313","234199","234704","234115","50617","235242","44460","233615","18281","223580","Lexical Decision Task","60","76025","71","yes","1024"
"2.771097306","0","9","jold","non-word","84.72222222222223","84.72222222222223","1064.1666666666667","1064.1666666666667","black","no","legacy","legacy","legacy","0","uniform","1","undefined","undefined","undefined","1","f","0","0","0","0","71","0","0","0","71","0","67","71","67","0","67","3","71","0","71","Sun Mar 14 21:23:03 2021","The main experiment item","yes","Lexical_Decision_Task.osexp","C:/Users/sophi","no","Andale Mono","no","18","no","white","no","yes","576","legacy","67","67","3","C:/Users/sophi/subject-5202236.csv","legacy","Lentiform Loewenfeld","3.3.8","yes","yes","600bd7cfb6416f0113b04181","602110864497cf011d9c0822","0","f","NA","i","j","j","l","f","595","NA","2656","14086","5327","13048","595","2","legacy","1024","2","48000","-16","task","5202236","even","NA","45959","50617","47960","235881","18297","37733","32405","236384","174313","235879","236385","235781","50617","236981","44460","235281","18281","223580","Lexical Decision Task","61","76620","72","yes","1024"
"3.531734309","0","6","lerd","non-word","84.93150684931507","84.93150684931507","1060.7260273972602","1060.7260273972602","black","no","legacy","legacy","legacy","0","uniform","1","undefined","undefined","undefined","1","f","0","0","0","0","72","0","0","0","72","0","68","72","68","0","68","3","72","0","72","Sun Mar 14 21:23:03 2021","The main experiment item","yes","Lexical_Decision_Task.osexp","C:/Users/sophi","no","Andale Mono","no","18","no","white","no","yes","576","legacy","68","68","3","C:/Users/sophi/subject-5202236.csv","legacy","Lentiform Loewenfeld","3.3.8","yes","yes","600bd7cfb6416f0113b04181","602110864497cf011d9c0822","0","f","NA","i","j","j","l","f","813","NA","2656","14086","5327","13048","813","2","legacy","1024","2","48000","-16","task","5202236","even","NA","45959","50617","47960","237639","18297","37733","32405","238140","174313","237637","238141","237554","50617","238955","44460","237054","18281","223580","Lexical Decision Task","62","77433","73","yes","1024"
"2.842815106","7.86","8","lump","word","85.13513513513513","85.13513513513513","1054.445945945946","1054.445945945946","black","no","legacy","legacy","legacy","0","uniform","1","undefined","undefined","undefined","1","j","0","0","0","0","73","0","0","0","73","0","69","73","69","0","69","3","73","0","73","Sun Mar 14 21:23:03 2021","The main experiment item","yes","Lexical_Decision_Task.osexp","C:/Users/sophi","no","Andale Mono","no","18","no","white","no","yes","576","legacy","69","69","3","C:/Users/sophi/subject-5202236.csv","legacy","Lentiform Loewenfeld","3.3.8","yes","yes","600bd7cfb6416f0113b04181","602110864497cf011d9c0822","0","j","NA","i","j","j","l","j","596","NA","2656","14086","5327","13048","596","2","legacy","1024","2","48000","-16","task","5202236","even","NA","45959","50617","47960","239599","18297","37733","32405","240102","174313","239597","240102","239501","50617","240699","44460","239001","18281","223580","Lexical Decision Task","63","78029","74","yes","1024"
"2.920123326","7.43","4","duel","word","85.33333333333333","85.33333333333333","1049.8","1049.8","black","no","legacy","legacy","legacy","0","uniform","1","undefined","undefined","undefined","1","j","0","0","0","0","74","0","0","0","74","0","70","74","70","0","70","3","74","0","74","Sun Mar 14 21:23:03 2021","The main experiment item","yes","Lexical_Decision_Task.osexp","C:/Users/sophi","no","Andale Mono","no","18","no","white","no","yes","576","legacy","70","70","3","C:/Users/sophi/subject-5202236.csv","legacy","Lentiform Loewenfeld","3.3.8","yes","yes","600bd7cfb6416f0113b04181","602110864497cf011d9c0822","0","j","NA","i","j","j","l","j","706","NA","2656","14086","5327","13048","706","2","legacy","1024","2","48000","-16","task","5202236","even","NA","45959","50617","47960","242096","18297","37733","32405","242598","174313","242094","242598","242013","50617","243305","44460","241513","18281","223580","Lexical Decision Task","64","78735","75","yes","1024"
"2.966923697","5.4","2","fume","word","85.52631578947368","85.52631578947368","1045.1973684210527","1045.1973684210527","black","no","legacy","legacy","legacy","0","uniform","1","undefined","undefined","undefined","1","j","0","0","0","0","75","0","0","0","75","0","71","75","71","0","71","3","75","0","75","Sun Mar 14 21:23:03 2021","The main experiment item","yes","Lexical_Decision_Task.osexp","C:/Users/sophi","no","Andale Mono","no","18","no","white","no","yes","576","legacy","71","71","3","C:/Users/sophi/subject-5202236.csv","legacy","Lentiform Loewenfeld","3.3.8","yes","yes","600bd7cfb6416f0113b04181","602110864497cf011d9c0822","0","j","NA","i","j","j","l","j","700","NA","2656","14086","5327","13048","700","2","legacy","1024","2","48000","-16","task","5202236","even","NA","45959","50617","47960","244327","18297","37733","32405","244829","174313","244325","244830","244247","50617","245533","44460","243747","18281","223580","Lexical Decision Task","65","79435","76","yes","1024"
"3.037294994","8.64","7","roof","word","85.71428571428571","85.71428571428571","1039.3376623376623","1039.3376623376623","black","no","legacy","legacy","legacy","0","uniform","1","undefined","undefined","undefined","1","j","0","0","0","0","76","0","0","0","76","0","72","76","72","0","72","3","76","0","76","Sun Mar 14 21:23:03 2021","The main experiment item","yes","Lexical_Decision_Task.osexp","C:/Users/sophi","no","Andale Mono","no","18","no","white","no","yes","576","legacy","72","72","3","C:/Users/sophi/subject-5202236.csv","legacy","Lentiform Loewenfeld","3.3.8","yes","yes","600bd7cfb6416f0113b04181","602110864497cf011d9c0822","0","j","NA","i","j","j","l","j","594","NA","2656","14086","5327","13048","594","2","legacy","1024","2","48000","-16","task","5202236","even","NA","45959","50617","47960","246248","18297","37733","32405","246751","174313","246246","246751","246166","50617","247347","44460","245666","18281","223580","Lexical Decision Task","66","80029","77","yes","1024"
"2.6599162","0","2","saff","non-word","85.8974358974359","85.8974358974359","1035.5384615384614","1035.5384615384614","black","no","legacy","legacy","legacy","0","uniform","1","undefined","undefined","undefined","1","f","0","0","0","0","77","0","0","0","77","0","73","77","73","0","73","3","77","0","77","Sun Mar 14 21:23:03 2021","The main experiment item","yes","Lexical_Decision_Task.osexp","C:/Users/sophi","no","Andale Mono","no","18","no","white","no","yes","576","legacy","73","73","3","C:/Users/sophi/subject-5202236.csv","legacy","Lentiform Loewenfeld","3.3.8","yes","yes","600bd7cfb6416f0113b04181","602110864497cf011d9c0822","0","f","NA","i","j","j","l","f","743","NA","2656","14086","5327","13048","743","2","legacy","1024","2","48000","-16","task","5202236","even","NA","45959","50617","47960","248036","18297","37733","32405","248539","174313","248035","248539","247955","50617","249283","44460","247455","18281","223580","Lexical Decision Task","67","80772","78","yes","1024"
"3.068433376","8.09","2","bulb","word","86.07594936708861","86.07594936708861","1030.0632911392406","1030.0632911392406","black","no","legacy","legacy","legacy","0","uniform","1","undefined","undefined","undefined","1","j","0","0","0","0","78","0","0","0","78","0","74","78","74","0","74","3","78","0","78","Sun Mar 14 21:23:03 2021","The main experiment item","yes","Lexical_Decision_Task.osexp","C:/Users/sophi","no","Andale Mono","no","18","no","white","no","yes","576","legacy","74","74","3","C:/Users/sophi/subject-5202236.csv","legacy","Lentiform Loewenfeld","3.3.8","yes","yes","600bd7cfb6416f0113b04181","602110864497cf011d9c0822","0","j","NA","i","j","j","l","j","603","NA","2656","14086","5327","13048","603","2","legacy","1024","2","48000","-16","task","5202236","even","NA","45959","50617","47960","249905","18297","37733","32405","250408","174313","249903","250408","249823","50617","251012","44460","249323","18281","223580","Lexical Decision Task","68","81375","79","yes","1024"
"3.010582609","0","2","drod","non-word","86.25","86.25","1030.6625","1030.6625","black","no","legacy","legacy","legacy","0","uniform","1","undefined","undefined","undefined","1","f","0","0","0","0","79","0","0","0","79","0","75","79","75","0","75","3","79","0","79","Sun Mar 14 21:23:03 2021","The main experiment item","yes","Lexical_Decision_Task.osexp","C:/Users/sophi","no","Andale Mono","no","18","no","white","no","yes","576","legacy","75","75","3","C:/Users/sophi/subject-5202236.csv","legacy","Lentiform Loewenfeld","3.3.8","yes","yes","600bd7cfb6416f0113b04181","602110864497cf011d9c0822","0","f","NA","i","j","j","l","f","1078","NA","2656","14086","5327","13048","1078","2","legacy","1024","2","48000","-16","task","5202236","even","NA","45959","50617","47960","251630","18297","37733","32405","252131","174313","251628","252132","251544","50617","253211","44460","251044","18281","223580","Lexical Decision Task","69","82453","80","yes","1024"
"2.983324025","9.56","2","debt","word","86.41975308641975","86.41975308641975","1024.5185185185185","1024.5185185185185","black","no","legacy","legacy","legacy","0","uniform","1","undefined","undefined","undefined","1","j","0","0","0","0","80","0","0","0","80","0","76","80","76","0","76","3","80","0","80","Sun Mar 14 21:23:03 2021","The main experiment item","yes","Lexical_Decision_Task.osexp","C:/Users/sophi","no","Andale Mono","no","18","no","white","no","yes","576","legacy","76","76","3","C:/Users/sophi/subject-5202236.csv","legacy","Lentiform Loewenfeld","3.3.8","yes","yes","600bd7cfb6416f0113b04181","602110864497cf011d9c0822","0","j","NA","i","j","j","l","j","533","NA","2656","14086","5327","13048","533","2","legacy","1024","2","48000","-16","task","5202236","even","NA","45959","50617","47960","253919","18297","37733","32405","254420","174313","253917","254421","253838","50617","254956","44460","253338","18281","223580","Lexical Decision Task","70","82986","81","yes","1024"
"2.952953801","0","8","clax","non-word","86.58536585365853","86.58536585365853","1020.060975609756","1020.060975609756","black","no","legacy","legacy","legacy","0","uniform","1","undefined","undefined","undefined","1","f","0","0","0","0","81","0","0","0","81","0","77","81","77","0","77","3","81","0","81","Sun Mar 14 21:23:03 2021","The main experiment item","yes","Lexical_Decision_Task.osexp","C:/Users/sophi","no","Andale Mono","no","18","no","white","no","yes","576","legacy","77","77","3","C:/Users/sophi/subject-5202236.csv","legacy","Lentiform Loewenfeld","3.3.8","yes","yes","600bd7cfb6416f0113b04181","602110864497cf011d9c0822","0","f","NA","i","j","j","l","f","659","NA","2656","14086","5327","13048","659","2","legacy","1024","2","48000","-16","task","5202236","even","NA","45959","50617","47960","255581","18297","37733","32405","256083","174313","255579","256083","255499","50617","256743","44460","254999","18281","223580","Lexical Decision Task","71","83645","82","yes","1024"
"3.168400243","9.12","6","horn","word","86.74698795180723","86.74698795180723","1019.0602409638554","1019.0602409638554","black","no","legacy","legacy","legacy","0","uniform","1","undefined","undefined","undefined","1","j","0","0","0","0","82","0","0","0","82","0","78","82","78","0","78","3","82","0","82","Sun Mar 14 21:23:03 2021","The main experiment item","yes","Lexical_Decision_Task.osexp","C:/Users/sophi","no","Andale Mono","no","18","no","white","no","yes","576","legacy","78","78","3","C:/Users/sophi/subject-5202236.csv","legacy","Lentiform Loewenfeld","3.3.8","yes","yes","600bd7cfb6416f0113b04181","602110864497cf011d9c0822","0","j","NA","i","j","j","l","j","937","NA","2656","14086","5327","13048","937","2","legacy","1024","2","48000","-16","task","5202236","even","NA","45959","50617","47960","257447","18297","37733","32405","257948","174313","257445","257949","257363","50617","258887","44460","256863","18281","223580","Lexical Decision Task","72","84582","83","yes","1024"
"2.971428938","9.86","7","spot","word","86.9047619047619","86.9047619047619","1018.4166666666666","1018.4166666666666","black","no","legacy","legacy","legacy","0","uniform","1","undefined","undefined","undefined","1","j","0","0","0","0","83","0","0","0","83","0","79","83","79","0","79","3","83","0","83","Sun Mar 14 21:23:03 2021","The main experiment item","yes","Lexical_Decision_Task.osexp","C:/Users/sophi","no","Andale Mono","no","18","no","white","no","yes","576","legacy","79","79","3","C:/Users/sophi/subject-5202236.csv","legacy","Lentiform Loewenfeld","3.3.8","yes","yes","600bd7cfb6416f0113b04181","602110864497cf011d9c0822","0","j","NA","i","j","j","l","j","965","NA","2656","14086","5327","13048","965","2","legacy","1024","2","48000","-16","task","5202236","even","NA","45959","50617","47960","259516","18297","37733","32405","260019","174313","259513","260019","259435","50617","260985","44460","258935","18281","223580","Lexical Decision Task","73","85547","84","yes","1024"
"3.094121596","0","8","fode","non-word","87.05882352941177","87.05882352941177","1015.1294117647059","1015.1294117647059","black","no","legacy","legacy","legacy","0","uniform","1","undefined","undefined","undefined","1","f","0","0","0","0","84","0","0","0","84","0","80","84","80","0","80","3","84","0","84","Sun Mar 14 21:23:03 2021","The main experiment item","yes","Lexical_Decision_Task.osexp","C:/Users/sophi","no","Andale Mono","no","18","no","white","no","yes","576","legacy","80","80","3","C:/Users/sophi/subject-5202236.csv","legacy","Lentiform Loewenfeld","3.3.8","yes","yes","600bd7cfb6416f0113b04181","602110864497cf011d9c0822","0","f","NA","i","j","j","l","f","739","NA","2656","14086","5327","13048","739","2","legacy","1024","2","48000","-16","task","5202236","even","NA","45959","50617","47960","261634","18297","37733","32405","262136","174313","261632","262136","261553","50617","262876","44460","261053","18281","223580","Lexical Decision Task","74","86286","85","yes","1024"
"3.366547468","0","6","plat","non-word","86.04651162790698","86.04651162790698","1017.453488372093","1017.453488372093","black","no","legacy","legacy","legacy","0","uniform","0","undefined","undefined","undefined","0","f","0","0","0","0","85","0","0","0","85","0","81","85","81","0","81","3","85","0","85","Sun Mar 14 21:23:03 2021","The main experiment item","yes","Lexical_Decision_Task.osexp","C:/Users/sophi","no","Andale Mono","no","18","no","white","no","yes","576","legacy","81","81","3","C:/Users/sophi/subject-5202236.csv","legacy","Lentiform Loewenfeld","3.3.8","yes","yes","600bd7cfb6416f0113b04181","602110864497cf011d9c0822","0","j","NA","i","j","j","l","j","1215","NA","2656","14086","5327","13048","1215","2","legacy","1024","2","48000","-16","task","5202236","even","NA","45959","50617","47960","263599","18297","37733","32405","264101","174313","263597","264101","263516","50617","265317","44460","263016","18281","223580","Lexical Decision Task","74","87501","86","yes","1024"
"2.884795364","0","6","flob","non-word","86.20689655172414","86.20689655172414","1017.9310344827586","1017.9310344827586","black","no","legacy","legacy","legacy","0","uniform","1","undefined","undefined","undefined","1","f","0","0","0","0","86","0","0","0","86","0","82","86","82","0","82","3","86","0","86","Sun Mar 14 21:23:03 2021","The main experiment item","yes","Lexical_Decision_Task.osexp","C:/Users/sophi","no","Andale Mono","no","18","no","white","no","yes","576","legacy","82","82","3","C:/Users/sophi/subject-5202236.csv","legacy","Lentiform Loewenfeld","3.3.8","yes","yes","600bd7cfb6416f0113b04181","602110864497cf011d9c0822","0","f","NA","i","j","j","l","f","1059","NA","2656","14086","5327","13048","1059","2","legacy","1024","2","48000","-16","task","5202236","even","NA","45959","50617","47960","267027","18297","37733","32405","267530","174313","267025","267530","266941","50617","268592","44460","263016","18281","265441","Lexical Decision Task","75","88560","87","yes","1024"
"3.263399331","0","8","cour","non-word","86.36363636363636","86.36363636363636","1013.5113636363636","1013.5113636363636","black","no","legacy","legacy","legacy","0","uniform","1","undefined","undefined","undefined","1","f","0","0","0","0","87","0","0","0","87","0","83","87","83","0","83","3","87","0","87","Sun Mar 14 21:23:03 2021","The main experiment item","yes","Lexical_Decision_Task.osexp","C:/Users/sophi","no","Andale Mono","no","18","no","white","no","yes","576","legacy","83","83","3","C:/Users/sophi/subject-5202236.csv","legacy","Lentiform Loewenfeld","3.3.8","yes","yes","600bd7cfb6416f0113b04181","602110864497cf011d9c0822","0","f","NA","i","j","j","l","f","629","NA","2656","14086","5327","13048","629","2","legacy","1024","2","48000","-16","task","5202236","even","NA","45959","50617","47960","269216","18297","37733","32405","269720","174313","269214","269720","269131","50617","270350","44460","268630","18281","265441","Lexical Decision Task","76","89189","88","yes","1024"
"3.22685757","9.99","7","roll","word","86.51685393258427","86.51685393258427","1010.1910112359551","1010.1910112359551","black","no","legacy","legacy","legacy","0","uniform","1","undefined","undefined","undefined","1","j","0","0","0","0","88","0","0","0","88","0","84","88","84","0","84","3","88","0","88","Sun Mar 14 21:23:03 2021","The main experiment item","yes","Lexical_Decision_Task.osexp","C:/Users/sophi","no","Andale Mono","no","18","no","white","no","yes","576","legacy","84","84","3","C:/Users/sophi/subject-5202236.csv","legacy","Lentiform Loewenfeld","3.3.8","yes","yes","600bd7cfb6416f0113b04181","602110864497cf011d9c0822","0","j","NA","i","j","j","l","j","718","NA","2656","14086","5327","13048","718","2","legacy","1024","2","48000","-16","task","5202236","even","NA","45959","50617","47960","270968","18297","37733","32405","271471","174313","270966","271471","270884","50617","272190","44460","270384","18281","265441","Lexical Decision Task","77","89907","89","yes","1024"
"2.706148589","0","4","hube","non-word","86.66666666666667","86.66666666666667","1007.3111111111111","1007.3111111111111","black","no","legacy","legacy","legacy","0","uniform","1","undefined","undefined","undefined","1","f","0","0","0","0","89","0","0","0","89","0","85","89","85","0","85","3","89","0","89","Sun Mar 14 21:23:03 2021","The main experiment item","yes","Lexical_Decision_Task.osexp","C:/Users/sophi","no","Andale Mono","no","18","no","white","no","yes","576","legacy","85","85","3","C:/Users/sophi/subject-5202236.csv","legacy","Lentiform Loewenfeld","3.3.8","yes","yes","600bd7cfb6416f0113b04181","602110864497cf011d9c0822","0","f","NA","i","j","j","l","f","751","NA","2656","14086","5327","13048","751","2","legacy","1024","2","48000","-16","task","5202236","even","NA","45959","50617","47960","272803","18297","37733","32405","273304","174313","272801","273305","272720","50617","274058","44460","272220","18281","265441","Lexical Decision Task","78","90658","90","yes","1024"
"2.899638141","0","3","hapt","non-word","86.81318681318682","86.81318681318682","1003.1648351648352","1003.1648351648352","black","no","legacy","legacy","legacy","0","uniform","1","undefined","undefined","undefined","1","f","0","0","0","0","90","0","0","0","90","0","86","90","86","0","86","3","90","0","90","Sun Mar 14 21:23:03 2021","The main experiment item","yes","Lexical_Decision_Task.osexp","C:/Users/sophi","no","Andale Mono","no","18","no","white","no","yes","576","legacy","86","86","3","C:/Users/sophi/subject-5202236.csv","legacy","Lentiform Loewenfeld","3.3.8","yes","yes","600bd7cfb6416f0113b04181","602110864497cf011d9c0822","0","f","NA","i","j","j","l","f","630","NA","2656","14086","5327","13048","630","2","legacy","1024","2","48000","-16","task","5202236","even","NA","45959","50617","47960","274782","18297","37733","32405","275283","174313","274780","275284","274697","50617","275916","44460","274197","18281","265441","Lexical Decision Task","79","91288","91","yes","1024"
"3.134602053","0","8","jart","non-word","86.95652173913044","86.95652173913044","1001.9347826086956","1001.9347826086956","black","no","legacy","legacy","legacy","0","uniform","1","undefined","undefined","undefined","1","f","0","0","0","0","91","0","0","0","91","0","87","91","87","0","87","3","91","0","91","Sun Mar 14 21:23:03 2021","The main experiment item","yes","Lexical_Decision_Task.osexp","C:/Users/sophi","no","Andale Mono","no","18","no","white","no","yes","576","legacy","87","87","3","C:/Users/sophi/subject-5202236.csv","legacy","Lentiform Loewenfeld","3.3.8","yes","yes","600bd7cfb6416f0113b04181","602110864497cf011d9c0822","0","f","NA","i","j","j","l","f","890","NA","2656","14086","5327","13048","890","2","legacy","1024","2","48000","-16","task","5202236","even","NA","45959","50617","47960","276530","18297","37733","32405","277033","174313","276528","277033","276449","50617","277924","44460","275949","18281","265441","Lexical Decision Task","80","92178","92","yes","1024"
"3.216517684","10.87","3","film","word","87.09677419354838","87.09677419354838","1003.8817204301075","1003.8817204301075","black","no","legacy","legacy","legacy","0","uniform","1","undefined","undefined","undefined","1","j","0","0","0","0","92","0","0","0","92","0","88","92","88","0","88","3","92","0","92","Sun Mar 14 21:23:03 2021","The main experiment item","yes","Lexical_Decision_Task.osexp","C:/Users/sophi","no","Andale Mono","no","18","no","white","no","yes","576","legacy","88","88","3","C:/Users/sophi/subject-5202236.csv","legacy","Lentiform Loewenfeld","3.3.8","yes","yes","600bd7cfb6416f0113b04181","602110864497cf011d9c0822","0","j","NA","i","j","j","l","j","1183","NA","2656","14086","5327","13048","1183","2","legacy","1024","2","48000","-16","task","5202236","even","NA","45959","50617","47960","278550","18297","37733","32405","279052","174313","278548","279052","278469","50617","280237","44460","277969","18281","265441","Lexical Decision Task","81","93361","93","yes","1024"
"3.043885998","0","9","gome","non-word","86.17021276595744","86.17021276595744","1005.8297872340426","1005.8297872340426","black","no","legacy","legacy","legacy","0","uniform","0","undefined","undefined","undefined","0","f","0","0","0","0","93","0","0","0","93","0","89","93","89","0","89","3","93","0","93","Sun Mar 14 21:23:03 2021","The main experiment item","yes","Lexical_Decision_Task.osexp","C:/Users/sophi","no","Andale Mono","no","18","no","white","no","yes","576","legacy","89","89","3","C:/Users/sophi/subject-5202236.csv","legacy","Lentiform Loewenfeld","3.3.8","yes","yes","600bd7cfb6416f0113b04181","602110864497cf011d9c0822","0","j","NA","i","j","j","l","j","1187","NA","2656","14086","5327","13048","1187","2","legacy","1024","2","48000","-16","task","5202236","even","NA","45959","50617","47960","280854","18297","37733","32405","281356","174313","280852","281356","280772","50617","282545","44460","280271","18281","265441","Lexical Decision Task","81","94548","94","yes","1024"
"3.039414119","0","9","meep","non-word","86.3157894736842","86.3157894736842","1005.0631578947368","1005.0631578947368","black","no","legacy","legacy","legacy","0","uniform","1","undefined","undefined","undefined","1","f","0","0","0","0","94","0","0","0","94","0","90","94","90","0","90","3","94","0","94","Sun Mar 14 21:23:03 2021","The main experiment item","yes","Lexical_Decision_Task.osexp","C:/Users/sophi","no","Andale Mono","no","18","no","white","no","yes","576","legacy","90","90","3","C:/Users/sophi/subject-5202236.csv","legacy","Lentiform Loewenfeld","3.3.8","yes","yes","600bd7cfb6416f0113b04181","602110864497cf011d9c0822","0","f","NA","i","j","j","l","f","933","NA","2656","14086","5327","13048","933","2","legacy","1024","2","48000","-16","task","5202236","even","NA","45959","50617","47960","284257","18297","37733","32405","284760","174313","284256","284760","284175","50617","285694","44460","280271","18281","282675","Lexical Decision Task","82","95481","95","yes","1024"
"2.907588697","8.91","9","mood","word","86.45833333333333","86.45833333333333","1001.375","1001.375","black","no","legacy","legacy","legacy","0","uniform","1","undefined","undefined","undefined","1","j","0","0","0","0","95","0","0","0","95","0","91","95","91","0","91","3","95","0","95","Sun Mar 14 21:23:03 2021","The main experiment item","yes","Lexical_Decision_Task.osexp","C:/Users/sophi","no","Andale Mono","no","18","no","white","no","yes","576","legacy","91","91","3","C:/Users/sophi/subject-5202236.csv","legacy","Lentiform Loewenfeld","3.3.8","yes","yes","600bd7cfb6416f0113b04181","602110864497cf011d9c0822","0","j","NA","i","j","j","l","j","651","NA","2656","14086","5327","13048","651","2","legacy","1024","2","48000","-16","task","5202236","even","NA","45959","50617","47960","286407","18297","37733","32405","286910","174313","286405","286910","286322","50617","287563","44460","285822","18281","282675","Lexical Decision Task","83","96132","96","yes","1024"
"3.081107167","0","6","chot","non-word","86.5979381443299","86.5979381443299","999.2474226804123","999.2474226804123","black","no","legacy","legacy","legacy","0","uniform","1","undefined","undefined","undefined","1","f","0","0","0","0","96","0","0","0","96","0","92","96","92","0","92","3","96","0","96","Sun Mar 14 21:23:03 2021","The main experiment item","yes","Lexical_Decision_Task.osexp","C:/Users/sophi","no","Andale Mono","no","18","no","white","no","yes","576","legacy","92","92","3","C:/Users/sophi/subject-5202236.csv","legacy","Lentiform Loewenfeld","3.3.8","yes","yes","600bd7cfb6416f0113b04181","602110864497cf011d9c0822","0","f","NA","i","j","j","l","f","795","NA","2656","14086","5327","13048","795","2","legacy","1024","2","48000","-16","task","5202236","even","NA","45959","50617","47960","288266","18297","37733","32405","288768","174313","288265","288768","288185","50617","289564","44460","287685","18281","282675","Lexical Decision Task","84","96927","97","yes","1024"
"3.102203805","7.21","3","drip","word","86.73469387755102","86.73469387755102","1011.6326530612245","1011.6326530612245","black","no","legacy","legacy","legacy","0","uniform","1","undefined","undefined","undefined","1","j","0","0","0","0","97","0","0","0","97","0","93","97","93","0","93","3","97","0","97","Sun Mar 14 21:23:03 2021","The main experiment item","yes","Lexical_Decision_Task.osexp","C:/Users/sophi","no","Andale Mono","no","18","no","white","no","yes","576","legacy","93","93","3","C:/Users/sophi/subject-5202236.csv","legacy","Lentiform Loewenfeld","3.3.8","yes","yes","600bd7cfb6416f0113b04181","602110864497cf011d9c0822","0","j","NA","i","j","j","l","j","2213","NA","2656","14086","5327","13048","2213","2","legacy","1024","2","48000","-16","task","5202236","even","NA","45959","50617","47960","290275","18297","37733","32405","290776","174313","290273","290777","290192","50617","292991","44460","289692","18281","282675","Lexical Decision Task","85","99140","98","yes","1024"
"3.064581521","5.51","6","cask","word","85.85858585858585","85.85858585858585","1009.3838383838383","1009.3838383838383","black","no","legacy","legacy","legacy","0","uniform","0","undefined","undefined","undefined","0","j","0","0","0","0","98","0","0","0","98","0","94","98","94","0","94","3","98","0","98","Sun Mar 14 21:23:03 2021","The main experiment item","yes","Lexical_Decision_Task.osexp","C:/Users/sophi","no","Andale Mono","no","18","no","white","no","yes","576","legacy","94","94","3","C:/Users/sophi/subject-5202236.csv","legacy","Lentiform Loewenfeld","3.3.8","yes","yes","600bd7cfb6416f0113b04181","602110864497cf011d9c0822","0","f","NA","i","j","j","l","f","789","NA","2656","14086","5327","13048","789","2","legacy","1024","2","48000","-16","task","5202236","even","NA","45959","50617","47960","293615","18297","37733","32405","294116","174313","293613","294117","293528","50617","294908","44460","293028","18281","282675","Lexical Decision Task","85","99929","99","yes","1024"
"2.812467698","0","7","hafe","non-word","86","86","1005.65","1005.65","black","no","legacy","legacy","legacy","0","uniform","1","undefined","undefined","undefined","1","f","0","0","0","0","99","0","0","0","99","0","95","99","95","0","95","3","99","0","99","Sun Mar 14 21:23:03 2021","The main experiment item","yes","Lexical_Decision_Task.osexp","C:/Users/sophi","no","Andale Mono","no","18","no","white","no","yes","576","legacy","95","95","3","C:/Users/sophi/subject-5202236.csv","legacy","Lentiform Loewenfeld","3.3.8","yes","yes","600bd7cfb6416f0113b04181","602110864497cf011d9c0822","0","f","NA","i","j","j","l","f","636","NA","2656","14086","5327","13048","636","2","legacy","1024","2","48000","-16","task","5202236","even","NA","45959","50617","47960","296628","18297","37733","32405","297131","174313","296626","297131","296537","50617","297769","44460","293028","18281","295037","Lexical Decision Task","86","100565","100","yes","1024"
"2.794720352","0","9","koot","non-word","85.14851485148515","85.14851485148515","1004.4752475247525","1004.4752475247525","black","no","legacy","legacy","legacy","0","uniform","0","undefined","undefined","undefined","0","f","0","0","0","0","100","0","0","0","100","0","96","100","96","0","96","3","100","0","100","Sun Mar 14 21:23:03 2021","The main experiment item","yes","Lexical_Decision_Task.osexp","C:/Users/sophi","no","Andale Mono","no","18","no","white","no","yes","576","legacy","96","96","3","C:/Users/sophi/subject-5202236.csv","legacy","Lentiform Loewenfeld","3.3.8","yes","yes","600bd7cfb6416f0113b04181","602110864497cf011d9c0822","0","j","NA","i","j","j","l","j","887","NA","2656","14086","5327","13048","887","2","legacy","1024","2","48000","-16","task","5202236","even","NA","45959","50617","47960","298515","18297","37733","32405","299018","174313","298513","299019","298434","50617","299907","44460","297934","18281","295037","Lexical Decision Task","86","101452","101","yes","1024"
"2.709837904","6.85","8","skim","word","85.29411764705883","85.29411764705883","1000.656862745098","1000.656862745098","black","no","legacy","legacy","legacy","0","uniform","1","undefined","undefined","undefined","1","j","0","0","0","0","101","0","0","0","101","0","97","101","97","0","97","3","101","0","101","Sun Mar 14 21:23:03 2021","The main experiment item","yes","Lexical_Decision_Task.osexp","C:/Users/sophi","no","Andale Mono","no","18","no","white","no","yes","576","legacy","97","97","3","C:/Users/sophi/subject-5202236.csv","legacy","Lentiform Loewenfeld","3.3.8","yes","yes","600bd7cfb6416f0113b04181","602110864497cf011d9c0822","0","j","NA","i","j","j","l","j","615","NA","2656","14086","5327","13048","615","2","legacy","1024","2","48000","-16","task","5202236","even","NA","45959","50617","47960","301529","18297","37733","32405","302031","174313","301527","302031","301446","50617","302648","44460","297934","18281","299946","Lexical Decision Task","87","102067","102","yes","1024"
"2.64476673","0","5","moft","non-word","85.4368932038835","85.4368932038835","997.2330097087379","997.2330097087379","black","no","legacy","legacy","legacy","0","uniform","1","undefined","undefined","undefined","1","f","0","0","0","0","102","0","0","0","102","0","98","102","98","0","98","3","102","0","102","Sun Mar 14 21:23:03 2021","The main experiment item","yes","Lexical_Decision_Task.osexp","C:/Users/sophi","no","Andale Mono","no","18","no","white","no","yes","576","legacy","98","98","3","C:/Users/sophi/subject-5202236.csv","legacy","Lentiform Loewenfeld","3.3.8","yes","yes","600bd7cfb6416f0113b04181","602110864497cf011d9c0822","0","f","NA","i","j","j","l","f","648","NA","2656","14086","5327","13048","648","2","legacy","1024","2","48000","-16","task","5202236","even","NA","45959","50617","47960","303266","18297","37733","32405","303768","174313","303264","303768","303185","50617","304417","44460","302685","18281","299946","Lexical Decision Task","88","102715","103","yes","1024"
