"Log_BG","Log_Freq_HAL","Ortho_N","Stimulus","Type","acc","accuracy","average_response_time","avg_rt","background","bidi","canvas_backend","clock_backend","color_backend","compensation","coordinates","correct","correct_Experimental_intro","correct_Introduction","correct_Practice_intro","correct_experimenter_kb","correct_response","count_End_Of_Experiment","count_End_Of_Practice","count_Experimental_Loop","count_Experimental_intro","count_Fixation","count_Introduction","count_Practice_Loop","count_Practice_intro","count_Stimulus","count_block_break_feedback","count_experimental_sequence","count_experimenter_kb","count_increment_trial_count","count_init_trial_count","count_logger","count_practice_sequence","count_right","count_task","count_wrong","datetime","description","disable_garbage_collection","experiment_file","experiment_path","font_bold","font_family","font_italic","font_size","font_underline","foreground","form_clicks","fullscreen","height","keyboard_backend","live_row","live_row_Experimental_Loop","live_row_Practice_Loop","logfile","mouse_backend","opensesame_codename","opensesame_version","osf_always_upload_data","osf_always_upload_experiment","osf_datanode_id","osf_id","repeat_cycle","response","response_End_Of_Experiment","response_Experimental_intro","response_Introduction","response_Practice_intro","response_block_break_feedback","response_experimenter_kb","response_time","response_time_End_Of_Experiment","response_time_Experimental_intro","response_time_Introduction","response_time_Practice_intro","response_time_block_break_feedback","response_time_experimenter_kb","round_decimals","sampler_backend","sound_buf_size","sound_channels","sound_freq","sound_sample_size","start","subject_nr","subject_parity","time_End_Of_Experiment","time_End_Of_Practice","time_Experimental_Loop","time_Experimental_intro","time_Fixation","time_Introduction","time_Practice_Loop","time_Practice_intro","time_Stimulus","time_block_break_feedback","time_experimental_sequence","time_experimenter_kb","time_increment_trial_count","time_init_trial_count","time_logger","time_practice_sequence","time_right","time_task","time_wrong","title","total_correct","total_response_time","total_responses","uniform_coordinates","width"
"2.979548375","8.71","4","soup","word","100","100","689.4","689.4","black","no","legacy","legacy","legacy","0","uniform","1","undefined","undefined","undefined","1","j","0","0","0","0","4","0","0","0","4","NA","0","4","0","0","0","3","4","0","4","Tue Feb 16 13:24:30 2021","The main experiment item","yes","Lexical_Decision_Task.osexp","E:/BU/Year 2/Semester 2/Cognition & Language/Seminars/S2 - The Lexical Decision Task","no","Andale Mono","no","18","no","white","no","yes","576","legacy","0","0","3","E:/BU/Year 2/Semester 2/Cognition & Language/Seminars/S2 - The Lexical Decision Task/subject-5203383.csv","legacy","Lentiform Loewenfeld","3.3.7","yes","yes","600bd7cfb6416f0113b04181","602110864497cf011d9c0822","0","j","NA","space","space","space","NA","j","583","NA","3986","15911","8636","NA","583","2","legacy","1024","2","48000","-16","task","5203383","odd","NA","38522","44511","40524","44556","6746","31298","22661","45059","NA","44554","45060","NA","44511","45643","36775","37992","6739","NA","Lexical Decision Task","5","3447","5","yes","1024"
"2.719886232","7.98","2","quiz","word","100","100","677.5","677.5","black","no","legacy","legacy","legacy","0","uniform","1","undefined","undefined","undefined","1","j","0","0","0","0","5","0","0","0","5","NA","1","5","1","0","1","3","5","0","5","Tue Feb 16 13:24:30 2021","The main experiment item","yes","Lexical_Decision_Task.osexp","E:/BU/Year 2/Semester 2/Cognition & Language/Seminars/S2 - The Lexical Decision Task","no","Andale Mono","no","18","no","white","no","yes","576","legacy","1","1","3","E:/BU/Year 2/Semester 2/Cognition & Language/Seminars/S2 - The Lexical Decision Task/subject-5203383.csv","legacy","Lentiform Loewenfeld","3.3.7","yes","yes","600bd7cfb6416f0113b04181","602110864497cf011d9c0822","0","j","NA","space","space","space","NA","j","618","NA","3986","15911","8636","NA","618","2","legacy","1024","2","48000","-16","task","5203383","odd","NA","38522","44511","40524","46270","6746","31298","22661","46773","NA","46269","46773","46185","44511","47392","36775","45685","6739","NA","Lexical Decision Task","6","4065","6","yes","1024"
"3.15462682","0","6","noal","non-word","100","100","673","673","black","no","legacy","legacy","legacy","0","uniform","1","undefined","undefined","undefined","1","f","0","0","0","0","6","0","0","0","6","NA","2","6","2","0","2","3","6","0","6","Tue Feb 16 13:24:30 2021","The main experiment item","yes","Lexical_Decision_Task.osexp","E:/BU/Year 2/Semester 2/Cognition & Language/Seminars/S2 - The Lexical Decision Task","no","Andale Mono","no","18","no","white","no","yes","576","legacy","2","2","3","E:/BU/Year 2/Semester 2/Cognition & Language/Seminars/S2 - The Lexical Decision Task/subject-5203383.csv","legacy","Lentiform Loewenfeld","3.3.7","yes","yes","600bd7cfb6416f0113b04181","602110864497cf011d9c0822","0","f","NA","space","space","space","NA","f","646","NA","3986","15911","8636","NA","646","2","legacy","1024","2","48000","-16","task","5203383","odd","NA","38522","44511","40524","47975","6746","31298","22661","48477","NA","47973","48478","47906","44511","49125","36775","47406","6739","NA","Lexical Decision Task","7","4711","7","yes","1024"
"2.895974732","6.65","5","sift","word","87.5","87.5","671.25","671.25","black","no","legacy","legacy","legacy","0","uniform","0","undefined","undefined","undefined","0","j","0","0","0","0","7","0","0","0","7","NA","3","7","3","0","3","3","7","0","7","Tue Feb 16 13:24:30 2021","The main experiment item","yes","Lexical_Decision_Task.osexp","E:/BU/Year 2/Semester 2/Cognition & Language/Seminars/S2 - The Lexical Decision Task","no","Andale Mono","no","18","no","white","no","yes","576","legacy","3","3","3","E:/BU/Year 2/Semester 2/Cognition & Language/Seminars/S2 - The Lexical Decision Task/subject-5203383.csv","legacy","Lentiform Loewenfeld","3.3.7","yes","yes","600bd7cfb6416f0113b04181","602110864497cf011d9c0822","0","f","NA","space","space","space","NA","f","659","NA","3986","15911","8636","NA","659","2","legacy","1024","2","48000","-16","task","5203383","odd","NA","38522","44511","40524","49707","6746","31298","22661","50209","NA","49706","50209","49635","44511","50868","36775","49135","6739","NA","Lexical Decision Task","7","5370","8","yes","1024"
"2.899092422","7.27","6","snag","word","88.88888888888889","88.88888888888889","661.6666666666666","661.6666666666666","black","no","legacy","legacy","legacy","0","uniform","1","undefined","undefined","undefined","1","j","0","0","0","0","8","0","0","0","8","NA","4","8","4","0","4","3","8","0","8","Tue Feb 16 13:24:30 2021","The main experiment item","yes","Lexical_Decision_Task.osexp","E:/BU/Year 2/Semester 2/Cognition & Language/Seminars/S2 - The Lexical Decision Task","no","Andale Mono","no","18","no","white","no","yes","576","legacy","4","4","3","E:/BU/Year 2/Semester 2/Cognition & Language/Seminars/S2 - The Lexical Decision Task/subject-5203383.csv","legacy","Lentiform Loewenfeld","3.3.7","yes","yes","600bd7cfb6416f0113b04181","602110864497cf011d9c0822","0","j","NA","space","space","space","NA","j","585","NA","3986","15911","8636","NA","585","2","legacy","1024","2","48000","-16","task","5203383","odd","NA","38522","44511","40524","52451","6746","31298","22661","52954","NA","52449","52955","52378","44511","53541","36775","49135","6739","50878","Lexical Decision Task","8","5955","9","yes","1024"
"2.728085817","10.02","9","bike","word","90","90","656.6","656.6","black","no","legacy","legacy","legacy","0","uniform","1","undefined","undefined","undefined","1","j","0","0","0","0","9","0","0","0","9","NA","5","9","5","0","5","3","9","0","9","Tue Feb 16 13:24:30 2021","The main experiment item","yes","Lexical_Decision_Task.osexp","E:/BU/Year 2/Semester 2/Cognition & Language/Seminars/S2 - The Lexical Decision Task","no","Andale Mono","no","18","no","white","no","yes","576","legacy","5","5","3","E:/BU/Year 2/Semester 2/Cognition & Language/Seminars/S2 - The Lexical Decision Task/subject-5203383.csv","legacy","Lentiform Loewenfeld","3.3.7","yes","yes","600bd7cfb6416f0113b04181","602110864497cf011d9c0822","0","j","NA","space","space","space","NA","j","611","NA","3986","15911","8636","NA","611","2","legacy","1024","2","48000","-16","task","5203383","odd","NA","38522","44511","40524","54119","6746","31298","22661","54622","NA","54117","54622","54051","44511","55233","36775","53551","6739","50878","Lexical Decision Task","9","6566","10","yes","1024"
"2.696644658","5.78","2","yolk","word","90.9090909090909","90.9090909090909","658.2727272727273","658.2727272727273","black","no","legacy","legacy","legacy","0","uniform","1","undefined","undefined","undefined","1","j","0","0","0","0","10","0","0","0","10","NA","6","10","6","0","6","3","10","0","10","Tue Feb 16 13:24:30 2021","The main experiment item","yes","Lexical_Decision_Task.osexp","E:/BU/Year 2/Semester 2/Cognition & Language/Seminars/S2 - The Lexical Decision Task","no","Andale Mono","no","18","no","white","no","yes","576","legacy","6","6","3","E:/BU/Year 2/Semester 2/Cognition & Language/Seminars/S2 - The Lexical Decision Task/subject-5203383.csv","legacy","Lentiform Loewenfeld","3.3.7","yes","yes","600bd7cfb6416f0113b04181","602110864497cf011d9c0822","0","j","NA","space","space","space","NA","j","675","NA","3986","15911","8636","NA","675","2","legacy","1024","2","48000","-16","task","5203383","odd","NA","38522","44511","40524","55815","6746","31298","22661","56316","NA","55813","56316","55744","44511","56992","36775","55244","6739","50878","Lexical Decision Task","10","7241","11","yes","1024"
"2.924968096","0","4","phim","non-word","91.66666666666667","91.66666666666667","662.5","662.5","black","no","legacy","legacy","legacy","0","uniform","1","undefined","undefined","undefined","1","f","0","0","0","0","11","0","0","0","11","NA","7","11","7","0","7","3","11","0","11","Tue Feb 16 13:24:30 2021","The main experiment item","yes","Lexical_Decision_Task.osexp","E:/BU/Year 2/Semester 2/Cognition & Language/Seminars/S2 - The Lexical Decision Task","no","Andale Mono","no","18","no","white","no","yes","576","legacy","7","7","3","E:/BU/Year 2/Semester 2/Cognition & Language/Seminars/S2 - The Lexical Decision Task/subject-5203383.csv","legacy","Lentiform Loewenfeld","3.3.7","yes","yes","600bd7cfb6416f0113b04181","602110864497cf011d9c0822","0","f","NA","space","space","space","NA","f","709","NA","3986","15911","8636","NA","709","2","legacy","1024","2","48000","-16","task","5203383","odd","NA","38522","44511","40524","57573","6746","31298","22661","58076","NA","57571","58076","57503","44511","58785","36775","57002","6739","50878","Lexical Decision Task","11","7950","12","yes","1024"
"3.174641193","0","3","ramb","non-word","84.61538461538461","84.61538461538461","692.8461538461538","692.8461538461538","black","no","legacy","legacy","legacy","0","uniform","0","undefined","undefined","undefined","0","f","0","0","0","0","12","0","0","0","12","NA","8","12","8","0","8","3","12","0","12","Tue Feb 16 13:24:30 2021","The main experiment item","yes","Lexical_Decision_Task.osexp","E:/BU/Year 2/Semester 2/Cognition & Language/Seminars/S2 - The Lexical Decision Task","no","Andale Mono","no","18","no","white","no","yes","576","legacy","8","8","3","E:/BU/Year 2/Semester 2/Cognition & Language/Seminars/S2 - The Lexical Decision Task/subject-5203383.csv","legacy","Lentiform Loewenfeld","3.3.7","yes","yes","600bd7cfb6416f0113b04181","602110864497cf011d9c0822","0","j","NA","space","space","space","NA","j","1057","NA","3986","15911","8636","NA","1057","2","legacy","1024","2","48000","-16","task","5203383","odd","NA","38522","44511","40524","59367","6746","31298","22661","59869","NA","59365","59869","59295","44511","60927","36775","58795","6739","50878","Lexical Decision Task","11","9007","13","yes","1024"
"3.474361976","5.24","6","veer","word","85.71428571428571","85.71428571428571","704.4285714285714","704.4285714285714","black","no","legacy","legacy","legacy","0","uniform","1","undefined","undefined","undefined","1","j","0","0","0","0","13","0","0","0","13","NA","9","13","9","0","9","3","13","0","13","Tue Feb 16 13:24:30 2021","The main experiment item","yes","Lexical_Decision_Task.osexp","E:/BU/Year 2/Semester 2/Cognition & Language/Seminars/S2 - The Lexical Decision Task","no","Andale Mono","no","18","no","white","no","yes","576","legacy","9","9","3","E:/BU/Year 2/Semester 2/Cognition & Language/Seminars/S2 - The Lexical Decision Task/subject-5203383.csv","legacy","Lentiform Loewenfeld","3.3.7","yes","yes","600bd7cfb6416f0113b04181","602110864497cf011d9c0822","0","j","NA","space","space","space","NA","j","855","NA","3986","15911","8636","NA","855","2","legacy","1024","2","48000","-16","task","5203383","odd","NA","38522","44511","40524","62519","6746","31298","22661","63020","NA","62517","63020","62438","44511","63876","36775","58795","6739","60938","Lexical Decision Task","12","9862","14","yes","1024"
"3.263399331","0","8","cour","non-word","86.66666666666667","86.66666666666667","712.6666666666666","712.6666666666666","black","no","legacy","legacy","legacy","0","uniform","1","undefined","undefined","undefined","1","f","0","0","0","0","14","0","0","0","14","NA","10","14","10","0","10","3","14","0","14","Tue Feb 16 13:24:30 2021","The main experiment item","yes","Lexical_Decision_Task.osexp","E:/BU/Year 2/Semester 2/Cognition & Language/Seminars/S2 - The Lexical Decision Task","no","Andale Mono","no","18","no","white","no","yes","576","legacy","10","10","3","E:/BU/Year 2/Semester 2/Cognition & Language/Seminars/S2 - The Lexical Decision Task/subject-5203383.csv","legacy","Lentiform Loewenfeld","3.3.7","yes","yes","600bd7cfb6416f0113b04181","602110864497cf011d9c0822","0","f","NA","space","space","space","NA","f","828","NA","3986","15911","8636","NA","828","2","legacy","1024","2","48000","-16","task","5203383","odd","NA","38522","44511","40524","64458","6746","31298","22661","64959","NA","64456","64959","64386","44511","65787","36775","63886","6739","60938","Lexical Decision Task","13","10690","15","yes","1024"
"2.695770526","7.34","6","pawn","word","87.5","87.5","707.375","707.375","black","no","legacy","legacy","legacy","0","uniform","1","undefined","undefined","undefined","1","j","0","0","0","0","15","0","0","0","15","NA","11","15","11","0","11","3","15","0","15","Tue Feb 16 13:24:30 2021","The main experiment item","yes","Lexical_Decision_Task.osexp","E:/BU/Year 2/Semester 2/Cognition & Language/Seminars/S2 - The Lexical Decision Task","no","Andale Mono","no","18","no","white","no","yes","576","legacy","11","11","3","E:/BU/Year 2/Semester 2/Cognition & Language/Seminars/S2 - The Lexical Decision Task/subject-5203383.csv","legacy","Lentiform Loewenfeld","3.3.7","yes","yes","600bd7cfb6416f0113b04181","602110864497cf011d9c0822","0","j","NA","space","space","space","NA","j","628","NA","3986","15911","8636","NA","628","2","legacy","1024","2","48000","-16","task","5203383","odd","NA","38522","44511","40524","66370","6746","31298","22661","66872","NA","66368","66872","66298","44511","67501","36775","65798","6739","60938","Lexical Decision Task","14","11318","16","yes","1024"
"3.29439347","8.6","9","wand","word","88.23529411764706","88.23529411764706","726.1176470588235","726.1176470588235","black","no","legacy","legacy","legacy","0","uniform","1","undefined","undefined","undefined","1","j","0","0","0","0","16","0","0","0","16","NA","12","16","12","0","12","3","16","0","16","Tue Feb 16 13:24:30 2021","The main experiment item","yes","Lexical_Decision_Task.osexp","E:/BU/Year 2/Semester 2/Cognition & Language/Seminars/S2 - The Lexical Decision Task","no","Andale Mono","no","18","no","white","no","yes","576","legacy","12","12","3","E:/BU/Year 2/Semester 2/Cognition & Language/Seminars/S2 - The Lexical Decision Task/subject-5203383.csv","legacy","Lentiform Loewenfeld","3.3.7","yes","yes","600bd7cfb6416f0113b04181","602110864497cf011d9c0822","0","j","NA","space","space","space","NA","j","1026","NA","3986","15911","8636","NA","1026","2","legacy","1024","2","48000","-16","task","5203383","odd","NA","38522","44511","40524","68079","6746","31298","22661","68582","NA","68077","68582","68011","44511","69609","36775","67511","6739","60938","Lexical Decision Task","15","12344","17","yes","1024"
"2.67699827","0","6","hulf","non-word","88.88888888888889","88.88888888888889","740.1111111111111","740.1111111111111","black","no","legacy","legacy","legacy","0","uniform","1","undefined","undefined","undefined","1","f","0","0","0","0","17","0","0","0","17","NA","13","17","13","0","13","3","17","0","17","Tue Feb 16 13:24:30 2021","The main experiment item","yes","Lexical_Decision_Task.osexp","E:/BU/Year 2/Semester 2/Cognition & Language/Seminars/S2 - The Lexical Decision Task","no","Andale Mono","no","18","no","white","no","yes","576","legacy","13","13","3","E:/BU/Year 2/Semester 2/Cognition & Language/Seminars/S2 - The Lexical Decision Task/subject-5203383.csv","legacy","Lentiform Loewenfeld","3.3.7","yes","yes","600bd7cfb6416f0113b04181","602110864497cf011d9c0822","0","f","NA","space","space","space","NA","f","978","NA","3986","15911","8636","NA","978","2","legacy","1024","2","48000","-16","task","5203383","odd","NA","38522","44511","40524","70229","6746","31298","22661","70733","NA","70228","70733","70161","44511","71712","36775","69661","6739","60938","Lexical Decision Task","16","13322","18","yes","1024"
"3.252447662","9.67","9","boat","word","89.47368421052632","89.47368421052632","735.6315789473684","735.6315789473684","black","no","legacy","legacy","legacy","0","uniform","1","undefined","undefined","undefined","1","j","0","0","0","0","18","0","0","0","18","NA","14","18","14","0","14","3","18","0","18","Tue Feb 16 13:24:30 2021","The main experiment item","yes","Lexical_Decision_Task.osexp","E:/BU/Year 2/Semester 2/Cognition & Language/Seminars/S2 - The Lexical Decision Task","no","Andale Mono","no","18","no","white","no","yes","576","legacy","14","14","3","E:/BU/Year 2/Semester 2/Cognition & Language/Seminars/S2 - The Lexical Decision Task/subject-5203383.csv","legacy","Lentiform Loewenfeld","3.3.7","yes","yes","600bd7cfb6416f0113b04181","602110864497cf011d9c0822","0","j","NA","space","space","space","NA","j","655","NA","3986","15911","8636","NA","655","2","legacy","1024","2","48000","-16","task","5203383","odd","NA","38522","44511","40524","72306","6746","31298","22661","72809","NA","72305","72809","72235","44511","73464","36775","71735","6739","60938","Lexical Decision Task","17","13977","19","yes","1024"
"3.137775856","7.39","5","comb","word","90","90","729.35","729.35","black","no","legacy","legacy","legacy","0","uniform","1","undefined","undefined","undefined","1","j","0","0","0","0","19","0","0","0","19","NA","15","19","15","0","15","3","19","0","19","Tue Feb 16 13:24:30 2021","The main experiment item","yes","Lexical_Decision_Task.osexp","E:/BU/Year 2/Semester 2/Cognition & Language/Seminars/S2 - The Lexical Decision Task","no","Andale Mono","no","18","no","white","no","yes","576","legacy","15","15","3","E:/BU/Year 2/Semester 2/Cognition & Language/Seminars/S2 - The Lexical Decision Task/subject-5203383.csv","legacy","Lentiform Loewenfeld","3.3.7","yes","yes","600bd7cfb6416f0113b04181","602110864497cf011d9c0822","0","j","NA","space","space","space","NA","j","610","NA","3986","15911","8636","NA","610","2","legacy","1024","2","48000","-16","task","5203383","odd","NA","38522","44511","40524","74047","6746","31298","22661","74550","NA","74045","74551","73975","44511","75163","36775","73475","6739","60938","Lexical Decision Task","18","14587","20","yes","1024"
"3.382617311","0","4","pret","non-word","90.47619047619048","90.47619047619048","735.952380952381","735.952380952381","black","no","legacy","legacy","legacy","0","uniform","1","undefined","undefined","undefined","1","f","0","0","0","0","20","0","0","0","20","NA","16","20","16","0","16","3","20","0","20","Tue Feb 16 13:24:30 2021","The main experiment item","yes","Lexical_Decision_Task.osexp","E:/BU/Year 2/Semester 2/Cognition & Language/Seminars/S2 - The Lexical Decision Task","no","Andale Mono","no","18","no","white","no","yes","576","legacy","16","16","3","E:/BU/Year 2/Semester 2/Cognition & Language/Seminars/S2 - The Lexical Decision Task/subject-5203383.csv","legacy","Lentiform Loewenfeld","3.3.7","yes","yes","600bd7cfb6416f0113b04181","602110864497cf011d9c0822","0","f","NA","space","space","space","NA","f","868","NA","3986","15911","8636","NA","868","2","legacy","1024","2","48000","-16","task","5203383","odd","NA","38522","44511","40524","75745","6746","31298","22661","76246","NA","75744","76246","75673","44511","77115","36775","75173","6739","60938","Lexical Decision Task","19","15455","21","yes","1024"
"2.873320602","0","4","lurg","non-word","90.9090909090909","90.9090909090909","741.8636363636364","741.8636363636364","black","no","legacy","legacy","legacy","0","uniform","1","undefined","undefined","undefined","1","f","0","0","0","0","21","0","0","0","21","NA","17","21","17","0","17","3","21","0","21","Tue Feb 16 13:24:30 2021","The main experiment item","yes","Lexical_Decision_Task.osexp","E:/BU/Year 2/Semester 2/Cognition & Language/Seminars/S2 - The Lexical Decision Task","no","Andale Mono","no","18","no","white","no","yes","576","legacy","17","17","3","E:/BU/Year 2/Semester 2/Cognition & Language/Seminars/S2 - The Lexical Decision Task/subject-5203383.csv","legacy","Lentiform Loewenfeld","3.3.7","yes","yes","600bd7cfb6416f0113b04181","602110864497cf011d9c0822","0","f","NA","space","space","space","NA","f","866","NA","3986","15911","8636","NA","866","2","legacy","1024","2","48000","-16","task","5203383","odd","NA","38522","44511","40524","77699","6746","31298","22661","78202","NA","77697","78202","77626","44511","79069","36775","77126","6739","60938","Lexical Decision Task","20","16321","22","yes","1024"
"3.197740804","6.74","3","ache","word","91.30434782608695","91.30434782608695","762.0869565217391","762.0869565217391","black","no","legacy","legacy","legacy","0","uniform","1","undefined","undefined","undefined","1","j","0","0","0","0","22","0","0","0","22","NA","18","22","18","0","18","3","22","0","22","Tue Feb 16 13:24:30 2021","The main experiment item","yes","Lexical_Decision_Task.osexp","E:/BU/Year 2/Semester 2/Cognition & Language/Seminars/S2 - The Lexical Decision Task","no","Andale Mono","no","18","no","white","no","yes","576","legacy","18","18","3","E:/BU/Year 2/Semester 2/Cognition & Language/Seminars/S2 - The Lexical Decision Task/subject-5203383.csv","legacy","Lentiform Loewenfeld","3.3.7","yes","yes","600bd7cfb6416f0113b04181","602110864497cf011d9c0822","0","j","NA","space","space","space","NA","j","1207","NA","3986","15911","8636","NA","1207","2","legacy","1024","2","48000","-16","task","5203383","odd","NA","38522","44511","40524","79655","6746","31298","22661","80159","NA","79653","80159","79581","44511","81367","36775","79081","6739","60938","Lexical Decision Task","21","17528","23","yes","1024"
"2.744553742","0","2","nawk","non-word","91.66666666666667","91.66666666666667","763.375","763.375","black","no","legacy","legacy","legacy","0","uniform","1","undefined","undefined","undefined","1","f","0","0","0","0","23","0","0","0","23","NA","19","23","19","0","19","3","23","0","23","Tue Feb 16 13:24:30 2021","The main experiment item","yes","Lexical_Decision_Task.osexp","E:/BU/Year 2/Semester 2/Cognition & Language/Seminars/S2 - The Lexical Decision Task","no","Andale Mono","no","18","no","white","no","yes","576","legacy","19","19","3","E:/BU/Year 2/Semester 2/Cognition & Language/Seminars/S2 - The Lexical Decision Task/subject-5203383.csv","legacy","Lentiform Loewenfeld","3.3.7","yes","yes","600bd7cfb6416f0113b04181","602110864497cf011d9c0822","0","f","NA","space","space","space","NA","f","793","NA","3986","15911","8636","NA","793","2","legacy","1024","2","48000","-16","task","5203383","odd","NA","38522","44511","40524","81945","6746","31298","22661","82447","NA","81944","82447","81877","44511","83241","36775","81377","6739","60938","Lexical Decision Task","22","18321","24","yes","1024"
"3.397302518","7.01","2","knit","word","92","92","759.04","759.04","black","no","legacy","legacy","legacy","0","uniform","1","undefined","undefined","undefined","1","j","0","0","0","0","24","0","0","0","24","NA","20","24","20","0","20","3","24","0","24","Tue Feb 16 13:24:30 2021","The main experiment item","yes","Lexical_Decision_Task.osexp","E:/BU/Year 2/Semester 2/Cognition & Language/Seminars/S2 - The Lexical Decision Task","no","Andale Mono","no","18","no","white","no","yes","576","legacy","20","20","3","E:/BU/Year 2/Semester 2/Cognition & Language/Seminars/S2 - The Lexical Decision Task/subject-5203383.csv","legacy","Lentiform Loewenfeld","3.3.7","yes","yes","600bd7cfb6416f0113b04181","602110864497cf011d9c0822","0","j","NA","space","space","space","NA","j","655","NA","3986","15911","8636","NA","655","2","legacy","1024","2","48000","-16","task","5203383","odd","NA","38522","44511","40524","83820","6746","31298","22661","84323","NA","83818","84323","83751","44511","84979","36775","83251","6739","60938","Lexical Decision Task","23","18976","25","yes","1024"
"3.082307743","9.68","8","camp","word","92.3076923076923","92.3076923076923","756.8846153846154","756.8846153846154","black","no","legacy","legacy","legacy","0","uniform","1","undefined","undefined","undefined","1","j","0","0","0","0","25","0","0","0","25","NA","21","25","21","0","21","3","25","0","25","Tue Feb 16 13:24:30 2021","The main experiment item","yes","Lexical_Decision_Task.osexp","E:/BU/Year 2/Semester 2/Cognition & Language/Seminars/S2 - The Lexical Decision Task","no","Andale Mono","no","18","no","white","no","yes","576","legacy","21","21","3","E:/BU/Year 2/Semester 2/Cognition & Language/Seminars/S2 - The Lexical Decision Task/subject-5203383.csv","legacy","Lentiform Loewenfeld","3.3.7","yes","yes","600bd7cfb6416f0113b04181","602110864497cf011d9c0822","0","j","NA","space","space","space","NA","j","703","NA","3986","15911","8636","NA","703","2","legacy","1024","2","48000","-16","task","5203383","odd","NA","38522","44511","40524","85566","6746","31298","22661","86067","NA","85565","86067","85489","44511","86770","36775","84989","6739","60938","Lexical Decision Task","24","19679","26","yes","1024"
"3.100255637","0","6","brax","non-word","92.5925925925926","92.5925925925926","754.5185185185185","754.5185185185185","black","no","legacy","legacy","legacy","0","uniform","1","undefined","undefined","undefined","1","f","0","0","0","0","26","0","0","0","26","NA","22","26","22","0","22","3","26","0","26","Tue Feb 16 13:24:30 2021","The main experiment item","yes","Lexical_Decision_Task.osexp","E:/BU/Year 2/Semester 2/Cognition & Language/Seminars/S2 - The Lexical Decision Task","no","Andale Mono","no","18","no","white","no","yes","576","legacy","22","22","3","E:/BU/Year 2/Semester 2/Cognition & Language/Seminars/S2 - The Lexical Decision Task/subject-5203383.csv","legacy","Lentiform Loewenfeld","3.3.7","yes","yes","600bd7cfb6416f0113b04181","602110864497cf011d9c0822","0","f","NA","space","space","space","NA","f","693","NA","3986","15911","8636","NA","693","2","legacy","1024","2","48000","-16","task","5203383","odd","NA","38522","44511","40524","87353","6746","31298","22661","87855","NA","87351","87855","87280","44511","88549","36775","86780","6739","60938","Lexical Decision Task","25","20372","27","yes","1024"
"3.067070856","9.39","3","loud","word","92.85714285714286","92.85714285714286","751.4642857142857","751.4642857142857","black","no","legacy","legacy","legacy","0","uniform","1","undefined","undefined","undefined","1","j","0","0","0","0","27","0","0","0","27","NA","23","27","23","0","23","3","27","0","27","Tue Feb 16 13:24:30 2021","The main experiment item","yes","Lexical_Decision_Task.osexp","E:/BU/Year 2/Semester 2/Cognition & Language/Seminars/S2 - The Lexical Decision Task","no","Andale Mono","no","18","no","white","no","yes","576","legacy","23","23","3","E:/BU/Year 2/Semester 2/Cognition & Language/Seminars/S2 - The Lexical Decision Task/subject-5203383.csv","legacy","Lentiform Loewenfeld","3.3.7","yes","yes","600bd7cfb6416f0113b04181","602110864497cf011d9c0822","0","j","NA","space","space","space","NA","j","669","NA","3986","15911","8636","NA","669","2","legacy","1024","2","48000","-16","task","5203383","odd","NA","38522","44511","40524","89129","6746","31298","22661","89632","NA","89128","89632","89061","44511","90302","36775","88561","6739","60938","Lexical Decision Task","26","21041","28","yes","1024"
"2.68604012","0","4","pumb","non-word","89.65517241379311","89.65517241379311","745.3448275862069","745.3448275862069","black","no","legacy","legacy","legacy","0","uniform","0","undefined","undefined","undefined","0","f","0","0","0","0","28","0","0","0","28","NA","24","28","24","0","24","3","28","0","28","Tue Feb 16 13:24:30 2021","The main experiment item","yes","Lexical_Decision_Task.osexp","E:/BU/Year 2/Semester 2/Cognition & Language/Seminars/S2 - The Lexical Decision Task","no","Andale Mono","no","18","no","white","no","yes","576","legacy","24","24","3","E:/BU/Year 2/Semester 2/Cognition & Language/Seminars/S2 - The Lexical Decision Task/subject-5203383.csv","legacy","Lentiform Loewenfeld","3.3.7","yes","yes","600bd7cfb6416f0113b04181","602110864497cf011d9c0822","0","j","NA","space","space","space","NA","j","574","NA","3986","15911","8636","NA","574","2","legacy","1024","2","48000","-16","task","5203383","odd","NA","38522","44511","40524","90881","6746","31298","22661","91384","NA","90880","91385","90812","44511","91960","36775","90312","6739","60938","Lexical Decision Task","26","21615","29","yes","1024"
"3.20996159","0","4","clee","non-word","90","90","756.7666666666667","756.7666666666667","black","no","legacy","legacy","legacy","0","uniform","1","undefined","undefined","undefined","1","f","0","0","0","0","29","0","0","0","29","NA","25","29","25","0","25","3","29","0","29","Tue Feb 16 13:24:30 2021","The main experiment item","yes","Lexical_Decision_Task.osexp","E:/BU/Year 2/Semester 2/Cognition & Language/Seminars/S2 - The Lexical Decision Task","no","Andale Mono","no","18","no","white","no","yes","576","legacy","25","25","3","E:/BU/Year 2/Semester 2/Cognition & Language/Seminars/S2 - The Lexical Decision Task/subject-5203383.csv","legacy","Lentiform Loewenfeld","3.3.7","yes","yes","600bd7cfb6416f0113b04181","602110864497cf011d9c0822","0","f","NA","space","space","space","NA","f","1088","NA","3986","15911","8636","NA","1088","2","legacy","1024","2","48000","-16","task","5203383","odd","NA","38522","44511","40524","93546","6746","31298","22661","94047","NA","93545","94048","93470","44511","95137","36775","90312","6739","91970","Lexical Decision Task","27","22703","30","yes","1024"
"3.495914186","0","4","peng","non-word","87.09677419354838","87.09677419354838","769.8709677419355","769.8709677419355","black","no","legacy","legacy","legacy","0","uniform","0","undefined","undefined","undefined","0","f","0","0","0","0","30","0","0","0","30","NA","26","30","26","0","26","3","30","0","30","Tue Feb 16 13:24:30 2021","The main experiment item","yes","Lexical_Decision_Task.osexp","E:/BU/Year 2/Semester 2/Cognition & Language/Seminars/S2 - The Lexical Decision Task","no","Andale Mono","no","18","no","white","no","yes","576","legacy","26","26","3","E:/BU/Year 2/Semester 2/Cognition & Language/Seminars/S2 - The Lexical Decision Task/subject-5203383.csv","legacy","Lentiform Loewenfeld","3.3.7","yes","yes","600bd7cfb6416f0113b04181","602110864497cf011d9c0822","0","j","NA","space","space","space","NA","j","1163","NA","3986","15911","8636","NA","1163","2","legacy","1024","2","48000","-16","task","5203383","odd","NA","38522","44511","40524","95719","6746","31298","22661","96221","NA","95717","96221","95647","44511","97385","36775","95147","6739","91970","Lexical Decision Task","27","23866","31","yes","1024"
"2.813801082","5.47","7","nook","word","87.5","87.5","772.15625","772.15625","black","no","legacy","legacy","legacy","0","uniform","1","undefined","undefined","undefined","1","j","0","0","0","0","31","0","0","0","31","NA","27","31","27","0","27","3","31","0","31","Tue Feb 16 13:24:30 2021","The main experiment item","yes","Lexical_Decision_Task.osexp","E:/BU/Year 2/Semester 2/Cognition & Language/Seminars/S2 - The Lexical Decision Task","no","Andale Mono","no","18","no","white","no","yes","576","legacy","27","27","3","E:/BU/Year 2/Semester 2/Cognition & Language/Seminars/S2 - The Lexical Decision Task/subject-5203383.csv","legacy","Lentiform Loewenfeld","3.3.7","yes","yes","600bd7cfb6416f0113b04181","602110864497cf011d9c0822","0","j","NA","space","space","space","NA","j","843","NA","3986","15911","8636","NA","843","2","legacy","1024","2","48000","-16","task","5203383","odd","NA","38522","44511","40524","98965","6746","31298","22661","99467","NA","98964","99468","98895","44511","100312","36775","95147","6739","97395","Lexical Decision Task","28","24709","32","yes","1024"
"2.8162413","0","5","nusk","non-word","87.87878787878788","87.87878787878788","772.8484848484849","772.8484848484849","black","no","legacy","legacy","legacy","0","uniform","1","undefined","undefined","undefined","1","f","0","0","0","0","32","0","0","0","32","NA","28","32","28","0","28","3","32","0","32","Tue Feb 16 13:24:30 2021","The main experiment item","yes","Lexical_Decision_Task.osexp","E:/BU/Year 2/Semester 2/Cognition & Language/Seminars/S2 - The Lexical Decision Task","no","Andale Mono","no","18","no","white","no","yes","576","legacy","28","28","3","E:/BU/Year 2/Semester 2/Cognition & Language/Seminars/S2 - The Lexical Decision Task/subject-5203383.csv","legacy","Lentiform Loewenfeld","3.3.7","yes","yes","600bd7cfb6416f0113b04181","602110864497cf011d9c0822","0","f","NA","space","space","space","NA","f","795","NA","3986","15911","8636","NA","795","2","legacy","1024","2","48000","-16","task","5203383","odd","NA","38522","44511","40524","100896","6746","31298","22661","101398","NA","100894","101398","100823","44511","102194","36775","100323","6739","97395","Lexical Decision Task","29","25504","33","yes","1024"
"3.274543461","7.46","7","scar","word","88.23529411764706","88.23529411764706","771.3529411764706","771.3529411764706","black","no","legacy","legacy","legacy","0","uniform","1","undefined","undefined","undefined","1","j","0","0","0","0","33","0","0","0","33","NA","29","33","29","0","29","3","33","0","33","Tue Feb 16 13:24:30 2021","The main experiment item","yes","Lexical_Decision_Task.osexp","E:/BU/Year 2/Semester 2/Cognition & Language/Seminars/S2 - The Lexical Decision Task","no","Andale Mono","no","18","no","white","no","yes","576","legacy","29","29","3","E:/BU/Year 2/Semester 2/Cognition & Language/Seminars/S2 - The Lexical Decision Task/subject-5203383.csv","legacy","Lentiform Loewenfeld","3.3.7","yes","yes","600bd7cfb6416f0113b04181","602110864497cf011d9c0822","0","j","NA","space","space","space","NA","j","722","NA","3986","15911","8636","NA","722","2","legacy","1024","2","48000","-16","task","5203383","odd","NA","38522","44511","40524","102778","6746","31298","22661","103279","NA","102777","103279","102704","44511","104002","36775","102204","6739","97395","Lexical Decision Task","30","26226","34","yes","1024"
"3.039414119","0","9","meep","non-word","88.57142857142857","88.57142857142857","766.8","766.8","black","no","legacy","legacy","legacy","0","uniform","1","undefined","undefined","undefined","1","f","0","0","0","0","34","0","0","0","34","NA","30","34","30","0","30","3","34","0","34","Tue Feb 16 13:24:30 2021","The main experiment item","yes","Lexical_Decision_Task.osexp","E:/BU/Year 2/Semester 2/Cognition & Language/Seminars/S2 - The Lexical Decision Task","no","Andale Mono","no","18","no","white","no","yes","576","legacy","30","30","3","E:/BU/Year 2/Semester 2/Cognition & Language/Seminars/S2 - The Lexical Decision Task/subject-5203383.csv","legacy","Lentiform Loewenfeld","3.3.7","yes","yes","600bd7cfb6416f0113b04181","602110864497cf011d9c0822","0","f","NA","space","space","space","NA","f","612","NA","3986","15911","8636","NA","612","2","legacy","1024","2","48000","-16","task","5203383","odd","NA","38522","44511","40524","104585","6746","31298","22661","105087","NA","104584","105087","104513","44511","105700","36775","104013","6739","97395","Lexical Decision Task","31","26838","35","yes","1024"
"3.068433376","8.09","2","bulb","word","88.88888888888889","88.88888888888889","762.2222222222222","762.2222222222222","black","no","legacy","legacy","legacy","0","uniform","1","undefined","undefined","undefined","1","j","0","0","0","0","35","0","0","0","35","NA","31","35","31","0","31","3","35","0","35","Tue Feb 16 13:24:30 2021","The main experiment item","yes","Lexical_Decision_Task.osexp","E:/BU/Year 2/Semester 2/Cognition & Language/Seminars/S2 - The Lexical Decision Task","no","Andale Mono","no","18","no","white","no","yes","576","legacy","31","31","3","E:/BU/Year 2/Semester 2/Cognition & Language/Seminars/S2 - The Lexical Decision Task/subject-5203383.csv","legacy","Lentiform Loewenfeld","3.3.7","yes","yes","600bd7cfb6416f0113b04181","602110864497cf011d9c0822","0","j","NA","space","space","space","NA","j","602","NA","3986","15911","8636","NA","602","2","legacy","1024","2","48000","-16","task","5203383","odd","NA","38522","44511","40524","106279","6746","31298","22661","106781","NA","106277","106781","106210","44511","107384","36775","105710","6739","97395","Lexical Decision Task","32","27440","36","yes","1024"
"2.875447132","0","9","jelt","non-word","89.1891891891892","89.1891891891892","763.3243243243244","763.3243243243244","black","no","legacy","legacy","legacy","0","uniform","1","undefined","undefined","undefined","1","f","0","0","0","0","36","0","0","0","36","NA","32","36","32","0","32","3","36","0","36","Tue Feb 16 13:24:30 2021","The main experiment item","yes","Lexical_Decision_Task.osexp","E:/BU/Year 2/Semester 2/Cognition & Language/Seminars/S2 - The Lexical Decision Task","no","Andale Mono","no","18","no","white","no","yes","576","legacy","32","32","3","E:/BU/Year 2/Semester 2/Cognition & Language/Seminars/S2 - The Lexical Decision Task/subject-5203383.csv","legacy","Lentiform Loewenfeld","3.3.7","yes","yes","600bd7cfb6416f0113b04181","602110864497cf011d9c0822","0","f","NA","space","space","space","NA","f","803","NA","3986","15911","8636","NA","803","2","legacy","1024","2","48000","-16","task","5203383","odd","NA","38522","44511","40524","107966","6746","31298","22661","108468","NA","107965","108468","107894","44511","109272","36775","107394","6739","97395","Lexical Decision Task","33","28243","37","yes","1024"
"3.378276681","6.39","8","bran","word","86.84210526315789","86.84210526315789","764.4473684210526","764.4473684210526","black","no","legacy","legacy","legacy","0","uniform","0","undefined","undefined","undefined","0","j","0","0","0","0","37","0","0","0","37","NA","33","37","33","0","33","3","37","0","37","Tue Feb 16 13:24:30 2021","The main experiment item","yes","Lexical_Decision_Task.osexp","E:/BU/Year 2/Semester 2/Cognition & Language/Seminars/S2 - The Lexical Decision Task","no","Andale Mono","no","18","no","white","no","yes","576","legacy","33","33","3","E:/BU/Year 2/Semester 2/Cognition & Language/Seminars/S2 - The Lexical Decision Task/subject-5203383.csv","legacy","Lentiform Loewenfeld","3.3.7","yes","yes","600bd7cfb6416f0113b04181","602110864497cf011d9c0822","0","f","NA","space","space","space","NA","f","806","NA","3986","15911","8636","NA","806","2","legacy","1024","2","48000","-16","task","5203383","odd","NA","38522","44511","40524","109851","6746","31298","22661","110354","NA","109849","110354","109783","44511","111161","36775","109282","6739","97395","Lexical Decision Task","33","29049","38","yes","1024"
"2.713490543","0","3","feps","non-word","87.17948717948718","87.17948717948718","763.0769230769231","763.0769230769231","black","no","legacy","legacy","legacy","0","uniform","1","undefined","undefined","undefined","1","f","0","0","0","0","38","0","0","0","38","NA","34","38","34","0","34","3","38","0","38","Tue Feb 16 13:24:30 2021","The main experiment item","yes","Lexical_Decision_Task.osexp","E:/BU/Year 2/Semester 2/Cognition & Language/Seminars/S2 - The Lexical Decision Task","no","Andale Mono","no","18","no","white","no","yes","576","legacy","34","34","3","E:/BU/Year 2/Semester 2/Cognition & Language/Seminars/S2 - The Lexical Decision Task/subject-5203383.csv","legacy","Lentiform Loewenfeld","3.3.7","yes","yes","600bd7cfb6416f0113b04181","602110864497cf011d9c0822","0","f","NA","space","space","space","NA","f","711","NA","3986","15911","8636","NA","711","2","legacy","1024","2","48000","-16","task","5203383","odd","NA","38522","44511","40524","112737","6746","31298","22661","113239","NA","112736","113240","112671","44511","113952","36775","109282","6739","111171","Lexical Decision Task","34","29760","39","yes","1024"
"2.64476673","0","5","moft","non-word","87.5","87.5","761.125","761.125","black","no","legacy","legacy","legacy","0","uniform","1","undefined","undefined","undefined","1","f","0","0","0","0","39","0","0","0","39","NA","35","39","35","0","35","3","39","0","39","Tue Feb 16 13:24:30 2021","The main experiment item","yes","Lexical_Decision_Task.osexp","E:/BU/Year 2/Semester 2/Cognition & Language/Seminars/S2 - The Lexical Decision Task","no","Andale Mono","no","18","no","white","no","yes","576","legacy","35","35","3","E:/BU/Year 2/Semester 2/Cognition & Language/Seminars/S2 - The Lexical Decision Task/subject-5203383.csv","legacy","Lentiform Loewenfeld","3.3.7","yes","yes","600bd7cfb6416f0113b04181","602110864497cf011d9c0822","0","f","NA","space","space","space","NA","f","685","NA","3986","15911","8636","NA","685","2","legacy","1024","2","48000","-16","task","5203383","odd","NA","38522","44511","40524","114543","6746","31298","22661","115045","NA","114541","115045","114463","44511","115731","36775","113963","6739","111171","Lexical Decision Task","35","30445","40","yes","1024"
"2.839268497","0","8","maft","non-word","87.8048780487805","87.8048780487805","760.390243902439","760.390243902439","black","no","legacy","legacy","legacy","0","uniform","1","undefined","undefined","undefined","1","f","0","0","0","0","40","0","0","0","40","NA","36","40","36","0","36","3","40","0","40","Tue Feb 16 13:24:30 2021","The main experiment item","yes","Lexical_Decision_Task.osexp","E:/BU/Year 2/Semester 2/Cognition & Language/Seminars/S2 - The Lexical Decision Task","no","Andale Mono","no","18","no","white","no","yes","576","legacy","36","36","3","E:/BU/Year 2/Semester 2/Cognition & Language/Seminars/S2 - The Lexical Decision Task/subject-5203383.csv","legacy","Lentiform Loewenfeld","3.3.7","yes","yes","600bd7cfb6416f0113b04181","602110864497cf011d9c0822","0","f","NA","space","space","space","NA","f","731","NA","3986","15911","8636","NA","731","2","legacy","1024","2","48000","-16","task","5203383","odd","NA","38522","44511","40524","116312","6746","31298","22661","116816","NA","116309","116816","116241","44511","117547","36775","115741","6739","111171","Lexical Decision Task","36","31176","41","yes","1024"
"3.064581521","5.51","6","cask","word","88.0952380952381","88.0952380952381","757.8809523809524","757.8809523809524","black","no","legacy","legacy","legacy","0","uniform","1","undefined","undefined","undefined","1","j","0","0","0","0","41","0","0","0","41","NA","37","41","37","0","37","3","41","0","41","Tue Feb 16 13:24:30 2021","The main experiment item","yes","Lexical_Decision_Task.osexp","E:/BU/Year 2/Semester 2/Cognition & Language/Seminars/S2 - The Lexical Decision Task","no","Andale Mono","no","18","no","white","no","yes","576","legacy","37","37","3","E:/BU/Year 2/Semester 2/Cognition & Language/Seminars/S2 - The Lexical Decision Task/subject-5203383.csv","legacy","Lentiform Loewenfeld","3.3.7","yes","yes","600bd7cfb6416f0113b04181","602110864497cf011d9c0822","0","j","NA","space","space","space","NA","j","655","NA","3986","15911","8636","NA","655","2","legacy","1024","2","48000","-16","task","5203383","odd","NA","38522","44511","40524","118135","6746","31298","22661","118637","NA","118133","118637","118063","44511","119294","36775","117563","6739","111171","Lexical Decision Task","37","31831","42","yes","1024"
"2.845304797","0","6","buct","non-word","88.37209302325581","88.37209302325581","760.1395348837209","760.1395348837209","black","no","legacy","legacy","legacy","0","uniform","1","undefined","undefined","undefined","1","f","0","0","0","0","42","0","0","0","42","NA","38","42","38","0","38","3","42","0","42","Tue Feb 16 13:24:30 2021","The main experiment item","yes","Lexical_Decision_Task.osexp","E:/BU/Year 2/Semester 2/Cognition & Language/Seminars/S2 - The Lexical Decision Task","no","Andale Mono","no","18","no","white","no","yes","576","legacy","38","38","3","E:/BU/Year 2/Semester 2/Cognition & Language/Seminars/S2 - The Lexical Decision Task/subject-5203383.csv","legacy","Lentiform Loewenfeld","3.3.7","yes","yes","600bd7cfb6416f0113b04181","602110864497cf011d9c0822","0","f","NA","space","space","space","NA","f","855","NA","3986","15911","8636","NA","855","2","legacy","1024","2","48000","-16","task","5203383","odd","NA","38522","44511","40524","119879","6746","31298","22661","120382","NA","119877","120383","119805","44511","121240","36775","119305","6739","111171","Lexical Decision Task","38","32686","43","yes","1024"
"2.9737419","7.69","7","claw","word","88.63636363636364","88.63636363636364","761","761","black","no","legacy","legacy","legacy","0","uniform","1","undefined","undefined","undefined","1","j","0","0","0","0","43","0","0","0","43","NA","39","43","39","0","39","3","43","0","43","Tue Feb 16 13:24:30 2021","The main experiment item","yes","Lexical_Decision_Task.osexp","E:/BU/Year 2/Semester 2/Cognition & Language/Seminars/S2 - The Lexical Decision Task","no","Andale Mono","no","18","no","white","no","yes","576","legacy","39","39","3","E:/BU/Year 2/Semester 2/Cognition & Language/Seminars/S2 - The Lexical Decision Task/subject-5203383.csv","legacy","Lentiform Loewenfeld","3.3.7","yes","yes","600bd7cfb6416f0113b04181","602110864497cf011d9c0822","0","j","NA","space","space","space","NA","j","798","NA","3986","15911","8636","NA","798","2","legacy","1024","2","48000","-16","task","5203383","odd","NA","38522","44511","40524","121820","6746","31298","22661","122323","NA","121818","122324","121750","44511","123123","36775","121250","6739","111171","Lexical Decision Task","39","33484","44","yes","1024"
"2.899638141","0","3","hapt","non-word","88.88888888888889","88.88888888888889","761.1777777777778","761.1777777777778","black","no","legacy","legacy","legacy","0","uniform","1","undefined","undefined","undefined","1","f","0","0","0","0","44","0","0","0","44","NA","40","44","40","0","40","3","44","0","44","Tue Feb 16 13:24:30 2021","The main experiment item","yes","Lexical_Decision_Task.osexp","E:/BU/Year 2/Semester 2/Cognition & Language/Seminars/S2 - The Lexical Decision Task","no","Andale Mono","no","18","no","white","no","yes","576","legacy","40","40","3","E:/BU/Year 2/Semester 2/Cognition & Language/Seminars/S2 - The Lexical Decision Task/subject-5203383.csv","legacy","Lentiform Loewenfeld","3.3.7","yes","yes","600bd7cfb6416f0113b04181","602110864497cf011d9c0822","0","f","NA","space","space","space","NA","f","769","NA","3986","15911","8636","NA","769","2","legacy","1024","2","48000","-16","task","5203383","odd","NA","38522","44511","40524","123700","6746","31298","22661","124201","NA","123699","124201","123634","44511","124971","36775","123133","6739","111171","Lexical Decision Task","40","34253","45","yes","1024"
"2.80048796","0","8","pife","non-word","89.1304347826087","89.1304347826087","765.7826086956521","765.7826086956521","black","no","legacy","legacy","legacy","0","uniform","1","undefined","undefined","undefined","1","f","0","0","0","0","45","0","0","0","45","NA","41","45","41","0","41","3","45","0","45","Tue Feb 16 13:24:30 2021","The main experiment item","yes","Lexical_Decision_Task.osexp","E:/BU/Year 2/Semester 2/Cognition & Language/Seminars/S2 - The Lexical Decision Task","no","Andale Mono","no","18","no","white","no","yes","576","legacy","41","41","3","E:/BU/Year 2/Semester 2/Cognition & Language/Seminars/S2 - The Lexical Decision Task/subject-5203383.csv","legacy","Lentiform Loewenfeld","3.3.7","yes","yes","600bd7cfb6416f0113b04181","602110864497cf011d9c0822","0","f","NA","space","space","space","NA","f","973","NA","3986","15911","8636","NA","973","2","legacy","1024","2","48000","-16","task","5203383","odd","NA","38522","44511","40524","125551","6746","31298","22661","126053","NA","125550","126054","125481","44511","127028","36775","124981","6739","111171","Lexical Decision Task","41","35226","46","yes","1024"
"3.531734309","0","6","lerd","non-word","89.36170212765957","89.36170212765957","764.1914893617021","764.1914893617021","black","no","legacy","legacy","legacy","0","uniform","1","undefined","undefined","undefined","1","f","0","0","0","0","46","0","0","0","46","NA","42","46","42","0","42","3","46","0","46","Tue Feb 16 13:24:30 2021","The main experiment item","yes","Lexical_Decision_Task.osexp","E:/BU/Year 2/Semester 2/Cognition & Language/Seminars/S2 - The Lexical Decision Task","no","Andale Mono","no","18","no","white","no","yes","576","legacy","42","42","3","E:/BU/Year 2/Semester 2/Cognition & Language/Seminars/S2 - The Lexical Decision Task/subject-5203383.csv","legacy","Lentiform Loewenfeld","3.3.7","yes","yes","600bd7cfb6416f0113b04181","602110864497cf011d9c0822","0","f","NA","space","space","space","NA","f","691","NA","3986","15911","8636","NA","691","2","legacy","1024","2","48000","-16","task","5203383","odd","NA","38522","44511","40524","127606","6746","31298","22661","128109","NA","127604","128109","127540","44511","128801","36775","127040","6739","111171","Lexical Decision Task","42","35917","47","yes","1024"
"3.431095062","5.74","9","perk","word","89.58333333333333","89.58333333333333","761.1458333333334","761.1458333333334","black","no","legacy","legacy","legacy","0","uniform","1","undefined","undefined","undefined","1","j","0","0","0","0","47","0","0","0","47","NA","43","47","43","0","43","3","47","0","47","Tue Feb 16 13:24:30 2021","The main experiment item","yes","Lexical_Decision_Task.osexp","E:/BU/Year 2/Semester 2/Cognition & Language/Seminars/S2 - The Lexical Decision Task","no","Andale Mono","no","18","no","white","no","yes","576","legacy","43","43","3","E:/BU/Year 2/Semester 2/Cognition & Language/Seminars/S2 - The Lexical Decision Task/subject-5203383.csv","legacy","Lentiform Loewenfeld","3.3.7","yes","yes","600bd7cfb6416f0113b04181","602110864497cf011d9c0822","0","j","NA","space","space","space","NA","j","618","NA","3986","15911","8636","NA","618","2","legacy","1024","2","48000","-16","task","5203383","odd","NA","38522","44511","40524","129384","6746","31298","22661","129886","NA","129383","129886","129315","44511","130505","36775","128815","6739","111171","Lexical Decision Task","43","36535","48","yes","1024"
"3.705778213","0","6","stin","non-word","89.79591836734694","89.79591836734694","768.5714285714286","768.5714285714286","black","no","legacy","legacy","legacy","0","uniform","1","undefined","undefined","undefined","1","f","0","0","0","0","48","0","0","0","48","NA","44","48","44","0","44","3","48","0","48","Tue Feb 16 13:24:30 2021","The main experiment item","yes","Lexical_Decision_Task.osexp","E:/BU/Year 2/Semester 2/Cognition & Language/Seminars/S2 - The Lexical Decision Task","no","Andale Mono","no","18","no","white","no","yes","576","legacy","44","44","3","E:/BU/Year 2/Semester 2/Cognition & Language/Seminars/S2 - The Lexical Decision Task/subject-5203383.csv","legacy","Lentiform Loewenfeld","3.3.7","yes","yes","600bd7cfb6416f0113b04181","602110864497cf011d9c0822","0","f","NA","space","space","space","NA","f","1125","NA","3986","15911","8636","NA","1125","2","legacy","1024","2","48000","-16","task","5203383","odd","NA","38522","44511","40524","131088","6746","31298","22661","131590","NA","131087","131591","131015","44511","132717","36775","130515","6739","111171","Lexical Decision Task","44","37660","49","yes","1024"
"2.706148589","0","4","hube","non-word","90","90","770.1","770.1","black","no","legacy","legacy","legacy","0","uniform","1","undefined","undefined","undefined","1","f","0","0","0","0","49","0","0","0","49","NA","45","49","45","0","45","3","49","0","49","Tue Feb 16 13:24:30 2021","The main experiment item","yes","Lexical_Decision_Task.osexp","E:/BU/Year 2/Semester 2/Cognition & Language/Seminars/S2 - The Lexical Decision Task","no","Andale Mono","no","18","no","white","no","yes","576","legacy","45","45","3","E:/BU/Year 2/Semester 2/Cognition & Language/Seminars/S2 - The Lexical Decision Task/subject-5203383.csv","legacy","Lentiform Loewenfeld","3.3.7","yes","yes","600bd7cfb6416f0113b04181","602110864497cf011d9c0822","0","f","NA","space","space","space","NA","f","845","NA","3986","15911","8636","NA","845","2","legacy","1024","2","48000","-16","task","5203383","odd","NA","38522","44511","40524","133301","6746","31298","22661","133804","NA","133299","133804","133228","44511","134650","36775","132727","6739","111171","Lexical Decision Task","45","38505","50","yes","1024"
"2.838639236","0","4","furg","non-word","90.19607843137256","90.19607843137256","768.2156862745098","768.2156862745098","black","no","legacy","legacy","legacy","0","uniform","1","undefined","undefined","undefined","1","f","0","0","0","0","50","0","0","0","50","NA","46","50","46","0","46","3","50","0","50","Tue Feb 16 13:24:30 2021","The main experiment item","yes","Lexical_Decision_Task.osexp","E:/BU/Year 2/Semester 2/Cognition & Language/Seminars/S2 - The Lexical Decision Task","no","Andale Mono","no","18","no","white","no","yes","576","legacy","46","46","3","E:/BU/Year 2/Semester 2/Cognition & Language/Seminars/S2 - The Lexical Decision Task/subject-5203383.csv","legacy","Lentiform Loewenfeld","3.3.7","yes","yes","600bd7cfb6416f0113b04181","602110864497cf011d9c0822","0","f","NA","space","space","space","NA","f","674","NA","3986","15911","8636","NA","674","2","legacy","1024","2","48000","-16","task","5203383","odd","NA","38522","44511","40524","135230","6746","31298","22661","135734","NA","135229","135734","135161","44511","136409","36775","134661","6739","111171","Lexical Decision Task","46","39179","51","yes","1024"
"2.986323777","10.85","8","ship","word","90.38461538461539","90.38461538461539","765.8076923076923","765.8076923076923","black","no","legacy","legacy","legacy","0","uniform","1","undefined","undefined","undefined","1","j","0","0","0","0","51","0","0","0","51","NA","47","51","47","0","47","3","51","0","51","Tue Feb 16 13:24:30 2021","The main experiment item","yes","Lexical_Decision_Task.osexp","E:/BU/Year 2/Semester 2/Cognition & Language/Seminars/S2 - The Lexical Decision Task","no","Andale Mono","no","18","no","white","no","yes","576","legacy","47","47","3","E:/BU/Year 2/Semester 2/Cognition & Language/Seminars/S2 - The Lexical Decision Task/subject-5203383.csv","legacy","Lentiform Loewenfeld","3.3.7","yes","yes","600bd7cfb6416f0113b04181","602110864497cf011d9c0822","0","j","NA","space","space","space","NA","j","643","NA","3986","15911","8636","NA","643","2","legacy","1024","2","48000","-16","task","5203383","odd","NA","38522","44511","40524","136986","6746","31298","22661","137488","NA","136985","137488","136919","44511","138132","36775","136419","6739","111171","Lexical Decision Task","47","39822","52","yes","1024"
"2.892836167","10.01","5","soft","word","90.56603773584905","90.56603773584905","761.7169811320755","761.7169811320755","black","no","legacy","legacy","legacy","0","uniform","1","undefined","undefined","undefined","1","j","0","0","0","0","52","0","0","0","52","NA","48","52","48","0","48","3","52","0","52","Tue Feb 16 13:24:30 2021","The main experiment item","yes","Lexical_Decision_Task.osexp","E:/BU/Year 2/Semester 2/Cognition & Language/Seminars/S2 - The Lexical Decision Task","no","Andale Mono","no","18","no","white","no","yes","576","legacy","48","48","3","E:/BU/Year 2/Semester 2/Cognition & Language/Seminars/S2 - The Lexical Decision Task/subject-5203383.csv","legacy","Lentiform Loewenfeld","3.3.7","yes","yes","600bd7cfb6416f0113b04181","602110864497cf011d9c0822","0","j","NA","space","space","space","NA","j","549","NA","3986","15911","8636","NA","549","2","legacy","1024","2","48000","-16","task","5203383","odd","NA","38522","44511","40524","138712","6746","31298","22661","139215","NA","138710","139215","138643","44511","139766","36775","138143","6739","111171","Lexical Decision Task","48","40371","53","yes","1024"
"3.120025233","0","2","nyst","non-word","90.74074074074075","90.74074074074075","757.7777777777778","757.7777777777778","black","no","legacy","legacy","legacy","0","uniform","1","undefined","undefined","undefined","1","f","0","0","0","0","53","0","0","0","53","NA","49","53","49","0","49","3","53","0","53","Tue Feb 16 13:24:30 2021","The main experiment item","yes","Lexical_Decision_Task.osexp","E:/BU/Year 2/Semester 2/Cognition & Language/Seminars/S2 - The Lexical Decision Task","no","Andale Mono","no","18","no","white","no","yes","576","legacy","49","49","3","E:/BU/Year 2/Semester 2/Cognition & Language/Seminars/S2 - The Lexical Decision Task/subject-5203383.csv","legacy","Lentiform Loewenfeld","3.3.7","yes","yes","600bd7cfb6416f0113b04181","602110864497cf011d9c0822","0","f","NA","space","space","space","NA","f","549","NA","3986","15911","8636","NA","549","2","legacy","1024","2","48000","-16","task","5203383","odd","NA","38522","44511","40524","140347","6746","31298","22661","140849","NA","140345","140849","140277","44511","141399","36775","139777","6739","111171","Lexical Decision Task","49","40920","54","yes","1024"
"2.576725172","0","8","gowl","non-word","89.0909090909091","89.0909090909091","756.7272727272727","756.7272727272727","black","no","legacy","legacy","legacy","0","uniform","0","undefined","undefined","undefined","0","f","0","0","0","0","54","0","0","0","54","0","50","54","50","0","50","3","54","0","54","Tue Feb 16 13:24:30 2021","The main experiment item","yes","Lexical_Decision_Task.osexp","E:/BU/Year 2/Semester 2/Cognition & Language/Seminars/S2 - The Lexical Decision Task","no","Andale Mono","no","18","no","white","no","yes","576","legacy","50","50","3","E:/BU/Year 2/Semester 2/Cognition & Language/Seminars/S2 - The Lexical Decision Task/subject-5203383.csv","legacy","Lentiform Loewenfeld","3.3.7","yes","yes","600bd7cfb6416f0113b04181","602110864497cf011d9c0822","0","j","NA","space","space","space","space","j","700","NA","3986","15911","8636","9011","700","2","legacy","1024","2","48000","-16","task","5203383","odd","NA","38522","44511","40524","151037","6746","31298","22661","151540","141961","151036","151540","141909","44511","152241","36775","141409","6739","111171","Lexical Decision Task","49","41620","55","yes","1024"
"3.22685757","9.99","7","roll","word","89.28571428571429","89.28571428571429","752.9285714285714","752.9285714285714","black","no","legacy","legacy","legacy","0","uniform","1","undefined","undefined","undefined","1","j","0","0","0","0","55","0","0","0","55","0","51","55","51","0","51","3","55","0","55","Tue Feb 16 13:24:30 2021","The main experiment item","yes","Lexical_Decision_Task.osexp","E:/BU/Year 2/Semester 2/Cognition & Language/Seminars/S2 - The Lexical Decision Task","no","Andale Mono","no","18","no","white","no","yes","576","legacy","51","51","3","E:/BU/Year 2/Semester 2/Cognition & Language/Seminars/S2 - The Lexical Decision Task/subject-5203383.csv","legacy","Lentiform Loewenfeld","3.3.7","yes","yes","600bd7cfb6416f0113b04181","602110864497cf011d9c0822","0","j","NA","space","space","space","space","j","544","NA","3986","15911","8636","9011","544","2","legacy","1024","2","48000","-16","task","5203383","odd","NA","38522","44511","40524","153820","6746","31298","22661","154322","141961","153819","154323","153751","44511","154868","36775","141409","6739","152251","Lexical Decision Task","50","42164","56","yes","1024"
"2.803231716","5.26","3","kiln","word","87.71929824561404","87.71929824561404","749.9473684210526","749.9473684210526","black","no","legacy","legacy","legacy","0","uniform","0","undefined","undefined","undefined","0","j","0","0","0","0","56","0","0","0","56","0","52","56","52","0","52","3","56","0","56","Tue Feb 16 13:24:30 2021","The main experiment item","yes","Lexical_Decision_Task.osexp","E:/BU/Year 2/Semester 2/Cognition & Language/Seminars/S2 - The Lexical Decision Task","no","Andale Mono","no","18","no","white","no","yes","576","legacy","52","52","3","E:/BU/Year 2/Semester 2/Cognition & Language/Seminars/S2 - The Lexical Decision Task/subject-5203383.csv","legacy","Lentiform Loewenfeld","3.3.7","yes","yes","600bd7cfb6416f0113b04181","602110864497cf011d9c0822","0","f","NA","space","space","space","space","f","583","NA","3986","15911","8636","9011","583","2","legacy","1024","2","48000","-16","task","5203383","odd","NA","38522","44511","40524","155451","6746","31298","22661","155954","141961","155449","155954","155379","44511","156538","36775","154878","6739","152251","Lexical Decision Task","50","42747","57","yes","1024"
"3.119255889","6.63","2","itch","word","87.93103448275862","87.93103448275862","746.051724137931","746.051724137931","black","no","legacy","legacy","legacy","0","uniform","1","undefined","undefined","undefined","1","j","0","0","0","0","57","0","0","0","57","0","53","57","53","0","53","3","57","0","57","Tue Feb 16 13:24:30 2021","The main experiment item","yes","Lexical_Decision_Task.osexp","E:/BU/Year 2/Semester 2/Cognition & Language/Seminars/S2 - The Lexical Decision Task","no","Andale Mono","no","18","no","white","no","yes","576","legacy","53","53","3","E:/BU/Year 2/Semester 2/Cognition & Language/Seminars/S2 - The Lexical Decision Task/subject-5203383.csv","legacy","Lentiform Loewenfeld","3.3.7","yes","yes","600bd7cfb6416f0113b04181","602110864497cf011d9c0822","0","j","NA","space","space","space","space","j","524","NA","3986","15911","8636","9011","524","2","legacy","1024","2","48000","-16","task","5203383","odd","NA","38522","44511","40524","158120","6746","31298","22661","158623","141961","158118","158624","158048","44511","159149","36775","154878","6739","156548","Lexical Decision Task","51","43271","58","yes","1024"
"2.695481676","0","7","goke","non-word","88.13559322033899","88.13559322033899","745.4406779661017","745.4406779661017","black","no","legacy","legacy","legacy","0","uniform","1","undefined","undefined","undefined","1","f","0","0","0","0","58","0","0","0","58","0","54","58","54","0","54","3","58","0","58","Tue Feb 16 13:24:30 2021","The main experiment item","yes","Lexical_Decision_Task.osexp","E:/BU/Year 2/Semester 2/Cognition & Language/Seminars/S2 - The Lexical Decision Task","no","Andale Mono","no","18","no","white","no","yes","576","legacy","54","54","3","E:/BU/Year 2/Semester 2/Cognition & Language/Seminars/S2 - The Lexical Decision Task/subject-5203383.csv","legacy","Lentiform Loewenfeld","3.3.7","yes","yes","600bd7cfb6416f0113b04181","602110864497cf011d9c0822","0","f","NA","space","space","space","space","f","710","NA","3986","15911","8636","9011","710","2","legacy","1024","2","48000","-16","task","5203383","odd","NA","38522","44511","40524","159729","6746","31298","22661","160231","141961","159728","160231","159660","44511","160943","36775","159160","6739","156548","Lexical Decision Task","52","43981","59","yes","1024"
"3.153104174","10.89","6","door","word","88.33333333333333","88.33333333333333","742.4666666666667","742.4666666666667","black","no","legacy","legacy","legacy","0","uniform","1","undefined","undefined","undefined","1","j","0","0","0","0","59","0","0","0","59","0","55","59","55","0","55","3","59","0","59","Tue Feb 16 13:24:30 2021","The main experiment item","yes","Lexical_Decision_Task.osexp","E:/BU/Year 2/Semester 2/Cognition & Language/Seminars/S2 - The Lexical Decision Task","no","Andale Mono","no","18","no","white","no","yes","576","legacy","55","55","3","E:/BU/Year 2/Semester 2/Cognition & Language/Seminars/S2 - The Lexical Decision Task/subject-5203383.csv","legacy","Lentiform Loewenfeld","3.3.7","yes","yes","600bd7cfb6416f0113b04181","602110864497cf011d9c0822","0","j","NA","space","space","space","space","j","567","NA","3986","15911","8636","9011","567","2","legacy","1024","2","48000","-16","task","5203383","odd","NA","38522","44511","40524","161524","6746","31298","22661","162027","141961","161523","162027","161453","44511","162595","36775","160953","6739","156548","Lexical Decision Task","53","44548","60","yes","1024"
"2.708989954","9.28","9","bowl","word","88.52459016393442","88.52459016393442","740.327868852459","740.327868852459","black","no","legacy","legacy","legacy","0","uniform","1","undefined","undefined","undefined","1","j","0","0","0","0","60","0","0","0","60","0","56","60","56","0","56","3","60","0","60","Tue Feb 16 13:24:30 2021","The main experiment item","yes","Lexical_Decision_Task.osexp","E:/BU/Year 2/Semester 2/Cognition & Language/Seminars/S2 - The Lexical Decision Task","no","Andale Mono","no","18","no","white","no","yes","576","legacy","56","56","3","E:/BU/Year 2/Semester 2/Cognition & Language/Seminars/S2 - The Lexical Decision Task/subject-5203383.csv","legacy","Lentiform Loewenfeld","3.3.7","yes","yes","600bd7cfb6416f0113b04181","602110864497cf011d9c0822","0","j","NA","space","space","space","space","j","612","NA","3986","15911","8636","9011","612","2","legacy","1024","2","48000","-16","task","5203383","odd","NA","38522","44511","40524","163172","6746","31298","22661","163674","141961","163170","163675","163105","44511","164288","36775","162605","6739","156548","Lexical Decision Task","54","45160","61","yes","1024"
"3.159867847","5.98","5","brim","word","88.70967741935483","88.70967741935483","741.2096774193549","741.2096774193549","black","no","legacy","legacy","legacy","0","uniform","1","undefined","undefined","undefined","1","j","0","0","0","0","61","0","0","0","61","0","57","61","57","0","57","3","61","0","61","Tue Feb 16 13:24:30 2021","The main experiment item","yes","Lexical_Decision_Task.osexp","E:/BU/Year 2/Semester 2/Cognition & Language/Seminars/S2 - The Lexical Decision Task","no","Andale Mono","no","18","no","white","no","yes","576","legacy","57","57","3","E:/BU/Year 2/Semester 2/Cognition & Language/Seminars/S2 - The Lexical Decision Task/subject-5203383.csv","legacy","Lentiform Loewenfeld","3.3.7","yes","yes","600bd7cfb6416f0113b04181","602110864497cf011d9c0822","0","j","NA","space","space","space","space","j","795","NA","3986","15911","8636","9011","795","2","legacy","1024","2","48000","-16","task","5203383","odd","NA","38522","44511","40524","164869","6746","31298","22661","165370","141961","164867","165370","164798","44511","166166","36775","164298","6739","156548","Lexical Decision Task","55","45955","62","yes","1024"
"3.037294994","8.64","7","roof","word","88.88888888888889","88.88888888888889","740.1269841269841","740.1269841269841","black","no","legacy","legacy","legacy","0","uniform","1","undefined","undefined","undefined","1","j","0","0","0","0","62","0","0","0","62","0","58","62","58","0","58","3","62","0","62","Tue Feb 16 13:24:30 2021","The main experiment item","yes","Lexical_Decision_Task.osexp","E:/BU/Year 2/Semester 2/Cognition & Language/Seminars/S2 - The Lexical Decision Task","no","Andale Mono","no","18","no","white","no","yes","576","legacy","58","58","3","E:/BU/Year 2/Semester 2/Cognition & Language/Seminars/S2 - The Lexical Decision Task/subject-5203383.csv","legacy","Lentiform Loewenfeld","3.3.7","yes","yes","600bd7cfb6416f0113b04181","602110864497cf011d9c0822","0","j","NA","space","space","space","space","j","673","NA","3986","15911","8636","9011","673","2","legacy","1024","2","48000","-16","task","5203383","odd","NA","38522","44511","40524","166749","6746","31298","22661","167250","141961","166747","167250","166681","44511","167924","36775","166181","6739","156548","Lexical Decision Task","56","46628","63","yes","1024"
"2.755364069","7.72","2","hoax","word","89.0625","89.0625","737.109375","737.109375","black","no","legacy","legacy","legacy","0","uniform","1","undefined","undefined","undefined","1","j","0","0","0","0","63","0","0","0","63","0","59","63","59","0","59","3","63","0","63","Tue Feb 16 13:24:30 2021","The main experiment item","yes","Lexical_Decision_Task.osexp","E:/BU/Year 2/Semester 2/Cognition & Language/Seminars/S2 - The Lexical Decision Task","no","Andale Mono","no","18","no","white","no","yes","576","legacy","59","59","3","E:/BU/Year 2/Semester 2/Cognition & Language/Seminars/S2 - The Lexical Decision Task/subject-5203383.csv","legacy","Lentiform Loewenfeld","3.3.7","yes","yes","600bd7cfb6416f0113b04181","602110864497cf011d9c0822","0","j","NA","space","space","space","space","j","547","NA","3986","15911","8636","9011","547","2","legacy","1024","2","48000","-16","task","5203383","odd","NA","38522","44511","40524","168503","6746","31298","22661","169006","141961","168501","169006","168435","44511","169554","36775","167935","6739","156548","Lexical Decision Task","57","47175","64","yes","1024"
"3.088136089","8.32","9","worm","word","89.23076923076923","89.23076923076923","734.7076923076924","734.7076923076924","black","no","legacy","legacy","legacy","0","uniform","1","undefined","undefined","undefined","1","j","0","0","0","0","64","0","0","0","64","0","60","64","60","0","60","3","64","0","64","Tue Feb 16 13:24:30 2021","The main experiment item","yes","Lexical_Decision_Task.osexp","E:/BU/Year 2/Semester 2/Cognition & Language/Seminars/S2 - The Lexical Decision Task","no","Andale Mono","no","18","no","white","no","yes","576","legacy","60","60","3","E:/BU/Year 2/Semester 2/Cognition & Language/Seminars/S2 - The Lexical Decision Task/subject-5203383.csv","legacy","Lentiform Loewenfeld","3.3.7","yes","yes","600bd7cfb6416f0113b04181","602110864497cf011d9c0822","0","j","NA","space","space","space","space","j","581","NA","3986","15911","8636","9011","581","2","legacy","1024","2","48000","-16","task","5203383","odd","NA","38522","44511","40524","170137","6746","31298","22661","170639","141961","170135","170639","170065","44511","171221","36775","169565","6739","156548","Lexical Decision Task","58","47756","65","yes","1024"
"3.274157849","0","8","leet","non-word","89.39393939393939","89.39393939393939","736.6666666666666","736.6666666666666","black","no","legacy","legacy","legacy","0","uniform","1","undefined","undefined","undefined","1","f","0","0","0","0","65","0","0","0","65","0","61","65","61","0","61","3","65","0","65","Tue Feb 16 13:24:30 2021","The main experiment item","yes","Lexical_Decision_Task.osexp","E:/BU/Year 2/Semester 2/Cognition & Language/Seminars/S2 - The Lexical Decision Task","no","Andale Mono","no","18","no","white","no","yes","576","legacy","61","61","3","E:/BU/Year 2/Semester 2/Cognition & Language/Seminars/S2 - The Lexical Decision Task/subject-5203383.csv","legacy","Lentiform Loewenfeld","3.3.7","yes","yes","600bd7cfb6416f0113b04181","602110864497cf011d9c0822","0","f","NA","space","space","space","space","f","864","NA","3986","15911","8636","9011","864","2","legacy","1024","2","48000","-16","task","5203383","odd","NA","38522","44511","40524","171801","6746","31298","22661","172303","141961","171800","172304","171731","44511","173169","36775","171231","6739","156548","Lexical Decision Task","59","48620","66","yes","1024"
"3.374137706","10.21","4","tree","word","89.55223880597015","89.55223880597015","734.5671641791045","734.5671641791045","black","no","legacy","legacy","legacy","0","uniform","1","undefined","undefined","undefined","1","j","0","0","0","0","66","0","0","0","66","0","62","66","62","0","62","3","66","0","66","Tue Feb 16 13:24:30 2021","The main experiment item","yes","Lexical_Decision_Task.osexp","E:/BU/Year 2/Semester 2/Cognition & Language/Seminars/S2 - The Lexical Decision Task","no","Andale Mono","no","18","no","white","no","yes","576","legacy","62","62","3","E:/BU/Year 2/Semester 2/Cognition & Language/Seminars/S2 - The Lexical Decision Task/subject-5203383.csv","legacy","Lentiform Loewenfeld","3.3.7","yes","yes","600bd7cfb6416f0113b04181","602110864497cf011d9c0822","0","j","NA","space","space","space","space","j","596","NA","3986","15911","8636","9011","596","2","legacy","1024","2","48000","-16","task","5203383","odd","NA","38522","44511","40524","173747","6746","31298","22661","174249","141961","173746","174249","173681","44511","174846","36775","173181","6739","156548","Lexical Decision Task","60","49216","67","yes","1024"
"2.594027722","9.08","8","skip","word","89.70588235294117","89.70588235294117","731.8823529411765","731.8823529411765","black","no","legacy","legacy","legacy","0","uniform","1","undefined","undefined","undefined","1","j","0","0","0","0","67","0","0","0","67","0","63","67","63","0","63","3","67","0","67","Tue Feb 16 13:24:30 2021","The main experiment item","yes","Lexical_Decision_Task.osexp","E:/BU/Year 2/Semester 2/Cognition & Language/Seminars/S2 - The Lexical Decision Task","no","Andale Mono","no","18","no","white","no","yes","576","legacy","63","63","3","E:/BU/Year 2/Semester 2/Cognition & Language/Seminars/S2 - The Lexical Decision Task/subject-5203383.csv","legacy","Lentiform Loewenfeld","3.3.7","yes","yes","600bd7cfb6416f0113b04181","602110864497cf011d9c0822","0","j","NA","space","space","space","space","j","552","NA","3986","15911","8636","9011","552","2","legacy","1024","2","48000","-16","task","5203383","odd","NA","38522","44511","40524","175429","6746","31298","22661","175932","141961","175427","175932","175357","44511","176486","36775","174857","6739","156548","Lexical Decision Task","61","49768","68","yes","1024"
"2.972357144","0","5","dasp","non-word","88.40579710144928","88.40579710144928","735.1159420289855","735.1159420289855","black","no","legacy","legacy","legacy","0","uniform","0","undefined","undefined","undefined","0","f","0","0","0","0","68","0","0","0","68","0","64","68","64","0","64","3","68","0","68","Tue Feb 16 13:24:30 2021","The main experiment item","yes","Lexical_Decision_Task.osexp","E:/BU/Year 2/Semester 2/Cognition & Language/Seminars/S2 - The Lexical Decision Task","no","Andale Mono","no","18","no","white","no","yes","576","legacy","64","64","3","E:/BU/Year 2/Semester 2/Cognition & Language/Seminars/S2 - The Lexical Decision Task/subject-5203383.csv","legacy","Lentiform Loewenfeld","3.3.7","yes","yes","600bd7cfb6416f0113b04181","602110864497cf011d9c0822","0","j","NA","space","space","space","space","j","955","NA","3986","15911","8636","9011","955","2","legacy","1024","2","48000","-16","task","5203383","odd","NA","38522","44511","40524","177065","6746","31298","22661","177567","141961","177064","177567","176996","44511","178523","36775","176496","6739","156548","Lexical Decision Task","61","50723","69","yes","1024"
"3.230789326","5.38","5","prim","word","88.57142857142857","88.57142857142857","733.3428571428572","733.3428571428572","black","no","legacy","legacy","legacy","0","uniform","1","undefined","undefined","undefined","1","j","0","0","0","0","69","0","0","0","69","0","65","69","65","0","65","3","69","0","69","Tue Feb 16 13:24:30 2021","The main experiment item","yes","Lexical_Decision_Task.osexp","E:/BU/Year 2/Semester 2/Cognition & Language/Seminars/S2 - The Lexical Decision Task","no","Andale Mono","no","18","no","white","no","yes","576","legacy","65","65","3","E:/BU/Year 2/Semester 2/Cognition & Language/Seminars/S2 - The Lexical Decision Task/subject-5203383.csv","legacy","Lentiform Loewenfeld","3.3.7","yes","yes","600bd7cfb6416f0113b04181","602110864497cf011d9c0822","0","j","NA","space","space","space","space","j","611","NA","3986","15911","8636","9011","611","2","legacy","1024","2","48000","-16","task","5203383","odd","NA","38522","44511","40524","180104","6746","31298","22661","180607","141961","180102","180607","180034","44511","181219","36775","176496","6739","178534","Lexical Decision Task","62","51334","70","yes","1024"
"3.20871002","7.15","8","cram","word","87.32394366197182","87.32394366197182","732.7323943661971","732.7323943661971","black","no","legacy","legacy","legacy","0","uniform","0","undefined","undefined","undefined","0","j","0","0","0","0","70","0","0","0","70","0","66","70","66","0","66","3","70","0","70","Tue Feb 16 13:24:30 2021","The main experiment item","yes","Lexical_Decision_Task.osexp","E:/BU/Year 2/Semester 2/Cognition & Language/Seminars/S2 - The Lexical Decision Task","no","Andale Mono","no","18","no","white","no","yes","576","legacy","66","66","3","E:/BU/Year 2/Semester 2/Cognition & Language/Seminars/S2 - The Lexical Decision Task/subject-5203383.csv","legacy","Lentiform Loewenfeld","3.3.7","yes","yes","600bd7cfb6416f0113b04181","602110864497cf011d9c0822","0","f","NA","space","space","space","space","f","690","NA","3986","15911","8636","9011","690","2","legacy","1024","2","48000","-16","task","5203383","odd","NA","38522","44511","40524","181799","6746","31298","22661","182303","141961","181798","182303","181729","44511","182994","36775","181229","6739","178534","Lexical Decision Task","62","52024","71","yes","1024"
"2.794720352","0","9","koot","non-word","87.5","87.5","733.6388888888889","733.6388888888889","black","no","legacy","legacy","legacy","0","uniform","1","undefined","undefined","undefined","1","f","0","0","0","0","71","0","0","0","71","0","67","71","67","0","67","3","71","0","71","Tue Feb 16 13:24:30 2021","The main experiment item","yes","Lexical_Decision_Task.osexp","E:/BU/Year 2/Semester 2/Cognition & Language/Seminars/S2 - The Lexical Decision Task","no","Andale Mono","no","18","no","white","no","yes","576","legacy","67","67","3","E:/BU/Year 2/Semester 2/Cognition & Language/Seminars/S2 - The Lexical Decision Task/subject-5203383.csv","legacy","Lentiform Loewenfeld","3.3.7","yes","yes","600bd7cfb6416f0113b04181","602110864497cf011d9c0822","0","f","NA","space","space","space","space","f","798","NA","3986","15911","8636","9011","798","2","legacy","1024","2","48000","-16","task","5203383","odd","NA","38522","44511","40524","187250","6746","31298","22661","187752","141961","187249","187752","187179","44511","188551","36775","181229","6739","185679","Lexical Decision Task","63","52822","72","yes","1024"
"3.131833513","7.66","4","limb","word","87.67123287671232","87.67123287671232","734.8630136986301","734.8630136986301","black","no","legacy","legacy","legacy","0","uniform","1","undefined","undefined","undefined","1","j","0","0","0","0","72","0","0","0","72","0","68","72","68","0","68","3","72","0","72","Tue Feb 16 13:24:30 2021","The main experiment item","yes","Lexical_Decision_Task.osexp","E:/BU/Year 2/Semester 2/Cognition & Language/Seminars/S2 - The Lexical Decision Task","no","Andale Mono","no","18","no","white","no","yes","576","legacy","68","68","3","E:/BU/Year 2/Semester 2/Cognition & Language/Seminars/S2 - The Lexical Decision Task/subject-5203383.csv","legacy","Lentiform Loewenfeld","3.3.7","yes","yes","600bd7cfb6416f0113b04181","602110864497cf011d9c0822","0","j","NA","space","space","space","space","j","823","NA","3986","15911","8636","9011","823","2","legacy","1024","2","48000","-16","task","5203383","odd","NA","38522","44511","40524","189129","6746","31298","22661","189631","141961","189127","189631","189062","44511","190455","36775","188562","6739","185679","Lexical Decision Task","64","53645","73","yes","1024"
"3.194328374","9.42","6","harm","word","87.83783783783784","87.83783783783784","733.3783783783783","733.3783783783783","black","no","legacy","legacy","legacy","0","uniform","1","undefined","undefined","undefined","1","j","0","0","0","0","73","0","0","0","73","0","69","73","69","0","69","3","73","0","73","Tue Feb 16 13:24:30 2021","The main experiment item","yes","Lexical_Decision_Task.osexp","E:/BU/Year 2/Semester 2/Cognition & Language/Seminars/S2 - The Lexical Decision Task","no","Andale Mono","no","18","no","white","no","yes","576","legacy","69","69","3","E:/BU/Year 2/Semester 2/Cognition & Language/Seminars/S2 - The Lexical Decision Task/subject-5203383.csv","legacy","Lentiform Loewenfeld","3.3.7","yes","yes","600bd7cfb6416f0113b04181","602110864497cf011d9c0822","0","j","NA","space","space","space","space","j","625","NA","3986","15911","8636","9011","625","2","legacy","1024","2","48000","-16","task","5203383","odd","NA","38522","44511","40524","191034","6746","31298","22661","191537","141961","191032","191537","190965","44511","192163","36775","190465","6739","185679","Lexical Decision Task","65","54270","74","yes","1024"
"2.68604012","0","3","mulb","non-word","88","88","733.1066666666667","733.1066666666667","black","no","legacy","legacy","legacy","0","uniform","1","undefined","undefined","undefined","1","f","0","0","0","0","74","0","0","0","74","0","70","74","70","0","70","3","74","0","74","Tue Feb 16 13:24:30 2021","The main experiment item","yes","Lexical_Decision_Task.osexp","E:/BU/Year 2/Semester 2/Cognition & Language/Seminars/S2 - The Lexical Decision Task","no","Andale Mono","no","18","no","white","no","yes","576","legacy","70","70","3","E:/BU/Year 2/Semester 2/Cognition & Language/Seminars/S2 - The Lexical Decision Task/subject-5203383.csv","legacy","Lentiform Loewenfeld","3.3.7","yes","yes","600bd7cfb6416f0113b04181","602110864497cf011d9c0822","0","f","NA","space","space","space","space","f","713","NA","3986","15911","8636","9011","713","2","legacy","1024","2","48000","-16","task","5203383","odd","NA","38522","44511","40524","192744","6746","31298","22661","193247","141961","192743","193247","192674","44511","193962","36775","192174","6739","185679","Lexical Decision Task","66","54983","75","yes","1024"
"2.664328519","0","4","plux","non-word","88.15789473684211","88.15789473684211","730.5526315789474","730.5526315789474","black","no","legacy","legacy","legacy","0","uniform","1","undefined","undefined","undefined","1","f","0","0","0","0","75","0","0","0","75","0","71","75","71","0","71","3","75","0","75","Tue Feb 16 13:24:30 2021","The main experiment item","yes","Lexical_Decision_Task.osexp","E:/BU/Year 2/Semester 2/Cognition & Language/Seminars/S2 - The Lexical Decision Task","no","Andale Mono","no","18","no","white","no","yes","576","legacy","71","71","3","E:/BU/Year 2/Semester 2/Cognition & Language/Seminars/S2 - The Lexical Decision Task/subject-5203383.csv","legacy","Lentiform Loewenfeld","3.3.7","yes","yes","600bd7cfb6416f0113b04181","602110864497cf011d9c0822","0","f","NA","space","space","space","space","f","539","NA","3986","15911","8636","9011","539","2","legacy","1024","2","48000","-16","task","5203383","odd","NA","38522","44511","40524","194539","6746","31298","22661","195042","141961","194538","195042","194476","44511","195582","36775","193976","6739","185679","Lexical Decision Task","67","55522","76","yes","1024"
"2.799799878","0","4","ciff","non-word","88.31168831168831","88.31168831168831","728.1038961038961","728.1038961038961","black","no","legacy","legacy","legacy","0","uniform","1","undefined","undefined","undefined","1","f","0","0","0","0","76","0","0","0","76","0","72","76","72","0","72","3","76","0","76","Tue Feb 16 13:24:30 2021","The main experiment item","yes","Lexical_Decision_Task.osexp","E:/BU/Year 2/Semester 2/Cognition & Language/Seminars/S2 - The Lexical Decision Task","no","Andale Mono","no","18","no","white","no","yes","576","legacy","72","72","3","E:/BU/Year 2/Semester 2/Cognition & Language/Seminars/S2 - The Lexical Decision Task/subject-5203383.csv","legacy","Lentiform Loewenfeld","3.3.7","yes","yes","600bd7cfb6416f0113b04181","602110864497cf011d9c0822","0","f","NA","space","space","space","space","f","542","NA","3986","15911","8636","9011","542","2","legacy","1024","2","48000","-16","task","5203383","odd","NA","38522","44511","40524","196161","6746","31298","22661","196665","141961","196159","196665","196093","44511","197209","36775","195593","6739","185679","Lexical Decision Task","68","56064","77","yes","1024"
"2.782472624","10.55","2","huge","word","88.46153846153847","88.46153846153847","726.1282051282051","726.1282051282051","black","no","legacy","legacy","legacy","0","uniform","1","undefined","undefined","undefined","1","j","0","0","0","0","77","0","0","0","77","0","73","77","73","0","73","3","77","0","77","Tue Feb 16 13:24:30 2021","The main experiment item","yes","Lexical_Decision_Task.osexp","E:/BU/Year 2/Semester 2/Cognition & Language/Seminars/S2 - The Lexical Decision Task","no","Andale Mono","no","18","no","white","no","yes","576","legacy","73","73","3","E:/BU/Year 2/Semester 2/Cognition & Language/Seminars/S2 - The Lexical Decision Task/subject-5203383.csv","legacy","Lentiform Loewenfeld","3.3.7","yes","yes","600bd7cfb6416f0113b04181","602110864497cf011d9c0822","0","j","NA","space","space","space","space","j","574","NA","3986","15911","8636","9011","574","2","legacy","1024","2","48000","-16","task","5203383","odd","NA","38522","44511","40524","197789","6746","31298","22661","198291","141961","197788","198291","197719","44511","198866","36775","197219","6739","185679","Lexical Decision Task","69","56638","78","yes","1024"
"3.094121596","0","8","fode","non-word","88.60759493670886","88.60759493670886","725.9367088607595","725.9367088607595","black","no","legacy","legacy","legacy","0","uniform","1","undefined","undefined","undefined","1","f","0","0","0","0","78","0","0","0","78","0","74","78","74","0","74","3","78","0","78","Tue Feb 16 13:24:30 2021","The main experiment item","yes","Lexical_Decision_Task.osexp","E:/BU/Year 2/Semester 2/Cognition & Language/Seminars/S2 - The Lexical Decision Task","no","Andale Mono","no","18","no","white","no","yes","576","legacy","74","74","3","E:/BU/Year 2/Semester 2/Cognition & Language/Seminars/S2 - The Lexical Decision Task/subject-5203383.csv","legacy","Lentiform Loewenfeld","3.3.7","yes","yes","600bd7cfb6416f0113b04181","602110864497cf011d9c0822","0","f","NA","space","space","space","space","f","711","NA","3986","15911","8636","9011","711","2","legacy","1024","2","48000","-16","task","5203383","odd","NA","38522","44511","40524","199439","6746","31298","22661","199942","141961","199437","199942","199376","44511","200654","36775","198876","6739","185679","Lexical Decision Task","70","57349","79","yes","1024"
"2.812467698","0","7","hafe","non-word","88.75","88.75","725.6875","725.6875","black","no","legacy","legacy","legacy","0","uniform","1","undefined","undefined","undefined","1","f","0","0","0","0","79","0","0","0","79","0","75","79","75","0","75","3","79","0","79","Tue Feb 16 13:24:30 2021","The main experiment item","yes","Lexical_Decision_Task.osexp","E:/BU/Year 2/Semester 2/Cognition & Language/Seminars/S2 - The Lexical Decision Task","no","Andale Mono","no","18","no","white","no","yes","576","legacy","75","75","3","E:/BU/Year 2/Semester 2/Cognition & Language/Seminars/S2 - The Lexical Decision Task/subject-5203383.csv","legacy","Lentiform Loewenfeld","3.3.7","yes","yes","600bd7cfb6416f0113b04181","602110864497cf011d9c0822","0","f","NA","space","space","space","space","f","706","NA","3986","15911","8636","9011","706","2","legacy","1024","2","48000","-16","task","5203383","odd","NA","38522","44511","40524","201231","6746","31298","22661","201735","141961","201230","201735","201165","44511","202442","36775","200665","6739","185679","Lexical Decision Task","71","58055","80","yes","1024"
"3.384413096","10.15","3","glad","word","88.88888888888889","88.88888888888889","724.2469135802469","724.2469135802469","black","no","legacy","legacy","legacy","0","uniform","1","undefined","undefined","undefined","1","j","0","0","0","0","80","0","0","0","80","0","76","80","76","0","76","3","80","0","80","Tue Feb 16 13:24:30 2021","The main experiment item","yes","Lexical_Decision_Task.osexp","E:/BU/Year 2/Semester 2/Cognition & Language/Seminars/S2 - The Lexical Decision Task","no","Andale Mono","no","18","no","white","no","yes","576","legacy","76","76","3","E:/BU/Year 2/Semester 2/Cognition & Language/Seminars/S2 - The Lexical Decision Task/subject-5203383.csv","legacy","Lentiform Loewenfeld","3.3.7","yes","yes","600bd7cfb6416f0113b04181","602110864497cf011d9c0822","0","j","NA","space","space","space","space","j","609","NA","3986","15911","8636","9011","609","2","legacy","1024","2","48000","-16","task","5203383","odd","NA","38522","44511","40524","203024","6746","31298","22661","203527","141961","203022","203527","202952","44511","204137","36775","202452","6739","185679","Lexical Decision Task","72","58664","81","yes","1024"
"2.952953801","0","8","clax","non-word","89.02439024390245","89.02439024390245","725.7926829268292","725.7926829268292","black","no","legacy","legacy","legacy","0","uniform","1","undefined","undefined","undefined","1","f","0","0","0","0","81","0","0","0","81","0","77","81","77","0","77","3","81","0","81","Tue Feb 16 13:24:30 2021","The main experiment item","yes","Lexical_Decision_Task.osexp","E:/BU/Year 2/Semester 2/Cognition & Language/Seminars/S2 - The Lexical Decision Task","no","Andale Mono","no","18","no","white","no","yes","576","legacy","77","77","3","E:/BU/Year 2/Semester 2/Cognition & Language/Seminars/S2 - The Lexical Decision Task/subject-5203383.csv","legacy","Lentiform Loewenfeld","3.3.7","yes","yes","600bd7cfb6416f0113b04181","602110864497cf011d9c0822","0","f","NA","space","space","space","space","f","851","NA","3986","15911","8636","9011","851","2","legacy","1024","2","48000","-16","task","5203383","odd","NA","38522","44511","40524","204716","6746","31298","22661","205217","141961","204714","205217","204648","44511","206069","36775","204148","6739","185679","Lexical Decision Task","73","59515","82","yes","1024"
"2.971428938","9.86","7","spot","word","89.1566265060241","89.1566265060241","723.8915662650602","723.8915662650602","black","no","legacy","legacy","legacy","0","uniform","1","undefined","undefined","undefined","1","j","0","0","0","0","82","0","0","0","82","0","78","82","78","0","78","3","82","0","82","Tue Feb 16 13:24:30 2021","The main experiment item","yes","Lexical_Decision_Task.osexp","E:/BU/Year 2/Semester 2/Cognition & Language/Seminars/S2 - The Lexical Decision Task","no","Andale Mono","no","18","no","white","no","yes","576","legacy","78","78","3","E:/BU/Year 2/Semester 2/Cognition & Language/Seminars/S2 - The Lexical Decision Task/subject-5203383.csv","legacy","Lentiform Loewenfeld","3.3.7","yes","yes","600bd7cfb6416f0113b04181","602110864497cf011d9c0822","0","j","NA","space","space","space","space","j","568","NA","3986","15911","8636","9011","568","2","legacy","1024","2","48000","-16","task","5203383","odd","NA","38522","44511","40524","206644","6746","31298","22661","207146","141961","206642","207147","206579","44511","207716","36775","206079","6739","185679","Lexical Decision Task","74","60083","83","yes","1024"
"2.990042563","6.64","9","plow","word","89.28571428571429","89.28571428571429","722.5238095238095","722.5238095238095","black","no","legacy","legacy","legacy","0","uniform","1","undefined","undefined","undefined","1","j","0","0","0","0","83","0","0","0","83","0","79","83","79","0","79","3","83","0","83","Tue Feb 16 13:24:30 2021","The main experiment item","yes","Lexical_Decision_Task.osexp","E:/BU/Year 2/Semester 2/Cognition & Language/Seminars/S2 - The Lexical Decision Task","no","Andale Mono","no","18","no","white","no","yes","576","legacy","79","79","3","E:/BU/Year 2/Semester 2/Cognition & Language/Seminars/S2 - The Lexical Decision Task/subject-5203383.csv","legacy","Lentiform Loewenfeld","3.3.7","yes","yes","600bd7cfb6416f0113b04181","602110864497cf011d9c0822","0","j","NA","space","space","space","space","j","609","NA","3986","15911","8636","9011","609","2","legacy","1024","2","48000","-16","task","5203383","odd","NA","38522","44511","40524","208298","6746","31298","22661","208801","141961","208296","208801","208227","44511","209411","36775","207727","6739","185679","Lexical Decision Task","75","60692","84","yes","1024"
"2.698100546","0","9","mulk","non-word","89.41176470588235","89.41176470588235","720.3411764705883","720.3411764705883","black","no","legacy","legacy","legacy","0","uniform","1","undefined","undefined","undefined","1","f","0","0","0","0","84","0","0","0","84","0","80","84","80","0","80","3","84","0","84","Tue Feb 16 13:24:30 2021","The main experiment item","yes","Lexical_Decision_Task.osexp","E:/BU/Year 2/Semester 2/Cognition & Language/Seminars/S2 - The Lexical Decision Task","no","Andale Mono","no","18","no","white","no","yes","576","legacy","80","80","3","E:/BU/Year 2/Semester 2/Cognition & Language/Seminars/S2 - The Lexical Decision Task/subject-5203383.csv","legacy","Lentiform Loewenfeld","3.3.7","yes","yes","600bd7cfb6416f0113b04181","602110864497cf011d9c0822","0","f","NA","space","space","space","space","f","537","NA","3986","15911","8636","9011","537","2","legacy","1024","2","48000","-16","task","5203383","odd","NA","38522","44511","40524","209988","6746","31298","22661","210491","141961","209987","210491","209921","44511","211029","36775","209421","6739","185679","Lexical Decision Task","76","61229","85","yes","1024"
"3.149629599","0","2","cleb","non-word","89.53488372093024","89.53488372093024","718.6744186046511","718.6744186046511","black","no","legacy","legacy","legacy","0","uniform","1","undefined","undefined","undefined","1","f","0","0","0","0","85","0","0","0","85","0","81","85","81","0","81","3","85","0","85","Tue Feb 16 13:24:30 2021","The main experiment item","yes","Lexical_Decision_Task.osexp","E:/BU/Year 2/Semester 2/Cognition & Language/Seminars/S2 - The Lexical Decision Task","no","Andale Mono","no","18","no","white","no","yes","576","legacy","81","81","3","E:/BU/Year 2/Semester 2/Cognition & Language/Seminars/S2 - The Lexical Decision Task/subject-5203383.csv","legacy","Lentiform Loewenfeld","3.3.7","yes","yes","600bd7cfb6416f0113b04181","602110864497cf011d9c0822","0","f","NA","space","space","space","space","f","577","NA","3986","15911","8636","9011","577","2","legacy","1024","2","48000","-16","task","5203383","odd","NA","38522","44511","40524","211610","6746","31298","22661","212113","141961","211608","212113","211540","44511","212691","36775","211040","6739","185679","Lexical Decision Task","77","61806","86","yes","1024"
"3.028977705","0","7","frow","non-word","88.50574712643679","88.50574712643679","717.0574712643678","717.0574712643678","black","no","legacy","legacy","legacy","0","uniform","0","undefined","undefined","undefined","0","f","0","0","0","0","86","0","0","0","86","0","82","86","82","0","82","3","86","0","86","Tue Feb 16 13:24:30 2021","The main experiment item","yes","Lexical_Decision_Task.osexp","E:/BU/Year 2/Semester 2/Cognition & Language/Seminars/S2 - The Lexical Decision Task","no","Andale Mono","no","18","no","white","no","yes","576","legacy","82","82","3","E:/BU/Year 2/Semester 2/Cognition & Language/Seminars/S2 - The Lexical Decision Task/subject-5203383.csv","legacy","Lentiform Loewenfeld","3.3.7","yes","yes","600bd7cfb6416f0113b04181","602110864497cf011d9c0822","0","j","NA","space","space","space","space","j","578","NA","3986","15911","8636","9011","578","2","legacy","1024","2","48000","-16","task","5203383","odd","NA","38522","44511","40524","213273","6746","31298","22661","213775","141961","213271","213775","213201","44511","214354","36775","212701","6739","185679","Lexical Decision Task","77","62384","87","yes","1024"
"2.675164031","8.57","6","glue","word","88.63636363636364","88.63636363636364","715.1477272727273","715.1477272727273","black","no","legacy","legacy","legacy","0","uniform","1","undefined","undefined","undefined","1","j","0","0","0","0","87","0","0","0","87","0","83","87","83","0","83","3","87","0","87","Tue Feb 16 13:24:30 2021","The main experiment item","yes","Lexical_Decision_Task.osexp","E:/BU/Year 2/Semester 2/Cognition & Language/Seminars/S2 - The Lexical Decision Task","no","Andale Mono","no","18","no","white","no","yes","576","legacy","83","83","3","E:/BU/Year 2/Semester 2/Cognition & Language/Seminars/S2 - The Lexical Decision Task/subject-5203383.csv","legacy","Lentiform Loewenfeld","3.3.7","yes","yes","600bd7cfb6416f0113b04181","602110864497cf011d9c0822","0","j","NA","space","space","space","space","j","549","NA","3986","15911","8636","9011","549","2","legacy","1024","2","48000","-16","task","5203383","odd","NA","38522","44511","40524","215939","6746","31298","22661","216442","141961","215937","216442","215864","44511","216993","36775","212701","6739","214364","Lexical Decision Task","78","62933","88","yes","1024"
"3.303771854","0","9","dath","non-word","88.76404494382022","88.76404494382022","714.7977528089888","714.7977528089888","black","no","legacy","legacy","legacy","0","uniform","1","undefined","undefined","undefined","1","f","0","0","0","0","88","0","0","0","88","0","84","88","84","0","84","3","88","0","88","Tue Feb 16 13:24:30 2021","The main experiment item","yes","Lexical_Decision_Task.osexp","E:/BU/Year 2/Semester 2/Cognition & Language/Seminars/S2 - The Lexical Decision Task","no","Andale Mono","no","18","no","white","no","yes","576","legacy","84","84","3","E:/BU/Year 2/Semester 2/Cognition & Language/Seminars/S2 - The Lexical Decision Task/subject-5203383.csv","legacy","Lentiform Loewenfeld","3.3.7","yes","yes","600bd7cfb6416f0113b04181","602110864497cf011d9c0822","0","f","NA","space","space","space","space","f","684","NA","3986","15911","8636","9011","684","2","legacy","1024","2","48000","-16","task","5203383","odd","NA","38522","44511","40524","217572","6746","31298","22661","218074","141961","217571","218075","217503","44511","218760","36775","217003","6739","214364","Lexical Decision Task","79","63617","89","yes","1024"
"3.492014979","0","9","yine","non-word","88.88888888888889","88.88888888888889","712.3333333333334","712.3333333333334","black","no","legacy","legacy","legacy","0","uniform","1","undefined","undefined","undefined","1","f","0","0","0","0","89","0","0","0","89","0","85","89","85","0","85","3","89","0","89","Tue Feb 16 13:24:30 2021","The main experiment item","yes","Lexical_Decision_Task.osexp","E:/BU/Year 2/Semester 2/Cognition & Language/Seminars/S2 - The Lexical Decision Task","no","Andale Mono","no","18","no","white","no","yes","576","legacy","85","85","3","E:/BU/Year 2/Semester 2/Cognition & Language/Seminars/S2 - The Lexical Decision Task/subject-5203383.csv","legacy","Lentiform Loewenfeld","3.3.7","yes","yes","600bd7cfb6416f0113b04181","602110864497cf011d9c0822","0","f","NA","space","space","space","space","f","493","NA","3986","15911","8636","9011","493","2","legacy","1024","2","48000","-16","task","5203383","odd","NA","38522","44511","40524","219341","6746","31298","22661","219844","141961","219339","219844","219271","44511","220338","36775","218771","6739","214364","Lexical Decision Task","80","64110","90","yes","1024"
