"Log_BG","Log_Freq_HAL","Ortho_N","Stimulus","Type","acc","accuracy","average_response_time","avg_rt","background","bidi","canvas_backend","clock_backend","color_backend","compensation","coordinates","correct","correct_Experimental_intro","correct_Introduction","correct_Practice_intro","correct_experimenter_kb","correct_response","count_End_Of_Experiment","count_End_Of_Practice","count_Experimental_Loop","count_Experimental_intro","count_Fixation","count_Introduction","count_Practice_Loop","count_Practice_intro","count_Stimulus","count_block_break_feedback","count_experimental_sequence","count_experimenter_kb","count_increment_trial_count","count_init_trial_count","count_logger","count_practice_sequence","count_right","count_task","count_wrong","datetime","description","disable_garbage_collection","experiment_file","experiment_path","font_bold","font_family","font_italic","font_size","font_underline","foreground","form_clicks","fullscreen","height","keyboard_backend","live_row","live_row_Experimental_Loop","live_row_Practice_Loop","logfile","mouse_backend","opensesame_codename","opensesame_version","osf_always_upload_data","osf_always_upload_experiment","osf_datanode_id","osf_id","repeat_cycle","response","response_End_Of_Experiment","response_Experimental_intro","response_Introduction","response_Practice_intro","response_block_break_feedback","response_experimenter_kb","response_time","response_time_End_Of_Experiment","response_time_Experimental_intro","response_time_Introduction","response_time_Practice_intro","response_time_block_break_feedback","response_time_experimenter_kb","round_decimals","sampler_backend","sound_buf_size","sound_channels","sound_freq","sound_sample_size","start","subject_nr","subject_parity","time_End_Of_Experiment","time_End_Of_Practice","time_Experimental_Loop","time_Experimental_intro","time_Fixation","time_Introduction","time_Practice_Loop","time_Practice_intro","time_Stimulus","time_block_break_feedback","time_experimental_sequence","time_experimenter_kb","time_increment_trial_count","time_init_trial_count","time_logger","time_practice_sequence","time_right","time_task","time_wrong","title","total_correct","total_response_time","total_responses","uniform_coordinates","width"
"3.121778632","0","9","sark","non-word","100","100","1027.2","1027.2","black","no","legacy","legacy","legacy","0","uniform","1","undefined","undefined","undefined","1","f","0","0","0","0","4","0","0","0","4","NA","0","4","0","0","0","3","4","0","4","Wed Feb 17 13:56:21 2021","The main experiment item","yes","Lexical_Decision_Task.osexp","C:/Users/tinod/Documents/Second year/Second Semester/Cognition and Language/Assignment","no","Andale Mono","no","18","no","white","no","yes","576","legacy","0","0","3","C:/Users/tinod/Documents/Second year/Second Semester/Cognition and Language/Assignment/subject-5103709.csv","legacy","Lentiform Loewenfeld","3.3.7","yes","yes","600bd7cfb6416f0113b04181","602110864497cf011d9c0822","0","f","NA","space","space","space","NA","f","875","NA","3777","35729","9156","NA","875","2","legacy","1024","2","48000","-16","task","5103709","odd","NA","59081","64863","61085","64946","5097","49987","40830","65449","NA","64943","65450","NA","64863","66326","57051","58530","5082","NA","Lexical Decision Task","5","5136","5","yes","1024"
"2.695770526","7.34","6","pawn","word","100","100","979.8333333333334","979.8333333333334","black","no","legacy","legacy","legacy","0","uniform","1","undefined","undefined","undefined","1","j","0","0","0","0","5","0","0","0","5","NA","1","5","1","0","1","3","5","0","5","Wed Feb 17 13:56:21 2021","The main experiment item","yes","Lexical_Decision_Task.osexp","C:/Users/tinod/Documents/Second year/Second Semester/Cognition and Language/Assignment","no","Andale Mono","no","18","no","white","no","yes","576","legacy","1","1","3","C:/Users/tinod/Documents/Second year/Second Semester/Cognition and Language/Assignment/subject-5103709.csv","legacy","Lentiform Loewenfeld","3.3.7","yes","yes","600bd7cfb6416f0113b04181","602110864497cf011d9c0822","0","j","NA","space","space","space","NA","j","743","NA","3777","35729","9156","NA","743","2","legacy","1024","2","48000","-16","task","5103709","odd","NA","59081","64863","61085","67104","5097","49987","40830","67607","NA","67100","67607","66881","64863","68352","57051","66381","5082","NA","Lexical Decision Task","6","5879","6","yes","1024"
"3.120025233","0","2","nyst","non-word","100","100","927.5714285714286","927.5714285714286","black","no","legacy","legacy","legacy","0","uniform","1","undefined","undefined","undefined","1","f","0","0","0","0","6","0","0","0","6","NA","2","6","2","0","2","3","6","0","6","Wed Feb 17 13:56:21 2021","The main experiment item","yes","Lexical_Decision_Task.osexp","C:/Users/tinod/Documents/Second year/Second Semester/Cognition and Language/Assignment","no","Andale Mono","no","18","no","white","no","yes","576","legacy","2","2","3","C:/Users/tinod/Documents/Second year/Second Semester/Cognition and Language/Assignment/subject-5103709.csv","legacy","Lentiform Loewenfeld","3.3.7","yes","yes","600bd7cfb6416f0113b04181","602110864497cf011d9c0822","0","f","NA","space","space","space","NA","f","614","NA","3777","35729","9156","NA","614","2","legacy","1024","2","48000","-16","task","5103709","odd","NA","59081","64863","61085","69042","5097","49987","40830","69545","NA","69039","69545","68900","64863","70161","57051","68399","5082","NA","Lexical Decision Task","7","6493","7","yes","1024"
"2.7084209","0","8","vump","non-word","100","100","886.375","886.375","black","no","legacy","legacy","legacy","0","uniform","1","undefined","undefined","undefined","1","f","0","0","0","0","7","0","0","0","7","NA","3","7","3","0","3","3","7","0","7","Wed Feb 17 13:56:21 2021","The main experiment item","yes","Lexical_Decision_Task.osexp","C:/Users/tinod/Documents/Second year/Second Semester/Cognition and Language/Assignment","no","Andale Mono","no","18","no","white","no","yes","576","legacy","3","3","3","C:/Users/tinod/Documents/Second year/Second Semester/Cognition and Language/Assignment/subject-5103709.csv","legacy","Lentiform Loewenfeld","3.3.7","yes","yes","600bd7cfb6416f0113b04181","602110864497cf011d9c0822","0","f","NA","space","space","space","NA","f","598","NA","3777","35729","9156","NA","598","2","legacy","1024","2","48000","-16","task","5103709","odd","NA","59081","64863","61085","70839","5097","49987","40830","71343","NA","70837","71344","70709","64863","71943","57051","70209","5082","NA","Lexical Decision Task","8","7091","8","yes","1024"
"2.893578687","8.69","3","surf","word","100","100","853.2222222222222","853.2222222222222","black","no","legacy","legacy","legacy","0","uniform","1","undefined","undefined","undefined","1","j","0","0","0","0","8","0","0","0","8","NA","4","8","4","0","4","3","8","0","8","Wed Feb 17 13:56:21 2021","The main experiment item","yes","Lexical_Decision_Task.osexp","C:/Users/tinod/Documents/Second year/Second Semester/Cognition and Language/Assignment","no","Andale Mono","no","18","no","white","no","yes","576","legacy","4","4","3","C:/Users/tinod/Documents/Second year/Second Semester/Cognition and Language/Assignment/subject-5103709.csv","legacy","Lentiform Loewenfeld","3.3.7","yes","yes","600bd7cfb6416f0113b04181","602110864497cf011d9c0822","0","j","NA","space","space","space","NA","j","588","NA","3777","35729","9156","NA","588","2","legacy","1024","2","48000","-16","task","5103709","odd","NA","59081","64863","61085","72620","5097","49987","40830","73123","NA","72618","73124","72492","64863","73713","57051","71991","5082","NA","Lexical Decision Task","9","7679","9","yes","1024"
"2.771097306","0","9","jold","non-word","100","100","839.8","839.8","black","no","legacy","legacy","legacy","0","uniform","1","undefined","undefined","undefined","1","f","0","0","0","0","9","0","0","0","9","NA","5","9","5","0","5","3","9","0","9","Wed Feb 17 13:56:21 2021","The main experiment item","yes","Lexical_Decision_Task.osexp","C:/Users/tinod/Documents/Second year/Second Semester/Cognition and Language/Assignment","no","Andale Mono","no","18","no","white","no","yes","576","legacy","5","5","3","C:/Users/tinod/Documents/Second year/Second Semester/Cognition and Language/Assignment/subject-5103709.csv","legacy","Lentiform Loewenfeld","3.3.7","yes","yes","600bd7cfb6416f0113b04181","602110864497cf011d9c0822","0","f","NA","space","space","space","NA","f","719","NA","3777","35729","9156","NA","719","2","legacy","1024","2","48000","-16","task","5103709","odd","NA","59081","64863","61085","74400","5097","49987","40830","74903","NA","74396","74903","74255","64863","75623","57051","73755","5082","NA","Lexical Decision Task","10","8398","10","yes","1024"
"3.257359335","8","6","brew","word","100","100","825.2727272727273","825.2727272727273","black","no","legacy","legacy","legacy","0","uniform","1","undefined","undefined","undefined","1","j","0","0","0","0","10","0","0","0","10","NA","6","10","6","0","6","3","10","0","10","Wed Feb 17 13:56:21 2021","The main experiment item","yes","Lexical_Decision_Task.osexp","C:/Users/tinod/Documents/Second year/Second Semester/Cognition and Language/Assignment","no","Andale Mono","no","18","no","white","no","yes","576","legacy","6","6","3","C:/Users/tinod/Documents/Second year/Second Semester/Cognition and Language/Assignment/subject-5103709.csv","legacy","Lentiform Loewenfeld","3.3.7","yes","yes","600bd7cfb6416f0113b04181","602110864497cf011d9c0822","0","j","NA","space","space","space","NA","j","680","NA","3777","35729","9156","NA","680","2","legacy","1024","2","48000","-16","task","5103709","odd","NA","59081","64863","61085","76289","5097","49987","40830","76791","NA","76284","76792","76167","64863","77473","57051","75666","5082","NA","Lexical Decision Task","11","9078","11","yes","1024"
"2.880623071","0","9","curp","non-word","100","100","814","814","black","no","legacy","legacy","legacy","0","uniform","1","undefined","undefined","undefined","1","f","0","0","0","0","11","0","0","0","11","NA","7","11","7","0","7","3","11","0","11","Wed Feb 17 13:56:21 2021","The main experiment item","yes","Lexical_Decision_Task.osexp","C:/Users/tinod/Documents/Second year/Second Semester/Cognition and Language/Assignment","no","Andale Mono","no","18","no","white","no","yes","576","legacy","7","7","3","C:/Users/tinod/Documents/Second year/Second Semester/Cognition and Language/Assignment/subject-5103709.csv","legacy","Lentiform Loewenfeld","3.3.7","yes","yes","600bd7cfb6416f0113b04181","602110864497cf011d9c0822","0","f","NA","space","space","space","NA","f","690","NA","3777","35729","9156","NA","690","2","legacy","1024","2","48000","-16","task","5103709","odd","NA","59081","64863","61085","78164","5097","49987","40830","78667","NA","78160","78668","78015","64863","79359","57051","77515","5082","NA","Lexical Decision Task","12","9768","12","yes","1024"
"3.303771854","0","9","dath","non-word","100","100","813.3076923076923","813.3076923076923","black","no","legacy","legacy","legacy","0","uniform","1","undefined","undefined","undefined","1","f","0","0","0","0","12","0","0","0","12","NA","8","12","8","0","8","3","12","0","12","Wed Feb 17 13:56:21 2021","The main experiment item","yes","Lexical_Decision_Task.osexp","C:/Users/tinod/Documents/Second year/Second Semester/Cognition and Language/Assignment","no","Andale Mono","no","18","no","white","no","yes","576","legacy","8","8","3","C:/Users/tinod/Documents/Second year/Second Semester/Cognition and Language/Assignment/subject-5103709.csv","legacy","Lentiform Loewenfeld","3.3.7","yes","yes","600bd7cfb6416f0113b04181","602110864497cf011d9c0822","0","f","NA","space","space","space","NA","f","805","NA","3777","35729","9156","NA","805","2","legacy","1024","2","48000","-16","task","5103709","odd","NA","59081","64863","61085","80092","5097","49987","40830","80595","NA","80088","80596","79918","64863","81402","57051","79418","5082","NA","Lexical Decision Task","13","10573","13","yes","1024"
"3.1430148","7.92","8","bald","word","100","100","802.6428571428571","802.6428571428571","black","no","legacy","legacy","legacy","0","uniform","1","undefined","undefined","undefined","1","j","0","0","0","0","13","0","0","0","13","NA","9","13","9","0","9","3","13","0","13","Wed Feb 17 13:56:21 2021","The main experiment item","yes","Lexical_Decision_Task.osexp","C:/Users/tinod/Documents/Second year/Second Semester/Cognition and Language/Assignment","no","Andale Mono","no","18","no","white","no","yes","576","legacy","9","9","3","C:/Users/tinod/Documents/Second year/Second Semester/Cognition and Language/Assignment/subject-5103709.csv","legacy","Lentiform Loewenfeld","3.3.7","yes","yes","600bd7cfb6416f0113b04181","602110864497cf011d9c0822","0","j","NA","space","space","space","NA","j","664","NA","3777","35729","9156","NA","664","2","legacy","1024","2","48000","-16","task","5103709","odd","NA","59081","64863","61085","82091","5097","49987","40830","82594","NA","82088","82594","81950","64863","83260","57051","81450","5082","NA","Lexical Decision Task","14","11237","14","yes","1024"
"3.208978517","10.33","4","fish","word","100","100","785","785","black","no","legacy","legacy","legacy","0","uniform","1","undefined","undefined","undefined","1","j","0","0","0","0","14","0","0","0","14","NA","10","14","10","0","10","3","14","0","14","Wed Feb 17 13:56:21 2021","The main experiment item","yes","Lexical_Decision_Task.osexp","C:/Users/tinod/Documents/Second year/Second Semester/Cognition and Language/Assignment","no","Andale Mono","no","18","no","white","no","yes","576","legacy","10","10","3","C:/Users/tinod/Documents/Second year/Second Semester/Cognition and Language/Assignment/subject-5103709.csv","legacy","Lentiform Loewenfeld","3.3.7","yes","yes","600bd7cfb6416f0113b04181","602110864497cf011d9c0822","0","j","NA","space","space","space","NA","j","538","NA","3777","35729","9156","NA","538","2","legacy","1024","2","48000","-16","task","5103709","odd","NA","59081","64863","61085","83982","5097","49987","40830","84486","NA","83979","84486","83807","64863","85025","57051","83307","5082","NA","Lexical Decision Task","15","11775","15","yes","1024"
"2.664328519","0","4","plux","non-word","100","100","781.125","781.125","black","no","legacy","legacy","legacy","0","uniform","1","undefined","undefined","undefined","1","f","0","0","0","0","15","0","0","0","15","NA","11","15","11","0","11","3","15","0","15","Wed Feb 17 13:56:21 2021","The main experiment item","yes","Lexical_Decision_Task.osexp","C:/Users/tinod/Documents/Second year/Second Semester/Cognition and Language/Assignment","no","Andale Mono","no","18","no","white","no","yes","576","legacy","11","11","3","C:/Users/tinod/Documents/Second year/Second Semester/Cognition and Language/Assignment/subject-5103709.csv","legacy","Lentiform Loewenfeld","3.3.7","yes","yes","600bd7cfb6416f0113b04181","602110864497cf011d9c0822","0","f","NA","space","space","space","NA","f","723","NA","3777","35729","9156","NA","723","2","legacy","1024","2","48000","-16","task","5103709","odd","NA","59081","64863","61085","85706","5097","49987","40830","86209","NA","85703","86209","85575","64863","86933","57051","85074","5082","NA","Lexical Decision Task","16","12498","16","yes","1024"
"2.9737419","7.69","7","claw","word","100","100","774.1176470588235","774.1176470588235","black","no","legacy","legacy","legacy","0","uniform","1","undefined","undefined","undefined","1","j","0","0","0","0","16","0","0","0","16","NA","12","16","12","0","12","3","16","0","16","Wed Feb 17 13:56:21 2021","The main experiment item","yes","Lexical_Decision_Task.osexp","C:/Users/tinod/Documents/Second year/Second Semester/Cognition and Language/Assignment","no","Andale Mono","no","18","no","white","no","yes","576","legacy","12","12","3","C:/Users/tinod/Documents/Second year/Second Semester/Cognition and Language/Assignment/subject-5103709.csv","legacy","Lentiform Loewenfeld","3.3.7","yes","yes","600bd7cfb6416f0113b04181","602110864497cf011d9c0822","0","j","NA","space","space","space","NA","j","662","NA","3777","35729","9156","NA","662","2","legacy","1024","2","48000","-16","task","5103709","odd","NA","59081","64863","61085","87617","5097","49987","40830","88120","NA","87614","88120","87485","64863","88783","57051","86984","5082","NA","Lexical Decision Task","17","13160","17","yes","1024"
"2.899638141","0","3","hapt","non-word","100","100","763.9444444444445","763.9444444444445","black","no","legacy","legacy","legacy","0","uniform","1","undefined","undefined","undefined","1","f","0","0","0","0","17","0","0","0","17","NA","13","17","13","0","13","3","17","0","17","Wed Feb 17 13:56:21 2021","The main experiment item","yes","Lexical_Decision_Task.osexp","C:/Users/tinod/Documents/Second year/Second Semester/Cognition and Language/Assignment","no","Andale Mono","no","18","no","white","no","yes","576","legacy","13","13","3","C:/Users/tinod/Documents/Second year/Second Semester/Cognition and Language/Assignment/subject-5103709.csv","legacy","Lentiform Loewenfeld","3.3.7","yes","yes","600bd7cfb6416f0113b04181","602110864497cf011d9c0822","0","f","NA","space","space","space","NA","f","591","NA","3777","35729","9156","NA","591","2","legacy","1024","2","48000","-16","task","5103709","odd","NA","59081","64863","61085","89460","5097","49987","40830","89963","NA","89458","89963","89326","64863","90556","57051","88826","5082","NA","Lexical Decision Task","18","13751","18","yes","1024"
"3.031812271","6.52","3","gulp","word","100","100","757.4736842105264","757.4736842105264","black","no","legacy","legacy","legacy","0","uniform","1","undefined","undefined","undefined","1","j","0","0","0","0","18","0","0","0","18","NA","14","18","14","0","14","3","18","0","18","Wed Feb 17 13:56:21 2021","The main experiment item","yes","Lexical_Decision_Task.osexp","C:/Users/tinod/Documents/Second year/Second Semester/Cognition and Language/Assignment","no","Andale Mono","no","18","no","white","no","yes","576","legacy","14","14","3","C:/Users/tinod/Documents/Second year/Second Semester/Cognition and Language/Assignment/subject-5103709.csv","legacy","Lentiform Loewenfeld","3.3.7","yes","yes","600bd7cfb6416f0113b04181","602110864497cf011d9c0822","0","j","NA","space","space","space","NA","j","641","NA","3777","35729","9156","NA","641","2","legacy","1024","2","48000","-16","task","5103709","odd","NA","59081","64863","61085","91249","5097","49987","40830","91753","NA","91246","91753","91102","64863","92396","57051","90602","5082","NA","Lexical Decision Task","19","14392","19","yes","1024"
"3.208172527","10.27","7","deck","word","100","100","752.25","752.25","black","no","legacy","legacy","legacy","0","uniform","1","undefined","undefined","undefined","1","j","0","0","0","0","19","0","0","0","19","NA","15","19","15","0","15","3","19","0","19","Wed Feb 17 13:56:21 2021","The main experiment item","yes","Lexical_Decision_Task.osexp","C:/Users/tinod/Documents/Second year/Second Semester/Cognition and Language/Assignment","no","Andale Mono","no","18","no","white","no","yes","576","legacy","15","15","3","C:/Users/tinod/Documents/Second year/Second Semester/Cognition and Language/Assignment/subject-5103709.csv","legacy","Lentiform Loewenfeld","3.3.7","yes","yes","600bd7cfb6416f0113b04181","602110864497cf011d9c0822","0","j","NA","space","space","space","NA","j","653","NA","3777","35729","9156","NA","653","2","legacy","1024","2","48000","-16","task","5103709","odd","NA","59081","64863","61085","93052","5097","49987","40830","93556","NA","93049","93556","92904","64863","94210","57051","92404","5082","NA","Lexical Decision Task","20","15045","20","yes","1024"
"2.812467698","0","7","hafe","non-word","100","100","747.2380952380952","747.2380952380952","black","no","legacy","legacy","legacy","0","uniform","1","undefined","undefined","undefined","1","f","0","0","0","0","20","0","0","0","20","NA","16","20","16","0","16","3","20","0","20","Wed Feb 17 13:56:21 2021","The main experiment item","yes","Lexical_Decision_Task.osexp","C:/Users/tinod/Documents/Second year/Second Semester/Cognition and Language/Assignment","no","Andale Mono","no","18","no","white","no","yes","576","legacy","16","16","3","C:/Users/tinod/Documents/Second year/Second Semester/Cognition and Language/Assignment/subject-5103709.csv","legacy","Lentiform Loewenfeld","3.3.7","yes","yes","600bd7cfb6416f0113b04181","602110864497cf011d9c0822","0","f","NA","space","space","space","NA","f","647","NA","3777","35729","9156","NA","647","2","legacy","1024","2","48000","-16","task","5103709","odd","NA","59081","64863","61085","94893","5097","49987","40830","95397","NA","94890","95397","94758","64863","96045","57051","94257","5082","NA","Lexical Decision Task","21","15692","21","yes","1024"
"3.066077331","0","7","vorn","non-word","100","100","747.8181818181819","747.8181818181819","black","no","legacy","legacy","legacy","0","uniform","1","undefined","undefined","undefined","1","f","0","0","0","0","21","0","0","0","21","NA","17","21","17","0","17","3","21","0","21","Wed Feb 17 13:56:21 2021","The main experiment item","yes","Lexical_Decision_Task.osexp","C:/Users/tinod/Documents/Second year/Second Semester/Cognition and Language/Assignment","no","Andale Mono","no","18","no","white","no","yes","576","legacy","17","17","3","C:/Users/tinod/Documents/Second year/Second Semester/Cognition and Language/Assignment/subject-5103709.csv","legacy","Lentiform Loewenfeld","3.3.7","yes","yes","600bd7cfb6416f0113b04181","602110864497cf011d9c0822","0","f","NA","space","space","space","NA","f","760","NA","3777","35729","9156","NA","760","2","legacy","1024","2","48000","-16","task","5103709","odd","NA","59081","64863","61085","96733","5097","49987","40830","97234","NA","96730","97234","96591","64863","97996","57051","96091","5082","NA","Lexical Decision Task","22","16452","22","yes","1024"
"2.664011697","8.19","4","hawk","word","100","100","743.5217391304348","743.5217391304348","black","no","legacy","legacy","legacy","0","uniform","1","undefined","undefined","undefined","1","j","0","0","0","0","22","0","0","0","22","NA","18","22","18","0","18","3","22","0","22","Wed Feb 17 13:56:21 2021","The main experiment item","yes","Lexical_Decision_Task.osexp","C:/Users/tinod/Documents/Second year/Second Semester/Cognition and Language/Assignment","no","Andale Mono","no","18","no","white","no","yes","576","legacy","18","18","3","C:/Users/tinod/Documents/Second year/Second Semester/Cognition and Language/Assignment/subject-5103709.csv","legacy","Lentiform Loewenfeld","3.3.7","yes","yes","600bd7cfb6416f0113b04181","602110864497cf011d9c0822","0","j","NA","space","space","space","NA","j","649","NA","3777","35729","9156","NA","649","2","legacy","1024","2","48000","-16","task","5103709","odd","NA","59081","64863","61085","98678","5097","49987","40830","99181","NA","98675","99182","98544","64863","99833","57051","98044","5082","NA","Lexical Decision Task","23","17101","23","yes","1024"
"2.594027722","9.08","8","skip","word","100","100","733.0833333333334","733.0833333333334","black","no","legacy","legacy","legacy","0","uniform","1","undefined","undefined","undefined","1","j","0","0","0","0","23","0","0","0","23","NA","19","23","19","0","19","3","23","0","23","Wed Feb 17 13:56:21 2021","The main experiment item","yes","Lexical_Decision_Task.osexp","C:/Users/tinod/Documents/Second year/Second Semester/Cognition and Language/Assignment","no","Andale Mono","no","18","no","white","no","yes","576","legacy","19","19","3","C:/Users/tinod/Documents/Second year/Second Semester/Cognition and Language/Assignment/subject-5103709.csv","legacy","Lentiform Loewenfeld","3.3.7","yes","yes","600bd7cfb6416f0113b04181","602110864497cf011d9c0822","0","j","NA","space","space","space","NA","j","493","NA","3777","35729","9156","NA","493","2","legacy","1024","2","48000","-16","task","5103709","odd","NA","59081","64863","61085","100514","5097","49987","40830","101018","NA","100511","101019","100382","64863","101514","57051","99882","5082","NA","Lexical Decision Task","24","17594","24","yes","1024"
"2.892836167","10.01","5","soft","word","100","100","721.36","721.36","black","no","legacy","legacy","legacy","0","uniform","1","undefined","undefined","undefined","1","j","0","0","0","0","24","0","0","0","24","NA","20","24","20","0","20","3","24","0","24","Wed Feb 17 13:56:21 2021","The main experiment item","yes","Lexical_Decision_Task.osexp","C:/Users/tinod/Documents/Second year/Second Semester/Cognition and Language/Assignment","no","Andale Mono","no","18","no","white","no","yes","576","legacy","20","20","3","C:/Users/tinod/Documents/Second year/Second Semester/Cognition and Language/Assignment/subject-5103709.csv","legacy","Lentiform Loewenfeld","3.3.7","yes","yes","600bd7cfb6416f0113b04181","602110864497cf011d9c0822","0","j","NA","space","space","space","NA","j","440","NA","3777","35729","9156","NA","440","2","legacy","1024","2","48000","-16","task","5103709","odd","NA","59081","64863","61085","102192","5097","49987","40830","102695","NA","102190","102695","102064","64863","103138","57051","101564","5082","NA","Lexical Decision Task","25","18034","25","yes","1024"
"3.064581521","5.51","6","cask","word","96.15384615384616","96.15384615384616","735.8846153846154","735.8846153846154","black","no","legacy","legacy","legacy","0","uniform","0","undefined","undefined","undefined","0","j","0","0","0","0","25","0","0","0","25","NA","21","25","21","0","21","3","25","0","25","Wed Feb 17 13:56:21 2021","The main experiment item","yes","Lexical_Decision_Task.osexp","C:/Users/tinod/Documents/Second year/Second Semester/Cognition and Language/Assignment","no","Andale Mono","no","18","no","white","no","yes","576","legacy","21","21","3","C:/Users/tinod/Documents/Second year/Second Semester/Cognition and Language/Assignment/subject-5103709.csv","legacy","Lentiform Loewenfeld","3.3.7","yes","yes","600bd7cfb6416f0113b04181","602110864497cf011d9c0822","0","f","NA","space","space","space","NA","f","1099","NA","3777","35729","9156","NA","1099","2","legacy","1024","2","48000","-16","task","5103709","odd","NA","59081","64863","61085","103821","5097","49987","40830","104326","NA","103819","104327","103687","64863","105428","57051","103187","5082","NA","Lexical Decision Task","25","19133","26","yes","1024"
"2.907588697","8.91","9","mood","word","96.29629629629629","96.29629629629629","733.5555555555555","733.5555555555555","black","no","legacy","legacy","legacy","0","uniform","1","undefined","undefined","undefined","1","j","0","0","0","0","26","0","0","0","26","NA","22","26","22","0","22","3","26","0","26","Wed Feb 17 13:56:21 2021","The main experiment item","yes","Lexical_Decision_Task.osexp","C:/Users/tinod/Documents/Second year/Second Semester/Cognition and Language/Assignment","no","Andale Mono","no","18","no","white","no","yes","576","legacy","22","22","3","C:/Users/tinod/Documents/Second year/Second Semester/Cognition and Language/Assignment/subject-5103709.csv","legacy","Lentiform Loewenfeld","3.3.7","yes","yes","600bd7cfb6416f0113b04181","602110864497cf011d9c0822","0","j","NA","space","space","space","NA","j","673","NA","3777","35729","9156","NA","673","2","legacy","1024","2","48000","-16","task","5103709","odd","NA","59081","64863","61085","107085","5097","49987","40830","107588","NA","107082","107588","106947","64863","108262","57051","103187","5082","105447","Lexical Decision Task","26","19806","27","yes","1024"
"2.979548375","8.71","4","soup","word","96.42857142857143","96.42857142857143","726.8928571428571","726.8928571428571","black","no","legacy","legacy","legacy","0","uniform","1","undefined","undefined","undefined","1","j","0","0","0","0","27","0","0","0","27","NA","23","27","23","0","23","3","27","0","27","Wed Feb 17 13:56:21 2021","The main experiment item","yes","Lexical_Decision_Task.osexp","C:/Users/tinod/Documents/Second year/Second Semester/Cognition and Language/Assignment","no","Andale Mono","no","18","no","white","no","yes","576","legacy","23","23","3","C:/Users/tinod/Documents/Second year/Second Semester/Cognition and Language/Assignment/subject-5103709.csv","legacy","Lentiform Loewenfeld","3.3.7","yes","yes","600bd7cfb6416f0113b04181","602110864497cf011d9c0822","0","j","NA","space","space","space","NA","j","547","NA","3777","35729","9156","NA","547","2","legacy","1024","2","48000","-16","task","5103709","odd","NA","59081","64863","61085","108934","5097","49987","40830","109438","NA","108932","109438","108810","64863","109986","57051","108309","5082","105447","Lexical Decision Task","27","20353","28","yes","1024"
"2.937852093","0","7","bamp","non-word","96.55172413793103","96.55172413793103","724.7931034482758","724.7931034482758","black","no","legacy","legacy","legacy","0","uniform","1","undefined","undefined","undefined","1","f","0","0","0","0","28","0","0","0","28","NA","24","28","24","0","24","3","28","0","28","Wed Feb 17 13:56:21 2021","The main experiment item","yes","Lexical_Decision_Task.osexp","C:/Users/tinod/Documents/Second year/Second Semester/Cognition and Language/Assignment","no","Andale Mono","no","18","no","white","no","yes","576","legacy","24","24","3","C:/Users/tinod/Documents/Second year/Second Semester/Cognition and Language/Assignment/subject-5103709.csv","legacy","Lentiform Loewenfeld","3.3.7","yes","yes","600bd7cfb6416f0113b04181","602110864497cf011d9c0822","0","f","NA","space","space","space","NA","f","666","NA","3777","35729","9156","NA","666","2","legacy","1024","2","48000","-16","task","5103709","odd","NA","59081","64863","61085","110632","5097","49987","40830","111135","NA","110630","111135","110500","64863","111803","57051","110000","5082","105447","Lexical Decision Task","28","21019","29","yes","1024"
"3.195807436","0","6","stup","non-word","96.66666666666667","96.66666666666667","727.7666666666667","727.7666666666667","black","no","legacy","legacy","legacy","0","uniform","1","undefined","undefined","undefined","1","f","0","0","0","0","29","0","0","0","29","NA","25","29","25","0","25","3","29","0","29","Wed Feb 17 13:56:21 2021","The main experiment item","yes","Lexical_Decision_Task.osexp","C:/Users/tinod/Documents/Second year/Second Semester/Cognition and Language/Assignment","no","Andale Mono","no","18","no","white","no","yes","576","legacy","25","25","3","C:/Users/tinod/Documents/Second year/Second Semester/Cognition and Language/Assignment/subject-5103709.csv","legacy","Lentiform Loewenfeld","3.3.7","yes","yes","600bd7cfb6416f0113b04181","602110864497cf011d9c0822","0","f","NA","space","space","space","NA","f","814","NA","3777","35729","9156","NA","814","2","legacy","1024","2","48000","-16","task","5103709","odd","NA","59081","64863","61085","112520","5097","49987","40830","113023","NA","112515","113024","112351","64863","113839","57051","111851","5082","105447","Lexical Decision Task","29","21833","30","yes","1024"
"3.431095062","5.74","9","perk","word","96.7741935483871","96.7741935483871","722.1612903225806","722.1612903225806","black","no","legacy","legacy","legacy","0","uniform","1","undefined","undefined","undefined","1","j","0","0","0","0","30","0","0","0","30","NA","26","30","26","0","26","3","30","0","30","Wed Feb 17 13:56:21 2021","The main experiment item","yes","Lexical_Decision_Task.osexp","C:/Users/tinod/Documents/Second year/Second Semester/Cognition and Language/Assignment","no","Andale Mono","no","18","no","white","no","yes","576","legacy","26","26","3","C:/Users/tinod/Documents/Second year/Second Semester/Cognition and Language/Assignment/subject-5103709.csv","legacy","Lentiform Loewenfeld","3.3.7","yes","yes","600bd7cfb6416f0113b04181","602110864497cf011d9c0822","0","j","NA","space","space","space","NA","j","554","NA","3777","35729","9156","NA","554","2","legacy","1024","2","48000","-16","task","5103709","odd","NA","59081","64863","61085","114514","5097","49987","40830","115018","NA","114512","115018","114387","64863","115575","57051","113887","5082","105447","Lexical Decision Task","30","22387","31","yes","1024"
"3.529815197","0","3","lerm","non-word","96.875","96.875","719.59375","719.59375","black","no","legacy","legacy","legacy","0","uniform","1","undefined","undefined","undefined","1","f","0","0","0","0","31","0","0","0","31","NA","27","31","27","0","27","3","31","0","31","Wed Feb 17 13:56:21 2021","The main experiment item","yes","Lexical_Decision_Task.osexp","C:/Users/tinod/Documents/Second year/Second Semester/Cognition and Language/Assignment","no","Andale Mono","no","18","no","white","no","yes","576","legacy","27","27","3","C:/Users/tinod/Documents/Second year/Second Semester/Cognition and Language/Assignment/subject-5103709.csv","legacy","Lentiform Loewenfeld","3.3.7","yes","yes","600bd7cfb6416f0113b04181","602110864497cf011d9c0822","0","f","NA","space","space","space","NA","f","640","NA","3777","35729","9156","NA","640","2","legacy","1024","2","48000","-16","task","5103709","odd","NA","59081","64863","61085","116255","5097","49987","40830","116758","NA","116253","116759","116124","64863","117402","57051","115624","5082","105447","Lexical Decision Task","31","23027","32","yes","1024"
"3.137775856","7.39","5","comb","word","96.96969696969697","96.96969696969697","744.4545454545455","744.4545454545455","black","no","legacy","legacy","legacy","0","uniform","1","undefined","undefined","undefined","1","j","0","0","0","0","32","0","0","0","32","NA","28","32","28","0","28","3","32","0","32","Wed Feb 17 13:56:21 2021","The main experiment item","yes","Lexical_Decision_Task.osexp","C:/Users/tinod/Documents/Second year/Second Semester/Cognition and Language/Assignment","no","Andale Mono","no","18","no","white","no","yes","576","legacy","28","28","3","C:/Users/tinod/Documents/Second year/Second Semester/Cognition and Language/Assignment/subject-5103709.csv","legacy","Lentiform Loewenfeld","3.3.7","yes","yes","600bd7cfb6416f0113b04181","602110864497cf011d9c0822","0","j","NA","space","space","space","NA","j","1540","NA","3777","35729","9156","NA","1540","2","legacy","1024","2","48000","-16","task","5103709","odd","NA","59081","64863","61085","118131","5097","49987","40830","118635","NA","118127","118637","117950","64863","120178","57051","117450","5082","105447","Lexical Decision Task","32","24567","33","yes","1024"
"3.2757719","0","5","slea","non-word","97.05882352941177","97.05882352941177","745.1470588235294","745.1470588235294","black","no","legacy","legacy","legacy","0","uniform","1","undefined","undefined","undefined","1","f","0","0","0","0","33","0","0","0","33","NA","29","33","29","0","29","3","33","0","33","Wed Feb 17 13:56:21 2021","The main experiment item","yes","Lexical_Decision_Task.osexp","C:/Users/tinod/Documents/Second year/Second Semester/Cognition and Language/Assignment","no","Andale Mono","no","18","no","white","no","yes","576","legacy","29","29","3","C:/Users/tinod/Documents/Second year/Second Semester/Cognition and Language/Assignment/subject-5103709.csv","legacy","Lentiform Loewenfeld","3.3.7","yes","yes","600bd7cfb6416f0113b04181","602110864497cf011d9c0822","0","f","NA","space","space","space","NA","f","768","NA","3777","35729","9156","NA","768","2","legacy","1024","2","48000","-16","task","5103709","odd","NA","59081","64863","61085","120850","5097","49987","40830","121353","NA","120847","121353","120726","64863","122122","57051","120226","5082","105447","Lexical Decision Task","33","25335","34","yes","1024"
"3.133964479","0","8","graw","non-word","97.14285714285714","97.14285714285714","748.3142857142857","748.3142857142857","black","no","legacy","legacy","legacy","0","uniform","1","undefined","undefined","undefined","1","f","0","0","0","0","34","0","0","0","34","NA","30","34","30","0","30","3","34","0","34","Wed Feb 17 13:56:21 2021","The main experiment item","yes","Lexical_Decision_Task.osexp","C:/Users/tinod/Documents/Second year/Second Semester/Cognition and Language/Assignment","no","Andale Mono","no","18","no","white","no","yes","576","legacy","30","30","3","C:/Users/tinod/Documents/Second year/Second Semester/Cognition and Language/Assignment/subject-5103709.csv","legacy","Lentiform Loewenfeld","3.3.7","yes","yes","600bd7cfb6416f0113b04181","602110864497cf011d9c0822","0","f","NA","space","space","space","NA","f","856","NA","3777","35729","9156","NA","856","2","legacy","1024","2","48000","-16","task","5103709","odd","NA","59081","64863","61085","122797","5097","49987","40830","123301","NA","122794","123301","122667","64863","124158","57051","122167","5082","105447","Lexical Decision Task","34","26191","35","yes","1024"
"2.843025032","0","9","pusk","non-word","97.22222222222223","97.22222222222223","747.8888888888889","747.8888888888889","black","no","legacy","legacy","legacy","0","uniform","1","undefined","undefined","undefined","1","f","0","0","0","0","35","0","0","0","35","NA","31","35","31","0","31","3","35","0","35","Wed Feb 17 13:56:21 2021","The main experiment item","yes","Lexical_Decision_Task.osexp","C:/Users/tinod/Documents/Second year/Second Semester/Cognition and Language/Assignment","no","Andale Mono","no","18","no","white","no","yes","576","legacy","31","31","3","C:/Users/tinod/Documents/Second year/Second Semester/Cognition and Language/Assignment/subject-5103709.csv","legacy","Lentiform Loewenfeld","3.3.7","yes","yes","600bd7cfb6416f0113b04181","602110864497cf011d9c0822","0","f","NA","space","space","space","NA","f","733","NA","3777","35729","9156","NA","733","2","legacy","1024","2","48000","-16","task","5103709","odd","NA","59081","64863","61085","124835","5097","49987","40830","125338","NA","124832","125339","124706","64863","126078","57051","124206","5082","105447","Lexical Decision Task","35","26924","36","yes","1024"
"2.784379519","0","2","snaf","non-word","97.29729729729729","97.29729729729729","743.8648648648649","743.8648648648649","black","no","legacy","legacy","legacy","0","uniform","1","undefined","undefined","undefined","1","f","0","0","0","0","36","0","0","0","36","NA","32","36","32","0","32","3","36","0","36","Wed Feb 17 13:56:21 2021","The main experiment item","yes","Lexical_Decision_Task.osexp","C:/Users/tinod/Documents/Second year/Second Semester/Cognition and Language/Assignment","no","Andale Mono","no","18","no","white","no","yes","576","legacy","32","32","3","C:/Users/tinod/Documents/Second year/Second Semester/Cognition and Language/Assignment/subject-5103709.csv","legacy","Lentiform Loewenfeld","3.3.7","yes","yes","600bd7cfb6416f0113b04181","602110864497cf011d9c0822","0","f","NA","space","space","space","NA","f","599","NA","3777","35729","9156","NA","599","2","legacy","1024","2","48000","-16","task","5103709","odd","NA","59081","64863","61085","126759","5097","49987","40830","127263","NA","126757","127263","126625","64863","127864","57051","126125","5082","105447","Lexical Decision Task","36","27523","37","yes","1024"
"2.728085817","10.02","9","bike","word","97.36842105263158","97.36842105263158","738.2894736842105","738.2894736842105","black","no","legacy","legacy","legacy","0","uniform","1","undefined","undefined","undefined","1","j","0","0","0","0","37","0","0","0","37","NA","33","37","33","0","33","3","37","0","37","Wed Feb 17 13:56:21 2021","The main experiment item","yes","Lexical_Decision_Task.osexp","C:/Users/tinod/Documents/Second year/Second Semester/Cognition and Language/Assignment","no","Andale Mono","no","18","no","white","no","yes","576","legacy","33","33","3","C:/Users/tinod/Documents/Second year/Second Semester/Cognition and Language/Assignment/subject-5103709.csv","legacy","Lentiform Loewenfeld","3.3.7","yes","yes","600bd7cfb6416f0113b04181","602110864497cf011d9c0822","0","j","NA","space","space","space","NA","j","532","NA","3777","35729","9156","NA","532","2","legacy","1024","2","48000","-16","task","5103709","odd","NA","59081","64863","61085","128541","5097","49987","40830","129045","NA","128539","129046","128411","64863","129580","57051","127911","5082","105447","Lexical Decision Task","37","28055","38","yes","1024"
"3.397302518","7.01","2","knit","word","97.43589743589743","97.43589743589743","735.4615384615385","735.4615384615385","black","no","legacy","legacy","legacy","0","uniform","1","undefined","undefined","undefined","1","j","0","0","0","0","38","0","0","0","38","NA","34","38","34","0","34","3","38","0","38","Wed Feb 17 13:56:21 2021","The main experiment item","yes","Lexical_Decision_Task.osexp","C:/Users/tinod/Documents/Second year/Second Semester/Cognition and Language/Assignment","no","Andale Mono","no","18","no","white","no","yes","576","legacy","34","34","3","C:/Users/tinod/Documents/Second year/Second Semester/Cognition and Language/Assignment/subject-5103709.csv","legacy","Lentiform Loewenfeld","3.3.7","yes","yes","600bd7cfb6416f0113b04181","602110864497cf011d9c0822","0","j","NA","space","space","space","NA","j","628","NA","3777","35729","9156","NA","628","2","legacy","1024","2","48000","-16","task","5103709","odd","NA","59081","64863","61085","130260","5097","49987","40830","130764","NA","130258","130765","130130","64863","131398","57051","129629","5082","105447","Lexical Decision Task","38","28683","39","yes","1024"
"3.368162872","0","4","ferk","non-word","97.5","97.5","732.9","732.9","black","no","legacy","legacy","legacy","0","uniform","1","undefined","undefined","undefined","1","f","0","0","0","0","39","0","0","0","39","NA","35","39","35","0","35","3","39","0","39","Wed Feb 17 13:56:21 2021","The main experiment item","yes","Lexical_Decision_Task.osexp","C:/Users/tinod/Documents/Second year/Second Semester/Cognition and Language/Assignment","no","Andale Mono","no","18","no","white","no","yes","576","legacy","35","35","3","C:/Users/tinod/Documents/Second year/Second Semester/Cognition and Language/Assignment/subject-5103709.csv","legacy","Lentiform Loewenfeld","3.3.7","yes","yes","600bd7cfb6416f0113b04181","602110864497cf011d9c0822","0","f","NA","space","space","space","NA","f","633","NA","3777","35729","9156","NA","633","2","legacy","1024","2","48000","-16","task","5103709","odd","NA","59081","64863","61085","132040","5097","49987","40830","132543","NA","132037","132544","131907","64863","133180","57051","131407","5082","105447","Lexical Decision Task","39","29316","40","yes","1024"
"2.698387659","6.66","7","skid","word","97.5609756097561","97.5609756097561","729.9268292682926","729.9268292682926","black","no","legacy","legacy","legacy","0","uniform","1","undefined","undefined","undefined","1","j","0","0","0","0","40","0","0","0","40","NA","36","40","36","0","36","3","40","0","40","Wed Feb 17 13:56:21 2021","The main experiment item","yes","Lexical_Decision_Task.osexp","C:/Users/tinod/Documents/Second year/Second Semester/Cognition and Language/Assignment","no","Andale Mono","no","18","no","white","no","yes","576","legacy","36","36","3","C:/Users/tinod/Documents/Second year/Second Semester/Cognition and Language/Assignment/subject-5103709.csv","legacy","Lentiform Loewenfeld","3.3.7","yes","yes","600bd7cfb6416f0113b04181","602110864497cf011d9c0822","0","j","NA","space","space","space","NA","j","611","NA","3777","35729","9156","NA","611","2","legacy","1024","2","48000","-16","task","5103709","odd","NA","59081","64863","61085","133862","5097","49987","40830","134366","NA","133860","134366","133728","64863","134979","57051","133228","5082","105447","Lexical Decision Task","40","29927","41","yes","1024"
"3.20871002","7.15","8","cram","word","97.61904761904762","97.61904761904762","730.5","730.5","black","no","legacy","legacy","legacy","0","uniform","1","undefined","undefined","undefined","1","j","0","0","0","0","41","0","0","0","41","NA","37","41","37","0","37","3","41","0","41","Wed Feb 17 13:56:21 2021","The main experiment item","yes","Lexical_Decision_Task.osexp","C:/Users/tinod/Documents/Second year/Second Semester/Cognition and Language/Assignment","no","Andale Mono","no","18","no","white","no","yes","576","legacy","37","37","3","C:/Users/tinod/Documents/Second year/Second Semester/Cognition and Language/Assignment/subject-5103709.csv","legacy","Lentiform Loewenfeld","3.3.7","yes","yes","600bd7cfb6416f0113b04181","602110864497cf011d9c0822","0","j","NA","space","space","space","NA","j","754","NA","3777","35729","9156","NA","754","2","legacy","1024","2","48000","-16","task","5103709","odd","NA","59081","64863","61085","135655","5097","49987","40830","136158","NA","135653","136159","135528","64863","136915","57051","135027","5082","105447","Lexical Decision Task","41","30681","42","yes","1024"
"3.259832699","0","9","flar","non-word","97.67441860465117","97.67441860465117","734.4883720930233","734.4883720930233","black","no","legacy","legacy","legacy","0","uniform","1","undefined","undefined","undefined","1","f","0","0","0","0","42","0","0","0","42","NA","38","42","38","0","38","3","42","0","42","Wed Feb 17 13:56:21 2021","The main experiment item","yes","Lexical_Decision_Task.osexp","C:/Users/tinod/Documents/Second year/Second Semester/Cognition and Language/Assignment","no","Andale Mono","no","18","no","white","no","yes","576","legacy","38","38","3","C:/Users/tinod/Documents/Second year/Second Semester/Cognition and Language/Assignment/subject-5103709.csv","legacy","Lentiform Loewenfeld","3.3.7","yes","yes","600bd7cfb6416f0113b04181","602110864497cf011d9c0822","0","f","NA","space","space","space","NA","f","902","NA","3777","35729","9156","NA","902","2","legacy","1024","2","48000","-16","task","5103709","odd","NA","59081","64863","61085","137549","5097","49987","40830","138052","NA","137547","138053","137425","64863","138957","57051","136925","5082","105447","Lexical Decision Task","42","31583","43","yes","1024"
"3.132473155","0","4","glim","non-word","95.45454545454545","95.45454545454545","734.8863636363636","734.8863636363636","black","no","legacy","legacy","legacy","0","uniform","0","undefined","undefined","undefined","0","f","0","0","0","0","43","0","0","0","43","NA","39","43","39","0","39","3","43","0","43","Wed Feb 17 13:56:21 2021","The main experiment item","yes","Lexical_Decision_Task.osexp","C:/Users/tinod/Documents/Second year/Second Semester/Cognition and Language/Assignment","no","Andale Mono","no","18","no","white","no","yes","576","legacy","39","39","3","C:/Users/tinod/Documents/Second year/Second Semester/Cognition and Language/Assignment/subject-5103709.csv","legacy","Lentiform Loewenfeld","3.3.7","yes","yes","600bd7cfb6416f0113b04181","602110864497cf011d9c0822","0","j","NA","space","space","space","NA","j","752","NA","3777","35729","9156","NA","752","2","legacy","1024","2","48000","-16","task","5103709","odd","NA","59081","64863","61085","139648","5097","49987","40830","140151","NA","139645","140152","139503","64863","140908","57051","139002","5082","105447","Lexical Decision Task","42","32335","44","yes","1024"
"2.842815106","7.86","8","lump","word","95.55555555555556","95.55555555555556","736.1333333333333","736.1333333333333","black","no","legacy","legacy","legacy","0","uniform","1","undefined","undefined","undefined","1","j","0","0","0","0","44","0","0","0","44","NA","40","44","40","0","40","3","44","0","44","Wed Feb 17 13:56:21 2021","The main experiment item","yes","Lexical_Decision_Task.osexp","C:/Users/tinod/Documents/Second year/Second Semester/Cognition and Language/Assignment","no","Andale Mono","no","18","no","white","no","yes","576","legacy","40","40","3","C:/Users/tinod/Documents/Second year/Second Semester/Cognition and Language/Assignment/subject-5103709.csv","legacy","Lentiform Loewenfeld","3.3.7","yes","yes","600bd7cfb6416f0113b04181","602110864497cf011d9c0822","0","j","NA","space","space","space","NA","j","791","NA","3777","35729","9156","NA","791","2","legacy","1024","2","48000","-16","task","5103709","odd","NA","59081","64863","61085","142592","5097","49987","40830","143095","NA","142590","143095","142454","64863","143888","57051","139002","5082","140954","Lexical Decision Task","43","33126","45","yes","1024"
"2.616654026","9.37","5","gift","word","95.65217391304348","95.65217391304348","740.0652173913044","740.0652173913044","black","no","legacy","legacy","legacy","0","uniform","1","undefined","undefined","undefined","1","j","0","0","0","0","45","0","0","0","45","NA","41","45","41","0","41","3","45","0","45","Wed Feb 17 13:56:21 2021","The main experiment item","yes","Lexical_Decision_Task.osexp","C:/Users/tinod/Documents/Second year/Second Semester/Cognition and Language/Assignment","no","Andale Mono","no","18","no","white","no","yes","576","legacy","41","41","3","C:/Users/tinod/Documents/Second year/Second Semester/Cognition and Language/Assignment/subject-5103709.csv","legacy","Lentiform Loewenfeld","3.3.7","yes","yes","600bd7cfb6416f0113b04181","602110864497cf011d9c0822","0","j","NA","space","space","space","NA","j","917","NA","3777","35729","9156","NA","917","2","legacy","1024","2","48000","-16","task","5103709","odd","NA","59081","64863","61085","144566","5097","49987","40830","145069","NA","144564","145069","144437","64863","145988","57051","143937","5082","140954","Lexical Decision Task","44","34043","46","yes","1024"
"2.713490543","0","3","feps","non-word","95.74468085106383","95.74468085106383","737.6170212765958","737.6170212765958","black","no","legacy","legacy","legacy","0","uniform","1","undefined","undefined","undefined","1","f","0","0","0","0","46","0","0","0","46","NA","42","46","42","0","42","3","46","0","46","Wed Feb 17 13:56:21 2021","The main experiment item","yes","Lexical_Decision_Task.osexp","C:/Users/tinod/Documents/Second year/Second Semester/Cognition and Language/Assignment","no","Andale Mono","no","18","no","white","no","yes","576","legacy","42","42","3","C:/Users/tinod/Documents/Second year/Second Semester/Cognition and Language/Assignment/subject-5103709.csv","legacy","Lentiform Loewenfeld","3.3.7","yes","yes","600bd7cfb6416f0113b04181","602110864497cf011d9c0822","0","f","NA","space","space","space","NA","f","625","NA","3777","35729","9156","NA","625","2","legacy","1024","2","48000","-16","task","5103709","odd","NA","59081","64863","61085","146667","5097","49987","40830","147171","NA","146666","147172","146537","64863","147799","57051","146037","5082","140954","Lexical Decision Task","45","34668","47","yes","1024"
"3.366547468","0","6","plat","non-word","95.83333333333333","95.83333333333333","745.0625","745.0625","black","no","legacy","legacy","legacy","0","uniform","1","undefined","undefined","undefined","1","f","0","0","0","0","47","0","0","0","47","NA","43","47","43","0","43","3","47","0","47","Wed Feb 17 13:56:21 2021","The main experiment item","yes","Lexical_Decision_Task.osexp","C:/Users/tinod/Documents/Second year/Second Semester/Cognition and Language/Assignment","no","Andale Mono","no","18","no","white","no","yes","576","legacy","43","43","3","C:/Users/tinod/Documents/Second year/Second Semester/Cognition and Language/Assignment/subject-5103709.csv","legacy","Lentiform Loewenfeld","3.3.7","yes","yes","600bd7cfb6416f0113b04181","602110864497cf011d9c0822","0","f","NA","space","space","space","NA","f","1095","NA","3777","35729","9156","NA","1095","2","legacy","1024","2","48000","-16","task","5103709","odd","NA","59081","64863","61085","148446","5097","49987","40830","148949","NA","148443","148949","148307","64863","150047","57051","147805","5082","140954","Lexical Decision Task","46","35763","48","yes","1024"
"2.898725182","0","7","turl","non-word","95.91836734693878","95.91836734693878","747.4285714285714","747.4285714285714","black","no","legacy","legacy","legacy","0","uniform","1","undefined","undefined","undefined","1","f","0","0","0","0","48","0","0","0","48","NA","44","48","44","0","44","3","48","0","48","Wed Feb 17 13:56:21 2021","The main experiment item","yes","Lexical_Decision_Task.osexp","C:/Users/tinod/Documents/Second year/Second Semester/Cognition and Language/Assignment","no","Andale Mono","no","18","no","white","no","yes","576","legacy","44","44","3","C:/Users/tinod/Documents/Second year/Second Semester/Cognition and Language/Assignment/subject-5103709.csv","legacy","Lentiform Loewenfeld","3.3.7","yes","yes","600bd7cfb6416f0113b04181","602110864497cf011d9c0822","0","f","NA","space","space","space","NA","f","861","NA","3777","35729","9156","NA","861","2","legacy","1024","2","48000","-16","task","5103709","odd","NA","59081","64863","61085","150720","5097","49987","40830","151224","NA","150718","151224","150592","64863","152087","57051","150092","5082","140954","Lexical Decision Task","47","36624","49","yes","1024"
"3.488597715","0","9","nain","non-word","96","96","748.32","748.32","black","no","legacy","legacy","legacy","0","uniform","1","undefined","undefined","undefined","1","f","0","0","0","0","49","0","0","0","49","NA","45","49","45","0","45","3","49","0","49","Wed Feb 17 13:56:21 2021","The main experiment item","yes","Lexical_Decision_Task.osexp","C:/Users/tinod/Documents/Second year/Second Semester/Cognition and Language/Assignment","no","Andale Mono","no","18","no","white","no","yes","576","legacy","45","45","3","C:/Users/tinod/Documents/Second year/Second Semester/Cognition and Language/Assignment/subject-5103709.csv","legacy","Lentiform Loewenfeld","3.3.7","yes","yes","600bd7cfb6416f0113b04181","602110864497cf011d9c0822","0","f","NA","space","space","space","NA","f","792","NA","3777","35729","9156","NA","792","2","legacy","1024","2","48000","-16","task","5103709","odd","NA","59081","64863","61085","152761","5097","49987","40830","153264","NA","152759","153265","152630","64863","154059","57051","152130","5082","140954","Lexical Decision Task","48","37416","50","yes","1024"
"2.693726949","5.08","3","swig","word","94.11764705882354","94.11764705882354","749.2352941176471","749.2352941176471","black","no","legacy","legacy","legacy","0","uniform","0","undefined","undefined","undefined","0","j","0","0","0","0","50","0","0","0","50","NA","46","50","46","0","46","3","50","0","50","Wed Feb 17 13:56:21 2021","The main experiment item","yes","Lexical_Decision_Task.osexp","C:/Users/tinod/Documents/Second year/Second Semester/Cognition and Language/Assignment","no","Andale Mono","no","18","no","white","no","yes","576","legacy","46","46","3","C:/Users/tinod/Documents/Second year/Second Semester/Cognition and Language/Assignment/subject-5103709.csv","legacy","Lentiform Loewenfeld","3.3.7","yes","yes","600bd7cfb6416f0113b04181","602110864497cf011d9c0822","0","f","NA","space","space","space","NA","f","795","NA","3777","35729","9156","NA","795","2","legacy","1024","2","48000","-16","task","5103709","odd","NA","59081","64863","61085","154735","5097","49987","40830","155238","NA","154732","155239","154606","64863","156036","57051","154106","5082","140954","Lexical Decision Task","48","38211","51","yes","1024"
"3.384413096","10.15","3","glad","word","94.23076923076923","94.23076923076923","748.6923076923077","748.6923076923077","black","no","legacy","legacy","legacy","0","uniform","1","undefined","undefined","undefined","1","j","0","0","0","0","51","0","0","0","51","NA","47","51","47","0","47","3","51","0","51","Wed Feb 17 13:56:21 2021","The main experiment item","yes","Lexical_Decision_Task.osexp","C:/Users/tinod/Documents/Second year/Second Semester/Cognition and Language/Assignment","no","Andale Mono","no","18","no","white","no","yes","576","legacy","47","47","3","C:/Users/tinod/Documents/Second year/Second Semester/Cognition and Language/Assignment/subject-5103709.csv","legacy","Lentiform Loewenfeld","3.3.7","yes","yes","600bd7cfb6416f0113b04181","602110864497cf011d9c0822","0","j","NA","space","space","space","NA","j","721","NA","3777","35729","9156","NA","721","2","legacy","1024","2","48000","-16","task","5103709","odd","NA","59081","64863","61085","157684","5097","49987","40830","158188","NA","157682","158188","157553","64863","158911","57051","154106","5082","156053","Lexical Decision Task","49","38932","52","yes","1024"
"3.307211407","6.07","7","honk","word","94.33962264150944","94.33962264150944","745.9056603773585","745.9056603773585","black","no","legacy","legacy","legacy","0","uniform","1","undefined","undefined","undefined","1","j","0","0","0","0","52","0","0","0","52","NA","48","52","48","0","48","3","52","0","52","Wed Feb 17 13:56:21 2021","The main experiment item","yes","Lexical_Decision_Task.osexp","C:/Users/tinod/Documents/Second year/Second Semester/Cognition and Language/Assignment","no","Andale Mono","no","18","no","white","no","yes","576","legacy","48","48","3","C:/Users/tinod/Documents/Second year/Second Semester/Cognition and Language/Assignment/subject-5103709.csv","legacy","Lentiform Loewenfeld","3.3.7","yes","yes","600bd7cfb6416f0113b04181","602110864497cf011d9c0822","0","j","NA","space","space","space","NA","j","601","NA","3777","35729","9156","NA","601","2","legacy","1024","2","48000","-16","task","5103709","odd","NA","59081","64863","61085","159589","5097","49987","40830","160092","NA","159586","160092","159460","64863","160698","57051","158960","5082","156053","Lexical Decision Task","50","39533","53","yes","1024"
"2.714888338","0","3","brug","non-word","94.44444444444444","94.44444444444444","743.9629629629629","743.9629629629629","black","no","legacy","legacy","legacy","0","uniform","1","undefined","undefined","undefined","1","f","0","0","0","0","53","0","0","0","53","NA","49","53","49","0","49","3","53","0","53","Wed Feb 17 13:56:21 2021","The main experiment item","yes","Lexical_Decision_Task.osexp","C:/Users/tinod/Documents/Second year/Second Semester/Cognition and Language/Assignment","no","Andale Mono","no","18","no","white","no","yes","576","legacy","49","49","3","C:/Users/tinod/Documents/Second year/Second Semester/Cognition and Language/Assignment/subject-5103709.csv","legacy","Lentiform Loewenfeld","3.3.7","yes","yes","600bd7cfb6416f0113b04181","602110864497cf011d9c0822","0","f","NA","space","space","space","NA","f","641","NA","3777","35729","9156","NA","641","2","legacy","1024","2","48000","-16","task","5103709","odd","NA","59081","64863","61085","161372","5097","49987","40830","161876","NA","161370","161876","161246","64863","162520","57051","160746","5082","156053","Lexical Decision Task","51","40174","54","yes","1024"
"3.067070856","9.39","3","loud","word","94.54545454545455","94.54545454545455","751.9090909090909","751.9090909090909","black","no","legacy","legacy","legacy","0","uniform","1","undefined","undefined","undefined","1","j","0","0","0","0","54","0","0","0","54","0","50","54","50","0","50","3","54","0","54","Wed Feb 17 13:56:21 2021","The main experiment item","yes","Lexical_Decision_Task.osexp","C:/Users/tinod/Documents/Second year/Second Semester/Cognition and Language/Assignment","no","Andale Mono","no","18","no","white","no","yes","576","legacy","50","50","3","C:/Users/tinod/Documents/Second year/Second Semester/Cognition and Language/Assignment/subject-5103709.csv","legacy","Lentiform Loewenfeld","3.3.7","yes","yes","600bd7cfb6416f0113b04181","602110864497cf011d9c0822","0","j","NA","space","space","space","space","j","1181","NA","3777","35729","9156","3328","1181","2","legacy","1024","2","48000","-16","task","5103709","odd","NA","59081","64863","61085","166632","5097","49987","40830","167135","163195","166628","167136","163068","64863","168319","57051","162568","5082","156053","Lexical Decision Task","52","41355","55","yes","1024"
"3.347850856","10.51","2","rich","word","94.64285714285714","94.64285714285714","753.3392857142857","753.3392857142857","black","no","legacy","legacy","legacy","0","uniform","1","undefined","undefined","undefined","1","j","0","0","0","0","55","0","0","0","55","0","51","55","51","0","51","3","55","0","55","Wed Feb 17 13:56:21 2021","The main experiment item","yes","Lexical_Decision_Task.osexp","C:/Users/tinod/Documents/Second year/Second Semester/Cognition and Language/Assignment","no","Andale Mono","no","18","no","white","no","yes","576","legacy","51","51","3","C:/Users/tinod/Documents/Second year/Second Semester/Cognition and Language/Assignment/subject-5103709.csv","legacy","Lentiform Loewenfeld","3.3.7","yes","yes","600bd7cfb6416f0113b04181","602110864497cf011d9c0822","0","j","NA","space","space","space","space","j","832","NA","3777","35729","9156","3328","832","2","legacy","1024","2","48000","-16","task","5103709","odd","NA","59081","64863","61085","168984","5097","49987","40830","169489","163195","168983","169489","168862","64863","170322","57051","168362","5082","156053","Lexical Decision Task","53","42187","56","yes","1024"
"2.868644438","10.52","4","town","word","94.73684210526316","94.73684210526316","751.1754385964912","751.1754385964912","black","no","legacy","legacy","legacy","0","uniform","1","undefined","undefined","undefined","1","j","0","0","0","0","56","0","0","0","56","0","52","56","52","0","52","3","56","0","56","Wed Feb 17 13:56:21 2021","The main experiment item","yes","Lexical_Decision_Task.osexp","C:/Users/tinod/Documents/Second year/Second Semester/Cognition and Language/Assignment","no","Andale Mono","no","18","no","white","no","yes","576","legacy","52","52","3","C:/Users/tinod/Documents/Second year/Second Semester/Cognition and Language/Assignment/subject-5103709.csv","legacy","Lentiform Loewenfeld","3.3.7","yes","yes","600bd7cfb6416f0113b04181","602110864497cf011d9c0822","0","j","NA","space","space","space","space","j","630","NA","3777","35729","9156","3328","630","2","legacy","1024","2","48000","-16","task","5103709","odd","NA","59081","64863","61085","170997","5097","49987","40830","171500","163195","170995","171501","170867","64863","172133","57051","170367","5082","156053","Lexical Decision Task","54","42817","57","yes","1024"
"2.873320602","0","4","lurg","non-word","94.82758620689656","94.82758620689656","750.5689655172414","750.5689655172414","black","no","legacy","legacy","legacy","0","uniform","1","undefined","undefined","undefined","1","f","0","0","0","0","57","0","0","0","57","0","53","57","53","0","53","3","57","0","57","Wed Feb 17 13:56:21 2021","The main experiment item","yes","Lexical_Decision_Task.osexp","C:/Users/tinod/Documents/Second year/Second Semester/Cognition and Language/Assignment","no","Andale Mono","no","18","no","white","no","yes","576","legacy","53","53","3","C:/Users/tinod/Documents/Second year/Second Semester/Cognition and Language/Assignment/subject-5103709.csv","legacy","Lentiform Loewenfeld","3.3.7","yes","yes","600bd7cfb6416f0113b04181","602110864497cf011d9c0822","0","f","NA","space","space","space","space","f","716","NA","3777","35729","9156","3328","716","2","legacy","1024","2","48000","-16","task","5103709","odd","NA","59081","64863","61085","172810","5097","49987","40830","173313","163195","172808","173313","172680","64863","174031","57051","172180","5082","156053","Lexical Decision Task","55","43533","58","yes","1024"
"3.481012421","8.34","5","teen","word","94.91525423728814","94.91525423728814","748.0847457627119","748.0847457627119","black","no","legacy","legacy","legacy","0","uniform","1","undefined","undefined","undefined","1","j","0","0","0","0","58","0","0","0","58","0","54","58","54","0","54","3","58","0","58","Wed Feb 17 13:56:21 2021","The main experiment item","yes","Lexical_Decision_Task.osexp","C:/Users/tinod/Documents/Second year/Second Semester/Cognition and Language/Assignment","no","Andale Mono","no","18","no","white","no","yes","576","legacy","54","54","3","C:/Users/tinod/Documents/Second year/Second Semester/Cognition and Language/Assignment/subject-5103709.csv","legacy","Lentiform Loewenfeld","3.3.7","yes","yes","600bd7cfb6416f0113b04181","602110864497cf011d9c0822","0","j","NA","space","space","space","space","j","604","NA","3777","35729","9156","3328","604","2","legacy","1024","2","48000","-16","task","5103709","odd","NA","59081","64863","61085","174665","5097","49987","40830","175169","163195","174663","175170","174540","64863","175776","57051","174039","5082","156053","Lexical Decision Task","56","44137","59","yes","1024"
"3.102203805","7.21","3","drip","word","95","95","743.85","743.85","black","no","legacy","legacy","legacy","0","uniform","1","undefined","undefined","undefined","1","j","0","0","0","0","59","0","0","0","59","0","55","59","55","0","55","3","59","0","59","Wed Feb 17 13:56:21 2021","The main experiment item","yes","Lexical_Decision_Task.osexp","C:/Users/tinod/Documents/Second year/Second Semester/Cognition and Language/Assignment","no","Andale Mono","no","18","no","white","no","yes","576","legacy","55","55","3","C:/Users/tinod/Documents/Second year/Second Semester/Cognition and Language/Assignment/subject-5103709.csv","legacy","Lentiform Loewenfeld","3.3.7","yes","yes","600bd7cfb6416f0113b04181","602110864497cf011d9c0822","0","j","NA","space","space","space","space","j","494","NA","3777","35729","9156","3328","494","2","legacy","1024","2","48000","-16","task","5103709","odd","NA","59081","64863","61085","176449","5097","49987","40830","176952","163195","176446","176953","176321","64863","177449","57051","175821","5082","156053","Lexical Decision Task","57","44631","60","yes","1024"
"3.037294994","8.64","7","roof","word","95.08196721311475","95.08196721311475","738.688524590164","738.688524590164","black","no","legacy","legacy","legacy","0","uniform","1","undefined","undefined","undefined","1","j","0","0","0","0","60","0","0","0","60","0","56","60","56","0","56","3","60","0","60","Wed Feb 17 13:56:21 2021","The main experiment item","yes","Lexical_Decision_Task.osexp","C:/Users/tinod/Documents/Second year/Second Semester/Cognition and Language/Assignment","no","Andale Mono","no","18","no","white","no","yes","576","legacy","56","56","3","C:/Users/tinod/Documents/Second year/Second Semester/Cognition and Language/Assignment/subject-5103709.csv","legacy","Lentiform Loewenfeld","3.3.7","yes","yes","600bd7cfb6416f0113b04181","602110864497cf011d9c0822","0","j","NA","space","space","space","space","j","429","NA","3777","35729","9156","3328","429","2","legacy","1024","2","48000","-16","task","5103709","odd","NA","59081","64863","61085","178173","5097","49987","40830","178678","163195","178170","178678","177959","64863","179109","57051","177459","5082","156053","Lexical Decision Task","58","45060","61","yes","1024"
"2.809559715","8.44","4","volt","word","93.54838709677419","93.54838709677419","735.0322580645161","735.0322580645161","black","no","legacy","legacy","legacy","0","uniform","0","undefined","undefined","undefined","0","j","0","0","0","0","61","0","0","0","61","0","57","61","57","0","57","3","61","0","61","Wed Feb 17 13:56:21 2021","The main experiment item","yes","Lexical_Decision_Task.osexp","C:/Users/tinod/Documents/Second year/Second Semester/Cognition and Language/Assignment","no","Andale Mono","no","18","no","white","no","yes","576","legacy","57","57","3","C:/Users/tinod/Documents/Second year/Second Semester/Cognition and Language/Assignment/subject-5103709.csv","legacy","Lentiform Loewenfeld","3.3.7","yes","yes","600bd7cfb6416f0113b04181","602110864497cf011d9c0822","0","f","NA","space","space","space","space","f","512","NA","3777","35729","9156","3328","512","2","legacy","1024","2","48000","-16","task","5103709","odd","NA","59081","64863","61085","179758","5097","49987","40830","180261","163195","179755","180263","179616","64863","180778","57051","179116","5082","156053","Lexical Decision Task","58","45572","62","yes","1024"
"3.077974404","10.41","8","tool","word","93.65079365079364","93.65079365079364","732.8253968253969","732.8253968253969","black","no","legacy","legacy","legacy","0","uniform","1","undefined","undefined","undefined","1","j","0","0","0","0","62","0","0","0","62","0","58","62","58","0","58","3","62","0","62","Wed Feb 17 13:56:21 2021","The main experiment item","yes","Lexical_Decision_Task.osexp","C:/Users/tinod/Documents/Second year/Second Semester/Cognition and Language/Assignment","no","Andale Mono","no","18","no","white","no","yes","576","legacy","58","58","3","C:/Users/tinod/Documents/Second year/Second Semester/Cognition and Language/Assignment/subject-5103709.csv","legacy","Lentiform Loewenfeld","3.3.7","yes","yes","600bd7cfb6416f0113b04181","602110864497cf011d9c0822","0","j","NA","space","space","space","space","j","596","NA","3777","35729","9156","3328","596","2","legacy","1024","2","48000","-16","task","5103709","odd","NA","59081","64863","61085","182455","5097","49987","40830","182958","163195","182453","182958","182324","64863","183557","57051","179116","5082","180824","Lexical Decision Task","59","46168","63","yes","1024"
"3.374198258","0","8","vist","non-word","92.1875","92.1875","729.78125","729.78125","black","no","legacy","legacy","legacy","0","uniform","0","undefined","undefined","undefined","0","f","0","0","0","0","63","0","0","0","63","0","59","63","59","0","59","3","63","0","63","Wed Feb 17 13:56:21 2021","The main experiment item","yes","Lexical_Decision_Task.osexp","C:/Users/tinod/Documents/Second year/Second Semester/Cognition and Language/Assignment","no","Andale Mono","no","18","no","white","no","yes","576","legacy","59","59","3","C:/Users/tinod/Documents/Second year/Second Semester/Cognition and Language/Assignment/subject-5103709.csv","legacy","Lentiform Loewenfeld","3.3.7","yes","yes","600bd7cfb6416f0113b04181","602110864497cf011d9c0822","0","j","NA","space","space","space","space","j","538","NA","3777","35729","9156","3328","538","2","legacy","1024","2","48000","-16","task","5103709","odd","NA","59081","64863","61085","184235","5097","49987","40830","184739","163195","184233","184739","184103","64863","185279","57051","183602","5082","180824","Lexical Decision Task","59","46706","64","yes","1024"
"3.076883066","0","8","mout","non-word","92.3076923076923","92.3076923076923","730.4153846153846","730.4153846153846","black","no","legacy","legacy","legacy","0","uniform","1","undefined","undefined","undefined","1","f","0","0","0","0","64","0","0","0","64","0","60","64","60","0","60","3","64","0","64","Wed Feb 17 13:56:21 2021","The main experiment item","yes","Lexical_Decision_Task.osexp","C:/Users/tinod/Documents/Second year/Second Semester/Cognition and Language/Assignment","no","Andale Mono","no","18","no","white","no","yes","576","legacy","60","60","3","C:/Users/tinod/Documents/Second year/Second Semester/Cognition and Language/Assignment/subject-5103709.csv","legacy","Lentiform Loewenfeld","3.3.7","yes","yes","600bd7cfb6416f0113b04181","602110864497cf011d9c0822","0","f","NA","space","space","space","space","f","771","NA","3777","35729","9156","3328","771","2","legacy","1024","2","48000","-16","task","5103709","odd","NA","59081","64863","61085","186989","5097","49987","40830","187492","163195","186985","187493","186826","64863","188267","57051","183602","5082","185325","Lexical Decision Task","60","47477","65","yes","1024"
"2.82129731","6.72","5","plum","word","92.42424242424242","92.42424242424242","728.1515151515151","728.1515151515151","black","no","legacy","legacy","legacy","0","uniform","1","undefined","undefined","undefined","1","j","0","0","0","0","65","0","0","0","65","0","61","65","61","0","61","3","65","0","65","Wed Feb 17 13:56:21 2021","The main experiment item","yes","Lexical_Decision_Task.osexp","C:/Users/tinod/Documents/Second year/Second Semester/Cognition and Language/Assignment","no","Andale Mono","no","18","no","white","no","yes","576","legacy","61","61","3","C:/Users/tinod/Documents/Second year/Second Semester/Cognition and Language/Assignment/subject-5103709.csv","legacy","Lentiform Loewenfeld","3.3.7","yes","yes","600bd7cfb6416f0113b04181","602110864497cf011d9c0822","0","j","NA","space","space","space","space","j","581","NA","3777","35729","9156","3328","581","2","legacy","1024","2","48000","-16","task","5103709","odd","NA","59081","64863","61085","188941","5097","49987","40830","189445","163195","188939","189445","188817","64863","190029","57051","188317","5082","185325","Lexical Decision Task","61","48058","66","yes","1024"
"3.269668578","0","7","trag","non-word","92.53731343283582","92.53731343283582","726.955223880597","726.955223880597","black","no","legacy","legacy","legacy","0","uniform","1","undefined","undefined","undefined","1","f","0","0","0","0","66","0","0","0","66","0","62","66","62","0","62","3","66","0","66","Wed Feb 17 13:56:21 2021","The main experiment item","yes","Lexical_Decision_Task.osexp","C:/Users/tinod/Documents/Second year/Second Semester/Cognition and Language/Assignment","no","Andale Mono","no","18","no","white","no","yes","576","legacy","62","62","3","C:/Users/tinod/Documents/Second year/Second Semester/Cognition and Language/Assignment/subject-5103709.csv","legacy","Lentiform Loewenfeld","3.3.7","yes","yes","600bd7cfb6416f0113b04181","602110864497cf011d9c0822","0","f","NA","space","space","space","space","f","648","NA","3777","35729","9156","3328","648","2","legacy","1024","2","48000","-16","task","5103709","odd","NA","59081","64863","61085","190707","5097","49987","40830","191210","163195","190705","191211","190574","64863","191862","57051","190074","5082","185325","Lexical Decision Task","62","48706","67","yes","1024"
"2.813801082","5.47","7","nook","word","91.17647058823529","91.17647058823529","725.6029411764706","725.6029411764706","black","no","legacy","legacy","legacy","0","uniform","0","undefined","undefined","undefined","0","j","0","0","0","0","67","0","0","0","67","0","63","67","63","0","63","3","67","0","67","Wed Feb 17 13:56:21 2021","The main experiment item","yes","Lexical_Decision_Task.osexp","C:/Users/tinod/Documents/Second year/Second Semester/Cognition and Language/Assignment","no","Andale Mono","no","18","no","white","no","yes","576","legacy","63","63","3","C:/Users/tinod/Documents/Second year/Second Semester/Cognition and Language/Assignment/subject-5103709.csv","legacy","Lentiform Loewenfeld","3.3.7","yes","yes","600bd7cfb6416f0113b04181","602110864497cf011d9c0822","0","f","NA","space","space","space","space","f","635","NA","3777","35729","9156","3328","635","2","legacy","1024","2","48000","-16","task","5103709","odd","NA","59081","64863","61085","192547","5097","49987","40830","193050","163195","192544","193051","192406","64863","193688","57051","191906","5082","185325","Lexical Decision Task","62","49341","68","yes","1024"
"3.492014979","0","9","yine","non-word","91.30434782608695","91.30434782608695","726.9565217391304","726.9565217391304","black","no","legacy","legacy","legacy","0","uniform","1","undefined","undefined","undefined","1","f","0","0","0","0","68","0","0","0","68","0","64","68","64","0","64","3","68","0","68","Wed Feb 17 13:56:21 2021","The main experiment item","yes","Lexical_Decision_Task.osexp","C:/Users/tinod/Documents/Second year/Second Semester/Cognition and Language/Assignment","no","Andale Mono","no","18","no","white","no","yes","576","legacy","64","64","3","C:/Users/tinod/Documents/Second year/Second Semester/Cognition and Language/Assignment/subject-5103709.csv","legacy","Lentiform Loewenfeld","3.3.7","yes","yes","600bd7cfb6416f0113b04181","602110864497cf011d9c0822","0","f","NA","space","space","space","space","f","819","NA","3777","35729","9156","3328","819","2","legacy","1024","2","48000","-16","task","5103709","odd","NA","59081","64863","61085","195410","5097","49987","40830","195913","163195","195404","195914","195235","64863","196736","57051","191906","5082","193735","Lexical Decision Task","63","50160","69","yes","1024"
"3.088136089","8.32","9","worm","word","91.42857142857143","91.42857142857143","724.1428571428571","724.1428571428571","black","no","legacy","legacy","legacy","0","uniform","1","undefined","undefined","undefined","1","j","0","0","0","0","69","0","0","0","69","0","65","69","65","0","65","3","69","0","69","Wed Feb 17 13:56:21 2021","The main experiment item","yes","Lexical_Decision_Task.osexp","C:/Users/tinod/Documents/Second year/Second Semester/Cognition and Language/Assignment","no","Andale Mono","no","18","no","white","no","yes","576","legacy","65","65","3","C:/Users/tinod/Documents/Second year/Second Semester/Cognition and Language/Assignment/subject-5103709.csv","legacy","Lentiform Loewenfeld","3.3.7","yes","yes","600bd7cfb6416f0113b04181","602110864497cf011d9c0822","0","j","NA","space","space","space","space","j","530","NA","3777","35729","9156","3328","530","2","legacy","1024","2","48000","-16","task","5103709","odd","NA","59081","64863","61085","197410","5097","49987","40830","197913","163195","197409","197913","197282","64863","198446","57051","196782","5082","193735","Lexical Decision Task","64","50690","70","yes","1024"
"3.495914186","0","4","peng","non-word","90.14084507042253","90.14084507042253","722.2676056338029","722.2676056338029","black","no","legacy","legacy","legacy","0","uniform","0","undefined","undefined","undefined","0","f","0","0","0","0","70","0","0","0","70","0","66","70","66","0","66","3","70","0","70","Wed Feb 17 13:56:21 2021","The main experiment item","yes","Lexical_Decision_Task.osexp","C:/Users/tinod/Documents/Second year/Second Semester/Cognition and Language/Assignment","no","Andale Mono","no","18","no","white","no","yes","576","legacy","66","66","3","C:/Users/tinod/Documents/Second year/Second Semester/Cognition and Language/Assignment/subject-5103709.csv","legacy","Lentiform Loewenfeld","3.3.7","yes","yes","600bd7cfb6416f0113b04181","602110864497cf011d9c0822","0","j","NA","space","space","space","space","j","591","NA","3777","35729","9156","3328","591","2","legacy","1024","2","48000","-16","task","5103709","odd","NA","59081","64863","61085","199117","5097","49987","40830","199621","163195","199115","199621","198994","64863","200214","57051","198494","5082","193735","Lexical Decision Task","64","51281","71","yes","1024"
"3.082307743","9.68","8","camp","word","90.27777777777777","90.27777777777777","721.625","721.625","black","no","legacy","legacy","legacy","0","uniform","1","undefined","undefined","undefined","1","j","0","0","0","0","71","0","0","0","71","0","67","71","67","0","67","3","71","0","71","Wed Feb 17 13:56:21 2021","The main experiment item","yes","Lexical_Decision_Task.osexp","C:/Users/tinod/Documents/Second year/Second Semester/Cognition and Language/Assignment","no","Andale Mono","no","18","no","white","no","yes","576","legacy","67","67","3","C:/Users/tinod/Documents/Second year/Second Semester/Cognition and Language/Assignment/subject-5103709.csv","legacy","Lentiform Loewenfeld","3.3.7","yes","yes","600bd7cfb6416f0113b04181","602110864497cf011d9c0822","0","j","NA","space","space","space","space","j","676","NA","3777","35729","9156","3328","676","2","legacy","1024","2","48000","-16","task","5103709","odd","NA","59081","64863","61085","201911","5097","49987","40830","202415","163195","201908","202415","201761","64863","203095","57051","198494","5082","200261","Lexical Decision Task","65","51957","72","yes","1024"
"2.8162413","0","5","nusk","non-word","90.41095890410959","90.41095890410959","719.931506849315","719.931506849315","black","no","legacy","legacy","legacy","0","uniform","1","undefined","undefined","undefined","1","f","0","0","0","0","72","0","0","0","72","0","68","72","68","0","68","3","72","0","72","Wed Feb 17 13:56:21 2021","The main experiment item","yes","Lexical_Decision_Task.osexp","C:/Users/tinod/Documents/Second year/Second Semester/Cognition and Language/Assignment","no","Andale Mono","no","18","no","white","no","yes","576","legacy","68","68","3","C:/Users/tinod/Documents/Second year/Second Semester/Cognition and Language/Assignment/subject-5103709.csv","legacy","Lentiform Loewenfeld","3.3.7","yes","yes","600bd7cfb6416f0113b04181","602110864497cf011d9c0822","0","f","NA","space","space","space","space","f","598","NA","3777","35729","9156","3328","598","2","legacy","1024","2","48000","-16","task","5103709","odd","NA","59081","64863","61085","203776","5097","49987","40830","204279","163195","203773","204279","203644","64863","204879","57051","203144","5082","200261","Lexical Decision Task","66","52555","73","yes","1024"
"2.744553742","0","2","nawk","non-word","90.54054054054055","90.54054054054055","719.6621621621622","719.6621621621622","black","no","legacy","legacy","legacy","0","uniform","1","undefined","undefined","undefined","1","f","0","0","0","0","73","0","0","0","73","0","69","73","69","0","69","3","73","0","73","Wed Feb 17 13:56:21 2021","The main experiment item","yes","Lexical_Decision_Task.osexp","C:/Users/tinod/Documents/Second year/Second Semester/Cognition and Language/Assignment","no","Andale Mono","no","18","no","white","no","yes","576","legacy","69","69","3","C:/Users/tinod/Documents/Second year/Second Semester/Cognition and Language/Assignment/subject-5103709.csv","legacy","Lentiform Loewenfeld","3.3.7","yes","yes","600bd7cfb6416f0113b04181","602110864497cf011d9c0822","0","f","NA","space","space","space","space","f","700","NA","3777","35729","9156","3328","700","2","legacy","1024","2","48000","-16","task","5103709","odd","NA","59081","64863","61085","205559","5097","49987","40830","206062","163195","205557","206063","205424","64863","206765","57051","204924","5082","200261","Lexical Decision Task","67","53255","74","yes","1024"
"3.20996159","0","4","clee","non-word","90.66666666666667","90.66666666666667","718.2533333333333","718.2533333333333","black","no","legacy","legacy","legacy","0","uniform","1","undefined","undefined","undefined","1","f","0","0","0","0","74","0","0","0","74","0","70","74","70","0","70","3","74","0","74","Wed Feb 17 13:56:21 2021","The main experiment item","yes","Lexical_Decision_Task.osexp","C:/Users/tinod/Documents/Second year/Second Semester/Cognition and Language/Assignment","no","Andale Mono","no","18","no","white","no","yes","576","legacy","70","70","3","C:/Users/tinod/Documents/Second year/Second Semester/Cognition and Language/Assignment/subject-5103709.csv","legacy","Lentiform Loewenfeld","3.3.7","yes","yes","600bd7cfb6416f0113b04181","602110864497cf011d9c0822","0","f","NA","space","space","space","space","f","614","NA","3777","35729","9156","3328","614","2","legacy","1024","2","48000","-16","task","5103709","odd","NA","59081","64863","61085","207401","5097","49987","40830","207904","163195","207399","207905","207279","64863","208522","57051","206779","5082","200261","Lexical Decision Task","68","53869","75","yes","1024"
"3.168890155","0","6","thet","non-word","90.78947368421052","90.78947368421052","716.4342105263158","716.4342105263158","black","no","legacy","legacy","legacy","0","uniform","1","undefined","undefined","undefined","1","f","0","0","0","0","75","0","0","0","75","0","71","75","71","0","71","3","75","0","75","Wed Feb 17 13:56:21 2021","The main experiment item","yes","Lexical_Decision_Task.osexp","C:/Users/tinod/Documents/Second year/Second Semester/Cognition and Language/Assignment","no","Andale Mono","no","18","no","white","no","yes","576","legacy","71","71","3","C:/Users/tinod/Documents/Second year/Second Semester/Cognition and Language/Assignment/subject-5103709.csv","legacy","Lentiform Loewenfeld","3.3.7","yes","yes","600bd7cfb6416f0113b04181","602110864497cf011d9c0822","0","f","NA","space","space","space","space","f","580","NA","3777","35729","9156","3328","580","2","legacy","1024","2","48000","-16","task","5103709","odd","NA","59081","64863","61085","209192","5097","49987","40830","209695","163195","209189","209695","209070","64863","210277","57051","208570","5082","200261","Lexical Decision Task","69","54449","76","yes","1024"
"2.803231716","5.26","3","kiln","word","89.6103896103896","89.6103896103896","713.6493506493506","713.6493506493506","black","no","legacy","legacy","legacy","0","uniform","0","undefined","undefined","undefined","0","j","0","0","0","0","76","0","0","0","76","0","72","76","72","0","72","3","76","0","76","Wed Feb 17 13:56:21 2021","The main experiment item","yes","Lexical_Decision_Task.osexp","C:/Users/tinod/Documents/Second year/Second Semester/Cognition and Language/Assignment","no","Andale Mono","no","18","no","white","no","yes","576","legacy","72","72","3","C:/Users/tinod/Documents/Second year/Second Semester/Cognition and Language/Assignment/subject-5103709.csv","legacy","Lentiform Loewenfeld","3.3.7","yes","yes","600bd7cfb6416f0113b04181","602110864497cf011d9c0822","0","f","NA","space","space","space","space","f","502","NA","3777","35729","9156","3328","502","2","legacy","1024","2","48000","-16","task","5103709","odd","NA","59081","64863","61085","210971","5097","49987","40830","211474","163195","210968","211474","210825","64863","211979","57051","210325","5082","200261","Lexical Decision Task","69","54951","77","yes","1024"
"3.043885998","0","9","gome","non-word","89.74358974358974","89.74358974358974","717.1282051282051","717.1282051282051","black","no","legacy","legacy","legacy","0","uniform","1","undefined","undefined","undefined","1","f","0","0","0","0","77","0","0","0","77","0","73","77","73","0","73","3","77","0","77","Wed Feb 17 13:56:21 2021","The main experiment item","yes","Lexical_Decision_Task.osexp","C:/Users/tinod/Documents/Second year/Second Semester/Cognition and Language/Assignment","no","Andale Mono","no","18","no","white","no","yes","576","legacy","73","73","3","C:/Users/tinod/Documents/Second year/Second Semester/Cognition and Language/Assignment/subject-5103709.csv","legacy","Lentiform Loewenfeld","3.3.7","yes","yes","600bd7cfb6416f0113b04181","602110864497cf011d9c0822","0","f","NA","space","space","space","space","f","985","NA","3777","35729","9156","3328","985","2","legacy","1024","2","48000","-16","task","5103709","odd","NA","59081","64863","61085","213663","5097","49987","40830","214167","163195","213660","214167","213527","64863","215155","57051","210325","5082","212027","Lexical Decision Task","70","55936","78","yes","1024"
"3.091901331","0","9","nipe","non-word","89.87341772151899","89.87341772151899","717.1392405063291","717.1392405063291","black","no","legacy","legacy","legacy","0","uniform","1","undefined","undefined","undefined","1","f","0","0","0","0","78","0","0","0","78","0","74","78","74","0","74","3","78","0","78","Wed Feb 17 13:56:21 2021","The main experiment item","yes","Lexical_Decision_Task.osexp","C:/Users/tinod/Documents/Second year/Second Semester/Cognition and Language/Assignment","no","Andale Mono","no","18","no","white","no","yes","576","legacy","74","74","3","C:/Users/tinod/Documents/Second year/Second Semester/Cognition and Language/Assignment/subject-5103709.csv","legacy","Lentiform Loewenfeld","3.3.7","yes","yes","600bd7cfb6416f0113b04181","602110864497cf011d9c0822","0","f","NA","space","space","space","space","f","718","NA","3777","35729","9156","3328","718","2","legacy","1024","2","48000","-16","task","5103709","odd","NA","59081","64863","61085","215837","5097","49987","40830","216341","163195","215835","216341","215703","64863","217062","57051","215203","5082","212027","Lexical Decision Task","71","56654","79","yes","1024"
"2.897810299","0","5","glur","non-word","90","90","717.2875","717.2875","black","no","legacy","legacy","legacy","0","uniform","1","undefined","undefined","undefined","1","f","0","0","0","0","79","0","0","0","79","0","75","79","75","0","75","3","79","0","79","Wed Feb 17 13:56:21 2021","The main experiment item","yes","Lexical_Decision_Task.osexp","C:/Users/tinod/Documents/Second year/Second Semester/Cognition and Language/Assignment","no","Andale Mono","no","18","no","white","no","yes","576","legacy","75","75","3","C:/Users/tinod/Documents/Second year/Second Semester/Cognition and Language/Assignment/subject-5103709.csv","legacy","Lentiform Loewenfeld","3.3.7","yes","yes","600bd7cfb6416f0113b04181","602110864497cf011d9c0822","0","f","NA","space","space","space","space","f","729","NA","3777","35729","9156","3328","729","2","legacy","1024","2","48000","-16","task","5103709","odd","NA","59081","64863","61085","217747","5097","49987","40830","218251","163195","217744","218252","217610","64863","218990","57051","217109","5082","212027","Lexical Decision Task","72","57383","80","yes","1024"
"2.6599162","0","2","saff","non-word","90.12345679012346","90.12345679012346","715.4444444444445","715.4444444444445","black","no","legacy","legacy","legacy","0","uniform","1","undefined","undefined","undefined","1","f","0","0","0","0","80","0","0","0","80","0","76","80","76","0","76","3","80","0","80","Wed Feb 17 13:56:21 2021","The main experiment item","yes","Lexical_Decision_Task.osexp","C:/Users/tinod/Documents/Second year/Second Semester/Cognition and Language/Assignment","no","Andale Mono","no","18","no","white","no","yes","576","legacy","76","76","3","C:/Users/tinod/Documents/Second year/Second Semester/Cognition and Language/Assignment/subject-5103709.csv","legacy","Lentiform Loewenfeld","3.3.7","yes","yes","600bd7cfb6416f0113b04181","602110864497cf011d9c0822","0","f","NA","space","space","space","space","f","568","NA","3777","35729","9156","3328","568","2","legacy","1024","2","48000","-16","task","5103709","odd","NA","59081","64863","61085","219607","5097","49987","40830","220110","163195","219605","220110","219523","64863","220681","57051","219023","5082","212027","Lexical Decision Task","73","57951","81","yes","1024"
"3.252447662","9.67","9","boat","word","90.2439024390244","90.2439024390244","714.0731707317074","714.0731707317074","black","no","legacy","legacy","legacy","0","uniform","1","undefined","undefined","undefined","1","j","0","0","0","0","81","0","0","0","81","0","77","81","77","0","77","3","81","0","81","Wed Feb 17 13:56:21 2021","The main experiment item","yes","Lexical_Decision_Task.osexp","C:/Users/tinod/Documents/Second year/Second Semester/Cognition and Language/Assignment","no","Andale Mono","no","18","no","white","no","yes","576","legacy","77","77","3","C:/Users/tinod/Documents/Second year/Second Semester/Cognition and Language/Assignment/subject-5103709.csv","legacy","Lentiform Loewenfeld","3.3.7","yes","yes","600bd7cfb6416f0113b04181","602110864497cf011d9c0822","0","j","NA","space","space","space","space","j","603","NA","3777","35729","9156","3328","603","2","legacy","1024","2","48000","-16","task","5103709","odd","NA","59081","64863","61085","221386","5097","49987","40830","221890","163195","221384","221891","221226","64863","222497","57051","220726","5082","212027","Lexical Decision Task","74","58554","82","yes","1024"
"2.696356389","0","1","pizz","non-word","90.36144578313252","90.36144578313252","714.1927710843373","714.1927710843373","black","no","legacy","legacy","legacy","0","uniform","1","undefined","undefined","undefined","1","f","0","0","0","0","82","0","0","0","82","0","78","82","78","0","78","3","82","0","82","Wed Feb 17 13:56:21 2021","The main experiment item","yes","Lexical_Decision_Task.osexp","C:/Users/tinod/Documents/Second year/Second Semester/Cognition and Language/Assignment","no","Andale Mono","no","18","no","white","no","yes","576","legacy","78","78","3","C:/Users/tinod/Documents/Second year/Second Semester/Cognition and Language/Assignment/subject-5103709.csv","legacy","Lentiform Loewenfeld","3.3.7","yes","yes","600bd7cfb6416f0113b04181","602110864497cf011d9c0822","0","f","NA","space","space","space","space","f","724","NA","3777","35729","9156","3328","724","2","legacy","1024","2","48000","-16","task","5103709","odd","NA","59081","64863","61085","223177","5097","49987","40830","223682","163195","223175","223682","223038","64863","224409","57051","222538","5082","212027","Lexical Decision Task","75","59278","83","yes","1024"
"3.372543801","9.24","8","coat","word","90.47619047619048","90.47619047619048","717.1666666666666","717.1666666666666","black","no","legacy","legacy","legacy","0","uniform","1","undefined","undefined","undefined","1","j","0","0","0","0","83","0","0","0","83","0","79","83","79","0","79","3","83","0","83","Wed Feb 17 13:56:21 2021","The main experiment item","yes","Lexical_Decision_Task.osexp","C:/Users/tinod/Documents/Second year/Second Semester/Cognition and Language/Assignment","no","Andale Mono","no","18","no","white","no","yes","576","legacy","79","79","3","C:/Users/tinod/Documents/Second year/Second Semester/Cognition and Language/Assignment/subject-5103709.csv","legacy","Lentiform Loewenfeld","3.3.7","yes","yes","600bd7cfb6416f0113b04181","602110864497cf011d9c0822","0","j","NA","space","space","space","space","j","964","NA","3777","35729","9156","3328","964","2","legacy","1024","2","48000","-16","task","5103709","odd","NA","59081","64863","61085","225085","5097","49987","40830","225588","163195","225083","225588","224949","64863","226555","57051","224449","5082","212027","Lexical Decision Task","76","60242","84","yes","1024"
"2.821076612","0","4","lult","non-word","90.58823529411765","90.58823529411765","716.3058823529411","716.3058823529411","black","no","legacy","legacy","legacy","0","uniform","1","undefined","undefined","undefined","1","f","0","0","0","0","84","0","0","0","84","0","80","84","80","0","80","3","84","0","84","Wed Feb 17 13:56:21 2021","The main experiment item","yes","Lexical_Decision_Task.osexp","C:/Users/tinod/Documents/Second year/Second Semester/Cognition and Language/Assignment","no","Andale Mono","no","18","no","white","no","yes","576","legacy","80","80","3","C:/Users/tinod/Documents/Second year/Second Semester/Cognition and Language/Assignment/subject-5103709.csv","legacy","Lentiform Loewenfeld","3.3.7","yes","yes","600bd7cfb6416f0113b04181","602110864497cf011d9c0822","0","f","NA","space","space","space","space","f","644","NA","3777","35729","9156","3328","644","2","legacy","1024","2","48000","-16","task","5103709","odd","NA","59081","64863","61085","227225","5097","49987","40830","227729","163195","227223","227731","227094","64863","228377","57051","226594","5082","212027","Lexical Decision Task","77","60886","85","yes","1024"
"3.218535505","7.85","7","goat","word","90.69767441860465","90.69767441860465","716.6976744186046","716.6976744186046","black","no","legacy","legacy","legacy","0","uniform","1","undefined","undefined","undefined","1","j","0","0","0","0","85","0","0","0","85","0","81","85","81","0","81","3","85","0","85","Wed Feb 17 13:56:21 2021","The main experiment item","yes","Lexical_Decision_Task.osexp","C:/Users/tinod/Documents/Second year/Second Semester/Cognition and Language/Assignment","no","Andale Mono","no","18","no","white","no","yes","576","legacy","81","81","3","C:/Users/tinod/Documents/Second year/Second Semester/Cognition and Language/Assignment/subject-5103709.csv","legacy","Lentiform Loewenfeld","3.3.7","yes","yes","600bd7cfb6416f0113b04181","602110864497cf011d9c0822","0","j","NA","space","space","space","space","j","750","NA","3777","35729","9156","3328","750","2","legacy","1024","2","48000","-16","task","5103709","odd","NA","59081","64863","61085","229037","5097","49987","40830","229541","163195","229035","229541","228910","64863","230294","57051","228409","5082","212027","Lexical Decision Task","78","61636","86","yes","1024"
"3.094121596","0","8","fode","non-word","90.80459770114942","90.80459770114942","714.919540229885","714.919540229885","black","no","legacy","legacy","legacy","0","uniform","1","undefined","undefined","undefined","1","f","0","0","0","0","86","0","0","0","86","0","82","86","82","0","82","3","86","0","86","Wed Feb 17 13:56:21 2021","The main experiment item","yes","Lexical_Decision_Task.osexp","C:/Users/tinod/Documents/Second year/Second Semester/Cognition and Language/Assignment","no","Andale Mono","no","18","no","white","no","yes","576","legacy","82","82","3","C:/Users/tinod/Documents/Second year/Second Semester/Cognition and Language/Assignment/subject-5103709.csv","legacy","Lentiform Loewenfeld","3.3.7","yes","yes","600bd7cfb6416f0113b04181","602110864497cf011d9c0822","0","f","NA","space","space","space","space","f","562","NA","3777","35729","9156","3328","562","2","legacy","1024","2","48000","-16","task","5103709","odd","NA","59081","64863","61085","230966","5097","49987","40830","231469","163195","230964","231470","230835","64863","232034","57051","230335","5082","212027","Lexical Decision Task","79","62198","87","yes","1024"
"2.799799878","0","4","ciff","non-word","90.9090909090909","90.9090909090909","716.25","716.25","black","no","legacy","legacy","legacy","0","uniform","1","undefined","undefined","undefined","1","f","0","0","0","0","87","0","0","0","87","0","83","87","83","0","83","3","87","0","87","Wed Feb 17 13:56:21 2021","The main experiment item","yes","Lexical_Decision_Task.osexp","C:/Users/tinod/Documents/Second year/Second Semester/Cognition and Language/Assignment","no","Andale Mono","no","18","no","white","no","yes","576","legacy","83","83","3","C:/Users/tinod/Documents/Second year/Second Semester/Cognition and Language/Assignment/subject-5103709.csv","legacy","Lentiform Loewenfeld","3.3.7","yes","yes","600bd7cfb6416f0113b04181","602110864497cf011d9c0822","0","f","NA","space","space","space","space","f","832","NA","3777","35729","9156","3328","832","2","legacy","1024","2","48000","-16","task","5103709","odd","NA","59081","64863","61085","232699","5097","49987","40830","233201","163195","232697","233203","232576","64863","234038","57051","232076","5082","212027","Lexical Decision Task","80","63030","88","yes","1024"
"2.86332286","6.71","2","feud","word","91.01123595505618","91.01123595505618","716.3932584269663","716.3932584269663","black","no","legacy","legacy","legacy","0","uniform","1","undefined","undefined","undefined","1","j","0","0","0","0","88","0","0","0","88","0","84","88","84","0","84","3","88","0","88","Wed Feb 17 13:56:21 2021","The main experiment item","yes","Lexical_Decision_Task.osexp","C:/Users/tinod/Documents/Second year/Second Semester/Cognition and Language/Assignment","no","Andale Mono","no","18","no","white","no","yes","576","legacy","84","84","3","C:/Users/tinod/Documents/Second year/Second Semester/Cognition and Language/Assignment/subject-5103709.csv","legacy","Lentiform Loewenfeld","3.3.7","yes","yes","600bd7cfb6416f0113b04181","602110864497cf011d9c0822","0","j","NA","space","space","space","space","j","729","NA","3777","35729","9156","3328","729","2","legacy","1024","2","48000","-16","task","5103709","odd","NA","59081","64863","61085","234676","5097","49987","40830","235179","163195","234673","235180","234551","64863","235912","57051","234051","5082","212027","Lexical Decision Task","81","63759","89","yes","1024"
"3.216517684","10.87","3","film","word","91.11111111111111","91.11111111111111","716.1","716.1","black","no","legacy","legacy","legacy","0","uniform","1","undefined","undefined","undefined","1","j","0","0","0","0","89","0","0","0","89","0","85","89","85","0","85","3","89","0","89","Wed Feb 17 13:56:21 2021","The main experiment item","yes","Lexical_Decision_Task.osexp","C:/Users/tinod/Documents/Second year/Second Semester/Cognition and Language/Assignment","no","Andale Mono","no","18","no","white","no","yes","576","legacy","85","85","3","C:/Users/tinod/Documents/Second year/Second Semester/Cognition and Language/Assignment/subject-5103709.csv","legacy","Lentiform Loewenfeld","3.3.7","yes","yes","600bd7cfb6416f0113b04181","602110864497cf011d9c0822","0","j","NA","space","space","space","space","j","690","NA","3777","35729","9156","3328","690","2","legacy","1024","2","48000","-16","task","5103709","odd","NA","59081","64863","61085","236586","5097","49987","40830","237089","163195","236584","237090","236455","64863","237783","57051","235955","5082","212027","Lexical Decision Task","82","64449","90","yes","1024"
