"Log_BG","Log_Freq_HAL","Ortho_N","Stimulus","Type","acc","accuracy","average_response_time","avg_rt","background","bidi","canvas_backend","clock_backend","color_backend","compensation","coordinates","correct","correct_Experimental_intro","correct_Introduction","correct_Practice_intro","correct_experimenter_kb","correct_response","count_End_Of_Experiment","count_End_Of_Practice","count_Experimental_Loop","count_Experimental_intro","count_Fixation","count_Introduction","count_Practice_Loop","count_Practice_intro","count_Stimulus","count_block_break_feedback","count_experimental_sequence","count_experimenter_kb","count_increment_trial_count","count_init_trial_count","count_logger","count_practice_sequence","count_right","count_task","count_wrong","datetime","description","disable_garbage_collection","experiment_file","experiment_path","font_bold","font_family","font_italic","font_size","font_underline","foreground","form_clicks","fullscreen","height","keyboard_backend","live_row","live_row_Experimental_Loop","live_row_Practice_Loop","logfile","mouse_backend","opensesame_codename","opensesame_version","osf_always_upload_data","osf_always_upload_experiment","osf_datanode_id","osf_id","repeat_cycle","response","response_End_Of_Experiment","response_Experimental_intro","response_Introduction","response_Practice_intro","response_block_break_feedback","response_experimenter_kb","response_time","response_time_End_Of_Experiment","response_time_Experimental_intro","response_time_Introduction","response_time_Practice_intro","response_time_block_break_feedback","response_time_experimenter_kb","round_decimals","sampler_backend","sound_buf_size","sound_channels","sound_freq","sound_sample_size","start","subject_nr","subject_parity","time_End_Of_Experiment","time_End_Of_Practice","time_Experimental_Loop","time_Experimental_intro","time_Fixation","time_Introduction","time_Practice_Loop","time_Practice_intro","time_Stimulus","time_block_break_feedback","time_experimental_sequence","time_experimenter_kb","time_increment_trial_count","time_init_trial_count","time_logger","time_practice_sequence","time_right","time_task","time_wrong","title","total_correct","total_response_time","total_responses","uniform_coordinates","width"
"3.003891166","8.05","2","frog","word","100","100","711","711","black","no","legacy","legacy","legacy","0","uniform","1","undefined","undefined","undefined","1","j","0","0","0","0","4","0","0","0","4","NA","0","4","0","0","0","3","4","0","4","Wed Feb 17 11:54:24 2021","The main experiment item","yes","Lexical_Decision_Task.osexp","C:/Users/jrose/Documents/PSYCHOLOGY","no","Andale Mono","no","18","no","white","no","yes","576","legacy","0","0","3","C:/Users/jrose/Documents/PSYCHOLOGY/subject-5226187.csv","legacy","Lentiform Loewenfeld","3.3.7","yes","yes","600bd7cfb6416f0113b04181","602110864497cf011d9c0822","0","j","NA","space","space","space","NA","j","524","NA","4581","12849","4123","NA","524","2","legacy","1024","2","48000","-16","task","5226187","odd","NA","52910","59493","54911","59596","28299","45292","41168","60097","NA","59594","60097","NA","59493","60622","51260","52385","26971","NA","Lexical Decision Task","5","3555","5","yes","1024"
"3.1430148","7.92","8","bald","word","100","100","698.5","698.5","black","no","legacy","legacy","legacy","0","uniform","1","undefined","undefined","undefined","1","j","0","0","0","0","5","0","0","0","5","NA","1","5","1","0","1","3","5","0","5","Wed Feb 17 11:54:24 2021","The main experiment item","yes","Lexical_Decision_Task.osexp","C:/Users/jrose/Documents/PSYCHOLOGY","no","Andale Mono","no","18","no","white","no","yes","576","legacy","1","1","3","C:/Users/jrose/Documents/PSYCHOLOGY/subject-5226187.csv","legacy","Lentiform Loewenfeld","3.3.7","yes","yes","600bd7cfb6416f0113b04181","602110864497cf011d9c0822","0","j","NA","space","space","space","NA","j","636","NA","4581","12849","4123","NA","636","2","legacy","1024","2","48000","-16","task","5226187","odd","NA","52910","59493","54911","61744","28299","45292","41168","62246","NA","61742","62246","61525","59493","62882","51260","61025","26971","NA","Lexical Decision Task","6","4191","6","yes","1024"
"3.259832699","0","9","flar","non-word","100","100","713","713","black","no","legacy","legacy","legacy","0","uniform","1","undefined","undefined","undefined","1","f","0","0","0","0","6","0","0","0","6","NA","2","6","2","0","2","3","6","0","6","Wed Feb 17 11:54:24 2021","The main experiment item","yes","Lexical_Decision_Task.osexp","C:/Users/jrose/Documents/PSYCHOLOGY","no","Andale Mono","no","18","no","white","no","yes","576","legacy","2","2","3","C:/Users/jrose/Documents/PSYCHOLOGY/subject-5226187.csv","legacy","Lentiform Loewenfeld","3.3.7","yes","yes","600bd7cfb6416f0113b04181","602110864497cf011d9c0822","0","f","NA","space","space","space","NA","f","800","NA","4581","12849","4123","NA","800","2","legacy","1024","2","48000","-16","task","5226187","odd","NA","52910","59493","54911","63481","28299","45292","41168","63982","NA","63479","63982","63390","59493","64783","51260","62890","26971","NA","Lexical Decision Task","7","4991","7","yes","1024"
"2.979548375","8.71","4","soup","word","100","100","686.375","686.375","black","no","legacy","legacy","legacy","0","uniform","1","undefined","undefined","undefined","1","j","0","0","0","0","7","0","0","0","7","NA","3","7","3","0","3","3","7","0","7","Wed Feb 17 11:54:24 2021","The main experiment item","yes","Lexical_Decision_Task.osexp","C:/Users/jrose/Documents/PSYCHOLOGY","no","Andale Mono","no","18","no","white","no","yes","576","legacy","3","3","3","C:/Users/jrose/Documents/PSYCHOLOGY/subject-5226187.csv","legacy","Lentiform Loewenfeld","3.3.7","yes","yes","600bd7cfb6416f0113b04181","602110864497cf011d9c0822","0","j","NA","space","space","space","NA","j","500","NA","4581","12849","4123","NA","500","2","legacy","1024","2","48000","-16","task","5226187","odd","NA","52910","59493","54911","65368","28299","45292","41168","65871","NA","65366","65872","65291","59493","66373","51260","64791","26971","NA","Lexical Decision Task","8","5491","8","yes","1024"
"3.225825991","0","7","talm","non-word","100","100","688.7777777777778","688.7777777777778","black","no","legacy","legacy","legacy","0","uniform","1","undefined","undefined","undefined","1","f","0","0","0","0","8","0","0","0","8","NA","4","8","4","0","4","3","8","0","8","Wed Feb 17 11:54:24 2021","The main experiment item","yes","Lexical_Decision_Task.osexp","C:/Users/jrose/Documents/PSYCHOLOGY","no","Andale Mono","no","18","no","white","no","yes","576","legacy","4","4","3","C:/Users/jrose/Documents/PSYCHOLOGY/subject-5226187.csv","legacy","Lentiform Loewenfeld","3.3.7","yes","yes","600bd7cfb6416f0113b04181","602110864497cf011d9c0822","0","f","NA","space","space","space","NA","f","708","NA","4581","12849","4123","NA","708","2","legacy","1024","2","48000","-16","task","5226187","odd","NA","52910","59493","54911","66962","28299","45292","41168","67463","NA","66960","67463","66881","59493","68172","51260","66381","26971","NA","Lexical Decision Task","9","6199","9","yes","1024"
"3.495914186","0","4","peng","non-word","90","90","672.5","672.5","black","no","legacy","legacy","legacy","0","uniform","0","undefined","undefined","undefined","0","f","0","0","0","0","9","0","0","0","9","NA","5","9","5","0","5","3","9","0","9","Wed Feb 17 11:54:24 2021","The main experiment item","yes","Lexical_Decision_Task.osexp","C:/Users/jrose/Documents/PSYCHOLOGY","no","Andale Mono","no","18","no","white","no","yes","576","legacy","5","5","3","C:/Users/jrose/Documents/PSYCHOLOGY/subject-5226187.csv","legacy","Lentiform Loewenfeld","3.3.7","yes","yes","600bd7cfb6416f0113b04181","602110864497cf011d9c0822","0","j","NA","space","space","space","NA","j","526","NA","4581","12849","4123","NA","526","2","legacy","1024","2","48000","-16","task","5226187","odd","NA","52910","59493","54911","68752","28299","45292","41168","69256","NA","68751","69256","68680","59493","69782","51260","68179","26971","NA","Lexical Decision Task","9","6725","10","yes","1024"
"3.076883066","0","8","mout","non-word","90.9090909090909","90.9090909090909","675","675","black","no","legacy","legacy","legacy","0","uniform","1","undefined","undefined","undefined","1","f","0","0","0","0","10","0","0","0","10","NA","6","10","6","0","6","3","10","0","10","Wed Feb 17 11:54:24 2021","The main experiment item","yes","Lexical_Decision_Task.osexp","C:/Users/jrose/Documents/PSYCHOLOGY","no","Andale Mono","no","18","no","white","no","yes","576","legacy","6","6","3","C:/Users/jrose/Documents/PSYCHOLOGY/subject-5226187.csv","legacy","Lentiform Loewenfeld","3.3.7","yes","yes","600bd7cfb6416f0113b04181","602110864497cf011d9c0822","0","f","NA","space","space","space","NA","f","700","NA","4581","12849","4123","NA","700","2","legacy","1024","2","48000","-16","task","5226187","odd","NA","52910","59493","54911","71351","28299","45292","41168","71852","NA","71350","71852","71290","59493","72552","51260","68179","26971","69790","Lexical Decision Task","10","7425","11","yes","1024"
"3.102203805","7.21","3","drip","word","91.66666666666667","91.66666666666667","679.0833333333334","679.0833333333334","black","no","legacy","legacy","legacy","0","uniform","1","undefined","undefined","undefined","1","j","0","0","0","0","11","0","0","0","11","NA","7","11","7","0","7","3","11","0","11","Wed Feb 17 11:54:24 2021","The main experiment item","yes","Lexical_Decision_Task.osexp","C:/Users/jrose/Documents/PSYCHOLOGY","no","Andale Mono","no","18","no","white","no","yes","576","legacy","7","7","3","C:/Users/jrose/Documents/PSYCHOLOGY/subject-5226187.csv","legacy","Lentiform Loewenfeld","3.3.7","yes","yes","600bd7cfb6416f0113b04181","602110864497cf011d9c0822","0","j","NA","space","space","space","NA","j","724","NA","4581","12849","4123","NA","724","2","legacy","1024","2","48000","-16","task","5226187","odd","NA","52910","59493","54911","73146","28299","45292","41168","73648","NA","73143","73648","73058","59493","74372","51260","72558","26971","69790","Lexical Decision Task","11","8149","12","yes","1024"
"2.924968096","0","4","phim","non-word","92.3076923076923","92.3076923076923","679.9230769230769","679.9230769230769","black","no","legacy","legacy","legacy","0","uniform","1","undefined","undefined","undefined","1","f","0","0","0","0","12","0","0","0","12","NA","8","12","8","0","8","3","12","0","12","Wed Feb 17 11:54:24 2021","The main experiment item","yes","Lexical_Decision_Task.osexp","C:/Users/jrose/Documents/PSYCHOLOGY","no","Andale Mono","no","18","no","white","no","yes","576","legacy","8","8","3","C:/Users/jrose/Documents/PSYCHOLOGY/subject-5226187.csv","legacy","Lentiform Loewenfeld","3.3.7","yes","yes","600bd7cfb6416f0113b04181","602110864497cf011d9c0822","0","f","NA","space","space","space","NA","f","690","NA","4581","12849","4123","NA","690","2","legacy","1024","2","48000","-16","task","5226187","odd","NA","52910","59493","54911","74960","28299","45292","41168","75462","NA","74958","75462","74883","59493","76153","51260","74383","26971","69790","Lexical Decision Task","12","8839","13","yes","1024"
"3.067193647","6.73","6","raft","word","92.85714285714286","92.85714285714286","680.1428571428571","680.1428571428571","black","no","legacy","legacy","legacy","0","uniform","1","undefined","undefined","undefined","1","j","0","0","0","0","13","0","0","0","13","NA","9","13","9","0","9","3","13","0","13","Wed Feb 17 11:54:24 2021","The main experiment item","yes","Lexical_Decision_Task.osexp","C:/Users/jrose/Documents/PSYCHOLOGY","no","Andale Mono","no","18","no","white","no","yes","576","legacy","9","9","3","C:/Users/jrose/Documents/PSYCHOLOGY/subject-5226187.csv","legacy","Lentiform Loewenfeld","3.3.7","yes","yes","600bd7cfb6416f0113b04181","602110864497cf011d9c0822","0","j","NA","space","space","space","NA","j","683","NA","4581","12849","4123","NA","683","2","legacy","1024","2","48000","-16","task","5226187","odd","NA","52910","59493","54911","76728","28299","45292","41168","77229","NA","76726","77229","76660","59493","77912","51260","76159","26971","69790","Lexical Decision Task","13","9522","14","yes","1024"
"2.82129731","6.72","5","plum","word","93.33333333333333","93.33333333333333","673","673","black","no","legacy","legacy","legacy","0","uniform","1","undefined","undefined","undefined","1","j","0","0","0","0","14","0","0","0","14","NA","10","14","10","0","10","3","14","0","14","Wed Feb 17 11:54:24 2021","The main experiment item","yes","Lexical_Decision_Task.osexp","C:/Users/jrose/Documents/PSYCHOLOGY","no","Andale Mono","no","18","no","white","no","yes","576","legacy","10","10","3","C:/Users/jrose/Documents/PSYCHOLOGY/subject-5226187.csv","legacy","Lentiform Loewenfeld","3.3.7","yes","yes","600bd7cfb6416f0113b04181","602110864497cf011d9c0822","0","j","NA","space","space","space","NA","j","573","NA","4581","12849","4123","NA","573","2","legacy","1024","2","48000","-16","task","5226187","odd","NA","52910","59493","54911","78488","28299","45292","41168","78989","NA","78487","78989","78419","59493","79562","51260","77919","26971","69790","Lexical Decision Task","14","10095","15","yes","1024"
"2.668385917","5.48","4","twig","word","93.75","93.75","666.6875","666.6875","black","no","legacy","legacy","legacy","0","uniform","1","undefined","undefined","undefined","1","j","0","0","0","0","15","0","0","0","15","NA","11","15","11","0","11","3","15","0","15","Wed Feb 17 11:54:24 2021","The main experiment item","yes","Lexical_Decision_Task.osexp","C:/Users/jrose/Documents/PSYCHOLOGY","no","Andale Mono","no","18","no","white","no","yes","576","legacy","11","11","3","C:/Users/jrose/Documents/PSYCHOLOGY/subject-5226187.csv","legacy","Lentiform Loewenfeld","3.3.7","yes","yes","600bd7cfb6416f0113b04181","602110864497cf011d9c0822","0","j","NA","space","space","space","NA","j","572","NA","4581","12849","4123","NA","572","2","legacy","1024","2","48000","-16","task","5226187","odd","NA","52910","59493","54911","80144","28299","45292","41168","80649","NA","80142","80650","80069","59493","81223","51260","79569","26971","69790","Lexical Decision Task","15","10667","16","yes","1024"
"3.121778632","0","9","sark","non-word","94.11764705882354","94.11764705882354","672.6470588235294","672.6470588235294","black","no","legacy","legacy","legacy","0","uniform","1","undefined","undefined","undefined","1","f","0","0","0","0","16","0","0","0","16","NA","12","16","12","0","12","3","16","0","16","Wed Feb 17 11:54:24 2021","The main experiment item","yes","Lexical_Decision_Task.osexp","C:/Users/jrose/Documents/PSYCHOLOGY","no","Andale Mono","no","18","no","white","no","yes","576","legacy","12","12","3","C:/Users/jrose/Documents/PSYCHOLOGY/subject-5226187.csv","legacy","Lentiform Loewenfeld","3.3.7","yes","yes","600bd7cfb6416f0113b04181","602110864497cf011d9c0822","0","f","NA","space","space","space","NA","f","768","NA","4581","12849","4123","NA","768","2","legacy","1024","2","48000","-16","task","5226187","odd","NA","52910","59493","54911","81802","28299","45292","41168","82304","NA","81801","82304","81732","59493","83072","51260","81232","26971","69790","Lexical Decision Task","16","11435","17","yes","1024"
"3.252447662","9.67","9","boat","word","94.44444444444444","94.44444444444444","669.4444444444445","669.4444444444445","black","no","legacy","legacy","legacy","0","uniform","1","undefined","undefined","undefined","1","j","0","0","0","0","17","0","0","0","17","NA","13","17","13","0","13","3","17","0","17","Wed Feb 17 11:54:24 2021","The main experiment item","yes","Lexical_Decision_Task.osexp","C:/Users/jrose/Documents/PSYCHOLOGY","no","Andale Mono","no","18","no","white","no","yes","576","legacy","13","13","3","C:/Users/jrose/Documents/PSYCHOLOGY/subject-5226187.csv","legacy","Lentiform Loewenfeld","3.3.7","yes","yes","600bd7cfb6416f0113b04181","602110864497cf011d9c0822","0","j","NA","space","space","space","NA","j","615","NA","4581","12849","4123","NA","615","2","legacy","1024","2","48000","-16","task","5226187","odd","NA","52910","59493","54911","83646","28299","45292","41168","84147","NA","83645","84147","83579","59493","84762","51260","83078","26971","69790","Lexical Decision Task","17","12050","18","yes","1024"
"2.996511672","0","7","hoil","non-word","94.73684210526316","94.73684210526316","669.7894736842105","669.7894736842105","black","no","legacy","legacy","legacy","0","uniform","1","undefined","undefined","undefined","1","f","0","0","0","0","18","0","0","0","18","NA","14","18","14","0","14","3","18","0","18","Wed Feb 17 11:54:24 2021","The main experiment item","yes","Lexical_Decision_Task.osexp","C:/Users/jrose/Documents/PSYCHOLOGY","no","Andale Mono","no","18","no","white","no","yes","576","legacy","14","14","3","C:/Users/jrose/Documents/PSYCHOLOGY/subject-5226187.csv","legacy","Lentiform Loewenfeld","3.3.7","yes","yes","600bd7cfb6416f0113b04181","602110864497cf011d9c0822","0","f","NA","space","space","space","NA","f","676","NA","4581","12849","4123","NA","676","2","legacy","1024","2","48000","-16","task","5226187","odd","NA","52910","59493","54911","85335","28299","45292","41168","85836","NA","85333","85836","85269","59493","86512","51260","84769","26971","69790","Lexical Decision Task","18","12726","19","yes","1024"
"2.893578687","8.69","3","surf","word","95","95","666.45","666.45","black","no","legacy","legacy","legacy","0","uniform","1","undefined","undefined","undefined","1","j","0","0","0","0","19","0","0","0","19","NA","15","19","15","0","15","3","19","0","19","Wed Feb 17 11:54:24 2021","The main experiment item","yes","Lexical_Decision_Task.osexp","C:/Users/jrose/Documents/PSYCHOLOGY","no","Andale Mono","no","18","no","white","no","yes","576","legacy","15","15","3","C:/Users/jrose/Documents/PSYCHOLOGY/subject-5226187.csv","legacy","Lentiform Loewenfeld","3.3.7","yes","yes","600bd7cfb6416f0113b04181","602110864497cf011d9c0822","0","j","NA","space","space","space","NA","j","603","NA","4581","12849","4123","NA","603","2","legacy","1024","2","48000","-16","task","5226187","odd","NA","52910","59493","54911","87087","28299","45292","41168","87588","NA","87086","87589","87020","59493","88192","51260","86520","26971","69790","Lexical Decision Task","19","13329","20","yes","1024"
"2.728085817","10.02","9","bike","word","95.23809523809524","95.23809523809524","657.4285714285714","657.4285714285714","black","no","legacy","legacy","legacy","0","uniform","1","undefined","undefined","undefined","1","j","0","0","0","0","20","0","0","0","20","NA","16","20","16","0","16","3","20","0","20","Wed Feb 17 11:54:24 2021","The main experiment item","yes","Lexical_Decision_Task.osexp","C:/Users/jrose/Documents/PSYCHOLOGY","no","Andale Mono","no","18","no","white","no","yes","576","legacy","16","16","3","C:/Users/jrose/Documents/PSYCHOLOGY/subject-5226187.csv","legacy","Lentiform Loewenfeld","3.3.7","yes","yes","600bd7cfb6416f0113b04181","602110864497cf011d9c0822","0","j","NA","space","space","space","NA","j","477","NA","4581","12849","4123","NA","477","2","legacy","1024","2","48000","-16","task","5226187","odd","NA","52910","59493","54911","88764","28299","45292","41168","89265","NA","88762","89265","88699","59493","89742","51260","88199","26971","69790","Lexical Decision Task","20","13806","21","yes","1024"
"2.971428938","9.86","7","spot","word","95.45454545454545","95.45454545454545","646.4545454545455","646.4545454545455","black","no","legacy","legacy","legacy","0","uniform","1","undefined","undefined","undefined","1","j","0","0","0","0","21","0","0","0","21","NA","17","21","17","0","17","3","21","0","21","Wed Feb 17 11:54:24 2021","The main experiment item","yes","Lexical_Decision_Task.osexp","C:/Users/jrose/Documents/PSYCHOLOGY","no","Andale Mono","no","18","no","white","no","yes","576","legacy","17","17","3","C:/Users/jrose/Documents/PSYCHOLOGY/subject-5226187.csv","legacy","Lentiform Loewenfeld","3.3.7","yes","yes","600bd7cfb6416f0113b04181","602110864497cf011d9c0822","0","j","NA","space","space","space","NA","j","416","NA","4581","12849","4123","NA","416","2","legacy","1024","2","48000","-16","task","5226187","odd","NA","52910","59493","54911","90315","28299","45292","41168","90816","NA","90314","90817","90250","59493","91233","51260","89750","26971","69790","Lexical Decision Task","21","14222","22","yes","1024"
"3.374198258","0","8","vist","non-word","91.30434782608695","91.30434782608695","636.4347826086956","636.4347826086956","black","no","legacy","legacy","legacy","0","uniform","0","undefined","undefined","undefined","0","f","0","0","0","0","22","0","0","0","22","NA","18","22","18","0","18","3","22","0","22","Wed Feb 17 11:54:24 2021","The main experiment item","yes","Lexical_Decision_Task.osexp","C:/Users/jrose/Documents/PSYCHOLOGY","no","Andale Mono","no","18","no","white","no","yes","576","legacy","18","18","3","C:/Users/jrose/Documents/PSYCHOLOGY/subject-5226187.csv","legacy","Lentiform Loewenfeld","3.3.7","yes","yes","600bd7cfb6416f0113b04181","602110864497cf011d9c0822","0","j","NA","space","space","space","NA","j","416","NA","4581","12849","4123","NA","416","2","legacy","1024","2","48000","-16","task","5226187","odd","NA","52910","59493","54911","91804","28299","45292","41168","92306","NA","91802","92306","91743","59493","92723","51260","91242","26971","69790","Lexical Decision Task","21","14638","23","yes","1024"
"3.208978517","10.33","4","fish","word","91.66666666666667","91.66666666666667","631.8333333333334","631.8333333333334","black","no","legacy","legacy","legacy","0","uniform","1","undefined","undefined","undefined","1","j","0","0","0","0","23","0","0","0","23","NA","19","23","19","0","19","3","23","0","23","Wed Feb 17 11:54:24 2021","The main experiment item","yes","Lexical_Decision_Task.osexp","C:/Users/jrose/Documents/PSYCHOLOGY","no","Andale Mono","no","18","no","white","no","yes","576","legacy","19","19","3","C:/Users/jrose/Documents/PSYCHOLOGY/subject-5226187.csv","legacy","Lentiform Loewenfeld","3.3.7","yes","yes","600bd7cfb6416f0113b04181","602110864497cf011d9c0822","0","j","NA","space","space","space","NA","j","526","NA","4581","12849","4123","NA","526","2","legacy","1024","2","48000","-16","task","5226187","odd","NA","52910","59493","54911","94296","28299","45292","41168","94797","NA","94295","94797","94229","59493","95323","51260","91242","26971","92729","Lexical Decision Task","22","15164","24","yes","1024"
"2.664328519","0","4","plux","non-word","92","92","629.04","629.04","black","no","legacy","legacy","legacy","0","uniform","1","undefined","undefined","undefined","1","f","0","0","0","0","24","0","0","0","24","NA","20","24","20","0","20","3","24","0","24","Wed Feb 17 11:54:24 2021","The main experiment item","yes","Lexical_Decision_Task.osexp","C:/Users/jrose/Documents/PSYCHOLOGY","no","Andale Mono","no","18","no","white","no","yes","576","legacy","20","20","3","C:/Users/jrose/Documents/PSYCHOLOGY/subject-5226187.csv","legacy","Lentiform Loewenfeld","3.3.7","yes","yes","600bd7cfb6416f0113b04181","602110864497cf011d9c0822","0","f","NA","space","space","space","NA","f","562","NA","4581","12849","4123","NA","562","2","legacy","1024","2","48000","-16","task","5226187","odd","NA","52910","59493","54911","95899","28299","45292","41168","96401","NA","95898","96401","95834","59493","96963","51260","95334","26971","92729","Lexical Decision Task","23","15726","25","yes","1024"
"3.218535505","7.85","7","goat","word","92.3076923076923","92.3076923076923","622.5","622.5","black","no","legacy","legacy","legacy","0","uniform","1","undefined","undefined","undefined","1","j","0","0","0","0","25","0","0","0","25","NA","21","25","21","0","21","3","25","0","25","Wed Feb 17 11:54:24 2021","The main experiment item","yes","Lexical_Decision_Task.osexp","C:/Users/jrose/Documents/PSYCHOLOGY","no","Andale Mono","no","18","no","white","no","yes","576","legacy","21","21","3","C:/Users/jrose/Documents/PSYCHOLOGY/subject-5226187.csv","legacy","Lentiform Loewenfeld","3.3.7","yes","yes","600bd7cfb6416f0113b04181","602110864497cf011d9c0822","0","j","NA","space","space","space","NA","j","459","NA","4581","12849","4123","NA","459","2","legacy","1024","2","48000","-16","task","5226187","odd","NA","52910","59493","54911","97533","28299","45292","41168","98034","NA","97531","98034","97472","59493","98494","51260","96972","26971","92729","Lexical Decision Task","24","16185","26","yes","1024"
"3.137775856","7.39","5","comb","word","92.5925925925926","92.5925925925926","625","625","black","no","legacy","legacy","legacy","0","uniform","1","undefined","undefined","undefined","1","j","0","0","0","0","26","0","0","0","26","NA","22","26","22","0","22","3","26","0","26","Wed Feb 17 11:54:24 2021","The main experiment item","yes","Lexical_Decision_Task.osexp","C:/Users/jrose/Documents/PSYCHOLOGY","no","Andale Mono","no","18","no","white","no","yes","576","legacy","22","22","3","C:/Users/jrose/Documents/PSYCHOLOGY/subject-5226187.csv","legacy","Lentiform Loewenfeld","3.3.7","yes","yes","600bd7cfb6416f0113b04181","602110864497cf011d9c0822","0","j","NA","space","space","space","NA","j","690","NA","4581","12849","4123","NA","690","2","legacy","1024","2","48000","-16","task","5226187","odd","NA","52910","59493","54911","99061","28299","45292","41168","99562","NA","99060","99563","99000","59493","100253","51260","98500","26971","92729","Lexical Decision Task","25","16875","27","yes","1024"
"3.347850856","10.51","2","rich","word","92.85714285714286","92.85714285714286","622.7142857142857","622.7142857142857","black","no","legacy","legacy","legacy","0","uniform","1","undefined","undefined","undefined","1","j","0","0","0","0","27","0","0","0","27","NA","23","27","23","0","23","3","27","0","27","Wed Feb 17 11:54:24 2021","The main experiment item","yes","Lexical_Decision_Task.osexp","C:/Users/jrose/Documents/PSYCHOLOGY","no","Andale Mono","no","18","no","white","no","yes","576","legacy","23","23","3","C:/Users/jrose/Documents/PSYCHOLOGY/subject-5226187.csv","legacy","Lentiform Loewenfeld","3.3.7","yes","yes","600bd7cfb6416f0113b04181","602110864497cf011d9c0822","0","j","NA","space","space","space","NA","j","561","NA","4581","12849","4123","NA","561","2","legacy","1024","2","48000","-16","task","5226187","odd","NA","52910","59493","54911","100818","28299","45292","41168","101321","NA","100816","101322","100759","59493","101884","51260","100259","26971","92729","Lexical Decision Task","26","17436","28","yes","1024"
"2.782472624","10.55","2","huge","word","93.10344827586206","93.10344827586206","618.5862068965517","618.5862068965517","black","no","legacy","legacy","legacy","0","uniform","1","undefined","undefined","undefined","1","j","0","0","0","0","28","0","0","0","28","NA","24","28","24","0","24","3","28","0","28","Wed Feb 17 11:54:24 2021","The main experiment item","yes","Lexical_Decision_Task.osexp","C:/Users/jrose/Documents/PSYCHOLOGY","no","Andale Mono","no","18","no","white","no","yes","576","legacy","24","24","3","C:/Users/jrose/Documents/PSYCHOLOGY/subject-5226187.csv","legacy","Lentiform Loewenfeld","3.3.7","yes","yes","600bd7cfb6416f0113b04181","602110864497cf011d9c0822","0","j","NA","space","space","space","NA","j","503","NA","4581","12849","4123","NA","503","2","legacy","1024","2","48000","-16","task","5226187","odd","NA","52910","59493","54911","102458","28299","45292","41168","102960","NA","102457","102960","102393","59493","103464","51260","101892","26971","92729","Lexical Decision Task","27","17939","29","yes","1024"
"2.821076612","0","4","lult","non-word","93.33333333333333","93.33333333333333","624.6","624.6","black","no","legacy","legacy","legacy","0","uniform","1","undefined","undefined","undefined","1","f","0","0","0","0","29","0","0","0","29","NA","25","29","25","0","25","3","29","0","29","Wed Feb 17 11:54:24 2021","The main experiment item","yes","Lexical_Decision_Task.osexp","C:/Users/jrose/Documents/PSYCHOLOGY","no","Andale Mono","no","18","no","white","no","yes","576","legacy","25","25","3","C:/Users/jrose/Documents/PSYCHOLOGY/subject-5226187.csv","legacy","Lentiform Loewenfeld","3.3.7","yes","yes","600bd7cfb6416f0113b04181","602110864497cf011d9c0822","0","f","NA","space","space","space","NA","f","799","NA","4581","12849","4123","NA","799","2","legacy","1024","2","48000","-16","task","5226187","odd","NA","52910","59493","54911","104033","28299","45292","41168","104534","NA","104031","104534","103971","59493","105333","51260","103471","26971","92729","Lexical Decision Task","28","18738","30","yes","1024"
"2.594027722","9.08","8","skip","word","93.54838709677419","93.54838709677419","621.516129032258","621.516129032258","black","no","legacy","legacy","legacy","0","uniform","1","undefined","undefined","undefined","1","j","0","0","0","0","30","0","0","0","30","NA","26","30","26","0","26","3","30","0","30","Wed Feb 17 11:54:24 2021","The main experiment item","yes","Lexical_Decision_Task.osexp","C:/Users/jrose/Documents/PSYCHOLOGY","no","Andale Mono","no","18","no","white","no","yes","576","legacy","26","26","3","C:/Users/jrose/Documents/PSYCHOLOGY/subject-5226187.csv","legacy","Lentiform Loewenfeld","3.3.7","yes","yes","600bd7cfb6416f0113b04181","602110864497cf011d9c0822","0","j","NA","space","space","space","NA","j","529","NA","4581","12849","4123","NA","529","2","legacy","1024","2","48000","-16","task","5226187","odd","NA","52910","59493","54911","105903","28299","45292","41168","106404","NA","105901","106404","105839","59493","106933","51260","105339","26971","92729","Lexical Decision Task","29","19267","31","yes","1024"
"2.838639236","0","4","furg","non-word","93.75","93.75","623.3125","623.3125","black","no","legacy","legacy","legacy","0","uniform","1","undefined","undefined","undefined","1","f","0","0","0","0","31","0","0","0","31","NA","27","31","27","0","27","3","31","0","31","Wed Feb 17 11:54:24 2021","The main experiment item","yes","Lexical_Decision_Task.osexp","C:/Users/jrose/Documents/PSYCHOLOGY","no","Andale Mono","no","18","no","white","no","yes","576","legacy","27","27","3","C:/Users/jrose/Documents/PSYCHOLOGY/subject-5226187.csv","legacy","Lentiform Loewenfeld","3.3.7","yes","yes","600bd7cfb6416f0113b04181","602110864497cf011d9c0822","0","f","NA","space","space","space","NA","f","679","NA","4581","12849","4123","NA","679","2","legacy","1024","2","48000","-16","task","5226187","odd","NA","52910","59493","54911","107503","28299","45292","41168","108004","NA","107501","108004","107442","59493","108683","51260","106942","26971","92729","Lexical Decision Task","30","19946","32","yes","1024"
"2.814027728","8.2","4","foam","word","93.93939393939394","93.93939393939394","623.3939393939394","623.3939393939394","black","no","legacy","legacy","legacy","0","uniform","1","undefined","undefined","undefined","1","j","0","0","0","0","32","0","0","0","32","NA","28","32","28","0","28","3","32","0","32","Wed Feb 17 11:54:24 2021","The main experiment item","yes","Lexical_Decision_Task.osexp","C:/Users/jrose/Documents/PSYCHOLOGY","no","Andale Mono","no","18","no","white","no","yes","576","legacy","28","28","3","C:/Users/jrose/Documents/PSYCHOLOGY/subject-5226187.csv","legacy","Lentiform Loewenfeld","3.3.7","yes","yes","600bd7cfb6416f0113b04181","602110864497cf011d9c0822","0","j","NA","space","space","space","NA","j","626","NA","4581","12849","4123","NA","626","2","legacy","1024","2","48000","-16","task","5226187","odd","NA","52910","59493","54911","109255","28299","45292","41168","109757","NA","109253","109757","109197","59493","110383","51260","108697","26971","92729","Lexical Decision Task","31","20572","33","yes","1024"
"3.378276681","6.39","8","bran","word","91.17647058823529","91.17647058823529","622.4117647058823","622.4117647058823","black","no","legacy","legacy","legacy","0","uniform","0","undefined","undefined","undefined","0","j","0","0","0","0","33","0","0","0","33","NA","29","33","29","0","29","3","33","0","33","Wed Feb 17 11:54:24 2021","The main experiment item","yes","Lexical_Decision_Task.osexp","C:/Users/jrose/Documents/PSYCHOLOGY","no","Andale Mono","no","18","no","white","no","yes","576","legacy","29","29","3","C:/Users/jrose/Documents/PSYCHOLOGY/subject-5226187.csv","legacy","Lentiform Loewenfeld","3.3.7","yes","yes","600bd7cfb6416f0113b04181","602110864497cf011d9c0822","0","f","NA","space","space","space","NA","f","590","NA","4581","12849","4123","NA","590","2","legacy","1024","2","48000","-16","task","5226187","odd","NA","52910","59493","54911","110951","28299","45292","41168","111452","NA","110950","111452","110889","59493","112043","51260","110389","26971","92729","Lexical Decision Task","31","21162","34","yes","1024"
"2.884795364","0","6","flob","non-word","91.42857142857143","91.42857142857143","634.2285714285714","634.2285714285714","black","no","legacy","legacy","legacy","0","uniform","1","undefined","undefined","undefined","1","f","0","0","0","0","34","0","0","0","34","NA","30","34","30","0","30","3","34","0","34","Wed Feb 17 11:54:24 2021","The main experiment item","yes","Lexical_Decision_Task.osexp","C:/Users/jrose/Documents/PSYCHOLOGY","no","Andale Mono","no","18","no","white","no","yes","576","legacy","30","30","3","C:/Users/jrose/Documents/PSYCHOLOGY/subject-5226187.csv","legacy","Lentiform Loewenfeld","3.3.7","yes","yes","600bd7cfb6416f0113b04181","602110864497cf011d9c0822","0","f","NA","space","space","space","NA","f","1036","NA","4581","12849","4123","NA","1036","2","legacy","1024","2","48000","-16","task","5226187","odd","NA","52910","59493","54911","113616","28299","45292","41168","114117","NA","113615","114117","113553","59493","115154","51260","110389","26971","112053","Lexical Decision Task","32","22198","35","yes","1024"
"3.159867847","5.98","5","brim","word","88.88888888888889","88.88888888888889","643.6111111111111","643.6111111111111","black","no","legacy","legacy","legacy","0","uniform","0","undefined","undefined","undefined","0","j","0","0","0","0","35","0","0","0","35","NA","31","35","31","0","31","3","35","0","35","Wed Feb 17 11:54:24 2021","The main experiment item","yes","Lexical_Decision_Task.osexp","C:/Users/jrose/Documents/PSYCHOLOGY","no","Andale Mono","no","18","no","white","no","yes","576","legacy","31","31","3","C:/Users/jrose/Documents/PSYCHOLOGY/subject-5226187.csv","legacy","Lentiform Loewenfeld","3.3.7","yes","yes","600bd7cfb6416f0113b04181","602110864497cf011d9c0822","0","f","NA","space","space","space","NA","f","972","NA","4581","12849","4123","NA","972","2","legacy","1024","2","48000","-16","task","5226187","odd","NA","52910","59493","54911","115721","28299","45292","41168","116221","NA","115720","116221","115660","59493","117194","51260","115160","26971","112053","Lexical Decision Task","32","23170","36","yes","1024"
"2.576725172","0","8","gowl","non-word","89.1891891891892","89.1891891891892","652.1621621621622","652.1621621621622","black","no","legacy","legacy","legacy","0","uniform","1","undefined","undefined","undefined","1","f","0","0","0","0","36","0","0","0","36","NA","32","36","32","0","32","3","36","0","36","Wed Feb 17 11:54:24 2021","The main experiment item","yes","Lexical_Decision_Task.osexp","C:/Users/jrose/Documents/PSYCHOLOGY","no","Andale Mono","no","18","no","white","no","yes","576","legacy","32","32","3","C:/Users/jrose/Documents/PSYCHOLOGY/subject-5226187.csv","legacy","Lentiform Loewenfeld","3.3.7","yes","yes","600bd7cfb6416f0113b04181","602110864497cf011d9c0822","0","f","NA","space","space","space","NA","f","960","NA","4581","12849","4123","NA","960","2","legacy","1024","2","48000","-16","task","5226187","odd","NA","52910","59493","54911","118772","28299","45292","41168","119273","NA","118771","119273","118708","59493","120234","51260","115160","26971","117208","Lexical Decision Task","33","24130","37","yes","1024"
"3.257359335","8","6","brew","word","89.47368421052632","89.47368421052632","653.421052631579","653.421052631579","black","no","legacy","legacy","legacy","0","uniform","1","undefined","undefined","undefined","1","j","0","0","0","0","37","0","0","0","37","NA","33","37","33","0","33","3","37","0","37","Wed Feb 17 11:54:24 2021","The main experiment item","yes","Lexical_Decision_Task.osexp","C:/Users/jrose/Documents/PSYCHOLOGY","no","Andale Mono","no","18","no","white","no","yes","576","legacy","33","33","3","C:/Users/jrose/Documents/PSYCHOLOGY/subject-5226187.csv","legacy","Lentiform Loewenfeld","3.3.7","yes","yes","600bd7cfb6416f0113b04181","602110864497cf011d9c0822","0","j","NA","space","space","space","NA","j","700","NA","4581","12849","4123","NA","700","2","legacy","1024","2","48000","-16","task","5226187","odd","NA","52910","59493","54911","120802","28299","45292","41168","121303","NA","120801","121303","120740","59493","122004","51260","120240","26971","117208","Lexical Decision Task","34","24830","38","yes","1024"
"2.664011697","8.19","4","hawk","word","89.74358974358974","89.74358974358974","654.8205128205128","654.8205128205128","black","no","legacy","legacy","legacy","0","uniform","1","undefined","undefined","undefined","1","j","0","0","0","0","38","0","0","0","38","NA","34","38","34","0","34","3","38","0","38","Wed Feb 17 11:54:24 2021","The main experiment item","yes","Lexical_Decision_Task.osexp","C:/Users/jrose/Documents/PSYCHOLOGY","no","Andale Mono","no","18","no","white","no","yes","576","legacy","34","34","3","C:/Users/jrose/Documents/PSYCHOLOGY/subject-5226187.csv","legacy","Lentiform Loewenfeld","3.3.7","yes","yes","600bd7cfb6416f0113b04181","602110864497cf011d9c0822","0","j","NA","space","space","space","NA","j","708","NA","4581","12849","4123","NA","708","2","legacy","1024","2","48000","-16","task","5226187","odd","NA","52910","59493","54911","122573","28299","45292","41168","123074","NA","122572","123074","122514","59493","123783","51260","122014","26971","117208","Lexical Decision Task","35","25538","39","yes","1024"
"3.120135028","0","3","vals","non-word","90","90","655.175","655.175","black","no","legacy","legacy","legacy","0","uniform","1","undefined","undefined","undefined","1","f","0","0","0","0","39","0","0","0","39","NA","35","39","35","0","35","3","39","0","39","Wed Feb 17 11:54:24 2021","The main experiment item","yes","Lexical_Decision_Task.osexp","C:/Users/jrose/Documents/PSYCHOLOGY","no","Andale Mono","no","18","no","white","no","yes","576","legacy","35","35","3","C:/Users/jrose/Documents/PSYCHOLOGY/subject-5226187.csv","legacy","Lentiform Loewenfeld","3.3.7","yes","yes","600bd7cfb6416f0113b04181","602110864497cf011d9c0822","0","f","NA","space","space","space","NA","f","669","NA","4581","12849","4123","NA","669","2","legacy","1024","2","48000","-16","task","5226187","odd","NA","52910","59493","54911","124353","28299","45292","41168","124854","NA","124351","124854","124290","59493","125524","51260","123790","26971","117208","Lexical Decision Task","36","26207","40","yes","1024"
"3.081107167","0","6","chot","non-word","90.2439024390244","90.2439024390244","656.6585365853658","656.6585365853658","black","no","legacy","legacy","legacy","0","uniform","1","undefined","undefined","undefined","1","f","0","0","0","0","40","0","0","0","40","NA","36","40","36","0","36","3","40","0","40","Wed Feb 17 11:54:24 2021","The main experiment item","yes","Lexical_Decision_Task.osexp","C:/Users/jrose/Documents/PSYCHOLOGY","no","Andale Mono","no","18","no","white","no","yes","576","legacy","36","36","3","C:/Users/jrose/Documents/PSYCHOLOGY/subject-5226187.csv","legacy","Lentiform Loewenfeld","3.3.7","yes","yes","600bd7cfb6416f0113b04181","602110864497cf011d9c0822","0","f","NA","space","space","space","NA","f","716","NA","4581","12849","4123","NA","716","2","legacy","1024","2","48000","-16","task","5226187","odd","NA","52910","59493","54911","126095","28299","45292","41168","126596","NA","126093","126596","126030","59493","127314","51260","125530","26971","117208","Lexical Decision Task","37","26923","41","yes","1024"
"3.066077331","0","7","vorn","non-word","90.47619047619048","90.47619047619048","658.9285714285714","658.9285714285714","black","no","legacy","legacy","legacy","0","uniform","1","undefined","undefined","undefined","1","f","0","0","0","0","41","0","0","0","41","NA","37","41","37","0","37","3","41","0","41","Wed Feb 17 11:54:24 2021","The main experiment item","yes","Lexical_Decision_Task.osexp","C:/Users/jrose/Documents/PSYCHOLOGY","no","Andale Mono","no","18","no","white","no","yes","576","legacy","37","37","3","C:/Users/jrose/Documents/PSYCHOLOGY/subject-5226187.csv","legacy","Lentiform Loewenfeld","3.3.7","yes","yes","600bd7cfb6416f0113b04181","602110864497cf011d9c0822","0","f","NA","space","space","space","NA","f","752","NA","4581","12849","4123","NA","752","2","legacy","1024","2","48000","-16","task","5226187","odd","NA","52910","59493","54911","127880","28299","45292","41168","128381","NA","127879","128381","127822","59493","129134","51260","127322","26971","117208","Lexical Decision Task","38","27675","42","yes","1024"
"2.80048796","0","8","pife","non-word","90.69767441860465","90.69767441860465","664.7674418604652","664.7674418604652","black","no","legacy","legacy","legacy","0","uniform","1","undefined","undefined","undefined","1","f","0","0","0","0","42","0","0","0","42","NA","38","42","38","0","38","3","42","0","42","Wed Feb 17 11:54:24 2021","The main experiment item","yes","Lexical_Decision_Task.osexp","C:/Users/jrose/Documents/PSYCHOLOGY","no","Andale Mono","no","18","no","white","no","yes","576","legacy","38","38","3","C:/Users/jrose/Documents/PSYCHOLOGY/subject-5226187.csv","legacy","Lentiform Loewenfeld","3.3.7","yes","yes","600bd7cfb6416f0113b04181","602110864497cf011d9c0822","0","f","NA","space","space","space","NA","f","910","NA","4581","12849","4123","NA","910","2","legacy","1024","2","48000","-16","task","5226187","odd","NA","52910","59493","54911","129702","28299","45292","41168","130204","NA","129701","130204","129641","59493","131115","51260","129141","26971","117208","Lexical Decision Task","39","28585","43","yes","1024"
"2.698387659","6.66","7","skid","word","90.9090909090909","90.9090909090909","664.8181818181819","664.8181818181819","black","no","legacy","legacy","legacy","0","uniform","1","undefined","undefined","undefined","1","j","0","0","0","0","43","0","0","0","43","NA","39","43","39","0","39","3","43","0","43","Wed Feb 17 11:54:24 2021","The main experiment item","yes","Lexical_Decision_Task.osexp","C:/Users/jrose/Documents/PSYCHOLOGY","no","Andale Mono","no","18","no","white","no","yes","576","legacy","39","39","3","C:/Users/jrose/Documents/PSYCHOLOGY/subject-5226187.csv","legacy","Lentiform Loewenfeld","3.3.7","yes","yes","600bd7cfb6416f0113b04181","602110864497cf011d9c0822","0","j","NA","space","space","space","NA","j","667","NA","4581","12849","4123","NA","667","2","legacy","1024","2","48000","-16","task","5226187","odd","NA","52910","59493","54911","131685","28299","45292","41168","132186","NA","131683","132186","131623","59493","132854","51260","131122","26971","117208","Lexical Decision Task","40","29252","44","yes","1024"
"2.868644438","10.52","4","town","word","91.11111111111111","91.11111111111111","664.4222222222222","664.4222222222222","black","no","legacy","legacy","legacy","0","uniform","1","undefined","undefined","undefined","1","j","0","0","0","0","44","0","0","0","44","NA","40","44","40","0","40","3","44","0","44","Wed Feb 17 11:54:24 2021","The main experiment item","yes","Lexical_Decision_Task.osexp","C:/Users/jrose/Documents/PSYCHOLOGY","no","Andale Mono","no","18","no","white","no","yes","576","legacy","40","40","3","C:/Users/jrose/Documents/PSYCHOLOGY/subject-5226187.csv","legacy","Lentiform Loewenfeld","3.3.7","yes","yes","600bd7cfb6416f0113b04181","602110864497cf011d9c0822","0","j","NA","space","space","space","NA","j","647","NA","4581","12849","4123","NA","647","2","legacy","1024","2","48000","-16","task","5226187","odd","NA","52910","59493","54911","133425","28299","45292","41168","133926","NA","133423","133927","133360","59493","134575","51260","132860","26971","117208","Lexical Decision Task","41","29899","45","yes","1024"
"2.807758206","6.25","4","hurl","word","91.30434782608695","91.30434782608695","663.8913043478261","663.8913043478261","black","no","legacy","legacy","legacy","0","uniform","1","undefined","undefined","undefined","1","j","0","0","0","0","45","0","0","0","45","NA","41","45","41","0","41","3","45","0","45","Wed Feb 17 11:54:24 2021","The main experiment item","yes","Lexical_Decision_Task.osexp","C:/Users/jrose/Documents/PSYCHOLOGY","no","Andale Mono","no","18","no","white","no","yes","576","legacy","41","41","3","C:/Users/jrose/Documents/PSYCHOLOGY/subject-5226187.csv","legacy","Lentiform Loewenfeld","3.3.7","yes","yes","600bd7cfb6416f0113b04181","602110864497cf011d9c0822","0","j","NA","space","space","space","NA","j","640","NA","4581","12849","4123","NA","640","2","legacy","1024","2","48000","-16","task","5226187","odd","NA","52910","59493","54911","135142","28299","45292","41168","135643","NA","135141","135643","135081","59493","136284","51260","134581","26971","117208","Lexical Decision Task","42","30539","46","yes","1024"
"2.75025376","10.2","6","jump","word","91.48936170212765","91.48936170212765","659.7446808510638","659.7446808510638","black","no","legacy","legacy","legacy","0","uniform","1","undefined","undefined","undefined","1","j","0","0","0","0","46","0","0","0","46","NA","42","46","42","0","42","3","46","0","46","Wed Feb 17 11:54:24 2021","The main experiment item","yes","Lexical_Decision_Task.osexp","C:/Users/jrose/Documents/PSYCHOLOGY","no","Andale Mono","no","18","no","white","no","yes","576","legacy","42","42","3","C:/Users/jrose/Documents/PSYCHOLOGY/subject-5226187.csv","legacy","Lentiform Loewenfeld","3.3.7","yes","yes","600bd7cfb6416f0113b04181","602110864497cf011d9c0822","0","j","NA","space","space","space","NA","j","469","NA","4581","12849","4123","NA","469","2","legacy","1024","2","48000","-16","task","5226187","odd","NA","52910","59493","54911","136864","28299","45292","41168","137365","NA","136862","137365","136800","59493","137835","51260","136300","26971","117208","Lexical Decision Task","43","31008","47","yes","1024"
"3.474361976","5.24","6","veer","word","91.66666666666667","91.66666666666667","658.5416666666666","658.5416666666666","black","no","legacy","legacy","legacy","0","uniform","1","undefined","undefined","undefined","1","j","0","0","0","0","47","0","0","0","47","NA","43","47","43","0","43","3","47","0","47","Wed Feb 17 11:54:24 2021","The main experiment item","yes","Lexical_Decision_Task.osexp","C:/Users/jrose/Documents/PSYCHOLOGY","no","Andale Mono","no","18","no","white","no","yes","576","legacy","43","43","3","C:/Users/jrose/Documents/PSYCHOLOGY/subject-5226187.csv","legacy","Lentiform Loewenfeld","3.3.7","yes","yes","600bd7cfb6416f0113b04181","602110864497cf011d9c0822","0","j","NA","space","space","space","NA","j","602","NA","4581","12849","4123","NA","602","2","legacy","1024","2","48000","-16","task","5226187","odd","NA","52910","59493","54911","138410","28299","45292","41168","138911","NA","138409","138911","138343","59493","139514","51260","137843","26971","117208","Lexical Decision Task","44","31610","48","yes","1024"
"3.105055783","0","2","norp","non-word","91.83673469387755","91.83673469387755","657.5714285714286","657.5714285714286","black","no","legacy","legacy","legacy","0","uniform","1","undefined","undefined","undefined","1","f","0","0","0","0","48","0","0","0","48","NA","44","48","44","0","44","3","48","0","48","Wed Feb 17 11:54:24 2021","The main experiment item","yes","Lexical_Decision_Task.osexp","C:/Users/jrose/Documents/PSYCHOLOGY","no","Andale Mono","no","18","no","white","no","yes","576","legacy","44","44","3","C:/Users/jrose/Documents/PSYCHOLOGY/subject-5226187.csv","legacy","Lentiform Loewenfeld","3.3.7","yes","yes","600bd7cfb6416f0113b04181","602110864497cf011d9c0822","0","f","NA","space","space","space","NA","f","611","NA","4581","12849","4123","NA","611","2","legacy","1024","2","48000","-16","task","5226187","odd","NA","52910","59493","54911","140102","28299","45292","41168","140603","NA","140101","140603","140036","59493","141214","51260","139536","26971","117208","Lexical Decision Task","45","32221","49","yes","1024"
"3.443783828","7.65","3","verb","word","90","90","654.62","654.62","black","no","legacy","legacy","legacy","0","uniform","0","undefined","undefined","undefined","0","j","0","0","0","0","49","0","0","0","49","NA","45","49","45","0","45","3","49","0","49","Wed Feb 17 11:54:24 2021","The main experiment item","yes","Lexical_Decision_Task.osexp","C:/Users/jrose/Documents/PSYCHOLOGY","no","Andale Mono","no","18","no","white","no","yes","576","legacy","45","45","3","C:/Users/jrose/Documents/PSYCHOLOGY/subject-5226187.csv","legacy","Lentiform Loewenfeld","3.3.7","yes","yes","600bd7cfb6416f0113b04181","602110864497cf011d9c0822","0","f","NA","space","space","space","NA","f","510","NA","4581","12849","4123","NA","510","2","legacy","1024","2","48000","-16","task","5226187","odd","NA","52910","59493","54911","141882","28299","45292","41168","142383","NA","141881","142383","141818","59493","142894","51260","141318","26971","117208","Lexical Decision Task","45","32731","50","yes","1024"
"2.897810299","0","5","glur","non-word","90.19607843137256","90.19607843137256","659.4117647058823","659.4117647058823","black","no","legacy","legacy","legacy","0","uniform","1","undefined","undefined","undefined","1","f","0","0","0","0","50","0","0","0","50","NA","46","50","46","0","46","3","50","0","50","Wed Feb 17 11:54:24 2021","The main experiment item","yes","Lexical_Decision_Task.osexp","C:/Users/jrose/Documents/PSYCHOLOGY","no","Andale Mono","no","18","no","white","no","yes","576","legacy","46","46","3","C:/Users/jrose/Documents/PSYCHOLOGY/subject-5226187.csv","legacy","Lentiform Loewenfeld","3.3.7","yes","yes","600bd7cfb6416f0113b04181","602110864497cf011d9c0822","0","f","NA","space","space","space","NA","f","899","NA","4581","12849","4123","NA","899","2","legacy","1024","2","48000","-16","task","5226187","odd","NA","52910","59493","54911","144464","28299","45292","41168","144965","NA","144462","144965","144400","59493","145865","51260","141318","26971","142900","Lexical Decision Task","46","33630","51","yes","1024"
"3.134602053","0","8","jart","non-word","90.38461538461539","90.38461538461539","661.7307692307693","661.7307692307693","black","no","legacy","legacy","legacy","0","uniform","1","undefined","undefined","undefined","1","f","0","0","0","0","51","0","0","0","51","NA","47","51","47","0","47","3","51","0","51","Wed Feb 17 11:54:24 2021","The main experiment item","yes","Lexical_Decision_Task.osexp","C:/Users/jrose/Documents/PSYCHOLOGY","no","Andale Mono","no","18","no","white","no","yes","576","legacy","47","47","3","C:/Users/jrose/Documents/PSYCHOLOGY/subject-5226187.csv","legacy","Lentiform Loewenfeld","3.3.7","yes","yes","600bd7cfb6416f0113b04181","602110864497cf011d9c0822","0","f","NA","space","space","space","NA","f","780","NA","4581","12849","4123","NA","780","2","legacy","1024","2","48000","-16","task","5226187","odd","NA","52910","59493","54911","146433","28299","45292","41168","146934","NA","146431","146934","146372","59493","147716","51260","145871","26971","142900","Lexical Decision Task","47","34410","52","yes","1024"
"2.675164031","8.57","6","glue","word","90.56603773584905","90.56603773584905","660.2830188679245","660.2830188679245","black","no","legacy","legacy","legacy","0","uniform","1","undefined","undefined","undefined","1","j","0","0","0","0","52","0","0","0","52","NA","48","52","48","0","48","3","52","0","52","Wed Feb 17 11:54:24 2021","The main experiment item","yes","Lexical_Decision_Task.osexp","C:/Users/jrose/Documents/PSYCHOLOGY","no","Andale Mono","no","18","no","white","no","yes","576","legacy","48","48","3","C:/Users/jrose/Documents/PSYCHOLOGY/subject-5226187.csv","legacy","Lentiform Loewenfeld","3.3.7","yes","yes","600bd7cfb6416f0113b04181","602110864497cf011d9c0822","0","j","NA","space","space","space","NA","j","585","NA","4581","12849","4123","NA","585","2","legacy","1024","2","48000","-16","task","5226187","odd","NA","52910","59493","54911","148285","28299","45292","41168","148788","NA","148284","148789","148225","59493","149375","51260","147725","26971","142900","Lexical Decision Task","48","34995","53","yes","1024"
"2.709837904","6.85","8","skim","word","90.74074074074075","90.74074074074075","660.3703703703703","660.3703703703703","black","no","legacy","legacy","legacy","0","uniform","1","undefined","undefined","undefined","1","j","0","0","0","0","53","0","0","0","53","NA","49","53","49","0","49","3","53","0","53","Wed Feb 17 11:54:24 2021","The main experiment item","yes","Lexical_Decision_Task.osexp","C:/Users/jrose/Documents/PSYCHOLOGY","no","Andale Mono","no","18","no","white","no","yes","576","legacy","49","49","3","C:/Users/jrose/Documents/PSYCHOLOGY/subject-5226187.csv","legacy","Lentiform Loewenfeld","3.3.7","yes","yes","600bd7cfb6416f0113b04181","602110864497cf011d9c0822","0","j","NA","space","space","space","NA","j","665","NA","4581","12849","4123","NA","665","2","legacy","1024","2","48000","-16","task","5226187","odd","NA","52910","59493","54911","149946","28299","45292","41168","150449","NA","149944","150449","149882","59493","151115","51260","149381","26971","142900","Lexical Decision Task","49","35660","54","yes","1024"
"2.981215883","10.66","5","hair","word","90.9090909090909","90.9090909090909","659.709090909091","659.709090909091","black","no","legacy","legacy","legacy","0","uniform","1","undefined","undefined","undefined","1","j","0","0","0","0","54","0","0","0","54","0","50","54","50","0","50","3","54","0","54","Wed Feb 17 11:54:24 2021","The main experiment item","yes","Lexical_Decision_Task.osexp","C:/Users/jrose/Documents/PSYCHOLOGY","no","Andale Mono","no","18","no","white","no","yes","576","legacy","50","50","3","C:/Users/jrose/Documents/PSYCHOLOGY/subject-5226187.csv","legacy","Lentiform Loewenfeld","3.3.7","yes","yes","600bd7cfb6416f0113b04181","602110864497cf011d9c0822","0","j","NA","space","space","space","space","j","624","NA","4581","12849","4123","3732","624","2","legacy","1024","2","48000","-16","task","5226187","odd","NA","52910","59493","54911","155458","28299","45292","41168","155959","151662","155456","155960","151623","59493","156585","51260","151123","26971","142900","Lexical Decision Task","50","36284","55","yes","1024"
"3.120025233","0","2","nyst","non-word","91.07142857142857","91.07142857142857","655.5","655.5","black","no","legacy","legacy","legacy","0","uniform","1","undefined","undefined","undefined","1","f","0","0","0","0","55","0","0","0","55","0","51","55","51","0","51","3","55","0","55","Wed Feb 17 11:54:24 2021","The main experiment item","yes","Lexical_Decision_Task.osexp","C:/Users/jrose/Documents/PSYCHOLOGY","no","Andale Mono","no","18","no","white","no","yes","576","legacy","51","51","3","C:/Users/jrose/Documents/PSYCHOLOGY/subject-5226187.csv","legacy","Lentiform Loewenfeld","3.3.7","yes","yes","600bd7cfb6416f0113b04181","602110864497cf011d9c0822","0","f","NA","space","space","space","space","f","424","NA","4581","12849","4123","3732","424","2","legacy","1024","2","48000","-16","task","5226187","odd","NA","52910","59493","54911","157158","28299","45292","41168","157660","151662","157157","157660","157097","59493","158086","51260","156597","26971","142900","Lexical Decision Task","51","36708","56","yes","1024"
"3.248054965","7.86","5","glow","word","91.2280701754386","91.2280701754386","653.859649122807","653.859649122807","black","no","legacy","legacy","legacy","0","uniform","1","undefined","undefined","undefined","1","j","0","0","0","0","56","0","0","0","56","0","52","56","52","0","52","3","56","0","56","Wed Feb 17 11:54:24 2021","The main experiment item","yes","Lexical_Decision_Task.osexp","C:/Users/jrose/Documents/PSYCHOLOGY","no","Andale Mono","no","18","no","white","no","yes","576","legacy","52","52","3","C:/Users/jrose/Documents/PSYCHOLOGY/subject-5226187.csv","legacy","Lentiform Loewenfeld","3.3.7","yes","yes","600bd7cfb6416f0113b04181","602110864497cf011d9c0822","0","j","NA","space","space","space","space","j","562","NA","4581","12849","4123","3732","562","2","legacy","1024","2","48000","-16","task","5226187","odd","NA","52910","59493","54911","158684","28299","45292","41168","159191","151662","158683","159191","158594","59493","159754","51260","158094","26971","142900","Lexical Decision Task","52","37270","57","yes","1024"
"2.86332286","6.71","2","feud","word","91.37931034482759","91.37931034482759","651.3448275862069","651.3448275862069","black","no","legacy","legacy","legacy","0","uniform","1","undefined","undefined","undefined","1","j","0","0","0","0","57","0","0","0","57","0","53","57","53","0","53","3","57","0","57","Wed Feb 17 11:54:24 2021","The main experiment item","yes","Lexical_Decision_Task.osexp","C:/Users/jrose/Documents/PSYCHOLOGY","no","Andale Mono","no","18","no","white","no","yes","576","legacy","53","53","3","C:/Users/jrose/Documents/PSYCHOLOGY/subject-5226187.csv","legacy","Lentiform Loewenfeld","3.3.7","yes","yes","600bd7cfb6416f0113b04181","602110864497cf011d9c0822","0","j","NA","space","space","space","space","j","508","NA","4581","12849","4123","3732","508","2","legacy","1024","2","48000","-16","task","5226187","odd","NA","52910","59493","54911","160323","28299","45292","41168","160825","151662","160321","160825","160261","59493","161334","51260","159761","26971","142900","Lexical Decision Task","53","37778","58","yes","1024"
"3.282244367","0","6","fute","non-word","91.52542372881356","91.52542372881356","655.1694915254237","655.1694915254237","black","no","legacy","legacy","legacy","0","uniform","1","undefined","undefined","undefined","1","f","0","0","0","0","58","0","0","0","58","0","54","58","54","0","54","3","58","0","58","Wed Feb 17 11:54:24 2021","The main experiment item","yes","Lexical_Decision_Task.osexp","C:/Users/jrose/Documents/PSYCHOLOGY","no","Andale Mono","no","18","no","white","no","yes","576","legacy","54","54","3","C:/Users/jrose/Documents/PSYCHOLOGY/subject-5226187.csv","legacy","Lentiform Loewenfeld","3.3.7","yes","yes","600bd7cfb6416f0113b04181","602110864497cf011d9c0822","0","f","NA","space","space","space","space","f","877","NA","4581","12849","4123","3732","877","2","legacy","1024","2","48000","-16","task","5226187","odd","NA","52910","59493","54911","161905","28299","45292","41168","162406","151662","161903","162406","161844","59493","163284","51260","161344","26971","142900","Lexical Decision Task","54","38655","59","yes","1024"
"3.010582609","0","2","drod","non-word","91.66666666666667","91.66666666666667","656.2166666666667","656.2166666666667","black","no","legacy","legacy","legacy","0","uniform","1","undefined","undefined","undefined","1","f","0","0","0","0","59","0","0","0","59","0","55","59","55","0","55","3","59","0","59","Wed Feb 17 11:54:24 2021","The main experiment item","yes","Lexical_Decision_Task.osexp","C:/Users/jrose/Documents/PSYCHOLOGY","no","Andale Mono","no","18","no","white","no","yes","576","legacy","55","55","3","C:/Users/jrose/Documents/PSYCHOLOGY/subject-5226187.csv","legacy","Lentiform Loewenfeld","3.3.7","yes","yes","600bd7cfb6416f0113b04181","602110864497cf011d9c0822","0","f","NA","space","space","space","space","f","718","NA","4581","12849","4123","3732","718","2","legacy","1024","2","48000","-16","task","5226187","odd","NA","52910","59493","54911","163854","28299","45292","41168","164356","151662","163853","164356","163790","59493","165074","51260","163289","26971","142900","Lexical Decision Task","55","39373","60","yes","1024"
"3.064581521","5.51","6","cask","word","90.1639344262295","90.1639344262295","655.0327868852459","655.0327868852459","black","no","legacy","legacy","legacy","0","uniform","0","undefined","undefined","undefined","0","j","0","0","0","0","60","0","0","0","60","0","56","60","56","0","56","3","60","0","60","Wed Feb 17 11:54:24 2021","The main experiment item","yes","Lexical_Decision_Task.osexp","C:/Users/jrose/Documents/PSYCHOLOGY","no","Andale Mono","no","18","no","white","no","yes","576","legacy","56","56","3","C:/Users/jrose/Documents/PSYCHOLOGY/subject-5226187.csv","legacy","Lentiform Loewenfeld","3.3.7","yes","yes","600bd7cfb6416f0113b04181","602110864497cf011d9c0822","0","f","NA","space","space","space","space","f","584","NA","4581","12849","4123","3732","584","2","legacy","1024","2","48000","-16","task","5226187","odd","NA","52910","59493","54911","165649","28299","45292","41168","166150","151662","165647","166150","165580","59493","166735","51260","165080","26971","142900","Lexical Decision Task","55","39957","61","yes","1024"
"3.037294994","8.64","7","roof","word","90.3225806451613","90.3225806451613","655.6612903225806","655.6612903225806","black","no","legacy","legacy","legacy","0","uniform","1","undefined","undefined","undefined","1","j","0","0","0","0","61","0","0","0","61","0","57","61","57","0","57","3","61","0","61","Wed Feb 17 11:54:24 2021","The main experiment item","yes","Lexical_Decision_Task.osexp","C:/Users/jrose/Documents/PSYCHOLOGY","no","Andale Mono","no","18","no","white","no","yes","576","legacy","57","57","3","C:/Users/jrose/Documents/PSYCHOLOGY/subject-5226187.csv","legacy","Lentiform Loewenfeld","3.3.7","yes","yes","600bd7cfb6416f0113b04181","602110864497cf011d9c0822","0","j","NA","space","space","space","space","j","694","NA","4581","12849","4123","3732","694","2","legacy","1024","2","48000","-16","task","5226187","odd","NA","52910","59493","54911","168299","28299","45292","41168","168800","151662","168297","168800","168240","59493","169495","51260","165080","26971","166739","Lexical Decision Task","56","40651","62","yes","1024"
"2.899638141","0","3","hapt","non-word","90.47619047619048","90.47619047619048","654.5873015873016","654.5873015873016","black","no","legacy","legacy","legacy","0","uniform","1","undefined","undefined","undefined","1","f","0","0","0","0","62","0","0","0","62","0","58","62","58","0","58","3","62","0","62","Wed Feb 17 11:54:24 2021","The main experiment item","yes","Lexical_Decision_Task.osexp","C:/Users/jrose/Documents/PSYCHOLOGY","no","Andale Mono","no","18","no","white","no","yes","576","legacy","58","58","3","C:/Users/jrose/Documents/PSYCHOLOGY/subject-5226187.csv","legacy","Lentiform Loewenfeld","3.3.7","yes","yes","600bd7cfb6416f0113b04181","602110864497cf011d9c0822","0","f","NA","space","space","space","space","f","588","NA","4581","12849","4123","3732","588","2","legacy","1024","2","48000","-16","task","5226187","odd","NA","52910","59493","54911","170065","28299","45292","41168","170566","151662","170064","170566","170002","59493","171154","51260","169502","26971","166739","Lexical Decision Task","57","41239","63","yes","1024"
"2.907588697","8.91","9","mood","word","90.625","90.625","655","655","black","no","legacy","legacy","legacy","0","uniform","1","undefined","undefined","undefined","1","j","0","0","0","0","63","0","0","0","63","0","59","63","59","0","59","3","63","0","63","Wed Feb 17 11:54:24 2021","The main experiment item","yes","Lexical_Decision_Task.osexp","C:/Users/jrose/Documents/PSYCHOLOGY","no","Andale Mono","no","18","no","white","no","yes","576","legacy","59","59","3","C:/Users/jrose/Documents/PSYCHOLOGY/subject-5226187.csv","legacy","Lentiform Loewenfeld","3.3.7","yes","yes","600bd7cfb6416f0113b04181","602110864497cf011d9c0822","0","j","NA","space","space","space","space","j","681","NA","4581","12849","4123","3732","681","2","legacy","1024","2","48000","-16","task","5226187","odd","NA","52910","59493","54911","171722","28299","45292","41168","172223","151662","171720","172223","171659","59493","172905","51260","171159","26971","166739","Lexical Decision Task","58","41920","64","yes","1024"
"2.95456409","0","4","taud","non-word","90.76923076923077","90.76923076923077","655.1692307692308","655.1692307692308","black","no","legacy","legacy","legacy","0","uniform","1","undefined","undefined","undefined","1","f","0","0","0","0","64","0","0","0","64","0","60","64","60","0","60","3","64","0","64","Wed Feb 17 11:54:24 2021","The main experiment item","yes","Lexical_Decision_Task.osexp","C:/Users/jrose/Documents/PSYCHOLOGY","no","Andale Mono","no","18","no","white","no","yes","576","legacy","60","60","3","C:/Users/jrose/Documents/PSYCHOLOGY/subject-5226187.csv","legacy","Lentiform Loewenfeld","3.3.7","yes","yes","600bd7cfb6416f0113b04181","602110864497cf011d9c0822","0","f","NA","space","space","space","space","f","666","NA","4581","12849","4123","3732","666","2","legacy","1024","2","48000","-16","task","5226187","odd","NA","52910","59493","54911","173487","28299","45292","41168","173989","151662","173485","173989","173421","59493","174656","51260","172921","26971","166739","Lexical Decision Task","59","42586","65","yes","1024"
"3.153104174","10.89","6","door","word","90.9090909090909","90.9090909090909","650.9848484848485","650.9848484848485","black","no","legacy","legacy","legacy","0","uniform","1","undefined","undefined","undefined","1","j","0","0","0","0","65","0","0","0","65","0","61","65","61","0","61","3","65","0","65","Wed Feb 17 11:54:24 2021","The main experiment item","yes","Lexical_Decision_Task.osexp","C:/Users/jrose/Documents/PSYCHOLOGY","no","Andale Mono","no","18","no","white","no","yes","576","legacy","61","61","3","C:/Users/jrose/Documents/PSYCHOLOGY/subject-5226187.csv","legacy","Lentiform Loewenfeld","3.3.7","yes","yes","600bd7cfb6416f0113b04181","602110864497cf011d9c0822","0","j","NA","space","space","space","space","j","379","NA","4581","12849","4123","3732","379","2","legacy","1024","2","48000","-16","task","5226187","odd","NA","52910","59493","54911","175235","28299","45292","41168","175736","151662","175233","175736","175172","59493","176116","51260","174671","26971","166739","Lexical Decision Task","60","42965","66","yes","1024"
"3.119255889","6.63","2","itch","word","91.04477611940298","91.04477611940298","649.8805970149253","649.8805970149253","black","no","legacy","legacy","legacy","0","uniform","1","undefined","undefined","undefined","1","j","0","0","0","0","66","0","0","0","66","0","62","66","62","0","62","3","66","0","66","Wed Feb 17 11:54:24 2021","The main experiment item","yes","Lexical_Decision_Task.osexp","C:/Users/jrose/Documents/PSYCHOLOGY","no","Andale Mono","no","18","no","white","no","yes","576","legacy","62","62","3","C:/Users/jrose/Documents/PSYCHOLOGY/subject-5226187.csv","legacy","Lentiform Loewenfeld","3.3.7","yes","yes","600bd7cfb6416f0113b04181","602110864497cf011d9c0822","0","j","NA","space","space","space","space","j","577","NA","4581","12849","4123","3732","577","2","legacy","1024","2","48000","-16","task","5226187","odd","NA","52910","59493","54911","176696","28299","45292","41168","177198","151662","176694","177198","176631","59493","177776","51260","176131","26971","166739","Lexical Decision Task","61","43542","67","yes","1024"
"3.039414119","0","9","meep","non-word","91.17647058823529","91.17647058823529","651.0147058823529","651.0147058823529","black","no","legacy","legacy","legacy","0","uniform","1","undefined","undefined","undefined","1","f","0","0","0","0","67","0","0","0","67","0","63","67","63","0","63","3","67","0","67","Wed Feb 17 11:54:24 2021","The main experiment item","yes","Lexical_Decision_Task.osexp","C:/Users/jrose/Documents/PSYCHOLOGY","no","Andale Mono","no","18","no","white","no","yes","576","legacy","63","63","3","C:/Users/jrose/Documents/PSYCHOLOGY/subject-5226187.csv","legacy","Lentiform Loewenfeld","3.3.7","yes","yes","600bd7cfb6416f0113b04181","602110864497cf011d9c0822","0","f","NA","space","space","space","space","f","727","NA","4581","12849","4123","3732","727","2","legacy","1024","2","48000","-16","task","5226187","odd","NA","52910","59493","54911","178346","28299","45292","41168","178847","151662","178344","178848","178283","59493","179575","51260","177783","26971","166739","Lexical Decision Task","62","44269","68","yes","1024"
"3.153001286","8.7","5","palm","word","91.30434782608695","91.30434782608695","648.4202898550725","648.4202898550725","black","no","legacy","legacy","legacy","0","uniform","1","undefined","undefined","undefined","1","j","0","0","0","0","68","0","0","0","68","0","64","68","64","0","64","3","68","0","68","Wed Feb 17 11:54:24 2021","The main experiment item","yes","Lexical_Decision_Task.osexp","C:/Users/jrose/Documents/PSYCHOLOGY","no","Andale Mono","no","18","no","white","no","yes","576","legacy","64","64","3","C:/Users/jrose/Documents/PSYCHOLOGY/subject-5226187.csv","legacy","Lentiform Loewenfeld","3.3.7","yes","yes","600bd7cfb6416f0113b04181","602110864497cf011d9c0822","0","j","NA","space","space","space","space","j","472","NA","4581","12849","4123","3732","472","2","legacy","1024","2","48000","-16","task","5226187","odd","NA","52910","59493","54911","180142","28299","45292","41168","180643","151662","180140","180643","180081","59493","181116","51260","179581","26971","166739","Lexical Decision Task","63","44741","69","yes","1024"
"3.353210739","0","9","reet","non-word","91.42857142857143","91.42857142857143","649.3857142857142","649.3857142857142","black","no","legacy","legacy","legacy","0","uniform","1","undefined","undefined","undefined","1","f","0","0","0","0","69","0","0","0","69","0","65","69","65","0","65","3","69","0","69","Wed Feb 17 11:54:24 2021","The main experiment item","yes","Lexical_Decision_Task.osexp","C:/Users/jrose/Documents/PSYCHOLOGY","no","Andale Mono","no","18","no","white","no","yes","576","legacy","65","65","3","C:/Users/jrose/Documents/PSYCHOLOGY/subject-5226187.csv","legacy","Lentiform Loewenfeld","3.3.7","yes","yes","600bd7cfb6416f0113b04181","602110864497cf011d9c0822","0","f","NA","space","space","space","space","f","716","NA","4581","12849","4123","3732","716","2","legacy","1024","2","48000","-16","task","5226187","odd","NA","52910","59493","54911","181689","28299","45292","41168","182190","151662","181687","182190","181623","59493","182907","51260","181123","26971","166739","Lexical Decision Task","64","45457","70","yes","1024"
"3.276537627","9.15","5","trap","word","91.54929577464789","91.54929577464789","648.7887323943662","648.7887323943662","black","no","legacy","legacy","legacy","0","uniform","1","undefined","undefined","undefined","1","j","0","0","0","0","70","0","0","0","70","0","66","70","66","0","66","3","70","0","70","Wed Feb 17 11:54:24 2021","The main experiment item","yes","Lexical_Decision_Task.osexp","C:/Users/jrose/Documents/PSYCHOLOGY","no","Andale Mono","no","18","no","white","no","yes","576","legacy","66","66","3","C:/Users/jrose/Documents/PSYCHOLOGY/subject-5226187.csv","legacy","Lentiform Loewenfeld","3.3.7","yes","yes","600bd7cfb6416f0113b04181","602110864497cf011d9c0822","0","j","NA","space","space","space","space","j","607","NA","4581","12849","4123","3732","607","2","legacy","1024","2","48000","-16","task","5226187","odd","NA","52910","59493","54911","183477","28299","45292","41168","183978","151662","183475","183978","183417","59493","184586","51260","182917","26971","166739","Lexical Decision Task","65","46064","71","yes","1024"
"3.299579929","0","2","flis","non-word","91.66666666666667","91.66666666666667","647.2916666666666","647.2916666666666","black","no","legacy","legacy","legacy","0","uniform","1","undefined","undefined","undefined","1","f","0","0","0","0","71","0","0","0","71","0","67","71","67","0","67","3","71","0","71","Wed Feb 17 11:54:24 2021","The main experiment item","yes","Lexical_Decision_Task.osexp","C:/Users/jrose/Documents/PSYCHOLOGY","no","Andale Mono","no","18","no","white","no","yes","576","legacy","67","67","3","C:/Users/jrose/Documents/PSYCHOLOGY/subject-5226187.csv","legacy","Lentiform Loewenfeld","3.3.7","yes","yes","600bd7cfb6416f0113b04181","602110864497cf011d9c0822","0","f","NA","space","space","space","space","f","541","NA","4581","12849","4123","3732","541","2","legacy","1024","2","48000","-16","task","5226187","odd","NA","52910","59493","54911","185153","28299","45292","41168","185654","151662","185151","185654","185090","59493","186196","51260","184590","26971","166739","Lexical Decision Task","66","46605","72","yes","1024"
"2.839898939","8.99","6","soap","word","91.78082191780823","91.78082191780823","646.5616438356165","646.5616438356165","black","no","legacy","legacy","legacy","0","uniform","1","undefined","undefined","undefined","1","j","0","0","0","0","72","0","0","0","72","0","68","72","68","0","68","3","72","0","72","Wed Feb 17 11:54:24 2021","The main experiment item","yes","Lexical_Decision_Task.osexp","C:/Users/jrose/Documents/PSYCHOLOGY","no","Andale Mono","no","18","no","white","no","yes","576","legacy","68","68","3","C:/Users/jrose/Documents/PSYCHOLOGY/subject-5226187.csv","legacy","Lentiform Loewenfeld","3.3.7","yes","yes","600bd7cfb6416f0113b04181","602110864497cf011d9c0822","0","j","NA","space","space","space","space","j","594","NA","4581","12849","4123","3732","594","2","legacy","1024","2","48000","-16","task","5226187","odd","NA","52910","59493","54911","186760","28299","45292","41168","187261","151662","186759","187261","186699","59493","187856","51260","186199","26971","166739","Lexical Decision Task","67","47199","73","yes","1024"
"2.9737419","7.69","7","claw","word","91.89189189189189","91.89189189189189","645.1351351351351","645.1351351351351","black","no","legacy","legacy","legacy","0","uniform","1","undefined","undefined","undefined","1","j","0","0","0","0","73","0","0","0","73","0","69","73","69","0","69","3","73","0","73","Wed Feb 17 11:54:24 2021","The main experiment item","yes","Lexical_Decision_Task.osexp","C:/Users/jrose/Documents/PSYCHOLOGY","no","Andale Mono","no","18","no","white","no","yes","576","legacy","69","69","3","C:/Users/jrose/Documents/PSYCHOLOGY/subject-5226187.csv","legacy","Lentiform Loewenfeld","3.3.7","yes","yes","600bd7cfb6416f0113b04181","602110864497cf011d9c0822","0","j","NA","space","space","space","space","j","541","NA","4581","12849","4123","3732","541","2","legacy","1024","2","48000","-16","task","5226187","odd","NA","52910","59493","54911","188433","28299","45292","41168","188934","151662","188432","188934","188367","59493","189476","51260","187867","26971","166739","Lexical Decision Task","68","47740","74","yes","1024"
"3.481012421","8.34","5","teen","word","92","92","643.9733333333334","643.9733333333334","black","no","legacy","legacy","legacy","0","uniform","1","undefined","undefined","undefined","1","j","0","0","0","0","74","0","0","0","74","0","70","74","70","0","70","3","74","0","74","Wed Feb 17 11:54:24 2021","The main experiment item","yes","Lexical_Decision_Task.osexp","C:/Users/jrose/Documents/PSYCHOLOGY","no","Andale Mono","no","18","no","white","no","yes","576","legacy","70","70","3","C:/Users/jrose/Documents/PSYCHOLOGY/subject-5226187.csv","legacy","Lentiform Loewenfeld","3.3.7","yes","yes","600bd7cfb6416f0113b04181","602110864497cf011d9c0822","0","j","NA","space","space","space","space","j","558","NA","4581","12849","4123","3732","558","2","legacy","1024","2","48000","-16","task","5226187","odd","NA","52910","59493","54911","190046","28299","45292","41168","190547","151662","190045","190547","189982","59493","191106","51260","189482","26971","166739","Lexical Decision Task","69","48298","75","yes","1024"
"2.714888338","0","3","brug","non-word","90.78947368421052","90.78947368421052","641.1052631578947","641.1052631578947","black","no","legacy","legacy","legacy","0","uniform","0","undefined","undefined","undefined","0","f","0","0","0","0","75","0","0","0","75","0","71","75","71","0","71","3","75","0","75","Wed Feb 17 11:54:24 2021","The main experiment item","yes","Lexical_Decision_Task.osexp","C:/Users/jrose/Documents/PSYCHOLOGY","no","Andale Mono","no","18","no","white","no","yes","576","legacy","71","71","3","C:/Users/jrose/Documents/PSYCHOLOGY/subject-5226187.csv","legacy","Lentiform Loewenfeld","3.3.7","yes","yes","600bd7cfb6416f0113b04181","602110864497cf011d9c0822","0","j","NA","space","space","space","space","j","426","NA","4581","12849","4123","3732","426","2","legacy","1024","2","48000","-16","task","5226187","odd","NA","52910","59493","54911","191678","28299","45292","41168","192179","151662","191677","192179","191614","59493","192606","51260","191114","26971","166739","Lexical Decision Task","69","48724","76","yes","1024"
"3.460446784","0","5","dess","non-word","89.6103896103896","89.6103896103896","638.4805194805194","638.4805194805194","black","no","legacy","legacy","legacy","0","uniform","0","undefined","undefined","undefined","0","f","0","0","0","0","76","0","0","0","76","0","72","76","72","0","72","3","76","0","76","Wed Feb 17 11:54:24 2021","The main experiment item","yes","Lexical_Decision_Task.osexp","C:/Users/jrose/Documents/PSYCHOLOGY","no","Andale Mono","no","18","no","white","no","yes","576","legacy","72","72","3","C:/Users/jrose/Documents/PSYCHOLOGY/subject-5226187.csv","legacy","Lentiform Loewenfeld","3.3.7","yes","yes","600bd7cfb6416f0113b04181","602110864497cf011d9c0822","0","j","NA","space","space","space","space","j","439","NA","4581","12849","4123","3732","439","2","legacy","1024","2","48000","-16","task","5226187","odd","NA","52910","59493","54911","194175","28299","45292","41168","194676","151662","194174","194676","194113","59493","195116","51260","191114","26971","192613","Lexical Decision Task","69","49163","77","yes","1024"
"3.209246849","0","7","slem","non-word","89.74358974358974","89.74358974358974","639.474358974359","639.474358974359","black","no","legacy","legacy","legacy","0","uniform","1","undefined","undefined","undefined","1","f","0","0","0","0","77","0","0","0","77","0","73","77","73","0","73","3","77","0","77","Wed Feb 17 11:54:24 2021","The main experiment item","yes","Lexical_Decision_Task.osexp","C:/Users/jrose/Documents/PSYCHOLOGY","no","Andale Mono","no","18","no","white","no","yes","576","legacy","73","73","3","C:/Users/jrose/Documents/PSYCHOLOGY/subject-5226187.csv","legacy","Lentiform Loewenfeld","3.3.7","yes","yes","600bd7cfb6416f0113b04181","602110864497cf011d9c0822","0","f","NA","space","space","space","space","f","716","NA","4581","12849","4123","3732","716","2","legacy","1024","2","48000","-16","task","5226187","odd","NA","52910","59493","54911","196698","28299","45292","41168","197199","151662","196696","197199","196633","59493","197916","51260","191114","26971","195133","Lexical Decision Task","70","49879","78","yes","1024"
"3.15462682","0","6","noal","non-word","89.87341772151899","89.87341772151899","639.1518987341772","639.1518987341772","black","no","legacy","legacy","legacy","0","uniform","1","undefined","undefined","undefined","1","f","0","0","0","0","78","0","0","0","78","0","74","78","74","0","74","3","78","0","78","Wed Feb 17 11:54:24 2021","The main experiment item","yes","Lexical_Decision_Task.osexp","C:/Users/jrose/Documents/PSYCHOLOGY","no","Andale Mono","no","18","no","white","no","yes","576","legacy","74","74","3","C:/Users/jrose/Documents/PSYCHOLOGY/subject-5226187.csv","legacy","Lentiform Loewenfeld","3.3.7","yes","yes","600bd7cfb6416f0113b04181","602110864497cf011d9c0822","0","f","NA","space","space","space","space","f","614","NA","4581","12849","4123","3732","614","2","legacy","1024","2","48000","-16","task","5226187","odd","NA","52910","59493","54911","198490","28299","45292","41168","198991","151662","198489","198991","198427","59493","199606","51260","197927","26971","195133","Lexical Decision Task","71","50493","79","yes","1024"
"3.165936429","0","7","leps","non-word","90","90","638.4125","638.4125","black","no","legacy","legacy","legacy","0","uniform","1","undefined","undefined","undefined","1","f","0","0","0","0","79","0","0","0","79","0","75","79","75","0","75","3","79","0","79","Wed Feb 17 11:54:24 2021","The main experiment item","yes","Lexical_Decision_Task.osexp","C:/Users/jrose/Documents/PSYCHOLOGY","no","Andale Mono","no","18","no","white","no","yes","576","legacy","75","75","3","C:/Users/jrose/Documents/PSYCHOLOGY/subject-5226187.csv","legacy","Lentiform Loewenfeld","3.3.7","yes","yes","600bd7cfb6416f0113b04181","602110864497cf011d9c0822","0","f","NA","space","space","space","space","f","580","NA","4581","12849","4123","3732","580","2","legacy","1024","2","48000","-16","task","5226187","odd","NA","52910","59493","54911","200182","28299","45292","41168","200683","151662","200180","200684","200117","59493","201265","51260","199617","26971","195133","Lexical Decision Task","72","51073","80","yes","1024"
"3.067070856","9.39","3","loud","word","90.12345679012346","90.12345679012346","638.2716049382716","638.2716049382716","black","no","legacy","legacy","legacy","0","uniform","1","undefined","undefined","undefined","1","j","0","0","0","0","80","0","0","0","80","0","76","80","76","0","76","3","80","0","80","Wed Feb 17 11:54:24 2021","The main experiment item","yes","Lexical_Decision_Task.osexp","C:/Users/jrose/Documents/PSYCHOLOGY","no","Andale Mono","no","18","no","white","no","yes","576","legacy","76","76","3","C:/Users/jrose/Documents/PSYCHOLOGY/subject-5226187.csv","legacy","Lentiform Loewenfeld","3.3.7","yes","yes","600bd7cfb6416f0113b04181","602110864497cf011d9c0822","0","j","NA","space","space","space","space","j","627","NA","4581","12849","4123","3732","627","2","legacy","1024","2","48000","-16","task","5226187","odd","NA","52910","59493","54911","201837","28299","45292","41168","202338","151662","201835","202338","201773","59493","202966","51260","201273","26971","195133","Lexical Decision Task","73","51700","81","yes","1024"
"2.986323777","10.85","8","ship","word","90.2439024390244","90.2439024390244","637.8658536585366","637.8658536585366","black","no","legacy","legacy","legacy","0","uniform","1","undefined","undefined","undefined","1","j","0","0","0","0","81","0","0","0","81","0","77","81","77","0","77","3","81","0","81","Wed Feb 17 11:54:24 2021","The main experiment item","yes","Lexical_Decision_Task.osexp","C:/Users/jrose/Documents/PSYCHOLOGY","no","Andale Mono","no","18","no","white","no","yes","576","legacy","77","77","3","C:/Users/jrose/Documents/PSYCHOLOGY/subject-5226187.csv","legacy","Lentiform Loewenfeld","3.3.7","yes","yes","600bd7cfb6416f0113b04181","602110864497cf011d9c0822","0","j","NA","space","space","space","space","j","605","NA","4581","12849","4123","3732","605","2","legacy","1024","2","48000","-16","task","5226187","odd","NA","52910","59493","54911","203538","28299","45292","41168","204039","151662","203536","204039","203472","59493","204645","51260","202972","26971","195133","Lexical Decision Task","74","52305","82","yes","1024"
"2.842815106","7.86","8","lump","word","90.36144578313252","90.36144578313252","639.6144578313254","639.6144578313254","black","no","legacy","legacy","legacy","0","uniform","1","undefined","undefined","undefined","1","j","0","0","0","0","82","0","0","0","82","0","78","82","78","0","78","3","82","0","82","Wed Feb 17 11:54:24 2021","The main experiment item","yes","Lexical_Decision_Task.osexp","C:/Users/jrose/Documents/PSYCHOLOGY","no","Andale Mono","no","18","no","white","no","yes","576","legacy","78","78","3","C:/Users/jrose/Documents/PSYCHOLOGY/subject-5226187.csv","legacy","Lentiform Loewenfeld","3.3.7","yes","yes","600bd7cfb6416f0113b04181","602110864497cf011d9c0822","0","j","NA","space","space","space","space","j","783","NA","4581","12849","4123","3732","783","2","legacy","1024","2","48000","-16","task","5226187","odd","NA","52910","59493","54911","205211","28299","45292","41168","205712","151662","205210","205712","205151","59493","206496","51260","204651","26971","195133","Lexical Decision Task","75","53088","83","yes","1024"
"2.69019608","9.01","2","myth","word","90.47619047619048","90.47619047619048","639.3095238095239","639.3095238095239","black","no","legacy","legacy","legacy","0","uniform","1","undefined","undefined","undefined","1","j","0","0","0","0","83","0","0","0","83","0","79","83","79","0","79","3","83","0","83","Wed Feb 17 11:54:24 2021","The main experiment item","yes","Lexical_Decision_Task.osexp","C:/Users/jrose/Documents/PSYCHOLOGY","no","Andale Mono","no","18","no","white","no","yes","576","legacy","79","79","3","C:/Users/jrose/Documents/PSYCHOLOGY/subject-5226187.csv","legacy","Lentiform Loewenfeld","3.3.7","yes","yes","600bd7cfb6416f0113b04181","602110864497cf011d9c0822","0","j","NA","space","space","space","space","j","614","NA","4581","12849","4123","3732","614","2","legacy","1024","2","48000","-16","task","5226187","odd","NA","52910","59493","54911","207079","28299","45292","41168","207580","151662","207077","207580","207014","59493","208195","51260","206514","26971","195133","Lexical Decision Task","76","53702","84","yes","1024"
"2.705007959","6.01","4","wept","word","90.58823529411765","90.58823529411765","637.9529411764706","637.9529411764706","black","no","legacy","legacy","legacy","0","uniform","1","undefined","undefined","undefined","1","j","0","0","0","0","84","0","0","0","84","0","80","84","80","0","80","3","84","0","84","Wed Feb 17 11:54:24 2021","The main experiment item","yes","Lexical_Decision_Task.osexp","C:/Users/jrose/Documents/PSYCHOLOGY","no","Andale Mono","no","18","no","white","no","yes","576","legacy","80","80","3","C:/Users/jrose/Documents/PSYCHOLOGY/subject-5226187.csv","legacy","Lentiform Loewenfeld","3.3.7","yes","yes","600bd7cfb6416f0113b04181","602110864497cf011d9c0822","0","j","NA","space","space","space","space","j","524","NA","4581","12849","4123","3732","524","2","legacy","1024","2","48000","-16","task","5226187","odd","NA","52910","59493","54911","208760","28299","45292","41168","209261","151662","208758","209261","208699","59493","209786","51260","208199","26971","195133","Lexical Decision Task","77","54226","85","yes","1024"
"3.366547468","0","6","plat","non-word","90.69767441860465","90.69767441860465","637.8837209302326","637.8837209302326","black","no","legacy","legacy","legacy","0","uniform","1","undefined","undefined","undefined","1","f","0","0","0","0","85","0","0","0","85","0","81","85","81","0","81","3","85","0","85","Wed Feb 17 11:54:24 2021","The main experiment item","yes","Lexical_Decision_Task.osexp","C:/Users/jrose/Documents/PSYCHOLOGY","no","Andale Mono","no","18","no","white","no","yes","576","legacy","81","81","3","C:/Users/jrose/Documents/PSYCHOLOGY/subject-5226187.csv","legacy","Lentiform Loewenfeld","3.3.7","yes","yes","600bd7cfb6416f0113b04181","602110864497cf011d9c0822","0","f","NA","space","space","space","space","f","632","NA","4581","12849","4123","3732","632","2","legacy","1024","2","48000","-16","task","5226187","odd","NA","52910","59493","54911","210351","28299","45292","41168","210852","151662","210350","210852","210291","59493","211485","51260","209790","26971","195133","Lexical Decision Task","78","54858","86","yes","1024"
"3.16326079","0","5","parg","non-word","90.80459770114942","90.80459770114942","638.4827586206897","638.4827586206897","black","no","legacy","legacy","legacy","0","uniform","1","undefined","undefined","undefined","1","f","0","0","0","0","86","0","0","0","86","0","82","86","82","0","82","3","86","0","86","Wed Feb 17 11:54:24 2021","The main experiment item","yes","Lexical_Decision_Task.osexp","C:/Users/jrose/Documents/PSYCHOLOGY","no","Andale Mono","no","18","no","white","no","yes","576","legacy","82","82","3","C:/Users/jrose/Documents/PSYCHOLOGY/subject-5226187.csv","legacy","Lentiform Loewenfeld","3.3.7","yes","yes","600bd7cfb6416f0113b04181","602110864497cf011d9c0822","0","f","NA","space","space","space","space","f","690","NA","4581","12849","4123","3732","690","2","legacy","1024","2","48000","-16","task","5226187","odd","NA","52910","59493","54911","212054","28299","45292","41168","212555","151662","212053","212555","211991","59493","213246","51260","211491","26971","195133","Lexical Decision Task","79","55548","87","yes","1024"
"2.7084209","0","8","vump","non-word","90.9090909090909","90.9090909090909","637.7159090909091","637.7159090909091","black","no","legacy","legacy","legacy","0","uniform","1","undefined","undefined","undefined","1","f","0","0","0","0","87","0","0","0","87","0","83","87","83","0","83","3","87","0","87","Wed Feb 17 11:54:24 2021","The main experiment item","yes","Lexical_Decision_Task.osexp","C:/Users/jrose/Documents/PSYCHOLOGY","no","Andale Mono","no","18","no","white","no","yes","576","legacy","83","83","3","C:/Users/jrose/Documents/PSYCHOLOGY/subject-5226187.csv","legacy","Lentiform Loewenfeld","3.3.7","yes","yes","600bd7cfb6416f0113b04181","602110864497cf011d9c0822","0","f","NA","space","space","space","space","f","571","NA","4581","12849","4123","3732","571","2","legacy","1024","2","48000","-16","task","5226187","odd","NA","52910","59493","54911","213883","28299","45292","41168","214385","151662","213882","214385","213811","59493","214957","51260","213311","26971","195133","Lexical Decision Task","80","56119","88","yes","1024"
"2.696356389","0","1","pizz","non-word","91.01123595505618","91.01123595505618","637.6404494382023","637.6404494382023","black","no","legacy","legacy","legacy","0","uniform","1","undefined","undefined","undefined","1","f","0","0","0","0","88","0","0","0","88","0","84","88","84","0","84","3","88","0","88","Wed Feb 17 11:54:24 2021","The main experiment item","yes","Lexical_Decision_Task.osexp","C:/Users/jrose/Documents/PSYCHOLOGY","no","Andale Mono","no","18","no","white","no","yes","576","legacy","84","84","3","C:/Users/jrose/Documents/PSYCHOLOGY/subject-5226187.csv","legacy","Lentiform Loewenfeld","3.3.7","yes","yes","600bd7cfb6416f0113b04181","602110864497cf011d9c0822","0","f","NA","space","space","space","space","f","631","NA","4581","12849","4123","3732","631","2","legacy","1024","2","48000","-16","task","5226187","odd","NA","52910","59493","54911","215534","28299","45292","41168","216035","151662","215532","216035","215467","59493","216667","51260","214967","26971","195133","Lexical Decision Task","81","56750","89","yes","1024"
"2.875447132","0","9","jelt","non-word","91.11111111111111","91.11111111111111","637.2777777777778","637.2777777777778","black","no","legacy","legacy","legacy","0","uniform","1","undefined","undefined","undefined","1","f","0","0","0","0","89","0","0","0","89","0","85","89","85","0","85","3","89","0","89","Wed Feb 17 11:54:24 2021","The main experiment item","yes","Lexical_Decision_Task.osexp","C:/Users/jrose/Documents/PSYCHOLOGY","no","Andale Mono","no","18","no","white","no","yes","576","legacy","85","85","3","C:/Users/jrose/Documents/PSYCHOLOGY/subject-5226187.csv","legacy","Lentiform Loewenfeld","3.3.7","yes","yes","600bd7cfb6416f0113b04181","602110864497cf011d9c0822","0","f","NA","space","space","space","space","f","605","NA","4581","12849","4123","3732","605","2","legacy","1024","2","48000","-16","task","5226187","odd","NA","52910","59493","54911","217240","28299","45292","41168","217741","151662","217239","217741","217175","59493","218347","51260","216675","26971","195133","Lexical Decision Task","82","57355","90","yes","1024"
"2.983324025","9.56","2","debt","word","91.20879120879121","91.20879120879121","637.5824175824176","637.5824175824176","black","no","legacy","legacy","legacy","0","uniform","1","undefined","undefined","undefined","1","j","0","0","0","0","90","0","0","0","90","0","86","90","86","0","86","3","90","0","90","Wed Feb 17 11:54:24 2021","The main experiment item","yes","Lexical_Decision_Task.osexp","C:/Users/jrose/Documents/PSYCHOLOGY","no","Andale Mono","no","18","no","white","no","yes","576","legacy","86","86","3","C:/Users/jrose/Documents/PSYCHOLOGY/subject-5226187.csv","legacy","Lentiform Loewenfeld","3.3.7","yes","yes","600bd7cfb6416f0113b04181","602110864497cf011d9c0822","0","j","NA","space","space","space","space","j","665","NA","4581","12849","4123","3732","665","2","legacy","1024","2","48000","-16","task","5226187","odd","NA","52910","59493","54911","218918","28299","45292","41168","219420","151662","218916","219420","218853","59493","220087","51260","218353","26971","195133","Lexical Decision Task","83","58020","91","yes","1024"
"3.208172527","10.27","7","deck","word","91.30434782608695","91.30434782608695","637.7282608695652","637.7282608695652","black","no","legacy","legacy","legacy","0","uniform","1","undefined","undefined","undefined","1","j","0","0","0","0","91","0","0","0","91","0","87","91","87","0","87","3","91","0","91","Wed Feb 17 11:54:24 2021","The main experiment item","yes","Lexical_Decision_Task.osexp","C:/Users/jrose/Documents/PSYCHOLOGY","no","Andale Mono","no","18","no","white","no","yes","576","legacy","87","87","3","C:/Users/jrose/Documents/PSYCHOLOGY/subject-5226187.csv","legacy","Lentiform Loewenfeld","3.3.7","yes","yes","600bd7cfb6416f0113b04181","602110864497cf011d9c0822","0","j","NA","space","space","space","space","j","651","NA","4581","12849","4123","3732","651","2","legacy","1024","2","48000","-16","task","5226187","odd","NA","52910","59493","54911","220653","28299","45292","41168","221154","151662","220651","221154","220590","59493","221807","51260","220090","26971","195133","Lexical Decision Task","84","58671","92","yes","1024"
"3.028977705","0","7","frow","non-word","91.39784946236558","91.39784946236558","640.8387096774194","640.8387096774194","black","no","legacy","legacy","legacy","0","uniform","1","undefined","undefined","undefined","1","f","0","0","0","0","92","0","0","0","92","0","88","92","88","0","88","3","92","0","92","Wed Feb 17 11:54:24 2021","The main experiment item","yes","Lexical_Decision_Task.osexp","C:/Users/jrose/Documents/PSYCHOLOGY","no","Andale Mono","no","18","no","white","no","yes","576","legacy","88","88","3","C:/Users/jrose/Documents/PSYCHOLOGY/subject-5226187.csv","legacy","Lentiform Loewenfeld","3.3.7","yes","yes","600bd7cfb6416f0113b04181","602110864497cf011d9c0822","0","f","NA","space","space","space","space","f","927","NA","4581","12849","4123","3732","927","2","legacy","1024","2","48000","-16","task","5226187","odd","NA","52910","59493","54911","222378","28299","45292","41168","222879","151662","222377","222879","222315","59493","223807","51260","221815","26971","195133","Lexical Decision Task","85","59598","93","yes","1024"
"2.784379519","0","2","snaf","non-word","91.48936170212765","91.48936170212765","640.6382978723404","640.6382978723404","black","no","legacy","legacy","legacy","0","uniform","1","undefined","undefined","undefined","1","f","0","0","0","0","93","0","0","0","93","0","89","93","89","0","89","3","93","0","93","Wed Feb 17 11:54:24 2021","The main experiment item","yes","Lexical_Decision_Task.osexp","C:/Users/jrose/Documents/PSYCHOLOGY","no","Andale Mono","no","18","no","white","no","yes","576","legacy","89","89","3","C:/Users/jrose/Documents/PSYCHOLOGY/subject-5226187.csv","legacy","Lentiform Loewenfeld","3.3.7","yes","yes","600bd7cfb6416f0113b04181","602110864497cf011d9c0822","0","f","NA","space","space","space","space","f","622","NA","4581","12849","4123","3732","622","2","legacy","1024","2","48000","-16","task","5226187","odd","NA","52910","59493","54911","224372","28299","45292","41168","224874","151662","224371","224874","224311","59493","225497","51260","223811","26971","195133","Lexical Decision Task","86","60220","94","yes","1024"
"2.819763221","0","2","durp","non-word","91.57894736842105","91.57894736842105","639.9157894736842","639.9157894736842","black","no","legacy","legacy","legacy","0","uniform","1","undefined","undefined","undefined","1","f","0","0","0","0","94","0","0","0","94","0","90","94","90","0","90","3","94","0","94","Wed Feb 17 11:54:24 2021","The main experiment item","yes","Lexical_Decision_Task.osexp","C:/Users/jrose/Documents/PSYCHOLOGY","no","Andale Mono","no","18","no","white","no","yes","576","legacy","90","90","3","C:/Users/jrose/Documents/PSYCHOLOGY/subject-5226187.csv","legacy","Lentiform Loewenfeld","3.3.7","yes","yes","600bd7cfb6416f0113b04181","602110864497cf011d9c0822","0","f","NA","space","space","space","space","f","572","NA","4581","12849","4123","3732","572","2","legacy","1024","2","48000","-16","task","5226187","odd","NA","52910","59493","54911","226073","28299","45292","41168","226574","151662","226071","226574","226004","59493","227147","51260","225504","26971","195133","Lexical Decision Task","87","60792","95","yes","1024"
"2.695481676","0","7","goke","non-word","91.66666666666667","91.66666666666667","638.78125","638.78125","black","no","legacy","legacy","legacy","0","uniform","1","undefined","undefined","undefined","1","f","0","0","0","0","95","0","0","0","95","0","91","95","91","0","91","3","95","0","95","Wed Feb 17 11:54:24 2021","The main experiment item","yes","Lexical_Decision_Task.osexp","C:/Users/jrose/Documents/PSYCHOLOGY","no","Andale Mono","no","18","no","white","no","yes","576","legacy","91","91","3","C:/Users/jrose/Documents/PSYCHOLOGY/subject-5226187.csv","legacy","Lentiform Loewenfeld","3.3.7","yes","yes","600bd7cfb6416f0113b04181","602110864497cf011d9c0822","0","f","NA","space","space","space","space","f","531","NA","4581","12849","4123","3732","531","2","legacy","1024","2","48000","-16","task","5226187","odd","NA","52910","59493","54911","227714","28299","45292","41168","228215","151662","227711","228215","227651","59493","228747","51260","227151","26971","195133","Lexical Decision Task","88","61323","96","yes","1024"
"2.703007489","8.37","3","pulp","word","90.72164948453609","90.72164948453609","639.8453608247422","639.8453608247422","black","no","legacy","legacy","legacy","0","uniform","0","undefined","undefined","undefined","0","j","0","0","0","0","96","0","0","0","96","0","92","96","92","0","92","3","96","0","96","Wed Feb 17 11:54:24 2021","The main experiment item","yes","Lexical_Decision_Task.osexp","C:/Users/jrose/Documents/PSYCHOLOGY","no","Andale Mono","no","18","no","white","no","yes","576","legacy","92","92","3","C:/Users/jrose/Documents/PSYCHOLOGY/subject-5226187.csv","legacy","Lentiform Loewenfeld","3.3.7","yes","yes","600bd7cfb6416f0113b04181","602110864497cf011d9c0822","0","f","NA","space","space","space","space","f","742","NA","4581","12849","4123","3732","742","2","legacy","1024","2","48000","-16","task","5226187","odd","NA","52910","59493","54911","229322","28299","45292","41168","229824","151662","229319","229824","229252","59493","230567","51260","228752","26971","195133","Lexical Decision Task","88","62065","97","yes","1024"
"2.693726949","5.08","3","swig","word","90.81632653061224","90.81632653061224","639.0918367346939","639.0918367346939","black","no","legacy","legacy","legacy","0","uniform","1","undefined","undefined","undefined","1","j","0","0","0","0","97","0","0","0","97","0","93","97","93","0","93","3","97","0","97","Wed Feb 17 11:54:24 2021","The main experiment item","yes","Lexical_Decision_Task.osexp","C:/Users/jrose/Documents/PSYCHOLOGY","no","Andale Mono","no","18","no","white","no","yes","576","legacy","93","93","3","C:/Users/jrose/Documents/PSYCHOLOGY/subject-5226187.csv","legacy","Lentiform Loewenfeld","3.3.7","yes","yes","600bd7cfb6416f0113b04181","602110864497cf011d9c0822","0","j","NA","space","space","space","space","j","566","NA","4581","12849","4123","3732","566","2","legacy","1024","2","48000","-16","task","5226187","odd","NA","52910","59493","54911","232139","28299","45292","41168","232640","151662","232137","232640","232073","59493","233209","51260","228752","26971","230573","Lexical Decision Task","89","62631","98","yes","1024"
