"Log_BG","Log_Freq_HAL","Ortho_N","Stimulus","Type","acc","accuracy","average_response_time","avg_rt","background","bidi","canvas_backend","clock_backend","color_backend","compensation","coordinates","correct","correct_Experimental_intro","correct_Introduction","correct_Practice_intro","correct_experimenter_kb","correct_response","count_End_Of_Experiment","count_End_Of_Practice","count_Experimental_Loop","count_Experimental_intro","count_Fixation","count_Introduction","count_Practice_Loop","count_Practice_intro","count_Stimulus","count_block_break_feedback","count_experimental_sequence","count_experimenter_kb","count_increment_trial_count","count_init_trial_count","count_logger","count_practice_sequence","count_right","count_task","count_wrong","datetime","description","disable_garbage_collection","experiment_file","experiment_path","font_bold","font_family","font_italic","font_size","font_underline","foreground","form_clicks","fullscreen","height","keyboard_backend","live_row","live_row_Experimental_Loop","live_row_Practice_Loop","logfile","mouse_backend","opensesame_codename","opensesame_version","osf_always_upload_data","osf_always_upload_experiment","osf_datanode_id","osf_id","repeat_cycle","response","response_End_Of_Experiment","response_Experimental_intro","response_Introduction","response_Practice_intro","response_block_break_feedback","response_experimenter_kb","response_time","response_time_End_Of_Experiment","response_time_Experimental_intro","response_time_Introduction","response_time_Practice_intro","response_time_block_break_feedback","response_time_experimenter_kb","round_decimals","sampler_backend","sound_buf_size","sound_channels","sound_freq","sound_sample_size","start","subject_nr","subject_parity","time_End_Of_Experiment","time_End_Of_Practice","time_Experimental_Loop","time_Experimental_intro","time_Fixation","time_Introduction","time_Practice_Loop","time_Practice_intro","time_Stimulus","time_block_break_feedback","time_experimental_sequence","time_experimenter_kb","time_increment_trial_count","time_init_trial_count","time_logger","time_practice_sequence","time_right","time_task","time_wrong","title","total_correct","total_response_time","total_responses","uniform_coordinates","width"
"3.14849993","10.75","7","hour","word","100","100","706.6","706.6","black","no","legacy","legacy","legacy","0","uniform","1","undefined","undefined","undefined","1","j","0","0","0","0","4","0","0","0","4","NA","0","4","0","0","0","3","4","0","4","Wed Feb 17 11:22:03 2021","The main experiment item","yes","Lexical_Decision_Task.osexp","/Users/charlotterowe/Desktop","no","Andale Mono","no","18","no","white","no","yes","576","legacy","0","0","3","/Users/charlotterowe/Desktop/subject-5202101.csv","legacy","Lentiform Loewenfeld","3.3.7","yes","yes","600bd7cfb6416f0113b04181","602110864497cf011d9c0822","0","j","NA","space","space","space","NA","j","738","NA","2532","10190","2197","NA","738","2","legacy","1024","2","48000","-16","task","5202101","odd","NA","25103","29640","27107","29666","5614","18014","15814","30169","NA","29664","30169","NA","29640","30908","23396","24571","5578","NA","Lexical Decision Task","5","3533","5","yes","1024"
"2.899092422","7.27","6","snag","word","100","100","699.8333333333334","699.8333333333334","black","no","legacy","legacy","legacy","0","uniform","1","undefined","undefined","undefined","1","j","0","0","0","0","5","0","0","0","5","NA","1","5","1","0","1","3","5","0","5","Wed Feb 17 11:22:03 2021","The main experiment item","yes","Lexical_Decision_Task.osexp","/Users/charlotterowe/Desktop","no","Andale Mono","no","18","no","white","no","yes","576","legacy","1","1","3","/Users/charlotterowe/Desktop/subject-5202101.csv","legacy","Lentiform Loewenfeld","3.3.7","yes","yes","600bd7cfb6416f0113b04181","602110864497cf011d9c0822","0","j","NA","space","space","space","NA","j","666","NA","2532","10190","2197","NA","666","2","legacy","1024","2","48000","-16","task","5202101","odd","NA","25103","29640","27107","31479","5614","18014","15814","31982","NA","31476","31982","31414","29640","32649","23396","30914","5578","NA","Lexical Decision Task","6","4199","6","yes","1024"
"2.920123326","7.43","4","duel","word","100","100","677.4285714285714","677.4285714285714","black","no","legacy","legacy","legacy","0","uniform","1","undefined","undefined","undefined","1","j","0","0","0","0","6","0","0","0","6","NA","2","6","2","0","2","3","6","0","6","Wed Feb 17 11:22:03 2021","The main experiment item","yes","Lexical_Decision_Task.osexp","/Users/charlotterowe/Desktop","no","Andale Mono","no","18","no","white","no","yes","576","legacy","2","2","3","/Users/charlotterowe/Desktop/subject-5202101.csv","legacy","Lentiform Loewenfeld","3.3.7","yes","yes","600bd7cfb6416f0113b04181","602110864497cf011d9c0822","0","j","NA","space","space","space","NA","j","543","NA","2532","10190","2197","NA","543","2","legacy","1024","2","48000","-16","task","5202101","odd","NA","25103","29640","27107","33215","5614","18014","15814","33718","NA","33212","33718","33153","29640","34262","23396","32653","5578","NA","Lexical Decision Task","7","4742","7","yes","1024"
"2.698387659","6.66","7","skid","word","100","100","652.875","652.875","black","no","legacy","legacy","legacy","0","uniform","1","undefined","undefined","undefined","1","j","0","0","0","0","7","0","0","0","7","NA","3","7","3","0","3","3","7","0","7","Wed Feb 17 11:22:03 2021","The main experiment item","yes","Lexical_Decision_Task.osexp","/Users/charlotterowe/Desktop","no","Andale Mono","no","18","no","white","no","yes","576","legacy","3","3","3","/Users/charlotterowe/Desktop/subject-5202101.csv","legacy","Lentiform Loewenfeld","3.3.7","yes","yes","600bd7cfb6416f0113b04181","602110864497cf011d9c0822","0","j","NA","space","space","space","NA","j","481","NA","2532","10190","2197","NA","481","2","legacy","1024","2","48000","-16","task","5202101","odd","NA","25103","29640","27107","34829","5614","18014","15814","35332","NA","34826","35332","34766","29640","35814","23396","34265","5578","NA","Lexical Decision Task","8","5223","8","yes","1024"
"2.966923697","5.4","2","fume","word","100","100","638.2222222222222","638.2222222222222","black","no","legacy","legacy","legacy","0","uniform","1","undefined","undefined","undefined","1","j","0","0","0","0","8","0","0","0","8","NA","4","8","4","0","4","3","8","0","8","Wed Feb 17 11:22:03 2021","The main experiment item","yes","Lexical_Decision_Task.osexp","/Users/charlotterowe/Desktop","no","Andale Mono","no","18","no","white","no","yes","576","legacy","4","4","3","/Users/charlotterowe/Desktop/subject-5202101.csv","legacy","Lentiform Loewenfeld","3.3.7","yes","yes","600bd7cfb6416f0113b04181","602110864497cf011d9c0822","0","j","NA","space","space","space","NA","j","521","NA","2532","10190","2197","NA","521","2","legacy","1024","2","48000","-16","task","5202101","odd","NA","25103","29640","27107","36381","5614","18014","15814","36884","NA","36378","36884","36318","29640","37406","23396","35818","5578","NA","Lexical Decision Task","9","5744","9","yes","1024"
"2.708989954","9.28","9","bowl","word","100","100","616","616","black","no","legacy","legacy","legacy","0","uniform","1","undefined","undefined","undefined","1","j","0","0","0","0","9","0","0","0","9","NA","5","9","5","0","5","3","9","0","9","Wed Feb 17 11:22:03 2021","The main experiment item","yes","Lexical_Decision_Task.osexp","/Users/charlotterowe/Desktop","no","Andale Mono","no","18","no","white","no","yes","576","legacy","5","5","3","/Users/charlotterowe/Desktop/subject-5202101.csv","legacy","Lentiform Loewenfeld","3.3.7","yes","yes","600bd7cfb6416f0113b04181","602110864497cf011d9c0822","0","j","NA","space","space","space","NA","j","416","NA","2532","10190","2197","NA","416","2","legacy","1024","2","48000","-16","task","5202101","odd","NA","25103","29640","27107","37972","5614","18014","15814","38475","NA","37969","38475","37910","29640","38892","23396","37409","5578","NA","Lexical Decision Task","10","6160","10","yes","1024"
"2.814027728","8.2","4","foam","word","100","100","594.9090909090909","594.9090909090909","black","no","legacy","legacy","legacy","0","uniform","1","undefined","undefined","undefined","1","j","0","0","0","0","10","0","0","0","10","NA","6","10","6","0","6","3","10","0","10","Wed Feb 17 11:22:03 2021","The main experiment item","yes","Lexical_Decision_Task.osexp","/Users/charlotterowe/Desktop","no","Andale Mono","no","18","no","white","no","yes","576","legacy","6","6","3","/Users/charlotterowe/Desktop/subject-5202101.csv","legacy","Lentiform Loewenfeld","3.3.7","yes","yes","600bd7cfb6416f0113b04181","602110864497cf011d9c0822","0","j","NA","space","space","space","NA","j","384","NA","2532","10190","2197","NA","384","2","legacy","1024","2","48000","-16","task","5202101","odd","NA","25103","29640","27107","39459","5614","18014","15814","39962","NA","39456","39962","39396","29640","40347","23396","38896","5578","NA","Lexical Decision Task","11","6544","11","yes","1024"
"2.794720352","0","9","koot","non-word","100","100","593.0833333333334","593.0833333333334","black","no","legacy","legacy","legacy","0","uniform","1","undefined","undefined","undefined","1","f","0","0","0","0","11","0","0","0","11","NA","7","11","7","0","7","3","11","0","11","Wed Feb 17 11:22:03 2021","The main experiment item","yes","Lexical_Decision_Task.osexp","/Users/charlotterowe/Desktop","no","Andale Mono","no","18","no","white","no","yes","576","legacy","7","7","3","/Users/charlotterowe/Desktop/subject-5202101.csv","legacy","Lentiform Loewenfeld","3.3.7","yes","yes","600bd7cfb6416f0113b04181","602110864497cf011d9c0822","0","f","NA","space","space","space","NA","f","573","NA","2532","10190","2197","NA","573","2","legacy","1024","2","48000","-16","task","5202101","odd","NA","25103","29640","27107","40912","5614","18014","15814","41415","NA","40909","41415","40851","29640","41988","23396","40351","5578","NA","Lexical Decision Task","12","7117","12","yes","1024"
"2.972819734","0","4","scew","non-word","100","100","602","602","black","no","legacy","legacy","legacy","0","uniform","1","undefined","undefined","undefined","1","f","0","0","0","0","12","0","0","0","12","NA","8","12","8","0","8","3","12","0","12","Wed Feb 17 11:22:03 2021","The main experiment item","yes","Lexical_Decision_Task.osexp","/Users/charlotterowe/Desktop","no","Andale Mono","no","18","no","white","no","yes","576","legacy","8","8","3","/Users/charlotterowe/Desktop/subject-5202101.csv","legacy","Lentiform Loewenfeld","3.3.7","yes","yes","600bd7cfb6416f0113b04181","602110864497cf011d9c0822","0","f","NA","space","space","space","NA","f","709","NA","2532","10190","2197","NA","709","2","legacy","1024","2","48000","-16","task","5202101","odd","NA","25103","29640","27107","42556","5614","18014","15814","43059","NA","42553","43059","42492","29640","43769","23396","41992","5578","NA","Lexical Decision Task","13","7826","13","yes","1024"
"2.696356389","0","1","pizz","non-word","100","100","624.3571428571429","624.3571428571429","black","no","legacy","legacy","legacy","0","uniform","1","undefined","undefined","undefined","1","f","0","0","0","0","13","0","0","0","13","NA","9","13","9","0","9","3","13","0","13","Wed Feb 17 11:22:03 2021","The main experiment item","yes","Lexical_Decision_Task.osexp","/Users/charlotterowe/Desktop","no","Andale Mono","no","18","no","white","no","yes","576","legacy","9","9","3","/Users/charlotterowe/Desktop/subject-5202101.csv","legacy","Lentiform Loewenfeld","3.3.7","yes","yes","600bd7cfb6416f0113b04181","602110864497cf011d9c0822","0","f","NA","space","space","space","NA","f","915","NA","2532","10190","2197","NA","915","2","legacy","1024","2","48000","-16","task","5202101","odd","NA","25103","29640","27107","44334","5614","18014","15814","44837","NA","44331","44838","44272","29640","45753","23396","43772","5578","NA","Lexical Decision Task","14","8741","14","yes","1024"
"2.839898939","8.99","6","soap","word","100","100","616.4666666666667","616.4666666666667","black","no","legacy","legacy","legacy","0","uniform","1","undefined","undefined","undefined","1","j","0","0","0","0","14","0","0","0","14","NA","10","14","10","0","10","3","14","0","14","Wed Feb 17 11:22:03 2021","The main experiment item","yes","Lexical_Decision_Task.osexp","/Users/charlotterowe/Desktop","no","Andale Mono","no","18","no","white","no","yes","576","legacy","10","10","3","/Users/charlotterowe/Desktop/subject-5202101.csv","legacy","Lentiform Loewenfeld","3.3.7","yes","yes","600bd7cfb6416f0113b04181","602110864497cf011d9c0822","0","j","NA","space","space","space","NA","j","506","NA","2532","10190","2197","NA","506","2","legacy","1024","2","48000","-16","task","5202101","odd","NA","25103","29640","27107","46319","5614","18014","15814","46822","NA","46316","46822","46257","29640","47329","23396","45757","5578","NA","Lexical Decision Task","15","9247","15","yes","1024"
"3.276537627","9.15","5","trap","word","100","100","609.0625","609.0625","black","no","legacy","legacy","legacy","0","uniform","1","undefined","undefined","undefined","1","j","0","0","0","0","15","0","0","0","15","NA","11","15","11","0","11","3","15","0","15","Wed Feb 17 11:22:03 2021","The main experiment item","yes","Lexical_Decision_Task.osexp","/Users/charlotterowe/Desktop","no","Andale Mono","no","18","no","white","no","yes","576","legacy","11","11","3","/Users/charlotterowe/Desktop/subject-5202101.csv","legacy","Lentiform Loewenfeld","3.3.7","yes","yes","600bd7cfb6416f0113b04181","602110864497cf011d9c0822","0","j","NA","space","space","space","NA","j","498","NA","2532","10190","2197","NA","498","2","legacy","1024","2","48000","-16","task","5202101","odd","NA","25103","29640","27107","47899","5614","18014","15814","48402","NA","47896","48402","47833","29640","48901","23396","47333","5578","NA","Lexical Decision Task","16","9745","16","yes","1024"
"2.668385917","5.48","4","twig","word","100","100","611.5294117647059","611.5294117647059","black","no","legacy","legacy","legacy","0","uniform","1","undefined","undefined","undefined","1","j","0","0","0","0","16","0","0","0","16","NA","12","16","12","0","12","3","16","0","16","Wed Feb 17 11:22:03 2021","The main experiment item","yes","Lexical_Decision_Task.osexp","/Users/charlotterowe/Desktop","no","Andale Mono","no","18","no","white","no","yes","576","legacy","12","12","3","/Users/charlotterowe/Desktop/subject-5202101.csv","legacy","Lentiform Loewenfeld","3.3.7","yes","yes","600bd7cfb6416f0113b04181","602110864497cf011d9c0822","0","j","NA","space","space","space","NA","j","651","NA","2532","10190","2197","NA","651","2","legacy","1024","2","48000","-16","task","5202101","odd","NA","25103","29640","27107","49467","5614","18014","15814","49969","NA","49465","49970","49404","29640","50622","23396","48904","5578","NA","Lexical Decision Task","17","10396","17","yes","1024"
"3.062080345","0","6","tomp","non-word","100","100","609.6666666666666","609.6666666666666","black","no","legacy","legacy","legacy","0","uniform","1","undefined","undefined","undefined","1","f","0","0","0","0","17","0","0","0","17","NA","13","17","13","0","13","3","17","0","17","Wed Feb 17 11:22:03 2021","The main experiment item","yes","Lexical_Decision_Task.osexp","/Users/charlotterowe/Desktop","no","Andale Mono","no","18","no","white","no","yes","576","legacy","13","13","3","/Users/charlotterowe/Desktop/subject-5202101.csv","legacy","Lentiform Loewenfeld","3.3.7","yes","yes","600bd7cfb6416f0113b04181","602110864497cf011d9c0822","0","f","NA","space","space","space","NA","f","578","NA","2532","10190","2197","NA","578","2","legacy","1024","2","48000","-16","task","5202101","odd","NA","25103","29640","27107","51188","5614","18014","15814","51691","NA","51185","51691","51125","29640","52270","23396","50625","5578","NA","Lexical Decision Task","18","10974","18","yes","1024"
"3.216517684","10.87","3","film","word","100","100","610.2105263157895","610.2105263157895","black","no","legacy","legacy","legacy","0","uniform","1","undefined","undefined","undefined","1","j","0","0","0","0","18","0","0","0","18","NA","14","18","14","0","14","3","18","0","18","Wed Feb 17 11:22:03 2021","The main experiment item","yes","Lexical_Decision_Task.osexp","/Users/charlotterowe/Desktop","no","Andale Mono","no","18","no","white","no","yes","576","legacy","14","14","3","/Users/charlotterowe/Desktop/subject-5202101.csv","legacy","Lentiform Loewenfeld","3.3.7","yes","yes","600bd7cfb6416f0113b04181","602110864497cf011d9c0822","0","j","NA","space","space","space","NA","j","620","NA","2532","10190","2197","NA","620","2","legacy","1024","2","48000","-16","task","5202101","odd","NA","25103","29640","27107","52836","5614","18014","15814","53339","NA","52833","53339","52773","29640","53959","23396","52273","5578","NA","Lexical Decision Task","19","11594","19","yes","1024"
"3.153001286","8.7","5","palm","word","100","100","602.5","602.5","black","no","legacy","legacy","legacy","0","uniform","1","undefined","undefined","undefined","1","j","0","0","0","0","19","0","0","0","19","NA","15","19","15","0","15","3","19","0","19","Wed Feb 17 11:22:03 2021","The main experiment item","yes","Lexical_Decision_Task.osexp","/Users/charlotterowe/Desktop","no","Andale Mono","no","18","no","white","no","yes","576","legacy","15","15","3","/Users/charlotterowe/Desktop/subject-5202101.csv","legacy","Lentiform Loewenfeld","3.3.7","yes","yes","600bd7cfb6416f0113b04181","602110864497cf011d9c0822","0","j","NA","space","space","space","NA","j","456","NA","2532","10190","2197","NA","456","2","legacy","1024","2","48000","-16","task","5202101","odd","NA","25103","29640","27107","54527","5614","18014","15814","55029","NA","54524","55030","54463","29640","55487","23396","53963","5578","NA","Lexical Decision Task","20","12050","20","yes","1024"
"2.719886232","7.98","2","quiz","word","100","100","604.7619047619048","604.7619047619048","black","no","legacy","legacy","legacy","0","uniform","1","undefined","undefined","undefined","1","j","0","0","0","0","20","0","0","0","20","NA","16","20","16","0","16","3","20","0","20","Wed Feb 17 11:22:03 2021","The main experiment item","yes","Lexical_Decision_Task.osexp","/Users/charlotterowe/Desktop","no","Andale Mono","no","18","no","white","no","yes","576","legacy","16","16","3","/Users/charlotterowe/Desktop/subject-5202101.csv","legacy","Lentiform Loewenfeld","3.3.7","yes","yes","600bd7cfb6416f0113b04181","602110864497cf011d9c0822","0","j","NA","space","space","space","NA","j","650","NA","2532","10190","2197","NA","650","2","legacy","1024","2","48000","-16","task","5202101","odd","NA","25103","29640","27107","56057","5614","18014","15814","56559","NA","56054","56559","55991","29640","57210","23396","55490","5578","NA","Lexical Decision Task","21","12700","21","yes","1024"
"3.382617311","0","4","pret","non-word","100","100","617.9545454545455","617.9545454545455","black","no","legacy","legacy","legacy","0","uniform","1","undefined","undefined","undefined","1","f","0","0","0","0","21","0","0","0","21","NA","17","21","17","0","17","3","21","0","21","Wed Feb 17 11:22:03 2021","The main experiment item","yes","Lexical_Decision_Task.osexp","/Users/charlotterowe/Desktop","no","Andale Mono","no","18","no","white","no","yes","576","legacy","17","17","3","/Users/charlotterowe/Desktop/subject-5202101.csv","legacy","Lentiform Loewenfeld","3.3.7","yes","yes","600bd7cfb6416f0113b04181","602110864497cf011d9c0822","0","f","NA","space","space","space","NA","f","895","NA","2532","10190","2197","NA","895","2","legacy","1024","2","48000","-16","task","5202101","odd","NA","25103","29640","27107","57777","5614","18014","15814","58280","NA","57774","58280","57715","29640","59176","23396","57214","5578","NA","Lexical Decision Task","22","13595","22","yes","1024"
"2.86332286","6.71","2","feud","word","100","100","627.5652173913044","627.5652173913044","black","no","legacy","legacy","legacy","0","uniform","1","undefined","undefined","undefined","1","j","0","0","0","0","22","0","0","0","22","NA","18","22","18","0","18","3","22","0","22","Wed Feb 17 11:22:03 2021","The main experiment item","yes","Lexical_Decision_Task.osexp","/Users/charlotterowe/Desktop","no","Andale Mono","no","18","no","white","no","yes","576","legacy","18","18","3","/Users/charlotterowe/Desktop/subject-5202101.csv","legacy","Lentiform Loewenfeld","3.3.7","yes","yes","600bd7cfb6416f0113b04181","602110864497cf011d9c0822","0","j","NA","space","space","space","NA","j","839","NA","2532","10190","2197","NA","839","2","legacy","1024","2","48000","-16","task","5202101","odd","NA","25103","29640","27107","59744","5614","18014","15814","60246","NA","59742","60247","59679","29640","61087","23396","59179","5578","NA","Lexical Decision Task","23","14434","23","yes","1024"
"2.714888338","0","3","brug","non-word","100","100","627.2916666666666","627.2916666666666","black","no","legacy","legacy","legacy","0","uniform","1","undefined","undefined","undefined","1","f","0","0","0","0","23","0","0","0","23","NA","19","23","19","0","19","3","23","0","23","Wed Feb 17 11:22:03 2021","The main experiment item","yes","Lexical_Decision_Task.osexp","/Users/charlotterowe/Desktop","no","Andale Mono","no","18","no","white","no","yes","576","legacy","19","19","3","/Users/charlotterowe/Desktop/subject-5202101.csv","legacy","Lentiform Loewenfeld","3.3.7","yes","yes","600bd7cfb6416f0113b04181","602110864497cf011d9c0822","0","f","NA","space","space","space","NA","f","621","NA","2532","10190","2197","NA","621","2","legacy","1024","2","48000","-16","task","5202101","odd","NA","25103","29640","27107","61653","5614","18014","15814","62156","NA","61650","62156","61591","29640","62777","23396","61091","5578","NA","Lexical Decision Task","24","15055","24","yes","1024"
"3.081107167","0","6","chot","non-word","96","96","624.04","624.04","black","no","legacy","legacy","legacy","0","uniform","0","undefined","undefined","undefined","0","f","0","0","0","0","24","0","0","0","24","NA","20","24","20","0","20","3","24","0","24","Wed Feb 17 11:22:03 2021","The main experiment item","yes","Lexical_Decision_Task.osexp","/Users/charlotterowe/Desktop","no","Andale Mono","no","18","no","white","no","yes","576","legacy","20","20","3","/Users/charlotterowe/Desktop/subject-5202101.csv","legacy","Lentiform Loewenfeld","3.3.7","yes","yes","600bd7cfb6416f0113b04181","602110864497cf011d9c0822","0","j","NA","space","space","space","NA","j","546","NA","2532","10190","2197","NA","546","2","legacy","1024","2","48000","-16","task","5202101","odd","NA","25103","29640","27107","63343","5614","18014","15814","63846","NA","63340","63846","63281","29640","64393","23396","62781","5578","NA","Lexical Decision Task","24","15601","25","yes","1024"
"3.209246849","0","7","slem","non-word","96.15384615384616","96.15384615384616","631.4230769230769","631.4230769230769","black","no","legacy","legacy","legacy","0","uniform","1","undefined","undefined","undefined","1","f","0","0","0","0","25","0","0","0","25","NA","21","25","21","0","21","3","25","0","25","Wed Feb 17 11:22:03 2021","The main experiment item","yes","Lexical_Decision_Task.osexp","/Users/charlotterowe/Desktop","no","Andale Mono","no","18","no","white","no","yes","576","legacy","21","21","3","/Users/charlotterowe/Desktop/subject-5202101.csv","legacy","Lentiform Loewenfeld","3.3.7","yes","yes","600bd7cfb6416f0113b04181","602110864497cf011d9c0822","0","f","NA","space","space","space","NA","f","816","NA","2532","10190","2197","NA","816","2","legacy","1024","2","48000","-16","task","5202101","odd","NA","25103","29640","27107","65963","5614","18014","15814","66466","NA","65960","66466","65897","29640","67283","23396","62781","5578","64397","Lexical Decision Task","25","16417","26","yes","1024"
"2.980306438","0","7","slun","non-word","96.29629629629629","96.29629629629629","673.1111111111111","673.1111111111111","black","no","legacy","legacy","legacy","0","uniform","1","undefined","undefined","undefined","1","f","0","0","0","0","26","0","0","0","26","NA","22","26","22","0","22","3","26","0","26","Wed Feb 17 11:22:03 2021","The main experiment item","yes","Lexical_Decision_Task.osexp","/Users/charlotterowe/Desktop","no","Andale Mono","no","18","no","white","no","yes","576","legacy","22","22","3","/Users/charlotterowe/Desktop/subject-5202101.csv","legacy","Lentiform Loewenfeld","3.3.7","yes","yes","600bd7cfb6416f0113b04181","602110864497cf011d9c0822","0","f","NA","space","space","space","NA","f","1757","NA","2532","10190","2197","NA","1757","2","legacy","1024","2","48000","-16","task","5202101","odd","NA","25103","29640","27107","67849","5614","18014","15814","68352","NA","67847","68352","67788","29640","70110","23396","67288","5578","64397","Lexical Decision Task","26","18174","27","yes","1024"
"3.168890155","0","6","thet","non-word","96.42857142857143","96.42857142857143","672.5357142857143","672.5357142857143","black","no","legacy","legacy","legacy","0","uniform","1","undefined","undefined","undefined","1","f","0","0","0","0","27","0","0","0","27","NA","23","27","23","0","23","3","27","0","27","Wed Feb 17 11:22:03 2021","The main experiment item","yes","Lexical_Decision_Task.osexp","/Users/charlotterowe/Desktop","no","Andale Mono","no","18","no","white","no","yes","576","legacy","23","23","3","/Users/charlotterowe/Desktop/subject-5202101.csv","legacy","Lentiform Loewenfeld","3.3.7","yes","yes","600bd7cfb6416f0113b04181","602110864497cf011d9c0822","0","f","NA","space","space","space","NA","f","657","NA","2532","10190","2197","NA","657","2","legacy","1024","2","48000","-16","task","5202101","odd","NA","25103","29640","27107","70674","5614","18014","15814","71177","NA","70671","71177","70614","29640","71835","23396","70114","5578","64397","Lexical Decision Task","27","18831","28","yes","1024"
"3.460446784","0","5","dess","non-word","96.55172413793103","96.55172413793103","673.9310344827586","673.9310344827586","black","no","legacy","legacy","legacy","0","uniform","1","undefined","undefined","undefined","1","f","0","0","0","0","28","0","0","0","28","NA","24","28","24","0","24","3","28","0","28","Wed Feb 17 11:22:03 2021","The main experiment item","yes","Lexical_Decision_Task.osexp","/Users/charlotterowe/Desktop","no","Andale Mono","no","18","no","white","no","yes","576","legacy","24","24","3","/Users/charlotterowe/Desktop/subject-5202101.csv","legacy","Lentiform Loewenfeld","3.3.7","yes","yes","600bd7cfb6416f0113b04181","602110864497cf011d9c0822","0","f","NA","space","space","space","NA","f","713","NA","2532","10190","2197","NA","713","2","legacy","1024","2","48000","-16","task","5202101","odd","NA","25103","29640","27107","72402","5614","18014","15814","72905","NA","72399","72905","72339","29640","73619","23396","71839","5578","64397","Lexical Decision Task","28","19544","29","yes","1024"
"3.140404328","10.66","9","deep","word","96.66666666666667","96.66666666666667","670.5333333333333","670.5333333333333","black","no","legacy","legacy","legacy","0","uniform","1","undefined","undefined","undefined","1","j","0","0","0","0","29","0","0","0","29","NA","25","29","25","0","25","3","29","0","29","Wed Feb 17 11:22:03 2021","The main experiment item","yes","Lexical_Decision_Task.osexp","/Users/charlotterowe/Desktop","no","Andale Mono","no","18","no","white","no","yes","576","legacy","25","25","3","/Users/charlotterowe/Desktop/subject-5202101.csv","legacy","Lentiform Loewenfeld","3.3.7","yes","yes","600bd7cfb6416f0113b04181","602110864497cf011d9c0822","0","j","NA","space","space","space","NA","j","572","NA","2532","10190","2197","NA","572","2","legacy","1024","2","48000","-16","task","5202101","odd","NA","25103","29640","27107","74185","5614","18014","15814","74688","NA","74183","74688","74122","29640","75261","23396","73622","5578","64397","Lexical Decision Task","29","20116","30","yes","1024"
"2.64476673","0","5","moft","non-word","96.7741935483871","96.7741935483871","670.2258064516129","670.2258064516129","black","no","legacy","legacy","legacy","0","uniform","1","undefined","undefined","undefined","1","f","0","0","0","0","30","0","0","0","30","NA","26","30","26","0","26","3","30","0","30","Wed Feb 17 11:22:03 2021","The main experiment item","yes","Lexical_Decision_Task.osexp","/Users/charlotterowe/Desktop","no","Andale Mono","no","18","no","white","no","yes","576","legacy","26","26","3","/Users/charlotterowe/Desktop/subject-5202101.csv","legacy","Lentiform Loewenfeld","3.3.7","yes","yes","600bd7cfb6416f0113b04181","602110864497cf011d9c0822","0","f","NA","space","space","space","NA","f","661","NA","2532","10190","2197","NA","661","2","legacy","1024","2","48000","-16","task","5202101","odd","NA","25103","29640","27107","75828","5614","18014","15814","76330","NA","75825","76330","75764","29640","76992","23396","75264","5578","64397","Lexical Decision Task","30","20777","31","yes","1024"
"3.077974404","10.41","8","tool","word","96.875","96.875","666.78125","666.78125","black","no","legacy","legacy","legacy","0","uniform","1","undefined","undefined","undefined","1","j","0","0","0","0","31","0","0","0","31","NA","27","31","27","0","27","3","31","0","31","Wed Feb 17 11:22:03 2021","The main experiment item","yes","Lexical_Decision_Task.osexp","/Users/charlotterowe/Desktop","no","Andale Mono","no","18","no","white","no","yes","576","legacy","27","27","3","/Users/charlotterowe/Desktop/subject-5202101.csv","legacy","Lentiform Loewenfeld","3.3.7","yes","yes","600bd7cfb6416f0113b04181","602110864497cf011d9c0822","0","j","NA","space","space","space","NA","j","560","NA","2532","10190","2197","NA","560","2","legacy","1024","2","48000","-16","task","5202101","odd","NA","25103","29640","27107","77558","5614","18014","15814","78061","NA","77555","78061","77496","29640","78622","23396","76996","5578","64397","Lexical Decision Task","31","21337","32","yes","1024"
"3.248054965","7.86","5","glow","word","96.96969696969697","96.96969696969697","660.969696969697","660.969696969697","black","no","legacy","legacy","legacy","0","uniform","1","undefined","undefined","undefined","1","j","0","0","0","0","32","0","0","0","32","NA","28","32","28","0","28","3","32","0","32","Wed Feb 17 11:22:03 2021","The main experiment item","yes","Lexical_Decision_Task.osexp","/Users/charlotterowe/Desktop","no","Andale Mono","no","18","no","white","no","yes","576","legacy","28","28","3","/Users/charlotterowe/Desktop/subject-5202101.csv","legacy","Lentiform Loewenfeld","3.3.7","yes","yes","600bd7cfb6416f0113b04181","602110864497cf011d9c0822","0","j","NA","space","space","space","NA","j","475","NA","2532","10190","2197","NA","475","2","legacy","1024","2","48000","-16","task","5202101","odd","NA","25103","29640","27107","79188","5614","18014","15814","79690","NA","79185","79691","79126","29640","80167","23396","78626","5578","64397","Lexical Decision Task","32","21812","33","yes","1024"
"3.100255637","0","6","brax","non-word","97.05882352941177","97.05882352941177","657.8529411764706","657.8529411764706","black","no","legacy","legacy","legacy","0","uniform","1","undefined","undefined","undefined","1","f","0","0","0","0","33","0","0","0","33","NA","29","33","29","0","29","3","33","0","33","Wed Feb 17 11:22:03 2021","The main experiment item","yes","Lexical_Decision_Task.osexp","/Users/charlotterowe/Desktop","no","Andale Mono","no","18","no","white","no","yes","576","legacy","29","29","3","/Users/charlotterowe/Desktop/subject-5202101.csv","legacy","Lentiform Loewenfeld","3.3.7","yes","yes","600bd7cfb6416f0113b04181","602110864497cf011d9c0822","0","f","NA","space","space","space","NA","f","555","NA","2532","10190","2197","NA","555","2","legacy","1024","2","48000","-16","task","5202101","odd","NA","25103","29640","27107","80732","5614","18014","15814","81235","NA","80729","81235","80670","29640","81791","23396","80170","5578","64397","Lexical Decision Task","33","22367","34","yes","1024"
"2.845304797","0","6","buct","non-word","97.14285714285714","97.14285714285714","655.6571428571428","655.6571428571428","black","no","legacy","legacy","legacy","0","uniform","1","undefined","undefined","undefined","1","f","0","0","0","0","34","0","0","0","34","NA","30","34","30","0","30","3","34","0","34","Wed Feb 17 11:22:03 2021","The main experiment item","yes","Lexical_Decision_Task.osexp","/Users/charlotterowe/Desktop","no","Andale Mono","no","18","no","white","no","yes","576","legacy","30","30","3","/Users/charlotterowe/Desktop/subject-5202101.csv","legacy","Lentiform Loewenfeld","3.3.7","yes","yes","600bd7cfb6416f0113b04181","602110864497cf011d9c0822","0","f","NA","space","space","space","NA","f","581","NA","2532","10190","2197","NA","581","2","legacy","1024","2","48000","-16","task","5202101","odd","NA","25103","29640","27107","82352","5614","18014","15814","82855","NA","82350","82855","82294","29640","83437","23396","81794","5578","64397","Lexical Decision Task","34","22948","35","yes","1024"
"2.778633532","0","3","jurp","non-word","97.22222222222223","97.22222222222223","660.1111111111111","660.1111111111111","black","no","legacy","legacy","legacy","0","uniform","1","undefined","undefined","undefined","1","f","0","0","0","0","35","0","0","0","35","NA","31","35","31","0","31","3","35","0","35","Wed Feb 17 11:22:03 2021","The main experiment item","yes","Lexical_Decision_Task.osexp","/Users/charlotterowe/Desktop","no","Andale Mono","no","18","no","white","no","yes","576","legacy","31","31","3","/Users/charlotterowe/Desktop/subject-5202101.csv","legacy","Lentiform Loewenfeld","3.3.7","yes","yes","600bd7cfb6416f0113b04181","602110864497cf011d9c0822","0","f","NA","space","space","space","NA","f","816","NA","2532","10190","2197","NA","816","2","legacy","1024","2","48000","-16","task","5202101","odd","NA","25103","29640","27107","84004","5614","18014","15814","84507","NA","84002","84508","83941","29640","85325","23396","83441","5578","64397","Lexical Decision Task","35","23764","36","yes","1024"
"3.067070856","9.39","3","loud","word","97.29729729729729","97.29729729729729","657.1621621621622","657.1621621621622","black","no","legacy","legacy","legacy","0","uniform","1","undefined","undefined","undefined","1","j","0","0","0","0","36","0","0","0","36","NA","32","36","32","0","32","3","36","0","36","Wed Feb 17 11:22:03 2021","The main experiment item","yes","Lexical_Decision_Task.osexp","/Users/charlotterowe/Desktop","no","Andale Mono","no","18","no","white","no","yes","576","legacy","32","32","3","/Users/charlotterowe/Desktop/subject-5202101.csv","legacy","Lentiform Loewenfeld","3.3.7","yes","yes","600bd7cfb6416f0113b04181","602110864497cf011d9c0822","0","j","NA","space","space","space","NA","j","551","NA","2532","10190","2197","NA","551","2","legacy","1024","2","48000","-16","task","5202101","odd","NA","25103","29640","27107","85890","5614","18014","15814","86394","NA","85888","86394","85829","29640","86946","23396","85328","5578","64397","Lexical Decision Task","36","24315","37","yes","1024"
"3.134602053","0","8","jart","non-word","97.36842105263158","97.36842105263158","654.8947368421053","654.8947368421053","black","no","legacy","legacy","legacy","0","uniform","1","undefined","undefined","undefined","1","f","0","0","0","0","37","0","0","0","37","NA","33","37","33","0","33","3","37","0","37","Wed Feb 17 11:22:03 2021","The main experiment item","yes","Lexical_Decision_Task.osexp","/Users/charlotterowe/Desktop","no","Andale Mono","no","18","no","white","no","yes","576","legacy","33","33","3","/Users/charlotterowe/Desktop/subject-5202101.csv","legacy","Lentiform Loewenfeld","3.3.7","yes","yes","600bd7cfb6416f0113b04181","602110864497cf011d9c0822","0","f","NA","space","space","space","NA","f","571","NA","2532","10190","2197","NA","571","2","legacy","1024","2","48000","-16","task","5202101","odd","NA","25103","29640","27107","87512","5614","18014","15814","88015","NA","87509","88015","87449","29640","88587","23396","86949","5578","64397","Lexical Decision Task","37","24886","38","yes","1024"
"3.132473155","0","4","glim","non-word","97.43589743589743","97.43589743589743","658.7179487179487","658.7179487179487","black","no","legacy","legacy","legacy","0","uniform","1","undefined","undefined","undefined","1","f","0","0","0","0","38","0","0","0","38","NA","34","38","34","0","34","3","38","0","38","Wed Feb 17 11:22:03 2021","The main experiment item","yes","Lexical_Decision_Task.osexp","/Users/charlotterowe/Desktop","no","Andale Mono","no","18","no","white","no","yes","576","legacy","34","34","3","/Users/charlotterowe/Desktop/subject-5202101.csv","legacy","Lentiform Loewenfeld","3.3.7","yes","yes","600bd7cfb6416f0113b04181","602110864497cf011d9c0822","0","f","NA","space","space","space","NA","f","804","NA","2532","10190","2197","NA","804","2","legacy","1024","2","48000","-16","task","5202101","odd","NA","25103","29640","27107","89152","5614","18014","15814","89655","NA","89149","89655","89090","29640","90460","23396","88590","5578","64397","Lexical Decision Task","38","25690","39","yes","1024"
"2.907588697","8.91","9","mood","word","97.5","97.5","654.325","654.325","black","no","legacy","legacy","legacy","0","uniform","1","undefined","undefined","undefined","1","j","0","0","0","0","39","0","0","0","39","NA","35","39","35","0","35","3","39","0","39","Wed Feb 17 11:22:03 2021","The main experiment item","yes","Lexical_Decision_Task.osexp","/Users/charlotterowe/Desktop","no","Andale Mono","no","18","no","white","no","yes","576","legacy","35","35","3","/Users/charlotterowe/Desktop/subject-5202101.csv","legacy","Lentiform Loewenfeld","3.3.7","yes","yes","600bd7cfb6416f0113b04181","602110864497cf011d9c0822","0","j","NA","space","space","space","NA","j","483","NA","2532","10190","2197","NA","483","2","legacy","1024","2","48000","-16","task","5202101","odd","NA","25103","29640","27107","91026","5614","18014","15814","91529","NA","91023","91529","90963","29640","92013","23396","90463","5578","64397","Lexical Decision Task","39","26173","40","yes","1024"
"2.744553742","0","2","nawk","non-word","97.5609756097561","97.5609756097561","649.0243902439024","649.0243902439024","black","no","legacy","legacy","legacy","0","uniform","1","undefined","undefined","undefined","1","f","0","0","0","0","40","0","0","0","40","NA","36","40","36","0","36","3","40","0","40","Wed Feb 17 11:22:03 2021","The main experiment item","yes","Lexical_Decision_Task.osexp","/Users/charlotterowe/Desktop","no","Andale Mono","no","18","no","white","no","yes","576","legacy","36","36","3","/Users/charlotterowe/Desktop/subject-5202101.csv","legacy","Lentiform Loewenfeld","3.3.7","yes","yes","600bd7cfb6416f0113b04181","602110864497cf011d9c0822","0","f","NA","space","space","space","NA","f","437","NA","2532","10190","2197","NA","437","2","legacy","1024","2","48000","-16","task","5202101","odd","NA","25103","29640","27107","92579","5614","18014","15814","93083","NA","92577","93083","92516","29640","93520","23396","92016","5578","64397","Lexical Decision Task","40","26610","41","yes","1024"
"2.842815106","7.86","8","lump","word","95.23809523809524","95.23809523809524","644.047619047619","644.047619047619","black","no","legacy","legacy","legacy","0","uniform","0","undefined","undefined","undefined","0","j","0","0","0","0","41","0","0","0","41","NA","37","41","37","0","37","3","41","0","41","Wed Feb 17 11:22:03 2021","The main experiment item","yes","Lexical_Decision_Task.osexp","/Users/charlotterowe/Desktop","no","Andale Mono","no","18","no","white","no","yes","576","legacy","37","37","3","/Users/charlotterowe/Desktop/subject-5202101.csv","legacy","Lentiform Loewenfeld","3.3.7","yes","yes","600bd7cfb6416f0113b04181","602110864497cf011d9c0822","0","f","NA","space","space","space","NA","f","440","NA","2532","10190","2197","NA","440","2","legacy","1024","2","48000","-16","task","5202101","odd","NA","25103","29640","27107","94089","5614","18014","15814","94591","NA","94086","94591","94024","29640","95032","23396","93524","5578","64397","Lexical Decision Task","40","27050","42","yes","1024"
"2.728085817","10.02","9","bike","word","95.34883720930233","95.34883720930233","641.6046511627907","641.6046511627907","black","no","legacy","legacy","legacy","0","uniform","1","undefined","undefined","undefined","1","j","0","0","0","0","42","0","0","0","42","NA","38","42","38","0","38","3","42","0","42","Wed Feb 17 11:22:03 2021","The main experiment item","yes","Lexical_Decision_Task.osexp","/Users/charlotterowe/Desktop","no","Andale Mono","no","18","no","white","no","yes","576","legacy","38","38","3","/Users/charlotterowe/Desktop/subject-5202101.csv","legacy","Lentiform Loewenfeld","3.3.7","yes","yes","600bd7cfb6416f0113b04181","602110864497cf011d9c0822","0","j","NA","space","space","space","NA","j","539","NA","2532","10190","2197","NA","539","2","legacy","1024","2","48000","-16","task","5202101","odd","NA","25103","29640","27107","96601","5614","18014","15814","97104","NA","96598","97104","96536","29640","97644","23396","93524","5578","95036","Lexical Decision Task","41","27589","43","yes","1024"
"2.767650507","0","6","yolt","non-word","95.45454545454545","95.45454545454545","645.8181818181819","645.8181818181819","black","no","legacy","legacy","legacy","0","uniform","1","undefined","undefined","undefined","1","f","0","0","0","0","43","0","0","0","43","NA","39","43","39","0","39","3","43","0","43","Wed Feb 17 11:22:03 2021","The main experiment item","yes","Lexical_Decision_Task.osexp","/Users/charlotterowe/Desktop","no","Andale Mono","no","18","no","white","no","yes","576","legacy","39","39","3","/Users/charlotterowe/Desktop/subject-5202101.csv","legacy","Lentiform Loewenfeld","3.3.7","yes","yes","600bd7cfb6416f0113b04181","602110864497cf011d9c0822","0","f","NA","space","space","space","NA","f","827","NA","2532","10190","2197","NA","827","2","legacy","1024","2","48000","-16","task","5202101","odd","NA","25103","29640","27107","98210","5614","18014","15814","98713","NA","98207","98713","98147","29640","99541","23396","97647","5578","95036","Lexical Decision Task","42","28416","44","yes","1024"
"3.165936429","0","7","leps","non-word","95.55555555555556","95.55555555555556","644.1777777777778","644.1777777777778","black","no","legacy","legacy","legacy","0","uniform","1","undefined","undefined","undefined","1","f","0","0","0","0","44","0","0","0","44","NA","40","44","40","0","40","3","44","0","44","Wed Feb 17 11:22:03 2021","The main experiment item","yes","Lexical_Decision_Task.osexp","/Users/charlotterowe/Desktop","no","Andale Mono","no","18","no","white","no","yes","576","legacy","40","40","3","/Users/charlotterowe/Desktop/subject-5202101.csv","legacy","Lentiform Loewenfeld","3.3.7","yes","yes","600bd7cfb6416f0113b04181","602110864497cf011d9c0822","0","f","NA","space","space","space","NA","f","572","NA","2532","10190","2197","NA","572","2","legacy","1024","2","48000","-16","task","5202101","odd","NA","25103","29640","27107","100108","5614","18014","15814","100611","NA","100105","100611","100045","29640","101184","23396","99545","5578","95036","Lexical Decision Task","43","28988","45","yes","1024"
"2.979548375","8.71","4","soup","word","95.65217391304348","95.65217391304348","640.4565217391304","640.4565217391304","black","no","legacy","legacy","legacy","0","uniform","1","undefined","undefined","undefined","1","j","0","0","0","0","45","0","0","0","45","NA","41","45","41","0","41","3","45","0","45","Wed Feb 17 11:22:03 2021","The main experiment item","yes","Lexical_Decision_Task.osexp","/Users/charlotterowe/Desktop","no","Andale Mono","no","18","no","white","no","yes","576","legacy","41","41","3","/Users/charlotterowe/Desktop/subject-5202101.csv","legacy","Lentiform Loewenfeld","3.3.7","yes","yes","600bd7cfb6416f0113b04181","602110864497cf011d9c0822","0","j","NA","space","space","space","NA","j","473","NA","2532","10190","2197","NA","473","2","legacy","1024","2","48000","-16","task","5202101","odd","NA","25103","29640","27107","101750","5614","18014","15814","102253","NA","101747","102253","101688","29640","102726","23396","101188","5578","95036","Lexical Decision Task","44","29461","46","yes","1024"
"3.269668578","0","7","trag","non-word","95.74468085106383","95.74468085106383","643.531914893617","643.531914893617","black","no","legacy","legacy","legacy","0","uniform","1","undefined","undefined","undefined","1","f","0","0","0","0","46","0","0","0","46","NA","42","46","42","0","42","3","46","0","46","Wed Feb 17 11:22:03 2021","The main experiment item","yes","Lexical_Decision_Task.osexp","/Users/charlotterowe/Desktop","no","Andale Mono","no","18","no","white","no","yes","576","legacy","42","42","3","/Users/charlotterowe/Desktop/subject-5202101.csv","legacy","Lentiform Loewenfeld","3.3.7","yes","yes","600bd7cfb6416f0113b04181","602110864497cf011d9c0822","0","f","NA","space","space","space","NA","f","785","NA","2532","10190","2197","NA","785","2","legacy","1024","2","48000","-16","task","5202101","odd","NA","25103","29640","27107","103292","5614","18014","15814","103796","NA","103290","103796","103230","29640","104582","23396","102730","5578","95036","Lexical Decision Task","45","30246","47","yes","1024"
"2.858136002","0","4","phip","non-word","95.83333333333333","95.83333333333333","647.7916666666666","647.7916666666666","black","no","legacy","legacy","legacy","0","uniform","1","undefined","undefined","undefined","1","f","0","0","0","0","47","0","0","0","47","NA","43","47","43","0","43","3","47","0","47","Wed Feb 17 11:22:03 2021","The main experiment item","yes","Lexical_Decision_Task.osexp","/Users/charlotterowe/Desktop","no","Andale Mono","no","18","no","white","no","yes","576","legacy","43","43","3","/Users/charlotterowe/Desktop/subject-5202101.csv","legacy","Lentiform Loewenfeld","3.3.7","yes","yes","600bd7cfb6416f0113b04181","602110864497cf011d9c0822","0","f","NA","space","space","space","NA","f","848","NA","2532","10190","2197","NA","848","2","legacy","1024","2","48000","-16","task","5202101","odd","NA","25103","29640","27107","105148","5614","18014","15814","105652","NA","105146","105652","105086","29640","106500","23396","104585","5578","95036","Lexical Decision Task","46","31094","48","yes","1024"
"3.372543801","9.24","8","coat","word","95.91836734693878","95.91836734693878","653.1428571428571","653.1428571428571","black","no","legacy","legacy","legacy","0","uniform","1","undefined","undefined","undefined","1","j","0","0","0","0","48","0","0","0","48","NA","44","48","44","0","44","3","48","0","48","Wed Feb 17 11:22:03 2021","The main experiment item","yes","Lexical_Decision_Task.osexp","/Users/charlotterowe/Desktop","no","Andale Mono","no","18","no","white","no","yes","576","legacy","44","44","3","/Users/charlotterowe/Desktop/subject-5202101.csv","legacy","Lentiform Loewenfeld","3.3.7","yes","yes","600bd7cfb6416f0113b04181","602110864497cf011d9c0822","0","j","NA","space","space","space","NA","j","910","NA","2532","10190","2197","NA","910","2","legacy","1024","2","48000","-16","task","5202101","odd","NA","25103","29640","27107","107068","5614","18014","15814","107571","NA","107065","107571","107004","29640","108482","23396","106504","5578","95036","Lexical Decision Task","47","32004","49","yes","1024"
"3.374137706","10.21","4","tree","word","96","96","652.68","652.68","black","no","legacy","legacy","legacy","0","uniform","1","undefined","undefined","undefined","1","j","0","0","0","0","49","0","0","0","49","NA","45","49","45","0","45","3","49","0","49","Wed Feb 17 11:22:03 2021","The main experiment item","yes","Lexical_Decision_Task.osexp","/Users/charlotterowe/Desktop","no","Andale Mono","no","18","no","white","no","yes","576","legacy","45","45","3","/Users/charlotterowe/Desktop/subject-5202101.csv","legacy","Lentiform Loewenfeld","3.3.7","yes","yes","600bd7cfb6416f0113b04181","602110864497cf011d9c0822","0","j","NA","space","space","space","NA","j","630","NA","2532","10190","2197","NA","630","2","legacy","1024","2","48000","-16","task","5202101","odd","NA","25103","29640","27107","109050","5614","18014","15814","109553","NA","109047","109553","108986","29640","110184","23396","108485","5578","95036","Lexical Decision Task","48","32634","50","yes","1024"
"3.225825991","0","7","talm","non-word","96.07843137254902","96.07843137254902","653.3333333333334","653.3333333333334","black","no","legacy","legacy","legacy","0","uniform","1","undefined","undefined","undefined","1","f","0","0","0","0","50","0","0","0","50","NA","46","50","46","0","46","3","50","0","50","Wed Feb 17 11:22:03 2021","The main experiment item","yes","Lexical_Decision_Task.osexp","/Users/charlotterowe/Desktop","no","Andale Mono","no","18","no","white","no","yes","576","legacy","46","46","3","/Users/charlotterowe/Desktop/subject-5202101.csv","legacy","Lentiform Loewenfeld","3.3.7","yes","yes","600bd7cfb6416f0113b04181","602110864497cf011d9c0822","0","f","NA","space","space","space","NA","f","686","NA","2532","10190","2197","NA","686","2","legacy","1024","2","48000","-16","task","5202101","odd","NA","25103","29640","27107","110750","5614","18014","15814","111252","NA","110747","111253","110688","29640","111940","23396","110188","5578","95036","Lexical Decision Task","49","33320","51","yes","1024"
"3.302475237","0","7","leel","non-word","96.15384615384616","96.15384615384616","650.9038461538462","650.9038461538462","black","no","legacy","legacy","legacy","0","uniform","1","undefined","undefined","undefined","1","f","0","0","0","0","51","0","0","0","51","NA","47","51","47","0","47","3","51","0","51","Wed Feb 17 11:22:03 2021","The main experiment item","yes","Lexical_Decision_Task.osexp","/Users/charlotterowe/Desktop","no","Andale Mono","no","18","no","white","no","yes","576","legacy","47","47","3","/Users/charlotterowe/Desktop/subject-5202101.csv","legacy","Lentiform Loewenfeld","3.3.7","yes","yes","600bd7cfb6416f0113b04181","602110864497cf011d9c0822","0","f","NA","space","space","space","NA","f","527","NA","2532","10190","2197","NA","527","2","legacy","1024","2","48000","-16","task","5202101","odd","NA","25103","29640","27107","112507","5614","18014","15814","113010","NA","112505","113010","112444","29640","113538","23396","111944","5578","95036","Lexical Decision Task","50","33847","52","yes","1024"
"3.22685757","9.99","7","roll","word","96.22641509433963","96.22641509433963","651.3396226415094","651.3396226415094","black","no","legacy","legacy","legacy","0","uniform","1","undefined","undefined","undefined","1","j","0","0","0","0","52","0","0","0","52","NA","48","52","48","0","48","3","52","0","52","Wed Feb 17 11:22:03 2021","The main experiment item","yes","Lexical_Decision_Task.osexp","/Users/charlotterowe/Desktop","no","Andale Mono","no","18","no","white","no","yes","576","legacy","48","48","3","/Users/charlotterowe/Desktop/subject-5202101.csv","legacy","Lentiform Loewenfeld","3.3.7","yes","yes","600bd7cfb6416f0113b04181","602110864497cf011d9c0822","0","j","NA","space","space","space","NA","j","674","NA","2532","10190","2197","NA","674","2","legacy","1024","2","48000","-16","task","5202101","odd","NA","25103","29640","27107","114106","5614","18014","15814","114608","NA","114103","114609","114041","29640","115284","23396","113541","5578","95036","Lexical Decision Task","51","34521","53","yes","1024"
"2.819763221","0","2","durp","non-word","96.29629629629629","96.29629629629629","650.8333333333334","650.8333333333334","black","no","legacy","legacy","legacy","0","uniform","1","undefined","undefined","undefined","1","f","0","0","0","0","53","0","0","0","53","NA","49","53","49","0","49","3","53","0","53","Wed Feb 17 11:22:03 2021","The main experiment item","yes","Lexical_Decision_Task.osexp","/Users/charlotterowe/Desktop","no","Andale Mono","no","18","no","white","no","yes","576","legacy","49","49","3","/Users/charlotterowe/Desktop/subject-5202101.csv","legacy","Lentiform Loewenfeld","3.3.7","yes","yes","600bd7cfb6416f0113b04181","602110864497cf011d9c0822","0","f","NA","space","space","space","NA","f","624","NA","2532","10190","2197","NA","624","2","legacy","1024","2","48000","-16","task","5202101","odd","NA","25103","29640","27107","115850","5614","18014","15814","116352","NA","115848","116353","115788","29640","116978","23396","115288","5578","95036","Lexical Decision Task","52","35145","54","yes","1024"
"3.121778632","0","9","sark","non-word","96.36363636363636","96.36363636363636","649.4909090909091","649.4909090909091","black","no","legacy","legacy","legacy","0","uniform","1","undefined","undefined","undefined","1","f","0","0","0","0","54","0","0","0","54","0","50","54","50","0","50","3","54","0","54","Wed Feb 17 11:22:03 2021","The main experiment item","yes","Lexical_Decision_Task.osexp","/Users/charlotterowe/Desktop","no","Andale Mono","no","18","no","white","no","yes","576","legacy","50","50","3","/Users/charlotterowe/Desktop/subject-5202101.csv","legacy","Lentiform Loewenfeld","3.3.7","yes","yes","600bd7cfb6416f0113b04181","602110864497cf011d9c0822","0","f","NA","space","space","space","space","f","577","NA","2532","10190","2197","13800","577","2","legacy","1024","2","48000","-16","task","5202101","odd","NA","25103","29640","27107","131368","5614","18014","15814","131871","117512","131366","131872","117482","29640","132450","23396","116982","5578","95036","Lexical Decision Task","53","35722","55","yes","1024"
"2.981215883","10.66","5","hair","word","96.42857142857143","96.42857142857143","648.6607142857143","648.6607142857143","black","no","legacy","legacy","legacy","0","uniform","1","undefined","undefined","undefined","1","j","0","0","0","0","55","0","0","0","55","0","51","55","51","0","51","3","55","0","55","Wed Feb 17 11:22:03 2021","The main experiment item","yes","Lexical_Decision_Task.osexp","/Users/charlotterowe/Desktop","no","Andale Mono","no","18","no","white","no","yes","576","legacy","51","51","3","/Users/charlotterowe/Desktop/subject-5202101.csv","legacy","Lentiform Loewenfeld","3.3.7","yes","yes","600bd7cfb6416f0113b04181","602110864497cf011d9c0822","0","j","NA","space","space","space","space","j","603","NA","2532","10190","2197","13800","603","2","legacy","1024","2","48000","-16","task","5202101","odd","NA","25103","29640","27107","133015","5614","18014","15814","133518","117512","133012","133518","132954","29640","134122","23396","132454","5578","95036","Lexical Decision Task","54","36325","56","yes","1024"
"2.784379519","0","2","snaf","non-word","96.49122807017544","96.49122807017544","659.9298245614035","659.9298245614035","black","no","legacy","legacy","legacy","0","uniform","1","undefined","undefined","undefined","1","f","0","0","0","0","56","0","0","0","56","0","52","56","52","0","52","3","56","0","56","Wed Feb 17 11:22:03 2021","The main experiment item","yes","Lexical_Decision_Task.osexp","/Users/charlotterowe/Desktop","no","Andale Mono","no","18","no","white","no","yes","576","legacy","52","52","3","/Users/charlotterowe/Desktop/subject-5202101.csv","legacy","Lentiform Loewenfeld","3.3.7","yes","yes","600bd7cfb6416f0113b04181","602110864497cf011d9c0822","0","f","NA","space","space","space","space","f","1291","NA","2532","10190","2197","13800","1291","2","legacy","1024","2","48000","-16","task","5202101","odd","NA","25103","29640","27107","134690","5614","18014","15814","135192","117512","134687","135193","134627","29640","136485","23396","134127","5578","95036","Lexical Decision Task","55","37616","57","yes","1024"
"3.488597715","0","9","nain","non-word","96.55172413793103","96.55172413793103","659.7413793103449","659.7413793103449","black","no","legacy","legacy","legacy","0","uniform","1","undefined","undefined","undefined","1","f","0","0","0","0","57","0","0","0","57","0","53","57","53","0","53","3","57","0","57","Wed Feb 17 11:22:03 2021","The main experiment item","yes","Lexical_Decision_Task.osexp","/Users/charlotterowe/Desktop","no","Andale Mono","no","18","no","white","no","yes","576","legacy","53","53","3","/Users/charlotterowe/Desktop/subject-5202101.csv","legacy","Lentiform Loewenfeld","3.3.7","yes","yes","600bd7cfb6416f0113b04181","602110864497cf011d9c0822","0","f","NA","space","space","space","space","f","649","NA","2532","10190","2197","13800","649","2","legacy","1024","2","48000","-16","task","5202101","odd","NA","25103","29640","27107","137052","5614","18014","15814","137555","117512","137049","137555","136988","29640","138205","23396","136488","5578","95036","Lexical Decision Task","56","38265","58","yes","1024"
"2.812467698","0","7","hafe","non-word","96.61016949152543","96.61016949152543","656.7966101694915","656.7966101694915","black","no","legacy","legacy","legacy","0","uniform","1","undefined","undefined","undefined","1","f","0","0","0","0","58","0","0","0","58","0","54","58","54","0","54","3","58","0","58","Wed Feb 17 11:22:03 2021","The main experiment item","yes","Lexical_Decision_Task.osexp","/Users/charlotterowe/Desktop","no","Andale Mono","no","18","no","white","no","yes","576","legacy","54","54","3","/Users/charlotterowe/Desktop/subject-5202101.csv","legacy","Lentiform Loewenfeld","3.3.7","yes","yes","600bd7cfb6416f0113b04181","602110864497cf011d9c0822","0","f","NA","space","space","space","space","f","486","NA","2532","10190","2197","13800","486","2","legacy","1024","2","48000","-16","task","5202101","odd","NA","25103","29640","27107","138772","5614","18014","15814","139275","117512","138769","139276","138709","29640","139763","23396","138208","5578","95036","Lexical Decision Task","57","38751","59","yes","1024"
"2.7084209","0","8","vump","non-word","96.66666666666667","96.66666666666667","653.75","653.75","black","no","legacy","legacy","legacy","0","uniform","1","undefined","undefined","undefined","1","f","0","0","0","0","59","0","0","0","59","0","55","59","55","0","55","3","59","0","59","Wed Feb 17 11:22:03 2021","The main experiment item","yes","Lexical_Decision_Task.osexp","/Users/charlotterowe/Desktop","no","Andale Mono","no","18","no","white","no","yes","576","legacy","55","55","3","/Users/charlotterowe/Desktop/subject-5202101.csv","legacy","Lentiform Loewenfeld","3.3.7","yes","yes","600bd7cfb6416f0113b04181","602110864497cf011d9c0822","0","f","NA","space","space","space","space","f","474","NA","2532","10190","2197","13800","474","2","legacy","1024","2","48000","-16","task","5202101","odd","NA","25103","29640","27107","140329","5614","18014","15814","140832","117512","140326","140832","140267","29640","141307","23396","139766","5578","95036","Lexical Decision Task","58","39225","60","yes","1024"
"3.378276681","6.39","8","bran","word","95.08196721311475","95.08196721311475","650.1639344262295","650.1639344262295","black","no","legacy","legacy","legacy","0","uniform","0","undefined","undefined","undefined","0","j","0","0","0","0","60","0","0","0","60","0","56","60","56","0","56","3","60","0","60","Wed Feb 17 11:22:03 2021","The main experiment item","yes","Lexical_Decision_Task.osexp","/Users/charlotterowe/Desktop","no","Andale Mono","no","18","no","white","no","yes","576","legacy","56","56","3","/Users/charlotterowe/Desktop/subject-5202101.csv","legacy","Lentiform Loewenfeld","3.3.7","yes","yes","600bd7cfb6416f0113b04181","602110864497cf011d9c0822","0","f","NA","space","space","space","space","f","435","NA","2532","10190","2197","13800","435","2","legacy","1024","2","48000","-16","task","5202101","odd","NA","25103","29640","27107","141873","5614","18014","15814","142376","117512","141870","142376","141811","29640","142812","23396","141311","5578","95036","Lexical Decision Task","58","39660","61","yes","1024"
"3.282244367","0","6","fute","non-word","95.16129032258064","95.16129032258064","650.9516129032259","650.9516129032259","black","no","legacy","legacy","legacy","0","uniform","1","undefined","undefined","undefined","1","f","0","0","0","0","61","0","0","0","61","0","57","61","57","0","57","3","61","0","61","Wed Feb 17 11:22:03 2021","The main experiment item","yes","Lexical_Decision_Task.osexp","/Users/charlotterowe/Desktop","no","Andale Mono","no","18","no","white","no","yes","576","legacy","57","57","3","/Users/charlotterowe/Desktop/subject-5202101.csv","legacy","Lentiform Loewenfeld","3.3.7","yes","yes","600bd7cfb6416f0113b04181","602110864497cf011d9c0822","0","f","NA","space","space","space","space","f","699","NA","2532","10190","2197","13800","699","2","legacy","1024","2","48000","-16","task","5202101","odd","NA","25103","29640","27107","144381","5614","18014","15814","144884","117512","144378","144884","144316","29640","145584","23396","141311","5578","142816","Lexical Decision Task","59","40359","62","yes","1024"
"2.695481676","0","7","goke","non-word","95.23809523809524","95.23809523809524","650.968253968254","650.968253968254","black","no","legacy","legacy","legacy","0","uniform","1","undefined","undefined","undefined","1","f","0","0","0","0","62","0","0","0","62","0","58","62","58","0","58","3","62","0","62","Wed Feb 17 11:22:03 2021","The main experiment item","yes","Lexical_Decision_Task.osexp","/Users/charlotterowe/Desktop","no","Andale Mono","no","18","no","white","no","yes","576","legacy","58","58","3","/Users/charlotterowe/Desktop/subject-5202101.csv","legacy","Lentiform Loewenfeld","3.3.7","yes","yes","600bd7cfb6416f0113b04181","602110864497cf011d9c0822","0","f","NA","space","space","space","space","f","652","NA","2532","10190","2197","13800","652","2","legacy","1024","2","48000","-16","task","5202101","odd","NA","25103","29640","27107","146151","5614","18014","15814","146654","117512","146149","146655","146088","29640","147308","23396","145588","5578","142816","Lexical Decision Task","60","41011","63","yes","1024"
"3.366547468","0","6","plat","non-word","95.3125","95.3125","651.09375","651.09375","black","no","legacy","legacy","legacy","0","uniform","1","undefined","undefined","undefined","1","f","0","0","0","0","63","0","0","0","63","0","59","63","59","0","59","3","63","0","63","Wed Feb 17 11:22:03 2021","The main experiment item","yes","Lexical_Decision_Task.osexp","/Users/charlotterowe/Desktop","no","Andale Mono","no","18","no","white","no","yes","576","legacy","59","59","3","/Users/charlotterowe/Desktop/subject-5202101.csv","legacy","Lentiform Loewenfeld","3.3.7","yes","yes","600bd7cfb6416f0113b04181","602110864497cf011d9c0822","0","f","NA","space","space","space","space","f","659","NA","2532","10190","2197","13800","659","2","legacy","1024","2","48000","-16","task","5202101","odd","NA","25103","29640","27107","147874","5614","18014","15814","148377","117512","147871","148377","147812","29640","149037","23396","147312","5578","142816","Lexical Decision Task","61","41670","64","yes","1024"
"3.066077331","0","7","vorn","non-word","95.38461538461539","95.38461538461539","649.1384615384616","649.1384615384616","black","no","legacy","legacy","legacy","0","uniform","1","undefined","undefined","undefined","1","f","0","0","0","0","64","0","0","0","64","0","60","64","60","0","60","3","64","0","64","Wed Feb 17 11:22:03 2021","The main experiment item","yes","Lexical_Decision_Task.osexp","/Users/charlotterowe/Desktop","no","Andale Mono","no","18","no","white","no","yes","576","legacy","60","60","3","/Users/charlotterowe/Desktop/subject-5202101.csv","legacy","Lentiform Loewenfeld","3.3.7","yes","yes","600bd7cfb6416f0113b04181","602110864497cf011d9c0822","0","f","NA","space","space","space","space","f","524","NA","2532","10190","2197","13800","524","2","legacy","1024","2","48000","-16","task","5202101","odd","NA","25103","29640","27107","149604","5614","18014","15814","150106","117512","149601","150107","149540","29640","150632","23396","149040","5578","142816","Lexical Decision Task","62","42194","65","yes","1024"
"3.076883066","0","8","mout","non-word","95.45454545454545","95.45454545454545","647.1060606060606","647.1060606060606","black","no","legacy","legacy","legacy","0","uniform","1","undefined","undefined","undefined","1","f","0","0","0","0","65","0","0","0","65","0","61","65","61","0","61","3","65","0","65","Wed Feb 17 11:22:03 2021","The main experiment item","yes","Lexical_Decision_Task.osexp","/Users/charlotterowe/Desktop","no","Andale Mono","no","18","no","white","no","yes","576","legacy","61","61","3","/Users/charlotterowe/Desktop/subject-5202101.csv","legacy","Lentiform Loewenfeld","3.3.7","yes","yes","600bd7cfb6416f0113b04181","602110864497cf011d9c0822","0","f","NA","space","space","space","space","f","515","NA","2532","10190","2197","13800","515","2","legacy","1024","2","48000","-16","task","5202101","odd","NA","25103","29640","27107","151199","5614","18014","15814","151702","117512","151197","151703","151136","29640","152219","23396","150636","5578","142816","Lexical Decision Task","63","42709","66","yes","1024"
"3.090140555","5.81","8","pout","word","95.5223880597015","95.5223880597015","648.3880597014926","648.3880597014926","black","no","legacy","legacy","legacy","0","uniform","1","undefined","undefined","undefined","1","j","0","0","0","0","66","0","0","0","66","0","62","66","62","0","62","3","66","0","66","Wed Feb 17 11:22:03 2021","The main experiment item","yes","Lexical_Decision_Task.osexp","/Users/charlotterowe/Desktop","no","Andale Mono","no","18","no","white","no","yes","576","legacy","62","62","3","/Users/charlotterowe/Desktop/subject-5202101.csv","legacy","Lentiform Loewenfeld","3.3.7","yes","yes","600bd7cfb6416f0113b04181","602110864497cf011d9c0822","0","j","NA","space","space","space","space","j","733","NA","2532","10190","2197","13800","733","2","legacy","1024","2","48000","-16","task","5202101","odd","NA","25103","29640","27107","152789","5614","18014","15814","153293","117512","152787","153293","152723","29640","154027","23396","152223","5578","142816","Lexical Decision Task","64","43442","67","yes","1024"
"3.168400243","9.12","6","horn","word","94.11764705882354","94.11764705882354","646.2205882352941","646.2205882352941","black","no","legacy","legacy","legacy","0","uniform","0","undefined","undefined","undefined","0","j","0","0","0","0","67","0","0","0","67","0","63","67","63","0","63","3","67","0","67","Wed Feb 17 11:22:03 2021","The main experiment item","yes","Lexical_Decision_Task.osexp","/Users/charlotterowe/Desktop","no","Andale Mono","no","18","no","white","no","yes","576","legacy","63","63","3","/Users/charlotterowe/Desktop/subject-5202101.csv","legacy","Lentiform Loewenfeld","3.3.7","yes","yes","600bd7cfb6416f0113b04181","602110864497cf011d9c0822","0","f","NA","space","space","space","space","f","501","NA","2532","10190","2197","13800","501","2","legacy","1024","2","48000","-16","task","5202101","odd","NA","25103","29640","27107","154593","5614","18014","15814","155098","117512","154591","155098","154531","29640","155600","23396","154030","5578","142816","Lexical Decision Task","64","43943","68","yes","1024"
"3.064581521","5.51","6","cask","word","92.7536231884058","92.7536231884058","645.2898550724638","645.2898550724638","black","no","legacy","legacy","legacy","0","uniform","0","undefined","undefined","undefined","0","j","0","0","0","0","68","0","0","0","68","0","64","68","64","0","64","3","68","0","68","Wed Feb 17 11:22:03 2021","The main experiment item","yes","Lexical_Decision_Task.osexp","/Users/charlotterowe/Desktop","no","Andale Mono","no","18","no","white","no","yes","576","legacy","64","64","3","/Users/charlotterowe/Desktop/subject-5202101.csv","legacy","Lentiform Loewenfeld","3.3.7","yes","yes","600bd7cfb6416f0113b04181","602110864497cf011d9c0822","0","f","NA","space","space","space","space","f","582","NA","2532","10190","2197","13800","582","2","legacy","1024","2","48000","-16","task","5202101","odd","NA","25103","29640","27107","157171","5614","18014","15814","157674","117512","157169","157674","157105","29640","158257","23396","154030","5578","155605","Lexical Decision Task","64","44525","69","yes","1024"
"2.996511672","0","7","hoil","non-word","92.85714285714286","92.85714285714286","646.4714285714285","646.4714285714285","black","no","legacy","legacy","legacy","0","uniform","1","undefined","undefined","undefined","1","f","0","0","0","0","69","0","0","0","69","0","65","69","65","0","65","3","69","0","69","Wed Feb 17 11:22:03 2021","The main experiment item","yes","Lexical_Decision_Task.osexp","/Users/charlotterowe/Desktop","no","Andale Mono","no","18","no","white","no","yes","576","legacy","65","65","3","/Users/charlotterowe/Desktop/subject-5202101.csv","legacy","Lentiform Loewenfeld","3.3.7","yes","yes","600bd7cfb6416f0113b04181","602110864497cf011d9c0822","0","f","NA","space","space","space","space","f","728","NA","2532","10190","2197","13800","728","2","legacy","1024","2","48000","-16","task","5202101","odd","NA","25103","29640","27107","159827","5614","18014","15814","160329","117512","159824","160330","159761","29640","161059","23396","154030","5578","158261","Lexical Decision Task","65","45253","70","yes","1024"
"2.616654026","9.37","5","gift","word","92.95774647887323","92.95774647887323","645.3380281690141","645.3380281690141","black","no","legacy","legacy","legacy","0","uniform","1","undefined","undefined","undefined","1","j","0","0","0","0","70","0","0","0","70","0","66","70","66","0","66","3","70","0","70","Wed Feb 17 11:22:03 2021","The main experiment item","yes","Lexical_Decision_Task.osexp","/Users/charlotterowe/Desktop","no","Andale Mono","no","18","no","white","no","yes","576","legacy","66","66","3","/Users/charlotterowe/Desktop/subject-5202101.csv","legacy","Lentiform Loewenfeld","3.3.7","yes","yes","600bd7cfb6416f0113b04181","602110864497cf011d9c0822","0","j","NA","space","space","space","space","j","566","NA","2532","10190","2197","13800","566","2","legacy","1024","2","48000","-16","task","5202101","odd","NA","25103","29640","27107","161626","5614","18014","15814","162128","117512","161623","162128","161563","29640","162695","23396","161063","5578","158261","Lexical Decision Task","66","45819","71","yes","1024"
"3.082307743","9.68","8","camp","word","93.05555555555556","93.05555555555556","645.6944444444445","645.6944444444445","black","no","legacy","legacy","legacy","0","uniform","1","undefined","undefined","undefined","1","j","0","0","0","0","71","0","0","0","71","0","67","71","67","0","67","3","71","0","71","Wed Feb 17 11:22:03 2021","The main experiment item","yes","Lexical_Decision_Task.osexp","/Users/charlotterowe/Desktop","no","Andale Mono","no","18","no","white","no","yes","576","legacy","67","67","3","/Users/charlotterowe/Desktop/subject-5202101.csv","legacy","Lentiform Loewenfeld","3.3.7","yes","yes","600bd7cfb6416f0113b04181","602110864497cf011d9c0822","0","j","NA","space","space","space","space","j","671","NA","2532","10190","2197","13800","671","2","legacy","1024","2","48000","-16","task","5202101","odd","NA","25103","29640","27107","163262","5614","18014","15814","163765","117512","163259","163765","163199","29640","164437","23396","162699","5578","158261","Lexical Decision Task","67","46490","72","yes","1024"
"2.972357144","0","5","dasp","non-word","93.15068493150685","93.15068493150685","667.013698630137","667.013698630137","black","no","legacy","legacy","legacy","0","uniform","1","undefined","undefined","undefined","1","f","0","0","0","0","72","0","0","0","72","0","68","72","68","0","68","3","72","0","72","Wed Feb 17 11:22:03 2021","The main experiment item","yes","Lexical_Decision_Task.osexp","/Users/charlotterowe/Desktop","no","Andale Mono","no","18","no","white","no","yes","576","legacy","68","68","3","/Users/charlotterowe/Desktop/subject-5202101.csv","legacy","Lentiform Loewenfeld","3.3.7","yes","yes","600bd7cfb6416f0113b04181","602110864497cf011d9c0822","0","f","NA","space","space","space","space","f","2202","NA","2532","10190","2197","13800","2202","2","legacy","1024","2","48000","-16","task","5202101","odd","NA","25103","29640","27107","165004","5614","18014","15814","165506","117512","165001","165507","164941","29640","167710","23396","164441","5578","158261","Lexical Decision Task","68","48692","73","yes","1024"
"3.068433376","8.09","2","bulb","word","93.24324324324324","93.24324324324324","666.7972972972973","666.7972972972973","black","no","legacy","legacy","legacy","0","uniform","1","undefined","undefined","undefined","1","j","0","0","0","0","73","0","0","0","73","0","69","73","69","0","69","3","73","0","73","Wed Feb 17 11:22:03 2021","The main experiment item","yes","Lexical_Decision_Task.osexp","/Users/charlotterowe/Desktop","no","Andale Mono","no","18","no","white","no","yes","576","legacy","69","69","3","/Users/charlotterowe/Desktop/subject-5202101.csv","legacy","Lentiform Loewenfeld","3.3.7","yes","yes","600bd7cfb6416f0113b04181","602110864497cf011d9c0822","0","j","NA","space","space","space","space","j","651","NA","2532","10190","2197","13800","651","2","legacy","1024","2","48000","-16","task","5202101","odd","NA","25103","29640","27107","168277","5614","18014","15814","168779","117512","168274","168780","168214","29640","169432","23396","167714","5578","158261","Lexical Decision Task","69","49343","74","yes","1024"
"3.705778213","0","6","stin","non-word","92","92","667","667","black","no","legacy","legacy","legacy","0","uniform","0","undefined","undefined","undefined","0","f","0","0","0","0","74","0","0","0","74","0","70","74","70","0","70","3","74","0","74","Wed Feb 17 11:22:03 2021","The main experiment item","yes","Lexical_Decision_Task.osexp","/Users/charlotterowe/Desktop","no","Andale Mono","no","18","no","white","no","yes","576","legacy","70","70","3","/Users/charlotterowe/Desktop/subject-5202101.csv","legacy","Lentiform Loewenfeld","3.3.7","yes","yes","600bd7cfb6416f0113b04181","602110864497cf011d9c0822","0","j","NA","space","space","space","space","j","682","NA","2532","10190","2197","13800","682","2","legacy","1024","2","48000","-16","task","5202101","odd","NA","25103","29640","27107","170000","5614","18014","15814","170503","117512","169997","170503","169936","29640","171186","23396","169436","5578","158261","Lexical Decision Task","69","50025","75","yes","1024"
"2.875447132","0","9","jelt","non-word","92.10526315789474","92.10526315789474","667.171052631579","667.171052631579","black","no","legacy","legacy","legacy","0","uniform","1","undefined","undefined","undefined","1","f","0","0","0","0","75","0","0","0","75","0","71","75","71","0","71","3","75","0","75","Wed Feb 17 11:22:03 2021","The main experiment item","yes","Lexical_Decision_Task.osexp","/Users/charlotterowe/Desktop","no","Andale Mono","no","18","no","white","no","yes","576","legacy","71","71","3","/Users/charlotterowe/Desktop/subject-5202101.csv","legacy","Lentiform Loewenfeld","3.3.7","yes","yes","600bd7cfb6416f0113b04181","602110864497cf011d9c0822","0","f","NA","space","space","space","space","f","680","NA","2532","10190","2197","13800","680","2","legacy","1024","2","48000","-16","task","5202101","odd","NA","25103","29640","27107","172756","5614","18014","15814","173260","117512","172753","173260","172690","29640","173942","23396","169436","5578","171190","Lexical Decision Task","70","50705","76","yes","1024"
"2.706148589","0","4","hube","non-word","92.20779220779221","92.20779220779221","666.2077922077922","666.2077922077922","black","no","legacy","legacy","legacy","0","uniform","1","undefined","undefined","undefined","1","f","0","0","0","0","76","0","0","0","76","0","72","76","72","0","72","3","76","0","76","Wed Feb 17 11:22:03 2021","The main experiment item","yes","Lexical_Decision_Task.osexp","/Users/charlotterowe/Desktop","no","Andale Mono","no","18","no","white","no","yes","576","legacy","72","72","3","/Users/charlotterowe/Desktop/subject-5202101.csv","legacy","Lentiform Loewenfeld","3.3.7","yes","yes","600bd7cfb6416f0113b04181","602110864497cf011d9c0822","0","f","NA","space","space","space","space","f","593","NA","2532","10190","2197","13800","593","2","legacy","1024","2","48000","-16","task","5202101","odd","NA","25103","29640","27107","174509","5614","18014","15814","175012","117512","174506","175012","174445","29640","175606","23396","173945","5578","171190","Lexical Decision Task","71","51298","77","yes","1024"
"3.397302518","7.01","2","knit","word","92.3076923076923","92.3076923076923","668.2948717948718","668.2948717948718","black","no","legacy","legacy","legacy","0","uniform","1","undefined","undefined","undefined","1","j","0","0","0","0","77","0","0","0","77","0","73","77","73","0","73","3","77","0","77","Wed Feb 17 11:22:03 2021","The main experiment item","yes","Lexical_Decision_Task.osexp","/Users/charlotterowe/Desktop","no","Andale Mono","no","18","no","white","no","yes","576","legacy","73","73","3","/Users/charlotterowe/Desktop/subject-5202101.csv","legacy","Lentiform Loewenfeld","3.3.7","yes","yes","600bd7cfb6416f0113b04181","602110864497cf011d9c0822","0","j","NA","space","space","space","space","j","829","NA","2532","10190","2197","13800","829","2","legacy","1024","2","48000","-16","task","5202101","odd","NA","25103","29640","27107","176172","5614","18014","15814","176675","117512","176169","176675","176110","29640","177505","23396","175610","5578","171190","Lexical Decision Task","72","52127","78","yes","1024"
"3.263399331","0","8","cour","non-word","92.40506329113924","92.40506329113924","672.2784810126582","672.2784810126582","black","no","legacy","legacy","legacy","0","uniform","1","undefined","undefined","undefined","1","f","0","0","0","0","78","0","0","0","78","0","74","78","74","0","74","3","78","0","78","Wed Feb 17 11:22:03 2021","The main experiment item","yes","Lexical_Decision_Task.osexp","/Users/charlotterowe/Desktop","no","Andale Mono","no","18","no","white","no","yes","576","legacy","74","74","3","/Users/charlotterowe/Desktop/subject-5202101.csv","legacy","Lentiform Loewenfeld","3.3.7","yes","yes","600bd7cfb6416f0113b04181","602110864497cf011d9c0822","0","f","NA","space","space","space","space","f","983","NA","2532","10190","2197","13800","983","2","legacy","1024","2","48000","-16","task","5202101","odd","NA","25103","29640","27107","178071","5614","18014","15814","178574","117512","178068","178574","178008","29640","179558","23396","177508","5578","171190","Lexical Decision Task","73","53110","79","yes","1024"
"2.771097306","0","9","jold","non-word","92.5","92.5","676.15","676.15","black","no","legacy","legacy","legacy","0","uniform","1","undefined","undefined","undefined","1","f","0","0","0","0","79","0","0","0","79","0","75","79","75","0","75","3","79","0","79","Wed Feb 17 11:22:03 2021","The main experiment item","yes","Lexical_Decision_Task.osexp","/Users/charlotterowe/Desktop","no","Andale Mono","no","18","no","white","no","yes","576","legacy","75","75","3","/Users/charlotterowe/Desktop/subject-5202101.csv","legacy","Lentiform Loewenfeld","3.3.7","yes","yes","600bd7cfb6416f0113b04181","602110864497cf011d9c0822","0","f","NA","space","space","space","space","f","982","NA","2532","10190","2197","13800","982","2","legacy","1024","2","48000","-16","task","5202101","odd","NA","25103","29640","27107","180125","5614","18014","15814","180628","117512","180123","180628","180061","29640","181611","23396","179561","5578","171190","Lexical Decision Task","74","54092","80","yes","1024"
"3.153104174","10.89","6","door","word","92.5925925925926","92.5925925925926","674.395061728395","674.395061728395","black","no","legacy","legacy","legacy","0","uniform","1","undefined","undefined","undefined","1","j","0","0","0","0","80","0","0","0","80","0","76","80","76","0","76","3","80","0","80","Wed Feb 17 11:22:03 2021","The main experiment item","yes","Lexical_Decision_Task.osexp","/Users/charlotterowe/Desktop","no","Andale Mono","no","18","no","white","no","yes","576","legacy","76","76","3","/Users/charlotterowe/Desktop/subject-5202101.csv","legacy","Lentiform Loewenfeld","3.3.7","yes","yes","600bd7cfb6416f0113b04181","602110864497cf011d9c0822","0","j","NA","space","space","space","space","j","534","NA","2532","10190","2197","13800","534","2","legacy","1024","2","48000","-16","task","5202101","odd","NA","25103","29640","27107","182177","5614","18014","15814","182680","117512","182174","182680","182115","29640","183215","23396","181615","5578","171190","Lexical Decision Task","75","54626","81","yes","1024"
"2.952953801","0","8","clax","non-word","92.6829268292683","92.6829268292683","673.0731707317074","673.0731707317074","black","no","legacy","legacy","legacy","0","uniform","1","undefined","undefined","undefined","1","f","0","0","0","0","81","0","0","0","81","0","77","81","77","0","77","3","81","0","81","Wed Feb 17 11:22:03 2021","The main experiment item","yes","Lexical_Decision_Task.osexp","/Users/charlotterowe/Desktop","no","Andale Mono","no","18","no","white","no","yes","576","legacy","77","77","3","/Users/charlotterowe/Desktop/subject-5202101.csv","legacy","Lentiform Loewenfeld","3.3.7","yes","yes","600bd7cfb6416f0113b04181","602110864497cf011d9c0822","0","f","NA","space","space","space","space","f","566","NA","2532","10190","2197","13800","566","2","legacy","1024","2","48000","-16","task","5202101","odd","NA","25103","29640","27107","183781","5614","18014","15814","184284","117512","183779","184284","183718","29640","184851","23396","183218","5578","171190","Lexical Decision Task","76","55192","82","yes","1024"
"2.6599162","0","2","saff","non-word","92.7710843373494","92.7710843373494","673.0240963855422","673.0240963855422","black","no","legacy","legacy","legacy","0","uniform","1","undefined","undefined","undefined","1","f","0","0","0","0","82","0","0","0","82","0","78","82","78","0","78","3","82","0","82","Wed Feb 17 11:22:03 2021","The main experiment item","yes","Lexical_Decision_Task.osexp","/Users/charlotterowe/Desktop","no","Andale Mono","no","18","no","white","no","yes","576","legacy","78","78","3","/Users/charlotterowe/Desktop/subject-5202101.csv","legacy","Lentiform Loewenfeld","3.3.7","yes","yes","600bd7cfb6416f0113b04181","602110864497cf011d9c0822","0","f","NA","space","space","space","space","f","669","NA","2532","10190","2197","13800","669","2","legacy","1024","2","48000","-16","task","5202101","odd","NA","25103","29640","27107","185421","5614","18014","15814","185923","117512","185418","185923","185355","29640","186594","23396","184855","5578","171190","Lexical Decision Task","77","55861","83","yes","1024"
"3.208172527","10.27","7","deck","word","91.66666666666667","91.66666666666667","671.2142857142857","671.2142857142857","black","no","legacy","legacy","legacy","0","uniform","0","undefined","undefined","undefined","0","j","0","0","0","0","83","0","0","0","83","0","79","83","79","0","79","3","83","0","83","Wed Feb 17 11:22:03 2021","The main experiment item","yes","Lexical_Decision_Task.osexp","/Users/charlotterowe/Desktop","no","Andale Mono","no","18","no","white","no","yes","576","legacy","79","79","3","/Users/charlotterowe/Desktop/subject-5202101.csv","legacy","Lentiform Loewenfeld","3.3.7","yes","yes","600bd7cfb6416f0113b04181","602110864497cf011d9c0822","0","f","NA","space","space","space","space","f","521","NA","2532","10190","2197","13800","521","2","legacy","1024","2","48000","-16","task","5202101","odd","NA","25103","29640","27107","187162","5614","18014","15814","187664","117512","187159","187665","187097","29640","188187","23396","186597","5578","171190","Lexical Decision Task","77","56382","84","yes","1024"
"3.307211407","6.07","7","honk","word","91.76470588235294","91.76470588235294","670.6941176470589","670.6941176470589","black","no","legacy","legacy","legacy","0","uniform","1","undefined","undefined","undefined","1","j","0","0","0","0","84","0","0","0","84","0","80","84","80","0","80","3","84","0","84","Wed Feb 17 11:22:03 2021","The main experiment item","yes","Lexical_Decision_Task.osexp","/Users/charlotterowe/Desktop","no","Andale Mono","no","18","no","white","no","yes","576","legacy","80","80","3","/Users/charlotterowe/Desktop/subject-5202101.csv","legacy","Lentiform Loewenfeld","3.3.7","yes","yes","600bd7cfb6416f0113b04181","602110864497cf011d9c0822","0","j","NA","space","space","space","space","j","627","NA","2532","10190","2197","13800","627","2","legacy","1024","2","48000","-16","task","5202101","odd","NA","25103","29640","27107","189760","5614","18014","15814","190262","117512","189757","190263","189690","29640","190892","23396","186597","5578","188190","Lexical Decision Task","78","57009","85","yes","1024"
"2.990042563","6.64","9","plow","word","90.69767441860465","90.69767441860465","673.7790697674419","673.7790697674419","black","no","legacy","legacy","legacy","0","uniform","0","undefined","undefined","undefined","0","j","0","0","0","0","85","0","0","0","85","0","81","85","81","0","81","3","85","0","85","Wed Feb 17 11:22:03 2021","The main experiment item","yes","Lexical_Decision_Task.osexp","/Users/charlotterowe/Desktop","no","Andale Mono","no","18","no","white","no","yes","576","legacy","81","81","3","/Users/charlotterowe/Desktop/subject-5202101.csv","legacy","Lentiform Loewenfeld","3.3.7","yes","yes","600bd7cfb6416f0113b04181","602110864497cf011d9c0822","0","f","NA","space","space","space","space","f","936","NA","2532","10190","2197","13800","936","2","legacy","1024","2","48000","-16","task","5202101","odd","NA","25103","29640","27107","191449","5614","18014","15814","191952","117512","191446","191952","191395","29640","192889","23396","190895","5578","188190","Lexical Decision Task","78","57945","86","yes","1024"
"3.20996159","0","4","clee","non-word","90.80459770114942","90.80459770114942","690.7816091954023","690.7816091954023","black","no","legacy","legacy","legacy","0","uniform","1","undefined","undefined","undefined","1","f","0","0","0","0","86","0","0","0","86","0","82","86","82","0","82","3","86","0","86","Wed Feb 17 11:22:03 2021","The main experiment item","yes","Lexical_Decision_Task.osexp","/Users/charlotterowe/Desktop","no","Andale Mono","no","18","no","white","no","yes","576","legacy","82","82","3","/Users/charlotterowe/Desktop/subject-5202101.csv","legacy","Lentiform Loewenfeld","3.3.7","yes","yes","600bd7cfb6416f0113b04181","602110864497cf011d9c0822","0","f","NA","space","space","space","space","f","2153","NA","2532","10190","2197","13800","2153","2","legacy","1024","2","48000","-16","task","5202101","odd","NA","25103","29640","27107","194459","5614","18014","15814","194962","117512","194456","194962","194393","29640","197116","23396","190895","5578","192893","Lexical Decision Task","79","60098","87","yes","1024"
"2.898725182","0","7","turl","non-word","90.9090909090909","90.9090909090909","691.2613636363636","691.2613636363636","black","no","legacy","legacy","legacy","0","uniform","1","undefined","undefined","undefined","1","f","0","0","0","0","87","0","0","0","87","0","83","87","83","0","83","3","87","0","87","Wed Feb 17 11:22:03 2021","The main experiment item","yes","Lexical_Decision_Task.osexp","/Users/charlotterowe/Desktop","no","Andale Mono","no","18","no","white","no","yes","576","legacy","83","83","3","/Users/charlotterowe/Desktop/subject-5202101.csv","legacy","Lentiform Loewenfeld","3.3.7","yes","yes","600bd7cfb6416f0113b04181","602110864497cf011d9c0822","0","f","NA","space","space","space","space","f","733","NA","2532","10190","2197","13800","733","2","legacy","1024","2","48000","-16","task","5202101","odd","NA","25103","29640","27107","197684","5614","18014","15814","198186","117512","197681","198187","197620","29640","198921","23396","197120","5578","192893","Lexical Decision Task","80","60831","88","yes","1024"
"3.29439347","8.6","9","wand","word","91.01123595505618","91.01123595505618","690.6966292134831","690.6966292134831","black","no","legacy","legacy","legacy","0","uniform","1","undefined","undefined","undefined","1","j","0","0","0","0","88","0","0","0","88","0","84","88","84","0","84","3","88","0","88","Wed Feb 17 11:22:03 2021","The main experiment item","yes","Lexical_Decision_Task.osexp","/Users/charlotterowe/Desktop","no","Andale Mono","no","18","no","white","no","yes","576","legacy","84","84","3","/Users/charlotterowe/Desktop/subject-5202101.csv","legacy","Lentiform Loewenfeld","3.3.7","yes","yes","600bd7cfb6416f0113b04181","602110864497cf011d9c0822","0","j","NA","space","space","space","space","j","641","NA","2532","10190","2197","13800","641","2","legacy","1024","2","48000","-16","task","5202101","odd","NA","25103","29640","27107","199488","5614","18014","15814","199990","117512","199485","199990","199425","29640","200632","23396","198925","5578","192893","Lexical Decision Task","81","61472","89","yes","1024"
"2.980911938","7.15","7","hoop","word","91.11111111111111","91.11111111111111","691.4","691.4","black","no","legacy","legacy","legacy","0","uniform","1","undefined","undefined","undefined","1","j","0","0","0","0","89","0","0","0","89","0","85","89","85","0","85","3","89","0","89","Wed Feb 17 11:22:03 2021","The main experiment item","yes","Lexical_Decision_Task.osexp","/Users/charlotterowe/Desktop","no","Andale Mono","no","18","no","white","no","yes","576","legacy","85","85","3","/Users/charlotterowe/Desktop/subject-5202101.csv","legacy","Lentiform Loewenfeld","3.3.7","yes","yes","600bd7cfb6416f0113b04181","602110864497cf011d9c0822","0","j","NA","space","space","space","space","j","754","NA","2532","10190","2197","13800","754","2","legacy","1024","2","48000","-16","task","5202101","odd","NA","25103","29640","27107","201198","5614","18014","15814","201701","117512","201195","201701","201136","29640","202456","23396","200636","5578","192893","Lexical Decision Task","82","62226","90","yes","1024"
"3.481012421","8.34","5","teen","word","91.20879120879121","91.20879120879121","695.1098901098901","695.1098901098901","black","no","legacy","legacy","legacy","0","uniform","1","undefined","undefined","undefined","1","j","0","0","0","0","90","0","0","0","90","0","86","90","86","0","86","3","90","0","90","Wed Feb 17 11:22:03 2021","The main experiment item","yes","Lexical_Decision_Task.osexp","/Users/charlotterowe/Desktop","no","Andale Mono","no","18","no","white","no","yes","576","legacy","86","86","3","/Users/charlotterowe/Desktop/subject-5202101.csv","legacy","Lentiform Loewenfeld","3.3.7","yes","yes","600bd7cfb6416f0113b04181","602110864497cf011d9c0822","0","j","NA","space","space","space","space","j","1029","NA","2532","10190","2197","13800","1029","2","legacy","1024","2","48000","-16","task","5202101","odd","NA","25103","29640","27107","203022","5614","18014","15814","203525","117512","203019","203525","202960","29640","204556","23396","202460","5578","192893","Lexical Decision Task","83","63255","91","yes","1024"
"2.897810299","0","5","glur","non-word","91.30434782608695","91.30434782608695","693.3478260869565","693.3478260869565","black","no","legacy","legacy","legacy","0","uniform","1","undefined","undefined","undefined","1","f","0","0","0","0","91","0","0","0","91","0","87","91","87","0","87","3","91","0","91","Wed Feb 17 11:22:03 2021","The main experiment item","yes","Lexical_Decision_Task.osexp","/Users/charlotterowe/Desktop","no","Andale Mono","no","18","no","white","no","yes","576","legacy","87","87","3","/Users/charlotterowe/Desktop/subject-5202101.csv","legacy","Lentiform Loewenfeld","3.3.7","yes","yes","600bd7cfb6416f0113b04181","602110864497cf011d9c0822","0","f","NA","space","space","space","space","f","533","NA","2532","10190","2197","13800","533","2","legacy","1024","2","48000","-16","task","5202101","odd","NA","25103","29640","27107","205122","5614","18014","15814","205625","117512","205119","205625","205060","29640","206159","23396","204560","5578","192893","Lexical Decision Task","84","63788","92","yes","1024"
"2.799799878","0","4","ciff","non-word","91.39784946236558","91.39784946236558","698.4301075268817","698.4301075268817","black","no","legacy","legacy","legacy","0","uniform","1","undefined","undefined","undefined","1","f","0","0","0","0","92","0","0","0","92","0","88","92","88","0","88","3","92","0","92","Wed Feb 17 11:22:03 2021","The main experiment item","yes","Lexical_Decision_Task.osexp","/Users/charlotterowe/Desktop","no","Andale Mono","no","18","no","white","no","yes","576","legacy","88","88","3","/Users/charlotterowe/Desktop/subject-5202101.csv","legacy","Lentiform Loewenfeld","3.3.7","yes","yes","600bd7cfb6416f0113b04181","602110864497cf011d9c0822","0","f","NA","space","space","space","space","f","1166","NA","2532","10190","2197","13800","1166","2","legacy","1024","2","48000","-16","task","5202101","odd","NA","25103","29640","27107","206725","5614","18014","15814","207228","117512","206723","207228","206663","29640","208395","23396","206163","5578","192893","Lexical Decision Task","85","64954","93","yes","1024"
"2.696644658","5.78","2","yolk","word","91.48936170212765","91.48936170212765","716.5744680851063","716.5744680851063","black","no","legacy","legacy","legacy","0","uniform","1","undefined","undefined","undefined","1","j","0","0","0","0","93","0","0","0","93","0","89","93","89","0","89","3","93","0","93","Wed Feb 17 11:22:03 2021","The main experiment item","yes","Lexical_Decision_Task.osexp","/Users/charlotterowe/Desktop","no","Andale Mono","no","18","no","white","no","yes","576","legacy","89","89","3","/Users/charlotterowe/Desktop/subject-5202101.csv","legacy","Lentiform Loewenfeld","3.3.7","yes","yes","600bd7cfb6416f0113b04181","602110864497cf011d9c0822","0","j","NA","space","space","space","space","j","2404","NA","2532","10190","2197","13800","2404","2","legacy","1024","2","48000","-16","task","5202101","odd","NA","25103","29640","27107","208961","5614","18014","15814","209464","117512","208958","209464","208899","29640","211869","23396","208399","5578","192893","Lexical Decision Task","86","67358","94","yes","1024"
"3.091901331","0","9","nipe","non-word","91.57894736842105","91.57894736842105","717.6526315789474","717.6526315789474","black","no","legacy","legacy","legacy","0","uniform","1","undefined","undefined","undefined","1","f","0","0","0","0","94","0","0","0","94","0","90","94","90","0","90","3","94","0","94","Wed Feb 17 11:22:03 2021","The main experiment item","yes","Lexical_Decision_Task.osexp","/Users/charlotterowe/Desktop","no","Andale Mono","no","18","no","white","no","yes","576","legacy","90","90","3","/Users/charlotterowe/Desktop/subject-5202101.csv","legacy","Lentiform Loewenfeld","3.3.7","yes","yes","600bd7cfb6416f0113b04181","602110864497cf011d9c0822","0","f","NA","space","space","space","space","f","819","NA","2532","10190","2197","13800","819","2","legacy","1024","2","48000","-16","task","5202101","odd","NA","25103","29640","27107","212434","5614","18014","15814","212937","117512","212431","212937","212373","29640","213757","23396","211873","5578","192893","Lexical Decision Task","87","68177","95","yes","1024"
"3.137775856","7.39","5","comb","word","91.66666666666667","91.66666666666667","718","718","black","no","legacy","legacy","legacy","0","uniform","1","undefined","undefined","undefined","1","j","0","0","0","0","95","0","0","0","95","0","91","95","91","0","91","3","95","0","95","Wed Feb 17 11:22:03 2021","The main experiment item","yes","Lexical_Decision_Task.osexp","/Users/charlotterowe/Desktop","no","Andale Mono","no","18","no","white","no","yes","576","legacy","91","91","3","/Users/charlotterowe/Desktop/subject-5202101.csv","legacy","Lentiform Loewenfeld","3.3.7","yes","yes","600bd7cfb6416f0113b04181","602110864497cf011d9c0822","0","j","NA","space","space","space","space","j","751","NA","2532","10190","2197","13800","751","2","legacy","1024","2","48000","-16","task","5202101","odd","NA","25103","29640","27107","214323","5614","18014","15814","214826","117512","214320","214826","214260","29640","215578","23396","213760","5578","192893","Lexical Decision Task","88","68928","96","yes","1024"
"3.102203805","7.21","3","drip","word","91.75257731958763","91.75257731958763","716.5463917525773","716.5463917525773","black","no","legacy","legacy","legacy","0","uniform","1","undefined","undefined","undefined","1","j","0","0","0","0","96","0","0","0","96","0","92","96","92","0","92","3","96","0","96","Wed Feb 17 11:22:03 2021","The main experiment item","yes","Lexical_Decision_Task.osexp","/Users/charlotterowe/Desktop","no","Andale Mono","no","18","no","white","no","yes","576","legacy","92","92","3","/Users/charlotterowe/Desktop/subject-5202101.csv","legacy","Lentiform Loewenfeld","3.3.7","yes","yes","600bd7cfb6416f0113b04181","602110864497cf011d9c0822","0","j","NA","space","space","space","space","j","577","NA","2532","10190","2197","13800","577","2","legacy","1024","2","48000","-16","task","5202101","odd","NA","25103","29640","27107","216145","5614","18014","15814","216647","117512","216142","216647","216081","29640","217225","23396","215581","5578","192893","Lexical Decision Task","89","69505","97","yes","1024"
"3.495914186","0","4","peng","non-word","91.83673469387755","91.83673469387755","723.3571428571429","723.3571428571429","black","no","legacy","legacy","legacy","0","uniform","1","undefined","undefined","undefined","1","f","0","0","0","0","97","0","0","0","97","0","93","97","93","0","93","3","97","0","97","Wed Feb 17 11:22:03 2021","The main experiment item","yes","Lexical_Decision_Task.osexp","/Users/charlotterowe/Desktop","no","Andale Mono","no","18","no","white","no","yes","576","legacy","93","93","3","/Users/charlotterowe/Desktop/subject-5202101.csv","legacy","Lentiform Loewenfeld","3.3.7","yes","yes","600bd7cfb6416f0113b04181","602110864497cf011d9c0822","0","f","NA","space","space","space","space","f","1384","NA","2532","10190","2197","13800","1384","2","legacy","1024","2","48000","-16","task","5202101","odd","NA","25103","29640","27107","217791","5614","18014","15814","218294","117512","217789","218294","217729","29640","219679","23396","217229","5578","192893","Lexical Decision Task","90","70889","98","yes","1024"
"2.983324025","9.56","2","debt","word","91.91919191919192","91.91919191919192","723.5858585858585","723.5858585858585","black","no","legacy","legacy","legacy","0","uniform","1","undefined","undefined","undefined","1","j","0","0","0","0","98","0","0","0","98","0","94","98","94","0","94","3","98","0","98","Wed Feb 17 11:22:03 2021","The main experiment item","yes","Lexical_Decision_Task.osexp","/Users/charlotterowe/Desktop","no","Andale Mono","no","18","no","white","no","yes","576","legacy","94","94","3","/Users/charlotterowe/Desktop/subject-5202101.csv","legacy","Lentiform Loewenfeld","3.3.7","yes","yes","600bd7cfb6416f0113b04181","602110864497cf011d9c0822","0","j","NA","space","space","space","space","j","746","NA","2532","10190","2197","13800","746","2","legacy","1024","2","48000","-16","task","5202101","odd","NA","25103","29640","27107","220248","5614","18014","15814","220750","117512","220246","220751","220184","29640","221498","23396","219684","5578","192893","Lexical Decision Task","91","71635","99","yes","1024"
"2.698100546","0","9","mulk","non-word","92","92","722.88","722.88","black","no","legacy","legacy","legacy","0","uniform","1","undefined","undefined","undefined","1","f","0","0","0","0","99","0","0","0","99","0","95","99","95","0","95","3","99","0","99","Wed Feb 17 11:22:03 2021","The main experiment item","yes","Lexical_Decision_Task.osexp","/Users/charlotterowe/Desktop","no","Andale Mono","no","18","no","white","no","yes","576","legacy","95","95","3","/Users/charlotterowe/Desktop/subject-5202101.csv","legacy","Lentiform Loewenfeld","3.3.7","yes","yes","600bd7cfb6416f0113b04181","602110864497cf011d9c0822","0","f","NA","space","space","space","space","f","653","NA","2532","10190","2197","13800","653","2","legacy","1024","2","48000","-16","task","5202101","odd","NA","25103","29640","27107","222065","5614","18014","15814","222567","117512","222062","222567","222001","29640","223222","23396","221501","5578","192893","Lexical Decision Task","92","72288","100","yes","1024"
