"Log_BG","Log_Freq_HAL","Ortho_N","Stimulus","Type","acc","accuracy","average_response_time","avg_rt","background","bidi","canvas_backend","clock_backend","color_backend","compensation","coordinates","correct","correct_Experimental_intro","correct_Introduction","correct_Practice_intro","correct_experimenter_kb","correct_response","count_End_Of_Experiment","count_End_Of_Practice","count_Experimental_Loop","count_Experimental_intro","count_Fixation","count_Introduction","count_Practice_Loop","count_Practice_intro","count_Stimulus","count_block_break_feedback","count_experimental_sequence","count_experimenter_kb","count_increment_trial_count","count_init_trial_count","count_logger","count_practice_sequence","count_right","count_task","count_wrong","datetime","description","disable_garbage_collection","experiment_file","experiment_path","font_bold","font_family","font_italic","font_size","font_underline","foreground","form_clicks","fullscreen","height","keyboard_backend","live_row","live_row_Experimental_Loop","live_row_Practice_Loop","logfile","mouse_backend","opensesame_codename","opensesame_version","osf_always_upload_data","osf_always_upload_experiment","osf_datanode_id","osf_id","repeat_cycle","response","response_End_Of_Experiment","response_Experimental_intro","response_Introduction","response_Practice_intro","response_block_break_feedback","response_experimenter_kb","response_time","response_time_End_Of_Experiment","response_time_Experimental_intro","response_time_Introduction","response_time_Practice_intro","response_time_block_break_feedback","response_time_experimenter_kb","round_decimals","sampler_backend","sound_buf_size","sound_channels","sound_freq","sound_sample_size","start","subject_nr","subject_parity","time_End_Of_Experiment","time_End_Of_Practice","time_Experimental_Loop","time_Experimental_intro","time_Fixation","time_Introduction","time_Practice_Loop","time_Practice_intro","time_Stimulus","time_block_break_feedback","time_experimental_sequence","time_experimenter_kb","time_increment_trial_count","time_init_trial_count","time_logger","time_practice_sequence","time_right","time_task","time_wrong","title","total_correct","total_response_time","total_responses","uniform_coordinates","width"
"2.983324025","9.56","2","debt","word","100","100","1163.4","1163.4","black","no","legacy","legacy","legacy","0","uniform","1","undefined","undefined","undefined","1","j","0","0","0","0","4","0","0","0","4","NA","0","4","0","0","0","3","4","0","4","Fri Feb 19 12:37:12 2021","The main experiment item","yes","Lexical_Decision_Task.osexp","/Users/halimefistikci/Downloads","no","Andale Mono","no","18","no","white","no","yes","576","legacy","0","0","3","/Users/halimefistikci/Downloads/subject-5217513.csv","legacy","Lentiform Loewenfeld","3.3.7","yes","yes","600bd7cfb6416f0113b04181","602110864497cf011d9c0822","0","j","NA","space","space","space","NA","j","1389","NA","3751","16425","9456","NA","1389","2","legacy","1024","2","48000","-16","task","5217513","odd","NA","38923","44679","40927","44713","4251","30176","20719","45217","NA","44711","45217","NA","44679","46608","36422","38392","4231","NA","Lexical Decision Task","5","5817","5","yes","1024"
"2.845304797","0","6","buct","non-word","100","100","1106.1666666666667","1106.1666666666667","black","no","legacy","legacy","legacy","0","uniform","1","undefined","undefined","undefined","1","f","0","0","0","0","5","0","0","0","5","NA","1","5","1","0","1","3","5","0","5","Fri Feb 19 12:37:12 2021","The main experiment item","yes","Lexical_Decision_Task.osexp","/Users/halimefistikci/Downloads","no","Andale Mono","no","18","no","white","no","yes","576","legacy","1","1","3","/Users/halimefistikci/Downloads/subject-5217513.csv","legacy","Lentiform Loewenfeld","3.3.7","yes","yes","600bd7cfb6416f0113b04181","602110864497cf011d9c0822","0","f","NA","space","space","space","NA","f","820","NA","3751","16425","9456","NA","820","2","legacy","1024","2","48000","-16","task","5217513","odd","NA","38923","44679","40927","47188","4251","30176","20719","47691","NA","47185","47692","47118","44679","48513","36422","46618","4231","NA","Lexical Decision Task","6","6637","6","yes","1024"
"3.488597715","0","9","nain","non-word","100","100","1122.4285714285713","1122.4285714285713","black","no","legacy","legacy","legacy","0","uniform","1","undefined","undefined","undefined","1","f","0","0","0","0","6","0","0","0","6","NA","2","6","2","0","2","3","6","0","6","Fri Feb 19 12:37:12 2021","The main experiment item","yes","Lexical_Decision_Task.osexp","/Users/halimefistikci/Downloads","no","Andale Mono","no","18","no","white","no","yes","576","legacy","2","2","3","/Users/halimefistikci/Downloads/subject-5217513.csv","legacy","Lentiform Loewenfeld","3.3.7","yes","yes","600bd7cfb6416f0113b04181","602110864497cf011d9c0822","0","f","NA","space","space","space","NA","f","1220","NA","3751","16425","9456","NA","1220","2","legacy","1024","2","48000","-16","task","5217513","odd","NA","38923","44679","40927","49082","4251","30176","20719","49586","NA","49079","49586","49019","44679","50807","36422","48519","4231","NA","Lexical Decision Task","7","7857","7","yes","1024"
"3.257359335","8","6","brew","word","100","100","1076.25","1076.25","black","no","legacy","legacy","legacy","0","uniform","1","undefined","undefined","undefined","1","j","0","0","0","0","7","0","0","0","7","NA","3","7","3","0","3","3","7","0","7","Fri Feb 19 12:37:12 2021","The main experiment item","yes","Lexical_Decision_Task.osexp","/Users/halimefistikci/Downloads","no","Andale Mono","no","18","no","white","no","yes","576","legacy","3","3","3","/Users/halimefistikci/Downloads/subject-5217513.csv","legacy","Lentiform Loewenfeld","3.3.7","yes","yes","600bd7cfb6416f0113b04181","602110864497cf011d9c0822","0","j","NA","space","space","space","NA","j","753","NA","3751","16425","9456","NA","753","2","legacy","1024","2","48000","-16","task","5217513","odd","NA","38923","44679","40927","51380","4251","30176","20719","51884","NA","51376","51885","51312","44679","52639","36422","50812","4231","NA","Lexical Decision Task","8","8610","8","yes","1024"
"3.209246849","0","7","slem","non-word","100","100","1123.4444444444443","1123.4444444444443","black","no","legacy","legacy","legacy","0","uniform","1","undefined","undefined","undefined","1","f","0","0","0","0","8","0","0","0","8","NA","4","8","4","0","4","3","8","0","8","Fri Feb 19 12:37:12 2021","The main experiment item","yes","Lexical_Decision_Task.osexp","/Users/halimefistikci/Downloads","no","Andale Mono","no","18","no","white","no","yes","576","legacy","4","4","3","/Users/halimefistikci/Downloads/subject-5217513.csv","legacy","Lentiform Loewenfeld","3.3.7","yes","yes","600bd7cfb6416f0113b04181","602110864497cf011d9c0822","0","f","NA","space","space","space","NA","f","1501","NA","3751","16425","9456","NA","1501","2","legacy","1024","2","48000","-16","task","5217513","odd","NA","38923","44679","40927","53205","4251","30176","20719","53710","NA","53203","53711","53145","44679","55214","36422","52645","4231","NA","Lexical Decision Task","9","10111","9","yes","1024"
"3.140404328","10.66","9","deep","word","100","100","1074.2","1074.2","black","no","legacy","legacy","legacy","0","uniform","1","undefined","undefined","undefined","1","j","0","0","0","0","9","0","0","0","9","NA","5","9","5","0","5","3","9","0","9","Fri Feb 19 12:37:12 2021","The main experiment item","yes","Lexical_Decision_Task.osexp","/Users/halimefistikci/Downloads","no","Andale Mono","no","18","no","white","no","yes","576","legacy","5","5","3","/Users/halimefistikci/Downloads/subject-5217513.csv","legacy","Lentiform Loewenfeld","3.3.7","yes","yes","600bd7cfb6416f0113b04181","602110864497cf011d9c0822","0","j","NA","space","space","space","NA","j","631","NA","3751","16425","9456","NA","631","2","legacy","1024","2","48000","-16","task","5217513","odd","NA","38923","44679","40927","55792","4251","30176","20719","56296","NA","55787","56297","55719","44679","56929","36422","55219","4231","NA","Lexical Decision Task","10","10742","10","yes","1024"
"3.090140555","5.81","8","pout","word","100","100","1080.090909090909","1080.090909090909","black","no","legacy","legacy","legacy","0","uniform","1","undefined","undefined","undefined","1","j","0","0","0","0","10","0","0","0","10","NA","6","10","6","0","6","3","10","0","10","Fri Feb 19 12:37:12 2021","The main experiment item","yes","Lexical_Decision_Task.osexp","/Users/halimefistikci/Downloads","no","Andale Mono","no","18","no","white","no","yes","576","legacy","6","6","3","/Users/halimefistikci/Downloads/subject-5217513.csv","legacy","Lentiform Loewenfeld","3.3.7","yes","yes","600bd7cfb6416f0113b04181","602110864497cf011d9c0822","0","j","NA","space","space","space","NA","j","1139","NA","3751","16425","9456","NA","1139","2","legacy","1024","2","48000","-16","task","5217513","odd","NA","38923","44679","40927","57493","4251","30176","20719","57995","NA","57490","57995","57434","44679","59135","36422","56933","4231","NA","Lexical Decision Task","11","11881","11","yes","1024"
"2.803231716","5.26","3","kiln","word","91.66666666666667","91.66666666666667","1065.5833333333333","1065.5833333333333","black","no","legacy","legacy","legacy","0","uniform","0","undefined","undefined","undefined","0","j","0","0","0","0","11","0","0","0","11","NA","7","11","7","0","7","3","11","0","11","Fri Feb 19 12:37:12 2021","The main experiment item","yes","Lexical_Decision_Task.osexp","/Users/halimefistikci/Downloads","no","Andale Mono","no","18","no","white","no","yes","576","legacy","7","7","3","/Users/halimefistikci/Downloads/subject-5217513.csv","legacy","Lentiform Loewenfeld","3.3.7","yes","yes","600bd7cfb6416f0113b04181","602110864497cf011d9c0822","0","f","NA","space","space","space","NA","f","906","NA","3751","16425","9456","NA","906","2","legacy","1024","2","48000","-16","task","5217513","odd","NA","38923","44679","40927","59706","4251","30176","20719","60209","NA","59703","60209","59640","44679","61116","36422","59139","4231","NA","Lexical Decision Task","11","12787","12","yes","1024"
"2.814027728","8.2","4","foam","word","92.3076923076923","92.3076923076923","1049.3846153846155","1049.3846153846155","black","no","legacy","legacy","legacy","0","uniform","1","undefined","undefined","undefined","1","j","0","0","0","0","12","0","0","0","12","NA","8","12","8","0","8","3","12","0","12","Fri Feb 19 12:37:12 2021","The main experiment item","yes","Lexical_Decision_Task.osexp","/Users/halimefistikci/Downloads","no","Andale Mono","no","18","no","white","no","yes","576","legacy","8","8","3","/Users/halimefistikci/Downloads/subject-5217513.csv","legacy","Lentiform Loewenfeld","3.3.7","yes","yes","600bd7cfb6416f0113b04181","602110864497cf011d9c0822","0","j","NA","space","space","space","NA","j","855","NA","3751","16425","9456","NA","855","2","legacy","1024","2","48000","-16","task","5217513","odd","NA","38923","44679","40927","62681","4251","30176","20719","63183","NA","62678","63184","62621","44679","64041","36422","59139","4231","61120","Lexical Decision Task","12","13642","13","yes","1024"
"2.842815106","7.86","8","lump","word","92.85714285714286","92.85714285714286","1081.2142857142858","1081.2142857142858","black","no","legacy","legacy","legacy","0","uniform","1","undefined","undefined","undefined","1","j","0","0","0","0","13","0","0","0","13","NA","9","13","9","0","9","3","13","0","13","Fri Feb 19 12:37:12 2021","The main experiment item","yes","Lexical_Decision_Task.osexp","/Users/halimefistikci/Downloads","no","Andale Mono","no","18","no","white","no","yes","576","legacy","9","9","3","/Users/halimefistikci/Downloads/subject-5217513.csv","legacy","Lentiform Loewenfeld","3.3.7","yes","yes","600bd7cfb6416f0113b04181","602110864497cf011d9c0822","0","j","NA","space","space","space","NA","j","1495","NA","3751","16425","9456","NA","1495","2","legacy","1024","2","48000","-16","task","5217513","odd","NA","38923","44679","40927","64609","4251","30176","20719","65112","NA","64606","65113","64546","44679","66609","36422","64046","4231","61120","Lexical Decision Task","13","15137","14","yes","1024"
"3.299579929","0","2","flis","non-word","93.33333333333333","93.33333333333333","1100.9333333333334","1100.9333333333334","black","no","legacy","legacy","legacy","0","uniform","1","undefined","undefined","undefined","1","f","0","0","0","0","14","0","0","0","14","NA","10","14","10","0","10","3","14","0","14","Fri Feb 19 12:37:12 2021","The main experiment item","yes","Lexical_Decision_Task.osexp","/Users/halimefistikci/Downloads","no","Andale Mono","no","18","no","white","no","yes","576","legacy","10","10","3","/Users/halimefistikci/Downloads/subject-5217513.csv","legacy","Lentiform Loewenfeld","3.3.7","yes","yes","600bd7cfb6416f0113b04181","602110864497cf011d9c0822","0","f","NA","space","space","space","NA","f","1377","NA","3751","16425","9456","NA","1377","2","legacy","1024","2","48000","-16","task","5217513","odd","NA","38923","44679","40927","67177","4251","30176","20719","67680","NA","67174","67681","67115","44679","69060","36422","66615","4231","61120","Lexical Decision Task","14","16514","15","yes","1024"
"2.594027722","9.08","8","skip","word","93.75","93.75","1077.8125","1077.8125","black","no","legacy","legacy","legacy","0","uniform","1","undefined","undefined","undefined","1","j","0","0","0","0","15","0","0","0","15","NA","11","15","11","0","11","3","15","0","15","Fri Feb 19 12:37:12 2021","The main experiment item","yes","Lexical_Decision_Task.osexp","/Users/halimefistikci/Downloads","no","Andale Mono","no","18","no","white","no","yes","576","legacy","11","11","3","/Users/halimefistikci/Downloads/subject-5217513.csv","legacy","Lentiform Loewenfeld","3.3.7","yes","yes","600bd7cfb6416f0113b04181","602110864497cf011d9c0822","0","j","NA","space","space","space","NA","j","731","NA","3751","16425","9456","NA","731","2","legacy","1024","2","48000","-16","task","5217513","odd","NA","38923","44679","40927","69635","4251","30176","20719","70140","NA","69630","70140","69566","44679","70872","36422","69065","4231","61120","Lexical Decision Task","15","17245","16","yes","1024"
"3.443783828","7.65","3","verb","word","94.11764705882354","94.11764705882354","1059.5882352941176","1059.5882352941176","black","no","legacy","legacy","legacy","0","uniform","1","undefined","undefined","undefined","1","j","0","0","0","0","16","0","0","0","16","NA","12","16","12","0","12","3","16","0","16","Fri Feb 19 12:37:12 2021","The main experiment item","yes","Lexical_Decision_Task.osexp","/Users/halimefistikci/Downloads","no","Andale Mono","no","18","no","white","no","yes","576","legacy","12","12","3","/Users/halimefistikci/Downloads/subject-5217513.csv","legacy","Lentiform Loewenfeld","3.3.7","yes","yes","600bd7cfb6416f0113b04181","602110864497cf011d9c0822","0","j","NA","space","space","space","NA","j","768","NA","3751","16425","9456","NA","768","2","legacy","1024","2","48000","-16","task","5217513","odd","NA","38923","44679","40927","71448","4251","30176","20719","71951","NA","71443","71952","71378","44679","72722","36422","70877","4231","61120","Lexical Decision Task","16","18013","17","yes","1024"
"2.695770526","7.34","6","pawn","word","94.44444444444444","94.44444444444444","1040.8333333333333","1040.8333333333333","black","no","legacy","legacy","legacy","0","uniform","1","undefined","undefined","undefined","1","j","0","0","0","0","17","0","0","0","17","NA","13","17","13","0","13","3","17","0","17","Fri Feb 19 12:37:12 2021","The main experiment item","yes","Lexical_Decision_Task.osexp","/Users/halimefistikci/Downloads","no","Andale Mono","no","18","no","white","no","yes","576","legacy","13","13","3","/Users/halimefistikci/Downloads/subject-5217513.csv","legacy","Lentiform Loewenfeld","3.3.7","yes","yes","600bd7cfb6416f0113b04181","602110864497cf011d9c0822","0","j","NA","space","space","space","NA","j","722","NA","3751","16425","9456","NA","722","2","legacy","1024","2","48000","-16","task","5217513","odd","NA","38923","44679","40927","73290","4251","30176","20719","73794","NA","73287","73794","73228","44679","74517","36422","72728","4231","61120","Lexical Decision Task","17","18735","18","yes","1024"
"2.953276337","6.32","4","thaw","word","94.73684210526316","94.73684210526316","1029.578947368421","1029.578947368421","black","no","legacy","legacy","legacy","0","uniform","1","undefined","undefined","undefined","1","j","0","0","0","0","18","0","0","0","18","NA","14","18","14","0","14","3","18","0","18","Fri Feb 19 12:37:12 2021","The main experiment item","yes","Lexical_Decision_Task.osexp","/Users/halimefistikci/Downloads","no","Andale Mono","no","18","no","white","no","yes","576","legacy","14","14","3","/Users/halimefistikci/Downloads/subject-5217513.csv","legacy","Lentiform Loewenfeld","3.3.7","yes","yes","600bd7cfb6416f0113b04181","602110864497cf011d9c0822","0","j","NA","space","space","space","NA","j","827","NA","3751","16425","9456","NA","827","2","legacy","1024","2","48000","-16","task","5217513","odd","NA","38923","44679","40927","75081","4251","30176","20719","75584","NA","75076","75584","75022","44679","76412","36422","74522","4231","61120","Lexical Decision Task","18","19562","19","yes","1024"
"2.793790385","5.67","9","swab","word","95","95","1026.15","1026.15","black","no","legacy","legacy","legacy","0","uniform","1","undefined","undefined","undefined","1","j","0","0","0","0","19","0","0","0","19","NA","15","19","15","0","15","3","19","0","19","Fri Feb 19 12:37:12 2021","The main experiment item","yes","Lexical_Decision_Task.osexp","/Users/halimefistikci/Downloads","no","Andale Mono","no","18","no","white","no","yes","576","legacy","15","15","3","/Users/halimefistikci/Downloads/subject-5217513.csv","legacy","Lentiform Loewenfeld","3.3.7","yes","yes","600bd7cfb6416f0113b04181","602110864497cf011d9c0822","0","j","NA","space","space","space","NA","j","961","NA","3751","16425","9456","NA","961","2","legacy","1024","2","48000","-16","task","5217513","odd","NA","38923","44679","40927","76979","4251","30176","20719","77481","NA","76975","77482","76917","44679","78444","36422","76417","4231","61120","Lexical Decision Task","19","20523","20","yes","1024"
"2.821076612","0","4","lult","non-word","95.23809523809524","95.23809523809524","1020.8571428571429","1020.8571428571429","black","no","legacy","legacy","legacy","0","uniform","1","undefined","undefined","undefined","1","f","0","0","0","0","20","0","0","0","20","NA","16","20","16","0","16","3","20","0","20","Fri Feb 19 12:37:12 2021","The main experiment item","yes","Lexical_Decision_Task.osexp","/Users/halimefistikci/Downloads","no","Andale Mono","no","18","no","white","no","yes","576","legacy","16","16","3","/Users/halimefistikci/Downloads/subject-5217513.csv","legacy","Lentiform Loewenfeld","3.3.7","yes","yes","600bd7cfb6416f0113b04181","602110864497cf011d9c0822","0","f","NA","space","space","space","NA","f","915","NA","3751","16425","9456","NA","915","2","legacy","1024","2","48000","-16","task","5217513","odd","NA","38923","44679","40927","79014","4251","30176","20719","79518","NA","79011","79519","78949","44679","80436","36422","78449","4231","61120","Lexical Decision Task","20","21438","21","yes","1024"
"3.274543461","7.46","7","scar","word","95.45454545454545","95.45454545454545","1002.6363636363636","1002.6363636363636","black","no","legacy","legacy","legacy","0","uniform","1","undefined","undefined","undefined","1","j","0","0","0","0","21","0","0","0","21","NA","17","21","17","0","17","3","21","0","21","Fri Feb 19 12:37:12 2021","The main experiment item","yes","Lexical_Decision_Task.osexp","/Users/halimefistikci/Downloads","no","Andale Mono","no","18","no","white","no","yes","576","legacy","17","17","3","/Users/halimefistikci/Downloads/subject-5217513.csv","legacy","Lentiform Loewenfeld","3.3.7","yes","yes","600bd7cfb6416f0113b04181","602110864497cf011d9c0822","0","j","NA","space","space","space","NA","j","620","NA","3751","16425","9456","NA","620","2","legacy","1024","2","48000","-16","task","5217513","odd","NA","38923","44679","40927","80998","4251","30176","20719","81501","NA","80995","81501","80941","44679","82123","36422","80440","4231","61120","Lexical Decision Task","21","22058","22","yes","1024"
"3.066077331","0","7","vorn","non-word","95.65217391304348","95.65217391304348","1006.6521739130435","1006.6521739130435","black","no","legacy","legacy","legacy","0","uniform","1","undefined","undefined","undefined","1","f","0","0","0","0","22","0","0","0","22","NA","18","22","18","0","18","3","22","0","22","Fri Feb 19 12:37:12 2021","The main experiment item","yes","Lexical_Decision_Task.osexp","/Users/halimefistikci/Downloads","no","Andale Mono","no","18","no","white","no","yes","576","legacy","18","18","3","/Users/halimefistikci/Downloads/subject-5217513.csv","legacy","Lentiform Loewenfeld","3.3.7","yes","yes","600bd7cfb6416f0113b04181","602110864497cf011d9c0822","0","f","NA","space","space","space","NA","f","1095","NA","3751","16425","9456","NA","1095","2","legacy","1024","2","48000","-16","task","5217513","odd","NA","38923","44679","40927","82697","4251","30176","20719","83202","NA","82694","83203","82631","44679","84299","36422","82131","4231","61120","Lexical Decision Task","22","23153","23","yes","1024"
"2.799799878","0","4","ciff","non-word","91.66666666666667","91.66666666666667","990.4166666666666","990.4166666666666","black","no","legacy","legacy","legacy","0","uniform","0","undefined","undefined","undefined","0","f","0","0","0","0","23","0","0","0","23","NA","19","23","19","0","19","3","23","0","23","Fri Feb 19 12:37:12 2021","The main experiment item","yes","Lexical_Decision_Task.osexp","/Users/halimefistikci/Downloads","no","Andale Mono","no","18","no","white","no","yes","576","legacy","19","19","3","/Users/halimefistikci/Downloads/subject-5217513.csv","legacy","Lentiform Loewenfeld","3.3.7","yes","yes","600bd7cfb6416f0113b04181","602110864497cf011d9c0822","0","j","NA","space","space","space","NA","j","617","NA","3751","16425","9456","NA","617","2","legacy","1024","2","48000","-16","task","5217513","odd","NA","38923","44679","40927","84863","4251","30176","20719","85367","NA","84861","85368","84805","44679","85987","36422","84305","4231","61120","Lexical Decision Task","22","23770","24","yes","1024"
"3.195807436","0","6","stup","non-word","88","88","1040.24","1040.24","black","no","legacy","legacy","legacy","0","uniform","0","undefined","undefined","undefined","0","f","0","0","0","0","24","0","0","0","24","NA","20","24","20","0","20","3","24","0","24","Fri Feb 19 12:37:12 2021","The main experiment item","yes","Lexical_Decision_Task.osexp","/Users/halimefistikci/Downloads","no","Andale Mono","no","18","no","white","no","yes","576","legacy","20","20","3","/Users/halimefistikci/Downloads/subject-5217513.csv","legacy","Lentiform Loewenfeld","3.3.7","yes","yes","600bd7cfb6416f0113b04181","602110864497cf011d9c0822","0","j","NA","space","space","space","NA","j","2236","NA","3751","16425","9456","NA","2236","2","legacy","1024","2","48000","-16","task","5217513","odd","NA","38923","44679","40927","87560","4251","30176","20719","88065","NA","87558","88065","87493","44679","90302","36422","84305","4231","85993","Lexical Decision Task","22","26006","25","yes","1024"
"2.979548375","8.71","4","soup","word","88.46153846153847","88.46153846153847","1040.1538461538462","1040.1538461538462","black","no","legacy","legacy","legacy","0","uniform","1","undefined","undefined","undefined","1","j","0","0","0","0","25","0","0","0","25","NA","21","25","21","0","21","3","25","0","25","Fri Feb 19 12:37:12 2021","The main experiment item","yes","Lexical_Decision_Task.osexp","/Users/halimefistikci/Downloads","no","Andale Mono","no","18","no","white","no","yes","576","legacy","21","21","3","/Users/halimefistikci/Downloads/subject-5217513.csv","legacy","Lentiform Loewenfeld","3.3.7","yes","yes","600bd7cfb6416f0113b04181","602110864497cf011d9c0822","0","j","NA","space","space","space","NA","j","1038","NA","3751","16425","9456","NA","1038","2","legacy","1024","2","48000","-16","task","5217513","odd","NA","38923","44679","40927","91870","4251","30176","20719","92374","NA","91868","92374","91807","44679","93414","36422","84305","4231","90306","Lexical Decision Task","23","27044","26","yes","1024"
"2.981215883","10.66","5","hair","word","88.88888888888889","88.88888888888889","1056.5185185185185","1056.5185185185185","black","no","legacy","legacy","legacy","0","uniform","1","undefined","undefined","undefined","1","j","0","0","0","0","26","0","0","0","26","NA","22","26","22","0","22","3","26","0","26","Fri Feb 19 12:37:12 2021","The main experiment item","yes","Lexical_Decision_Task.osexp","/Users/halimefistikci/Downloads","no","Andale Mono","no","18","no","white","no","yes","576","legacy","22","22","3","/Users/halimefistikci/Downloads/subject-5217513.csv","legacy","Lentiform Loewenfeld","3.3.7","yes","yes","600bd7cfb6416f0113b04181","602110864497cf011d9c0822","0","j","NA","space","space","space","NA","j","1482","NA","3751","16425","9456","NA","1482","2","legacy","1024","2","48000","-16","task","5217513","odd","NA","38923","44679","40927","93984","4251","30176","20719","94488","NA","93982","94489","93919","44679","95973","36422","93419","4231","90306","Lexical Decision Task","24","28526","27","yes","1024"
"3.105055783","0","2","norp","non-word","89.28571428571429","89.28571428571429","1043.642857142857","1043.642857142857","black","no","legacy","legacy","legacy","0","uniform","1","undefined","undefined","undefined","1","f","0","0","0","0","27","0","0","0","27","NA","23","27","23","0","23","3","27","0","27","Fri Feb 19 12:37:12 2021","The main experiment item","yes","Lexical_Decision_Task.osexp","/Users/halimefistikci/Downloads","no","Andale Mono","no","18","no","white","no","yes","576","legacy","23","23","3","/Users/halimefistikci/Downloads/subject-5217513.csv","legacy","Lentiform Loewenfeld","3.3.7","yes","yes","600bd7cfb6416f0113b04181","602110864497cf011d9c0822","0","f","NA","space","space","space","NA","f","696","NA","3751","16425","9456","NA","696","2","legacy","1024","2","48000","-16","task","5217513","odd","NA","38923","44679","40927","96550","4251","30176","20719","97053","NA","96547","97054","96485","44679","97752","36422","95984","4231","90306","Lexical Decision Task","25","29222","28","yes","1024"
"2.899092422","7.27","6","snag","word","86.20689655172414","86.20689655172414","1053.8275862068965","1053.8275862068965","black","no","legacy","legacy","legacy","0","uniform","0","undefined","undefined","undefined","0","j","0","0","0","0","28","0","0","0","28","NA","24","28","24","0","24","3","28","0","28","Fri Feb 19 12:37:12 2021","The main experiment item","yes","Lexical_Decision_Task.osexp","/Users/halimefistikci/Downloads","no","Andale Mono","no","18","no","white","no","yes","576","legacy","24","24","3","/Users/halimefistikci/Downloads/subject-5217513.csv","legacy","Lentiform Loewenfeld","3.3.7","yes","yes","600bd7cfb6416f0113b04181","602110864497cf011d9c0822","0","f","NA","space","space","space","NA","f","1339","NA","3751","16425","9456","NA","1339","2","legacy","1024","2","48000","-16","task","5217513","odd","NA","38923","44679","40927","98316","4251","30176","20719","98819","NA","98313","98820","98257","44679","100160","36422","97756","4231","90306","Lexical Decision Task","25","30561","29","yes","1024"
"3.134602053","0","8","jart","non-word","86.66666666666667","86.66666666666667","1062.3333333333333","1062.3333333333333","black","no","legacy","legacy","legacy","0","uniform","1","undefined","undefined","undefined","1","f","0","0","0","0","29","0","0","0","29","NA","25","29","25","0","25","3","29","0","29","Fri Feb 19 12:37:12 2021","The main experiment item","yes","Lexical_Decision_Task.osexp","/Users/halimefistikci/Downloads","no","Andale Mono","no","18","no","white","no","yes","576","legacy","25","25","3","/Users/halimefistikci/Downloads/subject-5217513.csv","legacy","Lentiform Loewenfeld","3.3.7","yes","yes","600bd7cfb6416f0113b04181","602110864497cf011d9c0822","0","f","NA","space","space","space","NA","f","1309","NA","3751","16425","9456","NA","1309","2","legacy","1024","2","48000","-16","task","5217513","odd","NA","38923","44679","40927","101727","4251","30176","20719","102231","NA","101723","102232","101665","44679","103544","36422","97756","4231","100165","Lexical Decision Task","26","31870","30","yes","1024"
"3.120135028","0","3","vals","non-word","87.09677419354838","87.09677419354838","1069.3225806451612","1069.3225806451612","black","no","legacy","legacy","legacy","0","uniform","1","undefined","undefined","undefined","1","f","0","0","0","0","30","0","0","0","30","NA","26","30","26","0","26","3","30","0","30","Fri Feb 19 12:37:12 2021","The main experiment item","yes","Lexical_Decision_Task.osexp","/Users/halimefistikci/Downloads","no","Andale Mono","no","18","no","white","no","yes","576","legacy","26","26","3","/Users/halimefistikci/Downloads/subject-5217513.csv","legacy","Lentiform Loewenfeld","3.3.7","yes","yes","600bd7cfb6416f0113b04181","602110864497cf011d9c0822","0","f","NA","space","space","space","NA","f","1279","NA","3751","16425","9456","NA","1279","2","legacy","1024","2","48000","-16","task","5217513","odd","NA","38923","44679","40927","104109","4251","30176","20719","104613","NA","104105","104614","104051","44679","105895","36422","103551","4231","100165","Lexical Decision Task","27","33149","31","yes","1024"
"3.374198258","0","8","vist","non-word","84.375","84.375","1056.71875","1056.71875","black","no","legacy","legacy","legacy","0","uniform","0","undefined","undefined","undefined","0","f","0","0","0","0","31","0","0","0","31","NA","27","31","27","0","27","3","31","0","31","Fri Feb 19 12:37:12 2021","The main experiment item","yes","Lexical_Decision_Task.osexp","/Users/halimefistikci/Downloads","no","Andale Mono","no","18","no","white","no","yes","576","legacy","27","27","3","/Users/halimefistikci/Downloads/subject-5217513.csv","legacy","Lentiform Loewenfeld","3.3.7","yes","yes","600bd7cfb6416f0113b04181","602110864497cf011d9c0822","0","j","NA","space","space","space","NA","j","666","NA","3751","16425","9456","NA","666","2","legacy","1024","2","48000","-16","task","5217513","odd","NA","38923","44679","40927","106470","4251","30176","20719","106973","NA","106468","106973","106399","44679","107640","36422","105899","4231","100165","Lexical Decision Task","27","33815","32","yes","1024"
"3.230789326","5.38","5","prim","word","84.84848484848484","84.84848484848484","1112.3939393939395","1112.3939393939395","black","no","legacy","legacy","legacy","0","uniform","1","undefined","undefined","undefined","1","j","0","0","0","0","32","0","0","0","32","NA","28","32","28","0","28","3","32","0","32","Fri Feb 19 12:37:12 2021","The main experiment item","yes","Lexical_Decision_Task.osexp","/Users/halimefistikci/Downloads","no","Andale Mono","no","18","no","white","no","yes","576","legacy","28","28","3","/Users/halimefistikci/Downloads/subject-5217513.csv","legacy","Lentiform Loewenfeld","3.3.7","yes","yes","600bd7cfb6416f0113b04181","602110864497cf011d9c0822","0","j","NA","space","space","space","NA","j","2894","NA","3751","16425","9456","NA","2894","2","legacy","1024","2","48000","-16","task","5217513","odd","NA","38923","44679","40927","109213","4251","30176","20719","109717","NA","109210","109718","109144","44679","112613","36422","105899","4231","107644","Lexical Decision Task","28","36709","33","yes","1024"
"2.875447132","0","9","jelt","non-word","85.29411764705883","85.29411764705883","1123.3823529411766","1123.3823529411766","black","no","legacy","legacy","legacy","0","uniform","1","undefined","undefined","undefined","1","f","0","0","0","0","33","0","0","0","33","NA","29","33","29","0","29","3","33","0","33","Fri Feb 19 12:37:12 2021","The main experiment item","yes","Lexical_Decision_Task.osexp","/Users/halimefistikci/Downloads","no","Andale Mono","no","18","no","white","no","yes","576","legacy","29","29","3","/Users/halimefistikci/Downloads/subject-5217513.csv","legacy","Lentiform Loewenfeld","3.3.7","yes","yes","600bd7cfb6416f0113b04181","602110864497cf011d9c0822","0","f","NA","space","space","space","NA","f","1486","NA","3751","16425","9456","NA","1486","2","legacy","1024","2","48000","-16","task","5217513","odd","NA","38923","44679","40927","113177","4251","30176","20719","113682","NA","113175","113683","113119","44679","115171","36422","112619","4231","107644","Lexical Decision Task","29","38195","34","yes","1024"
"2.767650507","0","6","yolt","non-word","85.71428571428571","85.71428571428571","1121.8","1121.8","black","no","legacy","legacy","legacy","0","uniform","1","undefined","undefined","undefined","1","f","0","0","0","0","34","0","0","0","34","NA","30","34","30","0","30","3","34","0","34","Fri Feb 19 12:37:12 2021","The main experiment item","yes","Lexical_Decision_Task.osexp","/Users/halimefistikci/Downloads","no","Andale Mono","no","18","no","white","no","yes","576","legacy","30","30","3","/Users/halimefistikci/Downloads/subject-5217513.csv","legacy","Lentiform Loewenfeld","3.3.7","yes","yes","600bd7cfb6416f0113b04181","602110864497cf011d9c0822","0","f","NA","space","space","space","NA","f","1068","NA","3751","16425","9456","NA","1068","2","legacy","1024","2","48000","-16","task","5217513","odd","NA","38923","44679","40927","115734","4251","30176","20719","116238","NA","115731","116238","115675","44679","117308","36422","115175","4231","107644","Lexical Decision Task","30","39263","35","yes","1024"
"2.996511672","0","7","hoil","non-word","86.11111111111111","86.11111111111111","1124.0555555555557","1124.0555555555557","black","no","legacy","legacy","legacy","0","uniform","1","undefined","undefined","undefined","1","f","0","0","0","0","35","0","0","0","35","NA","31","35","31","0","31","3","35","0","35","Fri Feb 19 12:37:12 2021","The main experiment item","yes","Lexical_Decision_Task.osexp","/Users/halimefistikci/Downloads","no","Andale Mono","no","18","no","white","no","yes","576","legacy","31","31","3","/Users/halimefistikci/Downloads/subject-5217513.csv","legacy","Lentiform Loewenfeld","3.3.7","yes","yes","600bd7cfb6416f0113b04181","602110864497cf011d9c0822","0","f","NA","space","space","space","NA","f","1203","NA","3751","16425","9456","NA","1203","2","legacy","1024","2","48000","-16","task","5217513","odd","NA","38923","44679","40927","117875","4251","30176","20719","118379","NA","117871","118379","117814","44679","119584","36422","117314","4231","107644","Lexical Decision Task","31","40466","36","yes","1024"
"3.121778632","0","9","sark","non-word","86.48648648648648","86.48648648648648","1122","1122","black","no","legacy","legacy","legacy","0","uniform","1","undefined","undefined","undefined","1","f","0","0","0","0","36","0","0","0","36","NA","32","36","32","0","32","3","36","0","36","Fri Feb 19 12:37:12 2021","The main experiment item","yes","Lexical_Decision_Task.osexp","/Users/halimefistikci/Downloads","no","Andale Mono","no","18","no","white","no","yes","576","legacy","32","32","3","/Users/halimefistikci/Downloads/subject-5217513.csv","legacy","Lentiform Loewenfeld","3.3.7","yes","yes","600bd7cfb6416f0113b04181","602110864497cf011d9c0822","0","f","NA","space","space","space","NA","f","1048","NA","3751","16425","9456","NA","1048","2","legacy","1024","2","48000","-16","task","5217513","odd","NA","38923","44679","40927","120148","4251","30176","20719","120651","NA","120145","120652","120089","44679","121701","36422","119589","4231","107644","Lexical Decision Task","32","41514","37","yes","1024"
"3.259832699","0","9","flar","non-word","86.84210526315789","86.84210526315789","1125.7894736842106","1125.7894736842106","black","no","legacy","legacy","legacy","0","uniform","1","undefined","undefined","undefined","1","f","0","0","0","0","37","0","0","0","37","NA","33","37","33","0","33","3","37","0","37","Fri Feb 19 12:37:12 2021","The main experiment item","yes","Lexical_Decision_Task.osexp","/Users/halimefistikci/Downloads","no","Andale Mono","no","18","no","white","no","yes","576","legacy","33","33","3","/Users/halimefistikci/Downloads/subject-5217513.csv","legacy","Lentiform Loewenfeld","3.3.7","yes","yes","600bd7cfb6416f0113b04181","602110864497cf011d9c0822","0","f","NA","space","space","space","NA","f","1266","NA","3751","16425","9456","NA","1266","2","legacy","1024","2","48000","-16","task","5217513","odd","NA","38923","44679","40927","122265","4251","30176","20719","122769","NA","122262","122769","122206","44679","124037","36422","121706","4231","107644","Lexical Decision Task","33","42780","38","yes","1024"
"3.043885998","0","9","gome","non-word","87.17948717948718","87.17948717948718","1128.4102564102564","1128.4102564102564","black","no","legacy","legacy","legacy","0","uniform","1","undefined","undefined","undefined","1","f","0","0","0","0","38","0","0","0","38","NA","34","38","34","0","34","3","38","0","38","Fri Feb 19 12:37:12 2021","The main experiment item","yes","Lexical_Decision_Task.osexp","/Users/halimefistikci/Downloads","no","Andale Mono","no","18","no","white","no","yes","576","legacy","34","34","3","/Users/halimefistikci/Downloads/subject-5217513.csv","legacy","Lentiform Loewenfeld","3.3.7","yes","yes","600bd7cfb6416f0113b04181","602110864497cf011d9c0822","0","f","NA","space","space","space","NA","f","1228","NA","3751","16425","9456","NA","1228","2","legacy","1024","2","48000","-16","task","5217513","odd","NA","38923","44679","40927","124602","4251","30176","20719","125105","NA","124599","125105","124544","44679","126335","36422","124043","4231","107644","Lexical Decision Task","34","44008","39","yes","1024"
"2.86332286","6.71","2","feud","word","87.5","87.5","1134.9","1134.9","black","no","legacy","legacy","legacy","0","uniform","1","undefined","undefined","undefined","1","j","0","0","0","0","39","0","0","0","39","NA","35","39","35","0","35","3","39","0","39","Fri Feb 19 12:37:12 2021","The main experiment item","yes","Lexical_Decision_Task.osexp","/Users/halimefistikci/Downloads","no","Andale Mono","no","18","no","white","no","yes","576","legacy","35","35","3","/Users/halimefistikci/Downloads/subject-5217513.csv","legacy","Lentiform Loewenfeld","3.3.7","yes","yes","600bd7cfb6416f0113b04181","602110864497cf011d9c0822","0","j","NA","space","space","space","NA","j","1388","NA","3751","16425","9456","NA","1388","2","legacy","1024","2","48000","-16","task","5217513","odd","NA","38923","44679","40927","126910","4251","30176","20719","127415","NA","126908","127415","126846","44679","128805","36422","126346","4231","107644","Lexical Decision Task","35","45396","40","yes","1024"
"2.843025032","0","9","pusk","non-word","85.36585365853658","85.36585365853658","1137.7073170731708","1137.7073170731708","black","no","legacy","legacy","legacy","0","uniform","0","undefined","undefined","undefined","0","f","0","0","0","0","40","0","0","0","40","NA","36","40","36","0","36","3","40","0","40","Fri Feb 19 12:37:12 2021","The main experiment item","yes","Lexical_Decision_Task.osexp","/Users/halimefistikci/Downloads","no","Andale Mono","no","18","no","white","no","yes","576","legacy","36","36","3","/Users/halimefistikci/Downloads/subject-5217513.csv","legacy","Lentiform Loewenfeld","3.3.7","yes","yes","600bd7cfb6416f0113b04181","602110864497cf011d9c0822","0","j","NA","space","space","space","NA","j","1250","NA","3751","16425","9456","NA","1250","2","legacy","1024","2","48000","-16","task","5217513","odd","NA","38923","44679","40927","129372","4251","30176","20719","129876","NA","129370","129877","129310","44679","131129","36422","128810","4231","107644","Lexical Decision Task","35","46646","41","yes","1024"
"3.174641193","0","3","ramb","non-word","83.33333333333333","83.33333333333333","1182.047619047619","1182.047619047619","black","no","legacy","legacy","legacy","0","uniform","0","undefined","undefined","undefined","0","f","0","0","0","0","41","0","0","0","41","NA","37","41","37","0","37","3","41","0","41","Fri Feb 19 12:37:12 2021","The main experiment item","yes","Lexical_Decision_Task.osexp","/Users/halimefistikci/Downloads","no","Andale Mono","no","18","no","white","no","yes","576","legacy","37","37","3","/Users/halimefistikci/Downloads/subject-5217513.csv","legacy","Lentiform Loewenfeld","3.3.7","yes","yes","600bd7cfb6416f0113b04181","602110864497cf011d9c0822","0","None","NA","space","space","space","NA","None","3000","NA","3751","16425","9456","NA","3000","2","legacy","1024","2","48000","-16","task","5217513","odd","NA","38923","44679","40927","132699","4251","30176","20719","133202","NA","132696","133202","132633","44679","136202","36422","128810","4231","131133","Lexical Decision Task","35","49646","42","yes","1024"
"2.6599162","0","2","saff","non-word","83.72093023255815","83.72093023255815","1198.3023255813953","1198.3023255813953","black","no","legacy","legacy","legacy","0","uniform","1","undefined","undefined","undefined","1","f","0","0","0","0","42","0","0","0","42","NA","38","42","38","0","38","3","42","0","42","Fri Feb 19 12:37:12 2021","The main experiment item","yes","Lexical_Decision_Task.osexp","/Users/halimefistikci/Downloads","no","Andale Mono","no","18","no","white","no","yes","576","legacy","38","38","3","/Users/halimefistikci/Downloads/subject-5217513.csv","legacy","Lentiform Loewenfeld","3.3.7","yes","yes","600bd7cfb6416f0113b04181","602110864497cf011d9c0822","0","f","NA","space","space","space","NA","f","1881","NA","3751","16425","9456","NA","1881","2","legacy","1024","2","48000","-16","task","5217513","odd","NA","38923","44679","40927","137772","4251","30176","20719","138276","NA","137770","138276","137708","44679","140159","36422","128810","4231","136208","Lexical Decision Task","36","51527","43","yes","1024"
"3.067193647","6.73","6","raft","word","84.0909090909091","84.0909090909091","1198.8181818181818","1198.8181818181818","black","no","legacy","legacy","legacy","0","uniform","1","undefined","undefined","undefined","1","j","0","0","0","0","43","0","0","0","43","NA","39","43","39","0","39","3","43","0","43","Fri Feb 19 12:37:12 2021","The main experiment item","yes","Lexical_Decision_Task.osexp","/Users/halimefistikci/Downloads","no","Andale Mono","no","18","no","white","no","yes","576","legacy","39","39","3","/Users/halimefistikci/Downloads/subject-5217513.csv","legacy","Lentiform Loewenfeld","3.3.7","yes","yes","600bd7cfb6416f0113b04181","602110864497cf011d9c0822","0","j","NA","space","space","space","NA","j","1221","NA","3751","16425","9456","NA","1221","2","legacy","1024","2","48000","-16","task","5217513","odd","NA","38923","44679","40927","140723","4251","30176","20719","141228","NA","140721","141228","140664","44679","142452","36422","140164","4231","136208","Lexical Decision Task","37","52748","44","yes","1024"
"2.80048796","0","8","pife","non-word","84.44444444444444","84.44444444444444","1201.111111111111","1201.111111111111","black","no","legacy","legacy","legacy","0","uniform","1","undefined","undefined","undefined","1","f","0","0","0","0","44","0","0","0","44","NA","40","44","40","0","40","3","44","0","44","Fri Feb 19 12:37:12 2021","The main experiment item","yes","Lexical_Decision_Task.osexp","/Users/halimefistikci/Downloads","no","Andale Mono","no","18","no","white","no","yes","576","legacy","40","40","3","/Users/halimefistikci/Downloads/subject-5217513.csv","legacy","Lentiform Loewenfeld","3.3.7","yes","yes","600bd7cfb6416f0113b04181","602110864497cf011d9c0822","0","f","NA","space","space","space","NA","f","1302","NA","3751","16425","9456","NA","1302","2","legacy","1024","2","48000","-16","task","5217513","odd","NA","38923","44679","40927","143030","4251","30176","20719","143534","NA","143026","143535","142959","44679","144838","36422","142459","4231","136208","Lexical Decision Task","38","54050","45","yes","1024"
"3.153104174","10.89","6","door","word","84.78260869565217","84.78260869565217","1192.7826086956522","1192.7826086956522","black","no","legacy","legacy","legacy","0","uniform","1","undefined","undefined","undefined","1","j","0","0","0","0","45","0","0","0","45","NA","41","45","41","0","41","3","45","0","45","Fri Feb 19 12:37:12 2021","The main experiment item","yes","Lexical_Decision_Task.osexp","/Users/halimefistikci/Downloads","no","Andale Mono","no","18","no","white","no","yes","576","legacy","41","41","3","/Users/halimefistikci/Downloads/subject-5217513.csv","legacy","Lentiform Loewenfeld","3.3.7","yes","yes","600bd7cfb6416f0113b04181","602110864497cf011d9c0822","0","j","NA","space","space","space","NA","j","818","NA","3751","16425","9456","NA","818","2","legacy","1024","2","48000","-16","task","5217513","odd","NA","38923","44679","40927","145407","4251","30176","20719","145911","NA","145404","145911","145343","44679","146730","36422","144843","4231","136208","Lexical Decision Task","39","54868","46","yes","1024"
"3.492014979","0","9","yine","non-word","85.1063829787234","85.1063829787234","1188.8085106382978","1188.8085106382978","black","no","legacy","legacy","legacy","0","uniform","1","undefined","undefined","undefined","1","f","0","0","0","0","46","0","0","0","46","NA","42","46","42","0","42","3","46","0","46","Fri Feb 19 12:37:12 2021","The main experiment item","yes","Lexical_Decision_Task.osexp","/Users/halimefistikci/Downloads","no","Andale Mono","no","18","no","white","no","yes","576","legacy","42","42","3","/Users/halimefistikci/Downloads/subject-5217513.csv","legacy","Lentiform Loewenfeld","3.3.7","yes","yes","600bd7cfb6416f0113b04181","602110864497cf011d9c0822","0","f","NA","space","space","space","NA","f","1006","NA","3751","16425","9456","NA","1006","2","legacy","1024","2","48000","-16","task","5217513","odd","NA","38923","44679","40927","147299","4251","30176","20719","147803","NA","147296","147803","147236","44679","148810","36422","146736","4231","136208","Lexical Decision Task","40","55874","47","yes","1024"
"3.037294994","8.64","7","roof","word","85.41666666666667","85.41666666666667","1176.9375","1176.9375","black","no","legacy","legacy","legacy","0","uniform","1","undefined","undefined","undefined","1","j","0","0","0","0","47","0","0","0","47","NA","43","47","43","0","43","3","47","0","47","Fri Feb 19 12:37:12 2021","The main experiment item","yes","Lexical_Decision_Task.osexp","/Users/halimefistikci/Downloads","no","Andale Mono","no","18","no","white","no","yes","576","legacy","43","43","3","/Users/halimefistikci/Downloads/subject-5217513.csv","legacy","Lentiform Loewenfeld","3.3.7","yes","yes","600bd7cfb6416f0113b04181","602110864497cf011d9c0822","0","j","NA","space","space","space","NA","j","619","NA","3751","16425","9456","NA","619","2","legacy","1024","2","48000","-16","task","5217513","odd","NA","38923","44679","40927","149376","4251","30176","20719","149879","NA","149373","149879","149315","44679","150500","36422","148815","4231","136208","Lexical Decision Task","41","56493","48","yes","1024"
"3.529815197","0","3","lerm","non-word","85.71428571428571","85.71428571428571","1169.3265306122448","1169.3265306122448","black","no","legacy","legacy","legacy","0","uniform","1","undefined","undefined","undefined","1","f","0","0","0","0","48","0","0","0","48","NA","44","48","44","0","44","3","48","0","48","Fri Feb 19 12:37:12 2021","The main experiment item","yes","Lexical_Decision_Task.osexp","/Users/halimefistikci/Downloads","no","Andale Mono","no","18","no","white","no","yes","576","legacy","44","44","3","/Users/halimefistikci/Downloads/subject-5217513.csv","legacy","Lentiform Loewenfeld","3.3.7","yes","yes","600bd7cfb6416f0113b04181","602110864497cf011d9c0822","0","f","NA","space","space","space","NA","f","804","NA","3751","16425","9456","NA","804","2","legacy","1024","2","48000","-16","task","5217513","odd","NA","38923","44679","40927","151066","4251","30176","20719","151572","NA","151064","151572","151005","44679","152377","36422","150505","4231","136208","Lexical Decision Task","42","57297","49","yes","1024"
"3.216517684","10.87","3","film","word","86","86","1159.68","1159.68","black","no","legacy","legacy","legacy","0","uniform","1","undefined","undefined","undefined","1","j","0","0","0","0","49","0","0","0","49","NA","45","49","45","0","45","3","49","0","49","Fri Feb 19 12:37:12 2021","The main experiment item","yes","Lexical_Decision_Task.osexp","/Users/halimefistikci/Downloads","no","Andale Mono","no","18","no","white","no","yes","576","legacy","45","45","3","/Users/halimefistikci/Downloads/subject-5217513.csv","legacy","Lentiform Loewenfeld","3.3.7","yes","yes","600bd7cfb6416f0113b04181","602110864497cf011d9c0822","0","j","NA","space","space","space","NA","j","687","NA","3751","16425","9456","NA","687","2","legacy","1024","2","48000","-16","task","5217513","odd","NA","38923","44679","40927","152942","4251","30176","20719","153446","NA","152940","153446","152883","44679","154135","36422","152383","4231","136208","Lexical Decision Task","43","57984","50","yes","1024"
"3.068433376","8.09","2","bulb","word","86.27450980392157","86.27450980392157","1154.313725490196","1154.313725490196","black","no","legacy","legacy","legacy","0","uniform","1","undefined","undefined","undefined","1","j","0","0","0","0","50","0","0","0","50","NA","46","50","46","0","46","3","50","0","50","Fri Feb 19 12:37:12 2021","The main experiment item","yes","Lexical_Decision_Task.osexp","/Users/halimefistikci/Downloads","no","Andale Mono","no","18","no","white","no","yes","576","legacy","46","46","3","/Users/halimefistikci/Downloads/subject-5217513.csv","legacy","Lentiform Loewenfeld","3.3.7","yes","yes","600bd7cfb6416f0113b04181","602110864497cf011d9c0822","0","j","NA","space","space","space","NA","j","886","NA","3751","16425","9456","NA","886","2","legacy","1024","2","48000","-16","task","5217513","odd","NA","38923","44679","40927","154708","4251","30176","20719","155211","NA","154705","155212","154640","44679","156100","36422","154140","4231","136208","Lexical Decision Task","44","58870","51","yes","1024"
"3.081107167","0","6","chot","non-word","86.53846153846153","86.53846153846153","1146.2115384615386","1146.2115384615386","black","no","legacy","legacy","legacy","0","uniform","1","undefined","undefined","undefined","1","f","0","0","0","0","51","0","0","0","51","NA","47","51","47","0","47","3","51","0","51","Fri Feb 19 12:37:12 2021","The main experiment item","yes","Lexical_Decision_Task.osexp","/Users/halimefistikci/Downloads","no","Andale Mono","no","18","no","white","no","yes","576","legacy","47","47","3","/Users/halimefistikci/Downloads/subject-5217513.csv","legacy","Lentiform Loewenfeld","3.3.7","yes","yes","600bd7cfb6416f0113b04181","602110864497cf011d9c0822","0","f","NA","space","space","space","NA","f","733","NA","3751","16425","9456","NA","733","2","legacy","1024","2","48000","-16","task","5217513","odd","NA","38923","44679","40927","156665","4251","30176","20719","157170","NA","156663","157170","156606","44679","157906","36422","156106","4231","136208","Lexical Decision Task","45","59603","52","yes","1024"
"2.6599162","0","6","flug","non-word","86.79245283018868","86.79245283018868","1140.301886792453","1140.301886792453","black","no","legacy","legacy","legacy","0","uniform","1","undefined","undefined","undefined","1","f","0","0","0","0","52","0","0","0","52","NA","48","52","48","0","48","3","52","0","52","Fri Feb 19 12:37:12 2021","The main experiment item","yes","Lexical_Decision_Task.osexp","/Users/halimefistikci/Downloads","no","Andale Mono","no","18","no","white","no","yes","576","legacy","48","48","3","/Users/halimefistikci/Downloads/subject-5217513.csv","legacy","Lentiform Loewenfeld","3.3.7","yes","yes","600bd7cfb6416f0113b04181","602110864497cf011d9c0822","0","f","NA","space","space","space","NA","f","833","NA","3751","16425","9456","NA","833","2","legacy","1024","2","48000","-16","task","5217513","odd","NA","38923","44679","40927","158481","4251","30176","20719","158985","NA","158478","158986","158415","44679","159821","36422","157915","4231","136208","Lexical Decision Task","46","60436","53","yes","1024"
"3.531734309","0","6","lerd","non-word","87.03703703703704","87.03703703703704","1130.9814814814815","1130.9814814814815","black","no","legacy","legacy","legacy","0","uniform","1","undefined","undefined","undefined","1","f","0","0","0","0","53","0","0","0","53","NA","49","53","49","0","49","3","53","0","53","Fri Feb 19 12:37:12 2021","The main experiment item","yes","Lexical_Decision_Task.osexp","/Users/halimefistikci/Downloads","no","Andale Mono","no","18","no","white","no","yes","576","legacy","49","49","3","/Users/halimefistikci/Downloads/subject-5217513.csv","legacy","Lentiform Loewenfeld","3.3.7","yes","yes","600bd7cfb6416f0113b04181","602110864497cf011d9c0822","0","f","NA","space","space","space","NA","f","637","NA","3751","16425","9456","NA","637","2","legacy","1024","2","48000","-16","task","5217513","odd","NA","38923","44679","40927","160392","4251","30176","20719","160896","NA","160389","160896","160326","44679","161535","36422","159826","4231","136208","Lexical Decision Task","47","61073","54","yes","1024"
"3.378276681","6.39","8","bran","word","85.45454545454545","85.45454545454545","1137","1137","black","no","legacy","legacy","legacy","0","uniform","0","undefined","undefined","undefined","0","j","0","0","0","0","54","0","0","0","54","0","50","54","50","0","50","3","54","0","54","Fri Feb 19 12:37:12 2021","The main experiment item","yes","Lexical_Decision_Task.osexp","/Users/halimefistikci/Downloads","no","Andale Mono","no","18","no","white","no","yes","576","legacy","50","50","3","/Users/halimefistikci/Downloads/subject-5217513.csv","legacy","Lentiform Loewenfeld","3.3.7","yes","yes","600bd7cfb6416f0113b04181","602110864497cf011d9c0822","0","f","NA","space","space","space","j","f","1462","NA","3751","16425","9456","5018","1462","2","legacy","1024","2","48000","-16","task","5217513","odd","NA","38923","44679","40927","167163","4251","30176","20719","167666","162072","167160","167666","162040","44679","169130","36422","161540","4231","136208","Lexical Decision Task","47","62535","55","yes","1024"
"2.839898939","8.99","6","soap","word","85.71428571428571","85.71428571428571","1125.5357142857142","1125.5357142857142","black","no","legacy","legacy","legacy","0","uniform","1","undefined","undefined","undefined","1","j","0","0","0","0","55","0","0","0","55","0","51","55","51","0","51","3","55","0","55","Fri Feb 19 12:37:12 2021","The main experiment item","yes","Lexical_Decision_Task.osexp","/Users/halimefistikci/Downloads","no","Andale Mono","no","18","no","white","no","yes","576","legacy","51","51","3","/Users/halimefistikci/Downloads/subject-5217513.csv","legacy","Lentiform Loewenfeld","3.3.7","yes","yes","600bd7cfb6416f0113b04181","602110864497cf011d9c0822","0","j","NA","space","space","space","j","j","495","NA","3751","16425","9456","5018","495","2","legacy","1024","2","48000","-16","task","5217513","odd","NA","38923","44679","40927","170715","4251","30176","20719","171218","162072","170712","171219","170634","44679","171717","36422","161540","4231","169134","Lexical Decision Task","48","63030","56","yes","1024"
"3.481012421","8.34","5","teen","word","85.96491228070175","85.96491228070175","1114.7543859649122","1114.7543859649122","black","no","legacy","legacy","legacy","0","uniform","1","undefined","undefined","undefined","1","j","0","0","0","0","56","0","0","0","56","0","52","56","52","0","52","3","56","0","56","Fri Feb 19 12:37:12 2021","The main experiment item","yes","Lexical_Decision_Task.osexp","/Users/halimefistikci/Downloads","no","Andale Mono","no","18","no","white","no","yes","576","legacy","52","52","3","/Users/halimefistikci/Downloads/subject-5217513.csv","legacy","Lentiform Loewenfeld","3.3.7","yes","yes","600bd7cfb6416f0113b04181","602110864497cf011d9c0822","0","j","NA","space","space","space","j","j","511","NA","3751","16425","9456","5018","511","2","legacy","1024","2","48000","-16","task","5217513","odd","NA","38923","44679","40927","172291","4251","30176","20719","172795","162072","172288","172795","172225","44679","173307","36422","171725","4231","169134","Lexical Decision Task","49","63541","57","yes","1024"
"3.208978517","10.33","4","fish","word","86.20689655172414","86.20689655172414","1103.7241379310344","1103.7241379310344","black","no","legacy","legacy","legacy","0","uniform","1","undefined","undefined","undefined","1","j","0","0","0","0","57","0","0","0","57","0","53","57","53","0","53","3","57","0","57","Fri Feb 19 12:37:12 2021","The main experiment item","yes","Lexical_Decision_Task.osexp","/Users/halimefistikci/Downloads","no","Andale Mono","no","18","no","white","no","yes","576","legacy","53","53","3","/Users/halimefistikci/Downloads/subject-5217513.csv","legacy","Lentiform Loewenfeld","3.3.7","yes","yes","600bd7cfb6416f0113b04181","602110864497cf011d9c0822","0","j","NA","space","space","space","j","j","475","NA","3751","16425","9456","5018","475","2","legacy","1024","2","48000","-16","task","5217513","odd","NA","38923","44679","40927","173873","4251","30176","20719","174376","162072","173871","174377","173813","44679","174854","36422","173312","4231","169134","Lexical Decision Task","50","64016","58","yes","1024"
"3.120025233","0","2","nyst","non-word","86.44067796610169","86.44067796610169","1098.6610169491526","1098.6610169491526","black","no","legacy","legacy","legacy","0","uniform","1","undefined","undefined","undefined","1","f","0","0","0","0","58","0","0","0","58","0","54","58","54","0","54","3","58","0","58","Fri Feb 19 12:37:12 2021","The main experiment item","yes","Lexical_Decision_Task.osexp","/Users/halimefistikci/Downloads","no","Andale Mono","no","18","no","white","no","yes","576","legacy","54","54","3","/Users/halimefistikci/Downloads/subject-5217513.csv","legacy","Lentiform Loewenfeld","3.3.7","yes","yes","600bd7cfb6416f0113b04181","602110864497cf011d9c0822","0","f","NA","space","space","space","j","f","805","NA","3751","16425","9456","5018","805","2","legacy","1024","2","48000","-16","task","5217513","odd","NA","38923","44679","40927","175423","4251","30176","20719","175928","162072","175421","175928","175361","44679","176735","36422","174860","4231","169134","Lexical Decision Task","51","64821","59","yes","1024"
"3.397302518","7.01","2","knit","word","86.66666666666667","86.66666666666667","1106.85","1106.85","black","no","legacy","legacy","legacy","0","uniform","1","undefined","undefined","undefined","1","j","0","0","0","0","59","0","0","0","59","0","55","59","55","0","55","3","59","0","59","Fri Feb 19 12:37:12 2021","The main experiment item","yes","Lexical_Decision_Task.osexp","/Users/halimefistikci/Downloads","no","Andale Mono","no","18","no","white","no","yes","576","legacy","55","55","3","/Users/halimefistikci/Downloads/subject-5217513.csv","legacy","Lentiform Loewenfeld","3.3.7","yes","yes","600bd7cfb6416f0113b04181","602110864497cf011d9c0822","0","j","NA","space","space","space","j","j","1590","NA","3751","16425","9456","5018","1590","2","legacy","1024","2","48000","-16","task","5217513","odd","NA","38923","44679","40927","177303","4251","30176","20719","177806","162072","177301","177806","177242","44679","179397","36422","176741","4231","169134","Lexical Decision Task","52","66411","60","yes","1024"
"2.920123326","7.43","4","duel","word","86.88524590163935","86.88524590163935","1099.311475409836","1099.311475409836","black","no","legacy","legacy","legacy","0","uniform","1","undefined","undefined","undefined","1","j","0","0","0","0","60","0","0","0","60","0","56","60","56","0","56","3","60","0","60","Fri Feb 19 12:37:12 2021","The main experiment item","yes","Lexical_Decision_Task.osexp","/Users/halimefistikci/Downloads","no","Andale Mono","no","18","no","white","no","yes","576","legacy","56","56","3","/Users/halimefistikci/Downloads/subject-5217513.csv","legacy","Lentiform Loewenfeld","3.3.7","yes","yes","600bd7cfb6416f0113b04181","602110864497cf011d9c0822","0","j","NA","space","space","space","j","j","647","NA","3751","16425","9456","5018","647","2","legacy","1024","2","48000","-16","task","5217513","odd","NA","38923","44679","40927","179977","4251","30176","20719","180481","162072","179973","180481","179902","44679","181130","36422","179402","4231","169134","Lexical Decision Task","53","67058","61","yes","1024"
"2.8162413","0","5","nusk","non-word","87.09677419354838","87.09677419354838","1093.274193548387","1093.274193548387","black","no","legacy","legacy","legacy","0","uniform","1","undefined","undefined","undefined","1","f","0","0","0","0","61","0","0","0","61","0","57","61","57","0","57","3","61","0","61","Fri Feb 19 12:37:12 2021","The main experiment item","yes","Lexical_Decision_Task.osexp","/Users/halimefistikci/Downloads","no","Andale Mono","no","18","no","white","no","yes","576","legacy","57","57","3","/Users/halimefistikci/Downloads/subject-5217513.csv","legacy","Lentiform Loewenfeld","3.3.7","yes","yes","600bd7cfb6416f0113b04181","602110864497cf011d9c0822","0","f","NA","space","space","space","j","f","725","NA","3751","16425","9456","5018","725","2","legacy","1024","2","48000","-16","task","5217513","odd","NA","38923","44679","40927","181700","4251","30176","20719","182204","162072","181695","182205","181635","44679","182932","36422","181135","4231","169134","Lexical Decision Task","54","67783","62","yes","1024"
"3.303771854","0","9","dath","non-word","87.3015873015873","87.3015873015873","1094.5555555555557","1094.5555555555557","black","no","legacy","legacy","legacy","0","uniform","1","undefined","undefined","undefined","1","f","0","0","0","0","62","0","0","0","62","0","58","62","58","0","58","3","62","0","62","Fri Feb 19 12:37:12 2021","The main experiment item","yes","Lexical_Decision_Task.osexp","/Users/halimefistikci/Downloads","no","Andale Mono","no","18","no","white","no","yes","576","legacy","58","58","3","/Users/halimefistikci/Downloads/subject-5217513.csv","legacy","Lentiform Loewenfeld","3.3.7","yes","yes","600bd7cfb6416f0113b04181","602110864497cf011d9c0822","0","f","NA","space","space","space","j","f","1174","NA","3751","16425","9456","5018","1174","2","legacy","1024","2","48000","-16","task","5217513","odd","NA","38923","44679","40927","183499","4251","30176","20719","184004","162072","183497","184004","183437","44679","185180","36422","182937","4231","169134","Lexical Decision Task","55","68957","63","yes","1024"
"3.094121596","0","8","fode","non-word","87.5","87.5","1089.625","1089.625","black","no","legacy","legacy","legacy","0","uniform","1","undefined","undefined","undefined","1","f","0","0","0","0","63","0","0","0","63","0","59","63","59","0","59","3","63","0","63","Fri Feb 19 12:37:12 2021","The main experiment item","yes","Lexical_Decision_Task.osexp","/Users/halimefistikci/Downloads","no","Andale Mono","no","18","no","white","no","yes","576","legacy","59","59","3","/Users/halimefistikci/Downloads/subject-5217513.csv","legacy","Lentiform Loewenfeld","3.3.7","yes","yes","600bd7cfb6416f0113b04181","602110864497cf011d9c0822","0","f","NA","space","space","space","j","f","779","NA","3751","16425","9456","5018","779","2","legacy","1024","2","48000","-16","task","5217513","odd","NA","38923","44679","40927","185750","4251","30176","20719","186254","162072","185745","186255","185686","44679","187036","36422","185186","4231","169134","Lexical Decision Task","56","69736","64","yes","1024"
"3.372543801","9.24","8","coat","word","87.6923076923077","87.6923076923077","1080.2307692307693","1080.2307692307693","black","no","legacy","legacy","legacy","0","uniform","1","undefined","undefined","undefined","1","j","0","0","0","0","64","0","0","0","64","0","60","64","60","0","60","3","64","0","64","Fri Feb 19 12:37:12 2021","The main experiment item","yes","Lexical_Decision_Task.osexp","/Users/halimefistikci/Downloads","no","Andale Mono","no","18","no","white","no","yes","576","legacy","60","60","3","/Users/halimefistikci/Downloads/subject-5217513.csv","legacy","Lentiform Loewenfeld","3.3.7","yes","yes","600bd7cfb6416f0113b04181","602110864497cf011d9c0822","0","j","NA","space","space","space","j","j","479","NA","3751","16425","9456","5018","479","2","legacy","1024","2","48000","-16","task","5217513","odd","NA","38923","44679","40927","187601","4251","30176","20719","188106","162072","187599","188106","187541","44679","188589","36422","187040","4231","169134","Lexical Decision Task","57","70215","65","yes","1024"
"2.980911938","7.15","7","hoop","word","87.87878787878788","87.87878787878788","1071.7727272727273","1071.7727272727273","black","no","legacy","legacy","legacy","0","uniform","1","undefined","undefined","undefined","1","j","0","0","0","0","65","0","0","0","65","0","61","65","61","0","61","3","65","0","65","Fri Feb 19 12:37:12 2021","The main experiment item","yes","Lexical_Decision_Task.osexp","/Users/halimefistikci/Downloads","no","Andale Mono","no","18","no","white","no","yes","576","legacy","61","61","3","/Users/halimefistikci/Downloads/subject-5217513.csv","legacy","Lentiform Loewenfeld","3.3.7","yes","yes","600bd7cfb6416f0113b04181","602110864497cf011d9c0822","0","j","NA","space","space","space","j","j","522","NA","3751","16425","9456","5018","522","2","legacy","1024","2","48000","-16","task","5217513","odd","NA","38923","44679","40927","189162","4251","30176","20719","189665","162072","189159","189666","189097","44679","190191","36422","188596","4231","169134","Lexical Decision Task","58","70737","66","yes","1024"
"3.302475237","0","7","leel","non-word","88.05970149253731","88.05970149253731","1086.3731343283582","1086.3731343283582","black","no","legacy","legacy","legacy","0","uniform","1","undefined","undefined","undefined","1","f","0","0","0","0","66","0","0","0","66","0","62","66","62","0","62","3","66","0","66","Fri Feb 19 12:37:12 2021","The main experiment item","yes","Lexical_Decision_Task.osexp","/Users/halimefistikci/Downloads","no","Andale Mono","no","18","no","white","no","yes","576","legacy","62","62","3","/Users/halimefistikci/Downloads/subject-5217513.csv","legacy","Lentiform Loewenfeld","3.3.7","yes","yes","600bd7cfb6416f0113b04181","602110864497cf011d9c0822","0","f","NA","space","space","space","j","f","2050","NA","3751","16425","9456","5018","2050","2","legacy","1024","2","48000","-16","task","5217513","odd","NA","38923","44679","40927","190762","4251","30176","20719","191266","162072","190758","191266","190696","44679","193317","36422","190196","4231","169134","Lexical Decision Task","59","72787","67","yes","1024"
"3.168890155","0","6","thet","non-word","88.23529411764706","88.23529411764706","1081.3970588235295","1081.3970588235295","black","no","legacy","legacy","legacy","0","uniform","1","undefined","undefined","undefined","1","f","0","0","0","0","67","0","0","0","67","0","63","67","63","0","63","3","67","0","67","Fri Feb 19 12:37:12 2021","The main experiment item","yes","Lexical_Decision_Task.osexp","/Users/halimefistikci/Downloads","no","Andale Mono","no","18","no","white","no","yes","576","legacy","63","63","3","/Users/halimefistikci/Downloads/subject-5217513.csv","legacy","Lentiform Loewenfeld","3.3.7","yes","yes","600bd7cfb6416f0113b04181","602110864497cf011d9c0822","0","f","NA","space","space","space","j","f","748","NA","3751","16425","9456","5018","748","2","legacy","1024","2","48000","-16","task","5217513","odd","NA","38923","44679","40927","193892","4251","30176","20719","194397","162072","193890","194398","193822","44679","195148","36422","193322","4231","169134","Lexical Decision Task","60","73535","68","yes","1024"
"3.091901331","0","9","nipe","non-word","86.95652173913044","86.95652173913044","1076.2608695652175","1076.2608695652175","black","no","legacy","legacy","legacy","0","uniform","0","undefined","undefined","undefined","0","f","0","0","0","0","68","0","0","0","68","0","64","68","64","0","64","3","68","0","68","Fri Feb 19 12:37:12 2021","The main experiment item","yes","Lexical_Decision_Task.osexp","/Users/halimefistikci/Downloads","no","Andale Mono","no","18","no","white","no","yes","576","legacy","64","64","3","/Users/halimefistikci/Downloads/subject-5217513.csv","legacy","Lentiform Loewenfeld","3.3.7","yes","yes","600bd7cfb6416f0113b04181","602110864497cf011d9c0822","0","j","NA","space","space","space","j","j","727","NA","3751","16425","9456","5018","727","2","legacy","1024","2","48000","-16","task","5217513","odd","NA","38923","44679","40927","195717","4251","30176","20719","196221","162072","195714","196221","195653","44679","196949","36422","195153","4231","169134","Lexical Decision Task","60","74262","69","yes","1024"
"3.248054965","7.86","5","glow","word","87.14285714285714","87.14285714285714","1075.1285714285714","1075.1285714285714","black","no","legacy","legacy","legacy","0","uniform","1","undefined","undefined","undefined","1","j","0","0","0","0","69","0","0","0","69","0","65","69","65","0","65","3","69","0","69","Fri Feb 19 12:37:12 2021","The main experiment item","yes","Lexical_Decision_Task.osexp","/Users/halimefistikci/Downloads","no","Andale Mono","no","18","no","white","no","yes","576","legacy","65","65","3","/Users/halimefistikci/Downloads/subject-5217513.csv","legacy","Lentiform Loewenfeld","3.3.7","yes","yes","600bd7cfb6416f0113b04181","602110864497cf011d9c0822","0","j","NA","space","space","space","j","j","997","NA","3751","16425","9456","5018","997","2","legacy","1024","2","48000","-16","task","5217513","odd","NA","38923","44679","40927","198516","4251","30176","20719","199020","162072","198513","199021","198455","44679","200020","36422","195153","4231","196955","Lexical Decision Task","61","75259","70","yes","1024"
"2.839268497","0","8","maft","non-word","87.32394366197182","87.32394366197182","1069.718309859155","1069.718309859155","black","no","legacy","legacy","legacy","0","uniform","1","undefined","undefined","undefined","1","f","0","0","0","0","70","0","0","0","70","0","66","70","66","0","66","3","70","0","70","Fri Feb 19 12:37:12 2021","The main experiment item","yes","Lexical_Decision_Task.osexp","/Users/halimefistikci/Downloads","no","Andale Mono","no","18","no","white","no","yes","576","legacy","66","66","3","/Users/halimefistikci/Downloads/subject-5217513.csv","legacy","Lentiform Loewenfeld","3.3.7","yes","yes","600bd7cfb6416f0113b04181","602110864497cf011d9c0822","0","f","NA","space","space","space","j","f","691","NA","3751","16425","9456","5018","691","2","legacy","1024","2","48000","-16","task","5217513","odd","NA","38923","44679","40927","200592","4251","30176","20719","201096","162072","200589","201097","200525","44679","201790","36422","200025","4231","196955","Lexical Decision Task","62","75950","71","yes","1024"
"3.15462682","0","6","noal","non-word","87.5","87.5","1070.625","1070.625","black","no","legacy","legacy","legacy","0","uniform","1","undefined","undefined","undefined","1","f","0","0","0","0","71","0","0","0","71","0","67","71","67","0","67","3","71","0","71","Fri Feb 19 12:37:12 2021","The main experiment item","yes","Lexical_Decision_Task.osexp","/Users/halimefistikci/Downloads","no","Andale Mono","no","18","no","white","no","yes","576","legacy","67","67","3","/Users/halimefistikci/Downloads/subject-5217513.csv","legacy","Lentiform Loewenfeld","3.3.7","yes","yes","600bd7cfb6416f0113b04181","602110864497cf011d9c0822","0","f","NA","space","space","space","j","f","1135","NA","3751","16425","9456","5018","1135","2","legacy","1024","2","48000","-16","task","5217513","odd","NA","38923","44679","40927","202360","4251","30176","20719","202864","162072","202357","202865","202295","44679","204003","36422","201795","4231","196955","Lexical Decision Task","63","77085","72","yes","1024"
"2.664328519","0","4","plux","non-word","87.67123287671232","87.67123287671232","1068.150684931507","1068.150684931507","black","no","legacy","legacy","legacy","0","uniform","1","undefined","undefined","undefined","1","f","0","0","0","0","72","0","0","0","72","0","68","72","68","0","68","3","72","0","72","Fri Feb 19 12:37:12 2021","The main experiment item","yes","Lexical_Decision_Task.osexp","/Users/halimefistikci/Downloads","no","Andale Mono","no","18","no","white","no","yes","576","legacy","68","68","3","/Users/halimefistikci/Downloads/subject-5217513.csv","legacy","Lentiform Loewenfeld","3.3.7","yes","yes","600bd7cfb6416f0113b04181","602110864497cf011d9c0822","0","f","NA","space","space","space","j","f","890","NA","3751","16425","9456","5018","890","2","legacy","1024","2","48000","-16","task","5217513","odd","NA","38923","44679","40927","204588","4251","30176","20719","205092","162072","204585","205093","204511","44679","205985","36422","204010","4231","196955","Lexical Decision Task","64","77975","73","yes","1024"
"3.132473155","0","4","glim","non-word","87.83783783783784","87.83783783783784","1065.7702702702702","1065.7702702702702","black","no","legacy","legacy","legacy","0","uniform","1","undefined","undefined","undefined","1","f","0","0","0","0","73","0","0","0","73","0","69","73","69","0","69","3","73","0","73","Fri Feb 19 12:37:12 2021","The main experiment item","yes","Lexical_Decision_Task.osexp","/Users/halimefistikci/Downloads","no","Andale Mono","no","18","no","white","no","yes","576","legacy","69","69","3","/Users/halimefistikci/Downloads/subject-5217513.csv","legacy","Lentiform Loewenfeld","3.3.7","yes","yes","600bd7cfb6416f0113b04181","602110864497cf011d9c0822","0","f","NA","space","space","space","j","f","892","NA","3751","16425","9456","5018","892","2","legacy","1024","2","48000","-16","task","5217513","odd","NA","38923","44679","40927","206564","4251","30176","20719","207068","162072","206561","207069","206490","44679","207962","36422","205989","4231","196955","Lexical Decision Task","65","78867","74","yes","1024"
"2.576725172","0","8","gowl","non-word","88","88","1071.0266666666666","1071.0266666666666","black","no","legacy","legacy","legacy","0","uniform","1","undefined","undefined","undefined","1","f","0","0","0","0","74","0","0","0","74","0","70","74","70","0","70","3","74","0","74","Fri Feb 19 12:37:12 2021","The main experiment item","yes","Lexical_Decision_Task.osexp","/Users/halimefistikci/Downloads","no","Andale Mono","no","18","no","white","no","yes","576","legacy","70","70","3","/Users/halimefistikci/Downloads/subject-5217513.csv","legacy","Lentiform Loewenfeld","3.3.7","yes","yes","600bd7cfb6416f0113b04181","602110864497cf011d9c0822","0","f","NA","space","space","space","j","f","1460","NA","3751","16425","9456","5018","1460","2","legacy","1024","2","48000","-16","task","5217513","odd","NA","38923","44679","40927","208542","4251","30176","20719","209046","162072","208540","209047","208468","44679","210509","36422","207968","4231","196955","Lexical Decision Task","66","80327","75","yes","1024"
"3.347850856","10.51","2","rich","word","88.15789473684211","88.15789473684211","1063.2368421052631","1063.2368421052631","black","no","legacy","legacy","legacy","0","uniform","1","undefined","undefined","undefined","1","j","0","0","0","0","75","0","0","0","75","0","71","75","71","0","71","3","75","0","75","Fri Feb 19 12:37:12 2021","The main experiment item","yes","Lexical_Decision_Task.osexp","/Users/halimefistikci/Downloads","no","Andale Mono","no","18","no","white","no","yes","576","legacy","71","71","3","/Users/halimefistikci/Downloads/subject-5217513.csv","legacy","Lentiform Loewenfeld","3.3.7","yes","yes","600bd7cfb6416f0113b04181","602110864497cf011d9c0822","0","j","NA","space","space","space","j","j","479","NA","3751","16425","9456","5018","479","2","legacy","1024","2","48000","-16","task","5217513","odd","NA","38923","44679","40927","211077","4251","30176","20719","211580","162072","211074","211580","211016","44679","212062","36422","210516","4231","196955","Lexical Decision Task","67","80806","76","yes","1024"
"2.813801082","5.47","7","nook","word","88.31168831168831","88.31168831168831","1057.3766233766235","1057.3766233766235","black","no","legacy","legacy","legacy","0","uniform","1","undefined","undefined","undefined","1","j","0","0","0","0","76","0","0","0","76","0","72","76","72","0","72","3","76","0","76","Fri Feb 19 12:37:12 2021","The main experiment item","yes","Lexical_Decision_Task.osexp","/Users/halimefistikci/Downloads","no","Andale Mono","no","18","no","white","no","yes","576","legacy","72","72","3","/Users/halimefistikci/Downloads/subject-5217513.csv","legacy","Lentiform Loewenfeld","3.3.7","yes","yes","600bd7cfb6416f0113b04181","602110864497cf011d9c0822","0","j","NA","space","space","space","j","j","612","NA","3751","16425","9456","5018","612","2","legacy","1024","2","48000","-16","task","5217513","odd","NA","38923","44679","40927","212627","4251","30176","20719","213130","162072","212624","213131","212569","44679","213744","36422","212069","4231","196955","Lexical Decision Task","68","81418","77","yes","1024"
"2.892836167","10.01","5","soft","word","88.46153846153847","88.46153846153847","1050.5641025641025","1050.5641025641025","black","no","legacy","legacy","legacy","0","uniform","1","undefined","undefined","undefined","1","j","0","0","0","0","77","0","0","0","77","0","73","77","73","0","73","3","77","0","77","Fri Feb 19 12:37:12 2021","The main experiment item","yes","Lexical_Decision_Task.osexp","/Users/halimefistikci/Downloads","no","Andale Mono","no","18","no","white","no","yes","576","legacy","73","73","3","/Users/halimefistikci/Downloads/subject-5217513.csv","legacy","Lentiform Loewenfeld","3.3.7","yes","yes","600bd7cfb6416f0113b04181","602110864497cf011d9c0822","0","j","NA","space","space","space","j","j","526","NA","3751","16425","9456","5018","526","2","legacy","1024","2","48000","-16","task","5217513","odd","NA","38923","44679","40927","214309","4251","30176","20719","214812","162072","214307","214813","214250","44679","215341","36422","213749","4231","196955","Lexical Decision Task","69","81944","78","yes","1024"
"2.858136002","0","4","phip","non-word","88.60759493670886","88.60759493670886","1046.1772151898733","1046.1772151898733","black","no","legacy","legacy","legacy","0","uniform","1","undefined","undefined","undefined","1","f","0","0","0","0","78","0","0","0","78","0","74","78","74","0","74","3","78","0","78","Fri Feb 19 12:37:12 2021","The main experiment item","yes","Lexical_Decision_Task.osexp","/Users/halimefistikci/Downloads","no","Andale Mono","no","18","no","white","no","yes","576","legacy","74","74","3","/Users/halimefistikci/Downloads/subject-5217513.csv","legacy","Lentiform Loewenfeld","3.3.7","yes","yes","600bd7cfb6416f0113b04181","602110864497cf011d9c0822","0","f","NA","space","space","space","j","f","704","NA","3751","16425","9456","5018","704","2","legacy","1024","2","48000","-16","task","5217513","odd","NA","38923","44679","40927","215918","4251","30176","20719","216422","162072","215916","216422","215847","44679","217128","36422","215347","4231","196955","Lexical Decision Task","70","82648","79","yes","1024"
"3.20996159","0","4","clee","non-word","88.75","88.75","1041.4875","1041.4875","black","no","legacy","legacy","legacy","0","uniform","1","undefined","undefined","undefined","1","f","0","0","0","0","79","0","0","0","79","0","75","79","75","0","75","3","79","0","79","Fri Feb 19 12:37:12 2021","The main experiment item","yes","Lexical_Decision_Task.osexp","/Users/halimefistikci/Downloads","no","Andale Mono","no","18","no","white","no","yes","576","legacy","75","75","3","/Users/halimefistikci/Downloads/subject-5217513.csv","legacy","Lentiform Loewenfeld","3.3.7","yes","yes","600bd7cfb6416f0113b04181","602110864497cf011d9c0822","0","f","NA","space","space","space","j","f","671","NA","3751","16425","9456","5018","671","2","legacy","1024","2","48000","-16","task","5217513","odd","NA","38923","44679","40927","217689","4251","30176","20719","218192","162072","217686","218193","217633","44679","218867","36422","217133","4231","196955","Lexical Decision Task","71","83319","80","yes","1024"
"2.895974732","6.65","5","sift","word","87.65432098765432","87.65432098765432","1038.0987654320988","1038.0987654320988","black","no","legacy","legacy","legacy","0","uniform","0","undefined","undefined","undefined","0","j","0","0","0","0","80","0","0","0","80","0","76","80","76","0","76","3","80","0","80","Fri Feb 19 12:37:12 2021","The main experiment item","yes","Lexical_Decision_Task.osexp","/Users/halimefistikci/Downloads","no","Andale Mono","no","18","no","white","no","yes","576","legacy","76","76","3","/Users/halimefistikci/Downloads/subject-5217513.csv","legacy","Lentiform Loewenfeld","3.3.7","yes","yes","600bd7cfb6416f0113b04181","602110864497cf011d9c0822","0","f","NA","space","space","space","j","f","767","NA","3751","16425","9456","5018","767","2","legacy","1024","2","48000","-16","task","5217513","odd","NA","38923","44679","40927","219432","4251","30176","20719","219936","162072","219429","219937","219373","44679","220707","36422","218873","4231","196955","Lexical Decision Task","71","84086","81","yes","1024"
"2.664011697","8.19","4","hawk","word","87.8048780487805","87.8048780487805","1033.121951219512","1033.121951219512","black","no","legacy","legacy","legacy","0","uniform","1","undefined","undefined","undefined","1","j","0","0","0","0","81","0","0","0","81","0","77","81","77","0","77","3","81","0","81","Fri Feb 19 12:37:12 2021","The main experiment item","yes","Lexical_Decision_Task.osexp","/Users/halimefistikci/Downloads","no","Andale Mono","no","18","no","white","no","yes","576","legacy","77","77","3","/Users/halimefistikci/Downloads/subject-5217513.csv","legacy","Lentiform Loewenfeld","3.3.7","yes","yes","600bd7cfb6416f0113b04181","602110864497cf011d9c0822","0","j","NA","space","space","space","j","j","630","NA","3751","16425","9456","5018","630","2","legacy","1024","2","48000","-16","task","5217513","odd","NA","38923","44679","40927","222279","4251","30176","20719","222783","162072","222277","222784","222213","44679","223416","36422","218873","4231","220713","Lexical Decision Task","72","84716","82","yes","1024"
"2.695481676","0","7","goke","non-word","87.95180722891567","87.95180722891567","1030.5060240963855","1030.5060240963855","black","no","legacy","legacy","legacy","0","uniform","1","undefined","undefined","undefined","1","f","0","0","0","0","82","0","0","0","82","0","78","82","78","0","78","3","82","0","82","Fri Feb 19 12:37:12 2021","The main experiment item","yes","Lexical_Decision_Task.osexp","/Users/halimefistikci/Downloads","no","Andale Mono","no","18","no","white","no","yes","576","legacy","78","78","3","/Users/halimefistikci/Downloads/subject-5217513.csv","legacy","Lentiform Loewenfeld","3.3.7","yes","yes","600bd7cfb6416f0113b04181","602110864497cf011d9c0822","0","f","NA","space","space","space","j","f","816","NA","3751","16425","9456","5018","816","2","legacy","1024","2","48000","-16","task","5217513","odd","NA","38923","44679","40927","223986","4251","30176","20719","224489","162072","223983","224490","223921","44679","225308","36422","223421","4231","220713","Lexical Decision Task","73","85532","83","yes","1024"
"3.225825991","0","7","talm","non-word","88.0952380952381","88.0952380952381","1027.6309523809523","1027.6309523809523","black","no","legacy","legacy","legacy","0","uniform","1","undefined","undefined","undefined","1","f","0","0","0","0","83","0","0","0","83","0","79","83","79","0","79","3","83","0","83","Fri Feb 19 12:37:12 2021","The main experiment item","yes","Lexical_Decision_Task.osexp","/Users/halimefistikci/Downloads","no","Andale Mono","no","18","no","white","no","yes","576","legacy","79","79","3","/Users/halimefistikci/Downloads/subject-5217513.csv","legacy","Lentiform Loewenfeld","3.3.7","yes","yes","600bd7cfb6416f0113b04181","602110864497cf011d9c0822","0","f","NA","space","space","space","j","f","789","NA","3751","16425","9456","5018","789","2","legacy","1024","2","48000","-16","task","5217513","odd","NA","38923","44679","40927","225869","4251","30176","20719","226372","162072","225866","226373","225812","44679","227163","36422","225312","4231","220713","Lexical Decision Task","74","86321","84","yes","1024"
"2.693726949","5.08","3","swig","word","87.05882352941177","87.05882352941177","1032.0117647058823","1032.0117647058823","black","no","legacy","legacy","legacy","0","uniform","0","undefined","undefined","undefined","0","j","0","0","0","0","84","0","0","0","84","0","80","84","80","0","80","3","84","0","84","Fri Feb 19 12:37:12 2021","The main experiment item","yes","Lexical_Decision_Task.osexp","/Users/halimefistikci/Downloads","no","Andale Mono","no","18","no","white","no","yes","576","legacy","80","80","3","/Users/halimefistikci/Downloads/subject-5217513.csv","legacy","Lentiform Loewenfeld","3.3.7","yes","yes","600bd7cfb6416f0113b04181","602110864497cf011d9c0822","0","f","NA","space","space","space","j","f","1400","NA","3751","16425","9456","5018","1400","2","legacy","1024","2","48000","-16","task","5217513","odd","NA","38923","44679","40927","227734","4251","30176","20719","228238","162072","227731","228238","227669","44679","229640","36422","227168","4231","220713","Lexical Decision Task","74","87721","85","yes","1024"
"3.14849993","10.75","7","hour","word","87.20930232558139","87.20930232558139","1026.3837209302326","1026.3837209302326","black","no","legacy","legacy","legacy","0","uniform","1","undefined","undefined","undefined","1","j","0","0","0","0","85","0","0","0","85","0","81","85","81","0","81","3","85","0","85","Fri Feb 19 12:37:12 2021","The main experiment item","yes","Lexical_Decision_Task.osexp","/Users/halimefistikci/Downloads","no","Andale Mono","no","18","no","white","no","yes","576","legacy","81","81","3","/Users/halimefistikci/Downloads/subject-5217513.csv","legacy","Lentiform Loewenfeld","3.3.7","yes","yes","600bd7cfb6416f0113b04181","602110864497cf011d9c0822","0","j","NA","space","space","space","j","j","548","NA","3751","16425","9456","5018","548","2","legacy","1024","2","48000","-16","task","5217513","odd","NA","38923","44679","40927","231205","4251","30176","20719","231708","162072","231202","231709","231145","44679","232259","36422","227168","4231","229645","Lexical Decision Task","75","88269","86","yes","1024"
"3.22685757","9.99","7","roll","word","87.35632183908046","87.35632183908046","1019.7471264367816","1019.7471264367816","black","no","legacy","legacy","legacy","0","uniform","1","undefined","undefined","undefined","1","j","0","0","0","0","86","0","0","0","86","0","82","86","82","0","82","3","86","0","86","Fri Feb 19 12:37:12 2021","The main experiment item","yes","Lexical_Decision_Task.osexp","/Users/halimefistikci/Downloads","no","Andale Mono","no","18","no","white","no","yes","576","legacy","82","82","3","/Users/halimefistikci/Downloads/subject-5217513.csv","legacy","Lentiform Loewenfeld","3.3.7","yes","yes","600bd7cfb6416f0113b04181","602110864497cf011d9c0822","0","j","NA","space","space","space","j","j","449","NA","3751","16425","9456","5018","449","2","legacy","1024","2","48000","-16","task","5217513","odd","NA","38923","44679","40927","232826","4251","30176","20719","233330","162072","232823","233331","232765","44679","233782","36422","232265","4231","229645","Lexical Decision Task","76","88718","87","yes","1024"
"3.149629599","0","2","cleb","non-word","87.5","87.5","1015.8977272727273","1015.8977272727273","black","no","legacy","legacy","legacy","0","uniform","1","undefined","undefined","undefined","1","f","0","0","0","0","87","0","0","0","87","0","83","87","83","0","83","3","87","0","87","Fri Feb 19 12:37:12 2021","The main experiment item","yes","Lexical_Decision_Task.osexp","/Users/halimefistikci/Downloads","no","Andale Mono","no","18","no","white","no","yes","576","legacy","83","83","3","/Users/halimefistikci/Downloads/subject-5217513.csv","legacy","Lentiform Loewenfeld","3.3.7","yes","yes","600bd7cfb6416f0113b04181","602110864497cf011d9c0822","0","f","NA","space","space","space","j","f","681","NA","3751","16425","9456","5018","681","2","legacy","1024","2","48000","-16","task","5217513","odd","NA","38923","44679","40927","234355","4251","30176","20719","234859","162072","234351","234859","234288","44679","235542","36422","233787","4231","229645","Lexical Decision Task","77","89399","88","yes","1024"
"3.100255637","0","6","brax","non-word","87.64044943820225","87.64044943820225","1014.0674157303371","1014.0674157303371","black","no","legacy","legacy","legacy","0","uniform","1","undefined","undefined","undefined","1","f","0","0","0","0","88","0","0","0","88","0","84","88","84","0","84","3","88","0","88","Fri Feb 19 12:37:12 2021","The main experiment item","yes","Lexical_Decision_Task.osexp","/Users/halimefistikci/Downloads","no","Andale Mono","no","18","no","white","no","yes","576","legacy","84","84","3","/Users/halimefistikci/Downloads/subject-5217513.csv","legacy","Lentiform Loewenfeld","3.3.7","yes","yes","600bd7cfb6416f0113b04181","602110864497cf011d9c0822","0","f","NA","space","space","space","j","f","853","NA","3751","16425","9456","5018","853","2","legacy","1024","2","48000","-16","task","5217513","odd","NA","38923","44679","40927","236115","4251","30176","20719","236619","162072","236113","236620","236048","44679","237475","36422","235547","4231","229645","Lexical Decision Task","78","90252","89","yes","1024"
"2.705007959","6.01","4","wept","word","87.77777777777777","87.77777777777777","1013.1222222222223","1013.1222222222223","black","no","legacy","legacy","legacy","0","uniform","1","undefined","undefined","undefined","1","j","0","0","0","0","89","0","0","0","89","0","85","89","85","0","85","3","89","0","89","Fri Feb 19 12:37:12 2021","The main experiment item","yes","Lexical_Decision_Task.osexp","/Users/halimefistikci/Downloads","no","Andale Mono","no","18","no","white","no","yes","576","legacy","85","85","3","/Users/halimefistikci/Downloads/subject-5217513.csv","legacy","Lentiform Loewenfeld","3.3.7","yes","yes","600bd7cfb6416f0113b04181","602110864497cf011d9c0822","0","j","NA","space","space","space","j","j","929","NA","3751","16425","9456","5018","929","2","legacy","1024","2","48000","-16","task","5217513","odd","NA","38923","44679","40927","238040","4251","30176","20719","238544","162072","238036","238544","237980","44679","239475","36422","237480","4231","229645","Lexical Decision Task","79","91181","90","yes","1024"
"3.039414119","0","9","meep","non-word","86.81318681318682","86.81318681318682","1011.7472527472528","1011.7472527472528","black","no","legacy","legacy","legacy","0","uniform","0","undefined","undefined","undefined","0","f","0","0","0","0","90","0","0","0","90","0","86","90","86","0","86","3","90","0","90","Fri Feb 19 12:37:12 2021","The main experiment item","yes","Lexical_Decision_Task.osexp","/Users/halimefistikci/Downloads","no","Andale Mono","no","18","no","white","no","yes","576","legacy","86","86","3","/Users/halimefistikci/Downloads/subject-5217513.csv","legacy","Lentiform Loewenfeld","3.3.7","yes","yes","600bd7cfb6416f0113b04181","602110864497cf011d9c0822","0","j","NA","space","space","space","j","j","888","NA","3751","16425","9456","5018","888","2","legacy","1024","2","48000","-16","task","5217513","odd","NA","38923","44679","40927","240038","4251","30176","20719","240542","162072","240035","240543","239980","44679","241433","36422","239479","4231","229645","Lexical Decision Task","79","92069","91","yes","1024"
"2.696356389","0","1","pizz","non-word","86.95652173913044","86.95652173913044","1010.75","1010.75","black","no","legacy","legacy","legacy","0","uniform","1","undefined","undefined","undefined","1","f","0","0","0","0","91","0","0","0","91","0","87","91","87","0","87","3","91","0","91","Fri Feb 19 12:37:12 2021","The main experiment item","yes","Lexical_Decision_Task.osexp","/Users/halimefistikci/Downloads","no","Andale Mono","no","18","no","white","no","yes","576","legacy","87","87","3","/Users/halimefistikci/Downloads/subject-5217513.csv","legacy","Lentiform Loewenfeld","3.3.7","yes","yes","600bd7cfb6416f0113b04181","602110864497cf011d9c0822","0","f","NA","space","space","space","j","f","920","NA","3751","16425","9456","5018","920","2","legacy","1024","2","48000","-16","task","5217513","odd","NA","38923","44679","40927","243006","4251","30176","20719","243511","162072","243003","243512","242940","44679","244434","36422","239479","4231","241439","Lexical Decision Task","80","92989","92","yes","1024"
"2.68604012","0","4","pumb","non-word","87.09677419354838","87.09677419354838","1009.1935483870968","1009.1935483870968","black","no","legacy","legacy","legacy","0","uniform","1","undefined","undefined","undefined","1","f","0","0","0","0","92","0","0","0","92","0","88","92","88","0","88","3","92","0","92","Fri Feb 19 12:37:12 2021","The main experiment item","yes","Lexical_Decision_Task.osexp","/Users/halimefistikci/Downloads","no","Andale Mono","no","18","no","white","no","yes","576","legacy","88","88","3","/Users/halimefistikci/Downloads/subject-5217513.csv","legacy","Lentiform Loewenfeld","3.3.7","yes","yes","600bd7cfb6416f0113b04181","602110864497cf011d9c0822","0","f","NA","space","space","space","j","f","866","NA","3751","16425","9456","5018","866","2","legacy","1024","2","48000","-16","task","5217513","odd","NA","38923","44679","40927","245010","4251","30176","20719","245513","162072","245007","245513","244939","44679","246382","36422","244438","4231","241439","Lexical Decision Task","81","93855","93","yes","1024"
"3.269668578","0","7","trag","non-word","87.23404255319149","87.23404255319149","1005.0531914893617","1005.0531914893617","black","no","legacy","legacy","legacy","0","uniform","1","undefined","undefined","undefined","1","f","0","0","0","0","93","0","0","0","93","0","89","93","89","0","89","3","93","0","93","Fri Feb 19 12:37:12 2021","The main experiment item","yes","Lexical_Decision_Task.osexp","/Users/halimefistikci/Downloads","no","Andale Mono","no","18","no","white","no","yes","576","legacy","89","89","3","/Users/halimefistikci/Downloads/subject-5217513.csv","legacy","Lentiform Loewenfeld","3.3.7","yes","yes","600bd7cfb6416f0113b04181","602110864497cf011d9c0822","0","f","NA","space","space","space","j","f","620","NA","3751","16425","9456","5018","620","2","legacy","1024","2","48000","-16","task","5217513","odd","NA","38923","44679","40927","246955","4251","30176","20719","247460","162072","246951","247461","246892","44679","248084","36422","246391","4231","241439","Lexical Decision Task","82","94475","94","yes","1024"
"2.744553742","0","2","nawk","non-word","87.36842105263158","87.36842105263158","1003.4315789473684","1003.4315789473684","black","no","legacy","legacy","legacy","0","uniform","1","undefined","undefined","undefined","1","f","0","0","0","0","94","0","0","0","94","0","90","94","90","0","90","3","94","0","94","Fri Feb 19 12:37:12 2021","The main experiment item","yes","Lexical_Decision_Task.osexp","/Users/halimefistikci/Downloads","no","Andale Mono","no","18","no","white","no","yes","576","legacy","90","90","3","/Users/halimefistikci/Downloads/subject-5217513.csv","legacy","Lentiform Loewenfeld","3.3.7","yes","yes","600bd7cfb6416f0113b04181","602110864497cf011d9c0822","0","f","NA","space","space","space","j","f","851","NA","3751","16425","9456","5018","851","2","legacy","1024","2","48000","-16","task","5217513","odd","NA","38923","44679","40927","248654","4251","30176","20719","249158","162072","248651","249158","248592","44679","250010","36422","248092","4231","241439","Lexical Decision Task","83","95326","95","yes","1024"
"3.282244367","0","6","fute","non-word","87.5","87.5","1000.6979166666666","1000.6979166666666","black","no","legacy","legacy","legacy","0","uniform","1","undefined","undefined","undefined","1","f","0","0","0","0","95","0","0","0","95","0","91","95","91","0","91","3","95","0","95","Fri Feb 19 12:37:12 2021","The main experiment item","yes","Lexical_Decision_Task.osexp","/Users/halimefistikci/Downloads","no","Andale Mono","no","18","no","white","no","yes","576","legacy","91","91","3","/Users/halimefistikci/Downloads/subject-5217513.csv","legacy","Lentiform Loewenfeld","3.3.7","yes","yes","600bd7cfb6416f0113b04181","602110864497cf011d9c0822","0","f","NA","space","space","space","j","f","741","NA","3751","16425","9456","5018","741","2","legacy","1024","2","48000","-16","task","5217513","odd","NA","38923","44679","40927","250585","4251","30176","20719","251089","162072","250582","251090","250515","44679","251833","36422","250015","4231","241439","Lexical Decision Task","84","96067","96","yes","1024"
"2.819763221","0","2","durp","non-word","87.62886597938144","87.62886597938144","997.0515463917526","997.0515463917526","black","no","legacy","legacy","legacy","0","uniform","1","undefined","undefined","undefined","1","f","0","0","0","0","96","0","0","0","96","0","92","96","92","0","92","3","96","0","96","Fri Feb 19 12:37:12 2021","The main experiment item","yes","Lexical_Decision_Task.osexp","/Users/halimefistikci/Downloads","no","Andale Mono","no","18","no","white","no","yes","576","legacy","92","92","3","/Users/halimefistikci/Downloads/subject-5217513.csv","legacy","Lentiform Loewenfeld","3.3.7","yes","yes","600bd7cfb6416f0113b04181","602110864497cf011d9c0822","0","f","NA","space","space","space","j","f","647","NA","3751","16425","9456","5018","647","2","legacy","1024","2","48000","-16","task","5217513","odd","NA","38923","44679","40927","252404","4251","30176","20719","252908","162072","252401","252908","252338","44679","253557","36422","251838","4231","241439","Lexical Decision Task","85","96714","97","yes","1024"
"3.062080345","0","6","tomp","non-word","87.75510204081633","87.75510204081633","992.265306122449","992.265306122449","black","no","legacy","legacy","legacy","0","uniform","1","undefined","undefined","undefined","1","f","0","0","0","0","97","0","0","0","97","0","93","97","93","0","93","3","97","0","97","Fri Feb 19 12:37:12 2021","The main experiment item","yes","Lexical_Decision_Task.osexp","/Users/halimefistikci/Downloads","no","Andale Mono","no","18","no","white","no","yes","576","legacy","93","93","3","/Users/halimefistikci/Downloads/subject-5217513.csv","legacy","Lentiform Loewenfeld","3.3.7","yes","yes","600bd7cfb6416f0113b04181","602110864497cf011d9c0822","0","f","NA","space","space","space","j","f","528","NA","3751","16425","9456","5018","528","2","legacy","1024","2","48000","-16","task","5217513","odd","NA","38923","44679","40927","254128","4251","30176","20719","254633","162072","254124","254634","254063","44679","255164","36422","253562","4231","241439","Lexical Decision Task","86","97242","98","yes","1024"
"2.746890964","9.67","3","plug","word","87.87878787878788","87.87878787878788","990.7777777777778","990.7777777777778","black","no","legacy","legacy","legacy","0","uniform","1","undefined","undefined","undefined","1","j","0","0","0","0","98","0","0","0","98","0","94","98","94","0","94","3","98","0","98","Fri Feb 19 12:37:12 2021","The main experiment item","yes","Lexical_Decision_Task.osexp","/Users/halimefistikci/Downloads","no","Andale Mono","no","18","no","white","no","yes","576","legacy","94","94","3","/Users/halimefistikci/Downloads/subject-5217513.csv","legacy","Lentiform Loewenfeld","3.3.7","yes","yes","600bd7cfb6416f0113b04181","602110864497cf011d9c0822","0","j","NA","space","space","space","j","j","845","NA","3751","16425","9456","5018","845","2","legacy","1024","2","48000","-16","task","5217513","odd","NA","38923","44679","40927","255728","4251","30176","20719","256231","162072","255725","256232","255669","44679","257079","36422","255169","4231","241439","Lexical Decision Task","87","98087","99","yes","1024"
