"Log_BG","Log_Freq_HAL","Ortho_N","Stimulus","Type","acc","accuracy","average_response_time","avg_rt","background","bidi","canvas_backend","clock_backend","color_backend","compensation","coordinates","correct","correct_Experimental_intro","correct_Introduction","correct_Practice_intro","correct_experimenter_kb","correct_response","count_End_Of_Experiment","count_End_Of_Practice","count_Experimental_Loop","count_Experimental_intro","count_Fixation","count_Introduction","count_Practice_Loop","count_Practice_intro","count_Stimulus","count_block_break_feedback","count_experimental_sequence","count_experimenter_kb","count_increment_trial_count","count_init_trial_count","count_logger","count_practice_sequence","count_right","count_task","count_wrong","datetime","description","disable_garbage_collection","experiment_file","experiment_path","font_bold","font_family","font_italic","font_size","font_underline","foreground","form_clicks","fullscreen","height","keyboard_backend","live_row","live_row_Experimental_Loop","live_row_Practice_Loop","logfile","mouse_backend","opensesame_codename","opensesame_version","osf_always_upload_data","osf_always_upload_experiment","osf_datanode_id","osf_id","repeat_cycle","response","response_End_Of_Experiment","response_Experimental_intro","response_Introduction","response_Practice_intro","response_block_break_feedback","response_experimenter_kb","response_time","response_time_End_Of_Experiment","response_time_Experimental_intro","response_time_Introduction","response_time_Practice_intro","response_time_block_break_feedback","response_time_experimenter_kb","round_decimals","sampler_backend","sound_buf_size","sound_channels","sound_freq","sound_sample_size","start","subject_nr","subject_parity","time_End_Of_Experiment","time_End_Of_Practice","time_Experimental_Loop","time_Experimental_intro","time_Fixation","time_Introduction","time_Practice_Loop","time_Practice_intro","time_Stimulus","time_block_break_feedback","time_experimental_sequence","time_experimenter_kb","time_increment_trial_count","time_init_trial_count","time_logger","time_practice_sequence","time_right","time_task","time_wrong","title","total_correct","total_response_time","total_responses","uniform_coordinates","width"
"2.897810299","0","5","glur","non-word","20","20","2227.8","2227.8","black","no","legacy","legacy","legacy","0","uniform","0","undefined","undefined","undefined","0","f","0","0","0","0","4","0","0","0","4","NA","0","4","0","0","0","3","4","0","4","Thu Feb 18 09:25:45 2021","The main experiment item","yes","Lexical_Decision_Task.osexp","/Users/yen","no","Andale Mono","no","18","no","white","no","yes","576","legacy","0","0","3","/Users/yen/subject-5128481.csv","legacy","Lentiform Loewenfeld","3.3.7","yes","yes","600bd7cfb6416f0113b04181","602110864497cf011d9c0822","0","None","NA","space","space","space","NA","None","3000","NA","9006","7998","3160","NA","3000","2","legacy","1024","2","48000","-16","task","5128481","odd","NA","28888","39904","30897","39923","2261","13442","10271","40433","NA","39920","40433","NA","39904","43433","24954","24405","2213","27351","Lexical Decision Task","1","11139","5","yes","1024"
"2.594027722","9.08","8","skip","word","33.333333333333336","33.333333333333336","2038","2038","black","no","legacy","legacy","legacy","0","uniform","1","undefined","undefined","undefined","1","j","0","0","0","0","5","0","0","0","5","NA","1","5","1","0","1","3","5","0","5","Thu Feb 18 09:25:45 2021","The main experiment item","yes","Lexical_Decision_Task.osexp","/Users/yen","no","Andale Mono","no","18","no","white","no","yes","576","legacy","1","1","3","/Users/yen/subject-5128481.csv","legacy","Lentiform Loewenfeld","3.3.7","yes","yes","600bd7cfb6416f0113b04181","602110864497cf011d9c0822","0","j","NA","space","space","space","NA","j","1089","NA","9006","7998","3160","NA","1089","2","legacy","1024","2","48000","-16","task","5128481","odd","NA","28888","39904","30897","45000","2261","13442","10271","45508","NA","44996","45508","44938","39904","46598","24954","24405","2213","43438","Lexical Decision Task","2","12228","6","yes","1024"
"2.996511672","0","7","hoil","non-word","42.857142857142854","42.857142857142854","2165.285714285714","2165.285714285714","black","no","legacy","legacy","legacy","0","uniform","1","undefined","undefined","undefined","1","f","0","0","0","0","6","0","0","0","6","NA","2","6","2","0","2","3","6","0","6","Thu Feb 18 09:25:45 2021","The main experiment item","yes","Lexical_Decision_Task.osexp","/Users/yen","no","Andale Mono","no","18","no","white","no","yes","576","legacy","2","2","3","/Users/yen/subject-5128481.csv","legacy","Lentiform Loewenfeld","3.3.7","yes","yes","600bd7cfb6416f0113b04181","602110864497cf011d9c0822","0","f","NA","space","space","space","NA","f","2929","NA","9006","7998","3160","NA","2929","2","legacy","1024","2","48000","-16","task","5128481","odd","NA","28888","39904","30897","47155","2261","13442","10271","47663","NA","47151","47663","47102","39904","50593","24954","46601","2213","43438","Lexical Decision Task","3","15157","7","yes","1024"
"2.793790385","5.67","9","swab","word","50","50","2019.75","2019.75","black","no","legacy","legacy","legacy","0","uniform","1","undefined","undefined","undefined","1","j","0","0","0","0","7","0","0","0","7","NA","3","7","3","0","3","3","7","0","7","Thu Feb 18 09:25:45 2021","The main experiment item","yes","Lexical_Decision_Task.osexp","/Users/yen","no","Andale Mono","no","18","no","white","no","yes","576","legacy","3","3","3","/Users/yen/subject-5128481.csv","legacy","Lentiform Loewenfeld","3.3.7","yes","yes","600bd7cfb6416f0113b04181","602110864497cf011d9c0822","0","j","NA","space","space","space","NA","j","1001","NA","9006","7998","3160","NA","1001","2","legacy","1024","2","48000","-16","task","5128481","odd","NA","28888","39904","30897","51151","2261","13442","10271","51658","NA","51147","51659","51097","39904","52661","24954","50597","2213","43438","Lexical Decision Task","4","16158","8","yes","1024"
"2.576725172","0","8","gowl","non-word","44.44444444444444","44.44444444444444","1944.3333333333333","1944.3333333333333","black","no","legacy","legacy","legacy","0","uniform","0","undefined","undefined","undefined","0","f","0","0","0","0","8","0","0","0","8","NA","4","8","4","0","4","3","8","0","8","Thu Feb 18 09:25:45 2021","The main experiment item","yes","Lexical_Decision_Task.osexp","/Users/yen","no","Andale Mono","no","18","no","white","no","yes","576","legacy","4","4","3","/Users/yen/subject-5128481.csv","legacy","Lentiform Loewenfeld","3.3.7","yes","yes","600bd7cfb6416f0113b04181","602110864497cf011d9c0822","0","j","NA","space","space","space","NA","j","1341","NA","9006","7998","3160","NA","1341","2","legacy","1024","2","48000","-16","task","5128481","odd","NA","28888","39904","30897","53219","2261","13442","10271","53727","NA","53215","53727","53165","39904","55069","24954","52665","2213","43438","Lexical Decision Task","4","17499","9","yes","1024"
"3.316948329","0","1","besc","non-word","50","50","1867.8","1867.8","black","no","legacy","legacy","legacy","0","uniform","1","undefined","undefined","undefined","1","f","0","0","0","0","9","0","0","0","9","NA","5","9","5","0","5","3","9","0","9","Thu Feb 18 09:25:45 2021","The main experiment item","yes","Lexical_Decision_Task.osexp","/Users/yen","no","Andale Mono","no","18","no","white","no","yes","576","legacy","5","5","3","/Users/yen/subject-5128481.csv","legacy","Lentiform Loewenfeld","3.3.7","yes","yes","600bd7cfb6416f0113b04181","602110864497cf011d9c0822","0","f","NA","space","space","space","NA","f","1179","NA","9006","7998","3160","NA","1179","2","legacy","1024","2","48000","-16","task","5128481","odd","NA","28888","39904","30897","56632","2261","13442","10271","57139","NA","56628","57140","56573","39904","58320","24954","52665","2213","55073","Lexical Decision Task","5","18678","10","yes","1024"
"2.6599162","0","6","flug","non-word","45.45454545454545","45.45454545454545","1763.5454545454545","1763.5454545454545","black","no","legacy","legacy","legacy","0","uniform","0","undefined","undefined","undefined","0","f","0","0","0","0","10","0","0","0","10","NA","6","10","6","0","6","3","10","0","10","Thu Feb 18 09:25:45 2021","The main experiment item","yes","Lexical_Decision_Task.osexp","/Users/yen","no","Andale Mono","no","18","no","white","no","yes","576","legacy","6","6","3","/Users/yen/subject-5128481.csv","legacy","Lentiform Loewenfeld","3.3.7","yes","yes","600bd7cfb6416f0113b04181","602110864497cf011d9c0822","0","j","NA","space","space","space","NA","j","721","NA","9006","7998","3160","NA","721","2","legacy","1024","2","48000","-16","task","5128481","odd","NA","28888","39904","30897","58879","2261","13442","10271","59388","NA","58875","59388","58824","39904","60109","24954","58324","2213","55073","Lexical Decision Task","5","19399","11","yes","1024"
"2.695770526","7.34","6","pawn","word","50","50","1683.6666666666667","1683.6666666666667","black","no","legacy","legacy","legacy","0","uniform","1","undefined","undefined","undefined","1","j","0","0","0","0","11","0","0","0","11","NA","7","11","7","0","7","3","11","0","11","Thu Feb 18 09:25:45 2021","The main experiment item","yes","Lexical_Decision_Task.osexp","/Users/yen","no","Andale Mono","no","18","no","white","no","yes","576","legacy","7","7","3","/Users/yen/subject-5128481.csv","legacy","Lentiform Loewenfeld","3.3.7","yes","yes","600bd7cfb6416f0113b04181","602110864497cf011d9c0822","0","j","NA","space","space","space","NA","j","805","NA","9006","7998","3160","NA","805","2","legacy","1024","2","48000","-16","task","5128481","odd","NA","28888","39904","30897","61676","2261","13442","10271","62183","NA","61671","62184","61613","39904","62989","24954","58324","2213","60113","Lexical Decision Task","6","20204","12","yes","1024"
"3.2757719","0","5","slea","non-word","53.84615384615385","53.84615384615385","1613.5384615384614","1613.5384615384614","black","no","legacy","legacy","legacy","0","uniform","1","undefined","undefined","undefined","1","f","0","0","0","0","12","0","0","0","12","NA","8","12","8","0","8","3","12","0","12","Thu Feb 18 09:25:45 2021","The main experiment item","yes","Lexical_Decision_Task.osexp","/Users/yen","no","Andale Mono","no","18","no","white","no","yes","576","legacy","8","8","3","/Users/yen/subject-5128481.csv","legacy","Lentiform Loewenfeld","3.3.7","yes","yes","600bd7cfb6416f0113b04181","602110864497cf011d9c0822","0","f","NA","space","space","space","NA","f","772","NA","9006","7998","3160","NA","772","2","legacy","1024","2","48000","-16","task","5128481","odd","NA","28888","39904","30897","63542","2261","13442","10271","64049","NA","63538","64050","63493","39904","64823","24954","62993","2213","60113","Lexical Decision Task","7","20976","13","yes","1024"
"2.668385917","5.48","4","twig","word","57.142857142857146","57.142857142857146","1545.7857142857142","1545.7857142857142","black","no","legacy","legacy","legacy","0","uniform","1","undefined","undefined","undefined","1","j","0","0","0","0","13","0","0","0","13","NA","9","13","9","0","9","3","13","0","13","Thu Feb 18 09:25:45 2021","The main experiment item","yes","Lexical_Decision_Task.osexp","/Users/yen","no","Andale Mono","no","18","no","white","no","yes","576","legacy","9","9","3","/Users/yen/subject-5128481.csv","legacy","Lentiform Loewenfeld","3.3.7","yes","yes","600bd7cfb6416f0113b04181","602110864497cf011d9c0822","0","j","NA","space","space","space","NA","j","665","NA","9006","7998","3160","NA","665","2","legacy","1024","2","48000","-16","task","5128481","odd","NA","28888","39904","30897","65381","2261","13442","10271","65890","NA","65377","65890","65326","39904","66556","24954","64826","2213","60113","Lexical Decision Task","8","21641","14","yes","1024"
"2.980306438","0","7","slun","non-word","60","60","1500.5333333333333","1500.5333333333333","black","no","legacy","legacy","legacy","0","uniform","1","undefined","undefined","undefined","1","f","0","0","0","0","14","0","0","0","14","NA","10","14","10","0","10","3","14","0","14","Thu Feb 18 09:25:45 2021","The main experiment item","yes","Lexical_Decision_Task.osexp","/Users/yen","no","Andale Mono","no","18","no","white","no","yes","576","legacy","10","10","3","/Users/yen/subject-5128481.csv","legacy","Lentiform Loewenfeld","3.3.7","yes","yes","600bd7cfb6416f0113b04181","602110864497cf011d9c0822","0","f","NA","space","space","space","NA","f","867","NA","9006","7998","3160","NA","867","2","legacy","1024","2","48000","-16","task","5128481","odd","NA","28888","39904","30897","67114","2261","13442","10271","67622","NA","67110","67622","67060","39904","68490","24954","66560","2213","60113","Lexical Decision Task","9","22508","15","yes","1024"
"2.892836167","10.01","5","soft","word","62.5","62.5","1451.9375","1451.9375","black","no","legacy","legacy","legacy","0","uniform","1","undefined","undefined","undefined","1","j","0","0","0","0","15","0","0","0","15","NA","11","15","11","0","11","3","15","0","15","Thu Feb 18 09:25:45 2021","The main experiment item","yes","Lexical_Decision_Task.osexp","/Users/yen","no","Andale Mono","no","18","no","white","no","yes","576","legacy","11","11","3","/Users/yen/subject-5128481.csv","legacy","Lentiform Loewenfeld","3.3.7","yes","yes","600bd7cfb6416f0113b04181","602110864497cf011d9c0822","0","j","NA","space","space","space","NA","j","723","NA","9006","7998","3160","NA","723","2","legacy","1024","2","48000","-16","task","5128481","odd","NA","28888","39904","30897","69047","2261","13442","10271","69554","NA","69043","69554","68994","39904","70277","24954","68494","2213","60113","Lexical Decision Task","10","23231","16","yes","1024"
"2.794720352","0","9","koot","non-word","64.70588235294117","64.70588235294117","1410.9411764705883","1410.9411764705883","black","no","legacy","legacy","legacy","0","uniform","1","undefined","undefined","undefined","1","f","0","0","0","0","16","0","0","0","16","NA","12","16","12","0","12","3","16","0","16","Thu Feb 18 09:25:45 2021","The main experiment item","yes","Lexical_Decision_Task.osexp","/Users/yen","no","Andale Mono","no","18","no","white","no","yes","576","legacy","12","12","3","/Users/yen/subject-5128481.csv","legacy","Lentiform Loewenfeld","3.3.7","yes","yes","600bd7cfb6416f0113b04181","602110864497cf011d9c0822","0","f","NA","space","space","space","NA","f","755","NA","9006","7998","3160","NA","755","2","legacy","1024","2","48000","-16","task","5128481","odd","NA","28888","39904","30897","70840","2261","13442","10271","71347","NA","70835","71347","70781","39904","72103","24954","70281","2213","60113","Lexical Decision Task","11","23986","17","yes","1024"
"3.440331212","7.35","6","stew","word","66.66666666666667","66.66666666666667","1372.7777777777778","1372.7777777777778","black","no","legacy","legacy","legacy","0","uniform","1","undefined","undefined","undefined","1","j","0","0","0","0","17","0","0","0","17","NA","13","17","13","0","13","3","17","0","17","Thu Feb 18 09:25:45 2021","The main experiment item","yes","Lexical_Decision_Task.osexp","/Users/yen","no","Andale Mono","no","18","no","white","no","yes","576","legacy","13","13","3","/Users/yen/subject-5128481.csv","legacy","Lentiform Loewenfeld","3.3.7","yes","yes","600bd7cfb6416f0113b04181","602110864497cf011d9c0822","0","j","NA","space","space","space","NA","j","724","NA","9006","7998","3160","NA","724","2","legacy","1024","2","48000","-16","task","5128481","odd","NA","28888","39904","30897","72660","2261","13442","10271","73166","NA","72656","73167","72606","39904","73892","24954","72106","2213","60113","Lexical Decision Task","12","24710","18","yes","1024"
"3.066077331","0","7","vorn","non-word","68.42105263157895","68.42105263157895","1340.1052631578948","1340.1052631578948","black","no","legacy","legacy","legacy","0","uniform","1","undefined","undefined","undefined","1","f","0","0","0","0","18","0","0","0","18","NA","14","18","14","0","14","3","18","0","18","Thu Feb 18 09:25:45 2021","The main experiment item","yes","Lexical_Decision_Task.osexp","/Users/yen","no","Andale Mono","no","18","no","white","no","yes","576","legacy","14","14","3","/Users/yen/subject-5128481.csv","legacy","Lentiform Loewenfeld","3.3.7","yes","yes","600bd7cfb6416f0113b04181","602110864497cf011d9c0822","0","f","NA","space","space","space","NA","f","752","NA","9006","7998","3160","NA","752","2","legacy","1024","2","48000","-16","task","5128481","odd","NA","28888","39904","30897","74451","2261","13442","10271","74960","NA","74447","74960","74396","39904","75713","24954","73895","2213","60113","Lexical Decision Task","13","25462","19","yes","1024"
"3.174641193","0","3","ramb","non-word","70","70","1313.2","1313.2","black","no","legacy","legacy","legacy","0","uniform","1","undefined","undefined","undefined","1","f","0","0","0","0","19","0","0","0","19","NA","15","19","15","0","15","3","19","0","19","Thu Feb 18 09:25:45 2021","The main experiment item","yes","Lexical_Decision_Task.osexp","/Users/yen","no","Andale Mono","no","18","no","white","no","yes","576","legacy","15","15","3","/Users/yen/subject-5128481.csv","legacy","Lentiform Loewenfeld","3.3.7","yes","yes","600bd7cfb6416f0113b04181","602110864497cf011d9c0822","0","f","NA","space","space","space","NA","f","802","NA","9006","7998","3160","NA","802","2","legacy","1024","2","48000","-16","task","5128481","odd","NA","28888","39904","30897","76272","2261","13442","10271","76779","NA","76267","76779","76216","39904","77582","24954","75716","2213","60113","Lexical Decision Task","14","26264","20","yes","1024"
"3.132473155","0","4","glim","non-word","71.42857142857143","71.42857142857143","1284.142857142857","1284.142857142857","black","no","legacy","legacy","legacy","0","uniform","1","undefined","undefined","undefined","1","f","0","0","0","0","20","0","0","0","20","NA","16","20","16","0","16","3","20","0","20","Thu Feb 18 09:25:45 2021","The main experiment item","yes","Lexical_Decision_Task.osexp","/Users/yen","no","Andale Mono","no","18","no","white","no","yes","576","legacy","16","16","3","/Users/yen/subject-5128481.csv","legacy","Lentiform Loewenfeld","3.3.7","yes","yes","600bd7cfb6416f0113b04181","602110864497cf011d9c0822","0","f","NA","space","space","space","NA","f","703","NA","9006","7998","3160","NA","703","2","legacy","1024","2","48000","-16","task","5128481","odd","NA","28888","39904","30897","78136","2261","13442","10271","78643","NA","78132","78643","78086","39904","79347","24954","77586","2213","60113","Lexical Decision Task","15","26967","21","yes","1024"
"3.263399331","0","8","cour","non-word","72.72727272727273","72.72727272727273","1265.2727272727273","1265.2727272727273","black","no","legacy","legacy","legacy","0","uniform","1","undefined","undefined","undefined","1","f","0","0","0","0","21","0","0","0","21","NA","17","21","17","0","17","3","21","0","21","Thu Feb 18 09:25:45 2021","The main experiment item","yes","Lexical_Decision_Task.osexp","/Users/yen","no","Andale Mono","no","18","no","white","no","yes","576","legacy","17","17","3","/Users/yen/subject-5128481.csv","legacy","Lentiform Loewenfeld","3.3.7","yes","yes","600bd7cfb6416f0113b04181","602110864497cf011d9c0822","0","f","NA","space","space","space","NA","f","869","NA","9006","7998","3160","NA","869","2","legacy","1024","2","48000","-16","task","5128481","odd","NA","28888","39904","30897","79905","2261","13442","10271","80413","NA","79901","80413","79850","39904","81283","24954","79350","2213","60113","Lexical Decision Task","16","27836","22","yes","1024"
"2.8162413","0","5","nusk","non-word","73.91304347826087","73.91304347826087","1239.8695652173913","1239.8695652173913","black","no","legacy","legacy","legacy","0","uniform","1","undefined","undefined","undefined","1","f","0","0","0","0","22","0","0","0","22","NA","18","22","18","0","18","3","22","0","22","Thu Feb 18 09:25:45 2021","The main experiment item","yes","Lexical_Decision_Task.osexp","/Users/yen","no","Andale Mono","no","18","no","white","no","yes","576","legacy","18","18","3","/Users/yen/subject-5128481.csv","legacy","Lentiform Loewenfeld","3.3.7","yes","yes","600bd7cfb6416f0113b04181","602110864497cf011d9c0822","0","f","NA","space","space","space","NA","f","681","NA","9006","7998","3160","NA","681","2","legacy","1024","2","48000","-16","task","5128481","odd","NA","28888","39904","30897","81836","2261","13442","10271","82343","NA","81832","82344","81786","39904","83026","24954","81286","2213","60113","Lexical Decision Task","17","28517","23","yes","1024"
"3.276537627","9.15","5","trap","word","75","75","1219.5","1219.5","black","no","legacy","legacy","legacy","0","uniform","1","undefined","undefined","undefined","1","j","0","0","0","0","23","0","0","0","23","NA","19","23","19","0","19","3","23","0","23","Thu Feb 18 09:25:45 2021","The main experiment item","yes","Lexical_Decision_Task.osexp","/Users/yen","no","Andale Mono","no","18","no","white","no","yes","576","legacy","19","19","3","/Users/yen/subject-5128481.csv","legacy","Lentiform Loewenfeld","3.3.7","yes","yes","600bd7cfb6416f0113b04181","602110864497cf011d9c0822","0","j","NA","space","space","space","NA","j","751","NA","9006","7998","3160","NA","751","2","legacy","1024","2","48000","-16","task","5128481","odd","NA","28888","39904","30897","83590","2261","13442","10271","84097","NA","83579","84097","83529","39904","84848","24954","83029","2213","60113","Lexical Decision Task","18","29268","24","yes","1024"
"2.9737419","7.69","7","claw","word","76","76","1199.56","1199.56","black","no","legacy","legacy","legacy","0","uniform","1","undefined","undefined","undefined","1","j","0","0","0","0","24","0","0","0","24","NA","20","24","20","0","20","3","24","0","24","Thu Feb 18 09:25:45 2021","The main experiment item","yes","Lexical_Decision_Task.osexp","/Users/yen","no","Andale Mono","no","18","no","white","no","yes","576","legacy","20","20","3","/Users/yen/subject-5128481.csv","legacy","Lentiform Loewenfeld","3.3.7","yes","yes","600bd7cfb6416f0113b04181","602110864497cf011d9c0822","0","j","NA","space","space","space","NA","j","721","NA","9006","7998","3160","NA","721","2","legacy","1024","2","48000","-16","task","5128481","odd","NA","28888","39904","30897","85408","2261","13442","10271","85916","NA","85403","85916","85353","39904","86638","24954","84853","2213","60113","Lexical Decision Task","19","29989","25","yes","1024"
"3.363486562","6.93","9","lush","word","76.92307692307692","76.92307692307692","1178.1538461538462","1178.1538461538462","black","no","legacy","legacy","legacy","0","uniform","1","undefined","undefined","undefined","1","j","0","0","0","0","25","0","0","0","25","NA","21","25","21","0","21","3","25","0","25","Thu Feb 18 09:25:45 2021","The main experiment item","yes","Lexical_Decision_Task.osexp","/Users/yen","no","Andale Mono","no","18","no","white","no","yes","576","legacy","21","21","3","/Users/yen/subject-5128481.csv","legacy","Lentiform Loewenfeld","3.3.7","yes","yes","600bd7cfb6416f0113b04181","602110864497cf011d9c0822","0","j","NA","space","space","space","NA","j","643","NA","9006","7998","3160","NA","643","2","legacy","1024","2","48000","-16","task","5128481","odd","NA","28888","39904","30897","87195","2261","13442","10271","87702","NA","87191","87702","87141","39904","88345","24954","86641","2213","60113","Lexical Decision Task","20","30632","26","yes","1024"
"3.366547468","0","6","plat","non-word","77.77777777777777","77.77777777777777","1168.8148148148148","1168.8148148148148","black","no","legacy","legacy","legacy","0","uniform","1","undefined","undefined","undefined","1","f","0","0","0","0","26","0","0","0","26","NA","22","26","22","0","22","3","26","0","26","Thu Feb 18 09:25:45 2021","The main experiment item","yes","Lexical_Decision_Task.osexp","/Users/yen","no","Andale Mono","no","18","no","white","no","yes","576","legacy","22","22","3","/Users/yen/subject-5128481.csv","legacy","Lentiform Loewenfeld","3.3.7","yes","yes","600bd7cfb6416f0113b04181","602110864497cf011d9c0822","0","f","NA","space","space","space","NA","f","926","NA","9006","7998","3160","NA","926","2","legacy","1024","2","48000","-16","task","5128481","odd","NA","28888","39904","30897","88903","2261","13442","10271","89411","NA","88899","89411","88849","39904","90338","24954","88349","2213","60113","Lexical Decision Task","21","31558","27","yes","1024"
"3.159867847","5.98","5","brim","word","75","75","1153.7857142857142","1153.7857142857142","black","no","legacy","legacy","legacy","0","uniform","0","undefined","undefined","undefined","0","j","0","0","0","0","27","0","0","0","27","NA","23","27","23","0","23","3","27","0","27","Thu Feb 18 09:25:45 2021","The main experiment item","yes","Lexical_Decision_Task.osexp","/Users/yen","no","Andale Mono","no","18","no","white","no","yes","576","legacy","23","23","3","/Users/yen/subject-5128481.csv","legacy","Lentiform Loewenfeld","3.3.7","yes","yes","600bd7cfb6416f0113b04181","602110864497cf011d9c0822","0","f","NA","space","space","space","NA","f","748","NA","9006","7998","3160","NA","748","2","legacy","1024","2","48000","-16","task","5128481","odd","NA","28888","39904","30897","90894","2261","13442","10271","91402","NA","90890","91402","90841","39904","92150","24954","90341","2213","60113","Lexical Decision Task","21","32306","28","yes","1024"
"3.153001286","8.7","5","palm","word","75.86206896551724","75.86206896551724","1139.103448275862","1139.103448275862","black","no","legacy","legacy","legacy","0","uniform","1","undefined","undefined","undefined","1","j","0","0","0","0","28","0","0","0","28","NA","24","28","24","0","24","3","28","0","28","Thu Feb 18 09:25:45 2021","The main experiment item","yes","Lexical_Decision_Task.osexp","/Users/yen","no","Andale Mono","no","18","no","white","no","yes","576","legacy","24","24","3","/Users/yen/subject-5128481.csv","legacy","Lentiform Loewenfeld","3.3.7","yes","yes","600bd7cfb6416f0113b04181","602110864497cf011d9c0822","0","j","NA","space","space","space","NA","j","728","NA","9006","7998","3160","NA","728","2","legacy","1024","2","48000","-16","task","5128481","odd","NA","28888","39904","30897","93713","2261","13442","10271","94220","NA","93708","94221","93654","39904","94950","24954","90341","2213","92154","Lexical Decision Task","22","33034","29","yes","1024"
"2.983324025","9.56","2","debt","word","76.66666666666667","76.66666666666667","1122.6","1122.6","black","no","legacy","legacy","legacy","0","uniform","1","undefined","undefined","undefined","1","j","0","0","0","0","29","0","0","0","29","NA","25","29","25","0","25","3","29","0","29","Thu Feb 18 09:25:45 2021","The main experiment item","yes","Lexical_Decision_Task.osexp","/Users/yen","no","Andale Mono","no","18","no","white","no","yes","576","legacy","25","25","3","/Users/yen/subject-5128481.csv","legacy","Lentiform Loewenfeld","3.3.7","yes","yes","600bd7cfb6416f0113b04181","602110864497cf011d9c0822","0","j","NA","space","space","space","NA","j","644","NA","9006","7998","3160","NA","644","2","legacy","1024","2","48000","-16","task","5128481","odd","NA","28888","39904","30897","95508","2261","13442","10271","96015","NA","95504","96016","95454","39904","96661","24954","94954","2213","92154","Lexical Decision Task","23","33678","30","yes","1024"
"2.708989954","9.28","9","bowl","word","77.41935483870968","77.41935483870968","1108.9354838709678","1108.9354838709678","black","no","legacy","legacy","legacy","0","uniform","1","undefined","undefined","undefined","1","j","0","0","0","0","30","0","0","0","30","NA","26","30","26","0","26","3","30","0","30","Thu Feb 18 09:25:45 2021","The main experiment item","yes","Lexical_Decision_Task.osexp","/Users/yen","no","Andale Mono","no","18","no","white","no","yes","576","legacy","26","26","3","/Users/yen/subject-5128481.csv","legacy","Lentiform Loewenfeld","3.3.7","yes","yes","600bd7cfb6416f0113b04181","602110864497cf011d9c0822","0","j","NA","space","space","space","NA","j","699","NA","9006","7998","3160","NA","699","2","legacy","1024","2","48000","-16","task","5128481","odd","NA","28888","39904","30897","97219","2261","13442","10271","97727","NA","97215","97727","97165","39904","98426","24954","96665","2213","92154","Lexical Decision Task","24","34377","31","yes","1024"
"2.972357144","0","5","dasp","non-word","78.125","78.125","1104.96875","1104.96875","black","no","legacy","legacy","legacy","0","uniform","1","undefined","undefined","undefined","1","f","0","0","0","0","31","0","0","0","31","NA","27","31","27","0","27","3","31","0","31","Thu Feb 18 09:25:45 2021","The main experiment item","yes","Lexical_Decision_Task.osexp","/Users/yen","no","Andale Mono","no","18","no","white","no","yes","576","legacy","27","27","3","/Users/yen/subject-5128481.csv","legacy","Lentiform Loewenfeld","3.3.7","yes","yes","600bd7cfb6416f0113b04181","602110864497cf011d9c0822","0","f","NA","space","space","space","NA","f","982","NA","9006","7998","3160","NA","982","2","legacy","1024","2","48000","-16","task","5128481","odd","NA","28888","39904","30897","98983","2261","13442","10271","99491","NA","98979","99491","98930","39904","100474","24954","98430","2213","92154","Lexical Decision Task","25","35359","32","yes","1024"
"2.616654026","9.37","5","gift","word","78.78787878787878","78.78787878787878","1089.2424242424242","1089.2424242424242","black","no","legacy","legacy","legacy","0","uniform","1","undefined","undefined","undefined","1","j","0","0","0","0","32","0","0","0","32","NA","28","32","28","0","28","3","32","0","32","Thu Feb 18 09:25:45 2021","The main experiment item","yes","Lexical_Decision_Task.osexp","/Users/yen","no","Andale Mono","no","18","no","white","no","yes","576","legacy","28","28","3","/Users/yen/subject-5128481.csv","legacy","Lentiform Loewenfeld","3.3.7","yes","yes","600bd7cfb6416f0113b04181","602110864497cf011d9c0822","0","j","NA","space","space","space","NA","j","586","NA","9006","7998","3160","NA","586","2","legacy","1024","2","48000","-16","task","5128481","odd","NA","28888","39904","30897","101023","2261","13442","10271","101530","NA","101019","101530","100978","39904","102116","24954","100478","2213","92154","Lexical Decision Task","26","35945","33","yes","1024"
"3.105055783","0","2","norp","non-word","79.41176470588235","79.41176470588235","1079.1764705882354","1079.1764705882354","black","no","legacy","legacy","legacy","0","uniform","1","undefined","undefined","undefined","1","f","0","0","0","0","33","0","0","0","33","NA","29","33","29","0","29","3","33","0","33","Thu Feb 18 09:25:45 2021","The main experiment item","yes","Lexical_Decision_Task.osexp","/Users/yen","no","Andale Mono","no","18","no","white","no","yes","576","legacy","29","29","3","/Users/yen/subject-5128481.csv","legacy","Lentiform Loewenfeld","3.3.7","yes","yes","600bd7cfb6416f0113b04181","602110864497cf011d9c0822","0","f","NA","space","space","space","NA","f","747","NA","9006","7998","3160","NA","747","2","legacy","1024","2","48000","-16","task","5128481","odd","NA","28888","39904","30897","102672","2261","13442","10271","103180","NA","102668","103180","102620","39904","103928","24954","102120","2213","92154","Lexical Decision Task","27","36692","34","yes","1024"
"2.895974732","6.65","5","sift","word","77.14285714285714","77.14285714285714","1073.5142857142857","1073.5142857142857","black","no","legacy","legacy","legacy","0","uniform","0","undefined","undefined","undefined","0","j","0","0","0","0","34","0","0","0","34","NA","30","34","30","0","30","3","34","0","34","Thu Feb 18 09:25:45 2021","The main experiment item","yes","Lexical_Decision_Task.osexp","/Users/yen","no","Andale Mono","no","18","no","white","no","yes","576","legacy","30","30","3","/Users/yen/subject-5128481.csv","legacy","Lentiform Loewenfeld","3.3.7","yes","yes","600bd7cfb6416f0113b04181","602110864497cf011d9c0822","0","f","NA","space","space","space","NA","f","881","NA","9006","7998","3160","NA","881","2","legacy","1024","2","48000","-16","task","5128481","odd","NA","28888","39904","30897","104486","2261","13442","10271","104993","NA","104481","104993","104432","39904","105875","24954","103932","2213","92154","Lexical Decision Task","27","37573","35","yes","1024"
"2.813801082","5.47","7","nook","word","75","75","1069.361111111111","1069.361111111111","black","no","legacy","legacy","legacy","0","uniform","0","undefined","undefined","undefined","0","j","0","0","0","0","35","0","0","0","35","NA","31","35","31","0","31","3","35","0","35","Thu Feb 18 09:25:45 2021","The main experiment item","yes","Lexical_Decision_Task.osexp","/Users/yen","no","Andale Mono","no","18","no","white","no","yes","576","legacy","31","31","3","/Users/yen/subject-5128481.csv","legacy","Lentiform Loewenfeld","3.3.7","yes","yes","600bd7cfb6416f0113b04181","602110864497cf011d9c0822","0","f","NA","space","space","space","NA","f","924","NA","9006","7998","3160","NA","924","2","legacy","1024","2","48000","-16","task","5128481","odd","NA","28888","39904","30897","107435","2261","13442","10271","107942","NA","107431","107942","107378","39904","108867","24954","103932","2213","105878","Lexical Decision Task","27","38497","36","yes","1024"
"3.230789326","5.38","5","prim","word","72.97297297297297","72.97297297297297","1075.7837837837837","1075.7837837837837","black","no","legacy","legacy","legacy","0","uniform","0","undefined","undefined","undefined","0","j","0","0","0","0","36","0","0","0","36","NA","32","36","32","0","32","3","36","0","36","Thu Feb 18 09:25:45 2021","The main experiment item","yes","Lexical_Decision_Task.osexp","/Users/yen","no","Andale Mono","no","18","no","white","no","yes","576","legacy","32","32","3","/Users/yen/subject-5128481.csv","legacy","Lentiform Loewenfeld","3.3.7","yes","yes","600bd7cfb6416f0113b04181","602110864497cf011d9c0822","0","f","NA","space","space","space","NA","f","1307","NA","9006","7998","3160","NA","1307","2","legacy","1024","2","48000","-16","task","5128481","odd","NA","28888","39904","30897","110439","2261","13442","10271","110946","NA","110431","110946","110371","39904","112254","24954","103932","2213","108870","Lexical Decision Task","27","39804","37","yes","1024"
"3.378276681","6.39","8","bran","word","71.05263157894737","71.05263157894737","1081.7631578947369","1081.7631578947369","black","no","legacy","legacy","legacy","0","uniform","0","undefined","undefined","undefined","0","j","0","0","0","0","37","0","0","0","37","NA","33","37","33","0","33","3","37","0","37","Thu Feb 18 09:25:45 2021","The main experiment item","yes","Lexical_Decision_Task.osexp","/Users/yen","no","Andale Mono","no","18","no","white","no","yes","576","legacy","33","33","3","/Users/yen/subject-5128481.csv","legacy","Lentiform Loewenfeld","3.3.7","yes","yes","600bd7cfb6416f0113b04181","602110864497cf011d9c0822","0","f","NA","space","space","space","NA","f","1303","NA","9006","7998","3160","NA","1303","2","legacy","1024","2","48000","-16","task","5128481","odd","NA","28888","39904","30897","113818","2261","13442","10271","114325","NA","113813","114325","113757","39904","115629","24954","103932","2213","112257","Lexical Decision Task","27","41107","38","yes","1024"
"3.156347201","0","8","lasp","non-word","69.23076923076923","69.23076923076923","1089.7435897435898","1089.7435897435898","black","no","legacy","legacy","legacy","0","uniform","0","undefined","undefined","undefined","0","f","0","0","0","0","38","0","0","0","38","NA","34","38","34","0","34","3","38","0","38","Thu Feb 18 09:25:45 2021","The main experiment item","yes","Lexical_Decision_Task.osexp","/Users/yen","no","Andale Mono","no","18","no","white","no","yes","576","legacy","34","34","3","/Users/yen/subject-5128481.csv","legacy","Lentiform Loewenfeld","3.3.7","yes","yes","600bd7cfb6416f0113b04181","602110864497cf011d9c0822","0","j","NA","space","space","space","NA","j","1393","NA","9006","7998","3160","NA","1393","2","legacy","1024","2","48000","-16","task","5128481","odd","NA","28888","39904","30897","117193","2261","13442","10271","117700","NA","117188","117700","117132","39904","119094","24954","103932","2213","115632","Lexical Decision Task","27","42500","39","yes","1024"
"3.082307743","9.68","8","camp","word","70","70","1081.8","1081.8","black","no","legacy","legacy","legacy","0","uniform","1","undefined","undefined","undefined","1","j","0","0","0","0","39","0","0","0","39","NA","35","39","35","0","35","3","39","0","39","Thu Feb 18 09:25:45 2021","The main experiment item","yes","Lexical_Decision_Task.osexp","/Users/yen","no","Andale Mono","no","18","no","white","no","yes","576","legacy","35","35","3","/Users/yen/subject-5128481.csv","legacy","Lentiform Loewenfeld","3.3.7","yes","yes","600bd7cfb6416f0113b04181","602110864497cf011d9c0822","0","j","NA","space","space","space","NA","j","772","NA","9006","7998","3160","NA","772","2","legacy","1024","2","48000","-16","task","5128481","odd","NA","28888","39904","30897","120660","2261","13442","10271","121167","NA","120656","121167","120597","39904","121940","24954","103932","2213","119097","Lexical Decision Task","28","43272","40","yes","1024"
"3.149629599","0","2","cleb","non-word","70.73170731707317","70.73170731707317","1078","1078","black","no","legacy","legacy","legacy","0","uniform","1","undefined","undefined","undefined","1","f","0","0","0","0","40","0","0","0","40","NA","36","40","36","0","36","3","40","0","40","Thu Feb 18 09:25:45 2021","The main experiment item","yes","Lexical_Decision_Task.osexp","/Users/yen","no","Andale Mono","no","18","no","white","no","yes","576","legacy","36","36","3","/Users/yen/subject-5128481.csv","legacy","Lentiform Loewenfeld","3.3.7","yes","yes","600bd7cfb6416f0113b04181","602110864497cf011d9c0822","0","f","NA","space","space","space","NA","f","926","NA","9006","7998","3160","NA","926","2","legacy","1024","2","48000","-16","task","5128481","odd","NA","28888","39904","30897","122497","2261","13442","10271","123005","NA","122493","123005","122444","39904","123932","24954","121944","2213","119097","Lexical Decision Task","29","44198","41","yes","1024"
"3.481012421","8.34","5","teen","word","71.42857142857143","71.42857142857143","1069.595238095238","1069.595238095238","black","no","legacy","legacy","legacy","0","uniform","1","undefined","undefined","undefined","1","j","0","0","0","0","41","0","0","0","41","NA","37","41","37","0","37","3","41","0","41","Thu Feb 18 09:25:45 2021","The main experiment item","yes","Lexical_Decision_Task.osexp","/Users/yen","no","Andale Mono","no","18","no","white","no","yes","576","legacy","37","37","3","/Users/yen/subject-5128481.csv","legacy","Lentiform Loewenfeld","3.3.7","yes","yes","600bd7cfb6416f0113b04181","602110864497cf011d9c0822","0","j","NA","space","space","space","NA","j","725","NA","9006","7998","3160","NA","725","2","legacy","1024","2","48000","-16","task","5128481","odd","NA","28888","39904","30897","124488","2261","13442","10271","124994","NA","124484","124995","124435","39904","125721","24954","123935","2213","119097","Lexical Decision Task","30","44923","42","yes","1024"
"2.971428938","9.86","7","spot","word","72.09302325581395","72.09302325581395","1058.046511627907","1058.046511627907","black","no","legacy","legacy","legacy","0","uniform","1","undefined","undefined","undefined","1","j","0","0","0","0","42","0","0","0","42","NA","38","42","38","0","38","3","42","0","42","Thu Feb 18 09:25:45 2021","The main experiment item","yes","Lexical_Decision_Task.osexp","/Users/yen","no","Andale Mono","no","18","no","white","no","yes","576","legacy","38","38","3","/Users/yen/subject-5128481.csv","legacy","Lentiform Loewenfeld","3.3.7","yes","yes","600bd7cfb6416f0113b04181","602110864497cf011d9c0822","0","j","NA","space","space","space","NA","j","573","NA","9006","7998","3160","NA","573","2","legacy","1024","2","48000","-16","task","5128481","odd","NA","28888","39904","30897","126280","2261","13442","10271","126787","NA","126276","126788","126225","39904","127362","24954","125725","2213","119097","Lexical Decision Task","31","45496","43","yes","1024"
"3.274543461","7.46","7","scar","word","72.72727272727273","72.72727272727273","1048.1136363636363","1048.1136363636363","black","no","legacy","legacy","legacy","0","uniform","1","undefined","undefined","undefined","1","j","0","0","0","0","43","0","0","0","43","NA","39","43","39","0","39","3","43","0","43","Thu Feb 18 09:25:45 2021","The main experiment item","yes","Lexical_Decision_Task.osexp","/Users/yen","no","Andale Mono","no","18","no","white","no","yes","576","legacy","39","39","3","/Users/yen/subject-5128481.csv","legacy","Lentiform Loewenfeld","3.3.7","yes","yes","600bd7cfb6416f0113b04181","602110864497cf011d9c0822","0","j","NA","space","space","space","NA","j","621","NA","9006","7998","3160","NA","621","2","legacy","1024","2","48000","-16","task","5128481","odd","NA","28888","39904","30897","127919","2261","13442","10271","128426","NA","127915","128427","127865","39904","129049","24954","127365","2213","119097","Lexical Decision Task","32","46117","44","yes","1024"
"2.966923697","5.4","2","fume","word","73.33333333333333","73.33333333333333","1045.911111111111","1045.911111111111","black","no","legacy","legacy","legacy","0","uniform","1","undefined","undefined","undefined","1","j","0","0","0","0","44","0","0","0","44","NA","40","44","40","0","40","3","44","0","44","Thu Feb 18 09:25:45 2021","The main experiment item","yes","Lexical_Decision_Task.osexp","/Users/yen","no","Andale Mono","no","18","no","white","no","yes","576","legacy","40","40","3","/Users/yen/subject-5128481.csv","legacy","Lentiform Loewenfeld","3.3.7","yes","yes","600bd7cfb6416f0113b04181","602110864497cf011d9c0822","0","j","NA","space","space","space","NA","j","949","NA","9006","7998","3160","NA","949","2","legacy","1024","2","48000","-16","task","5128481","odd","NA","28888","39904","30897","129606","2261","13442","10271","130113","NA","129602","130114","129553","39904","131063","24954","129053","2213","119097","Lexical Decision Task","33","47066","45","yes","1024"
"2.746890964","9.67","3","plug","word","73.91304347826087","73.91304347826087","1036.1521739130435","1036.1521739130435","black","no","legacy","legacy","legacy","0","uniform","1","undefined","undefined","undefined","1","j","0","0","0","0","45","0","0","0","45","NA","41","45","41","0","41","3","45","0","45","Thu Feb 18 09:25:45 2021","The main experiment item","yes","Lexical_Decision_Task.osexp","/Users/yen","no","Andale Mono","no","18","no","white","no","yes","576","legacy","41","41","3","/Users/yen/subject-5128481.csv","legacy","Lentiform Loewenfeld","3.3.7","yes","yes","600bd7cfb6416f0113b04181","602110864497cf011d9c0822","0","j","NA","space","space","space","NA","j","597","NA","9006","7998","3160","NA","597","2","legacy","1024","2","48000","-16","task","5128481","odd","NA","28888","39904","30897","131622","2261","13442","10271","132130","NA","131618","132130","131568","39904","132728","24954","131068","2213","119097","Lexical Decision Task","34","47663","46","yes","1024"
"2.675164031","8.57","6","glue","word","74.46808510638297","74.46808510638297","1025.7021276595744","1025.7021276595744","black","no","legacy","legacy","legacy","0","uniform","1","undefined","undefined","undefined","1","j","0","0","0","0","46","0","0","0","46","NA","42","46","42","0","42","3","46","0","46","Thu Feb 18 09:25:45 2021","The main experiment item","yes","Lexical_Decision_Task.osexp","/Users/yen","no","Andale Mono","no","18","no","white","no","yes","576","legacy","42","42","3","/Users/yen/subject-5128481.csv","legacy","Lentiform Loewenfeld","3.3.7","yes","yes","600bd7cfb6416f0113b04181","602110864497cf011d9c0822","0","j","NA","space","space","space","NA","j","545","NA","9006","7998","3160","NA","545","2","legacy","1024","2","48000","-16","task","5128481","odd","NA","28888","39904","30897","133285","2261","13442","10271","133792","NA","133281","133792","133232","39904","134337","24954","132732","2213","119097","Lexical Decision Task","35","48208","47","yes","1024"
"3.100255637","0","6","brax","non-word","75","75","1017.0416666666666","1017.0416666666666","black","no","legacy","legacy","legacy","0","uniform","1","undefined","undefined","undefined","1","f","0","0","0","0","47","0","0","0","47","NA","43","47","43","0","43","3","47","0","47","Thu Feb 18 09:25:45 2021","The main experiment item","yes","Lexical_Decision_Task.osexp","/Users/yen","no","Andale Mono","no","18","no","white","no","yes","576","legacy","43","43","3","/Users/yen/subject-5128481.csv","legacy","Lentiform Loewenfeld","3.3.7","yes","yes","600bd7cfb6416f0113b04181","602110864497cf011d9c0822","0","f","NA","space","space","space","NA","f","610","NA","9006","7998","3160","NA","610","2","legacy","1024","2","48000","-16","task","5128481","odd","NA","28888","39904","30897","134895","2261","13442","10271","135403","NA","134891","135403","134841","39904","136014","24954","134341","2213","119097","Lexical Decision Task","36","48818","48","yes","1024"
"3.120135028","0","3","vals","non-word","73.46938775510205","73.46938775510205","1006.6530612244898","1006.6530612244898","black","no","legacy","legacy","legacy","0","uniform","0","undefined","undefined","undefined","0","f","0","0","0","0","48","0","0","0","48","NA","44","48","44","0","44","3","48","0","48","Thu Feb 18 09:25:45 2021","The main experiment item","yes","Lexical_Decision_Task.osexp","/Users/yen","no","Andale Mono","no","18","no","white","no","yes","576","legacy","44","44","3","/Users/yen/subject-5128481.csv","legacy","Lentiform Loewenfeld","3.3.7","yes","yes","600bd7cfb6416f0113b04181","602110864497cf011d9c0822","0","j","NA","space","space","space","NA","j","508","NA","9006","7998","3160","NA","508","2","legacy","1024","2","48000","-16","task","5128481","odd","NA","28888","39904","30897","136572","2261","13442","10271","137079","NA","136567","137079","136518","39904","137588","24954","136018","2213","119097","Lexical Decision Task","36","49326","49","yes","1024"
"3.067070856","9.39","3","loud","word","74","74","998.22","998.22","black","no","legacy","legacy","legacy","0","uniform","1","undefined","undefined","undefined","1","j","0","0","0","0","49","0","0","0","49","NA","45","49","45","0","45","3","49","0","49","Thu Feb 18 09:25:45 2021","The main experiment item","yes","Lexical_Decision_Task.osexp","/Users/yen","no","Andale Mono","no","18","no","white","no","yes","576","legacy","45","45","3","/Users/yen/subject-5128481.csv","legacy","Lentiform Loewenfeld","3.3.7","yes","yes","600bd7cfb6416f0113b04181","602110864497cf011d9c0822","0","j","NA","space","space","space","NA","j","585","NA","9006","7998","3160","NA","585","2","legacy","1024","2","48000","-16","task","5128481","odd","NA","28888","39904","30897","139151","2261","13442","10271","139658","NA","139146","139658","139091","39904","140244","24954","136018","2213","137591","Lexical Decision Task","37","49911","50","yes","1024"
"3.431095062","5.74","9","perk","word","74.50980392156863","74.50980392156863","990.1960784313726","990.1960784313726","black","no","legacy","legacy","legacy","0","uniform","1","undefined","undefined","undefined","1","j","0","0","0","0","50","0","0","0","50","NA","46","50","46","0","46","3","50","0","50","Thu Feb 18 09:25:45 2021","The main experiment item","yes","Lexical_Decision_Task.osexp","/Users/yen","no","Andale Mono","no","18","no","white","no","yes","576","legacy","46","46","3","/Users/yen/subject-5128481.csv","legacy","Lentiform Loewenfeld","3.3.7","yes","yes","600bd7cfb6416f0113b04181","602110864497cf011d9c0822","0","j","NA","space","space","space","NA","j","589","NA","9006","7998","3160","NA","589","2","legacy","1024","2","48000","-16","task","5128481","odd","NA","28888","39904","30897","140801","2261","13442","10271","141308","NA","140797","141308","140747","39904","141898","24954","140247","2213","137591","Lexical Decision Task","38","50500","51","yes","1024"
"2.68604012","0","3","mulb","non-word","75","75","982.0192307692307","982.0192307692307","black","no","legacy","legacy","legacy","0","uniform","1","undefined","undefined","undefined","1","f","0","0","0","0","51","0","0","0","51","NA","47","51","47","0","47","3","51","0","51","Thu Feb 18 09:25:45 2021","The main experiment item","yes","Lexical_Decision_Task.osexp","/Users/yen","no","Andale Mono","no","18","no","white","no","yes","576","legacy","47","47","3","/Users/yen/subject-5128481.csv","legacy","Lentiform Loewenfeld","3.3.7","yes","yes","600bd7cfb6416f0113b04181","602110864497cf011d9c0822","0","f","NA","space","space","space","NA","f","565","NA","9006","7998","3160","NA","565","2","legacy","1024","2","48000","-16","task","5128481","odd","NA","28888","39904","30897","142455","2261","13442","10271","142962","NA","142451","142963","142402","39904","143529","24954","141902","2213","137591","Lexical Decision Task","39","51065","52","yes","1024"
"2.809559715","8.44","4","volt","word","75.47169811320755","75.47169811320755","977.3584905660377","977.3584905660377","black","no","legacy","legacy","legacy","0","uniform","1","undefined","undefined","undefined","1","j","0","0","0","0","52","0","0","0","52","NA","48","52","48","0","48","3","52","0","52","Thu Feb 18 09:25:45 2021","The main experiment item","yes","Lexical_Decision_Task.osexp","/Users/yen","no","Andale Mono","no","18","no","white","no","yes","576","legacy","48","48","3","/Users/yen/subject-5128481.csv","legacy","Lentiform Loewenfeld","3.3.7","yes","yes","600bd7cfb6416f0113b04181","602110864497cf011d9c0822","0","j","NA","space","space","space","NA","j","735","NA","9006","7998","3160","NA","735","2","legacy","1024","2","48000","-16","task","5128481","odd","NA","28888","39904","30897","144086","2261","13442","10271","144593","NA","144082","144593","144032","39904","145328","24954","143532","2213","137591","Lexical Decision Task","40","51800","53","yes","1024"
"3.368162872","0","4","ferk","non-word","75.92592592592592","75.92592592592592","971.2407407407408","971.2407407407408","black","no","legacy","legacy","legacy","0","uniform","1","undefined","undefined","undefined","1","f","0","0","0","0","53","0","0","0","53","NA","49","53","49","0","49","3","53","0","53","Thu Feb 18 09:25:45 2021","The main experiment item","yes","Lexical_Decision_Task.osexp","/Users/yen","no","Andale Mono","no","18","no","white","no","yes","576","legacy","49","49","3","/Users/yen/subject-5128481.csv","legacy","Lentiform Loewenfeld","3.3.7","yes","yes","600bd7cfb6416f0113b04181","602110864497cf011d9c0822","0","f","NA","space","space","space","NA","f","647","NA","9006","7998","3160","NA","647","2","legacy","1024","2","48000","-16","task","5128481","odd","NA","28888","39904","30897","145885","2261","13442","10271","146392","NA","145881","146392","145832","39904","147040","24954","145332","2213","137591","Lexical Decision Task","41","52447","54","yes","1024"
"3.031408464","0","7","drow","non-word","74.54545454545455","74.54545454545455","968.7272727272727","968.7272727272727","black","no","legacy","legacy","legacy","0","uniform","0","undefined","undefined","undefined","0","f","0","0","0","0","54","0","0","0","54","0","50","54","50","0","50","3","54","0","54","Thu Feb 18 09:25:45 2021","The main experiment item","yes","Lexical_Decision_Task.osexp","/Users/yen","no","Andale Mono","no","18","no","white","no","yes","576","legacy","50","50","3","/Users/yen/subject-5128481.csv","legacy","Lentiform Loewenfeld","3.3.7","yes","yes","600bd7cfb6416f0113b04181","602110864497cf011d9c0822","0","j","NA","space","space","space","space","j","833","NA","9006","7998","3160","18859","833","2","legacy","1024","2","48000","-16","task","5128481","odd","NA","28888","39904","30897","166474","2261","13442","10271","166983","147585","166472","166983","147544","39904","167817","24954","147044","2213","137591","Lexical Decision Task","41","53280","55","yes","1024"
"3.29439347","8.6","9","wand","word","75","75","965.0535714285714","965.0535714285714","black","no","legacy","legacy","legacy","0","uniform","1","undefined","undefined","undefined","1","j","0","0","0","0","55","0","0","0","55","0","51","55","51","0","51","3","55","0","55","Thu Feb 18 09:25:45 2021","The main experiment item","yes","Lexical_Decision_Task.osexp","/Users/yen","no","Andale Mono","no","18","no","white","no","yes","576","legacy","51","51","3","/Users/yen/subject-5128481.csv","legacy","Lentiform Loewenfeld","3.3.7","yes","yes","600bd7cfb6416f0113b04181","602110864497cf011d9c0822","0","j","NA","space","space","space","space","j","763","NA","9006","7998","3160","18859","763","2","legacy","1024","2","48000","-16","task","5128481","odd","NA","28888","39904","30897","169380","2261","13442","10271","169888","147585","169376","169888","169321","39904","170652","24954","147044","2213","167820","Lexical Decision Task","42","54043","56","yes","1024"
"2.6599162","0","2","saff","non-word","75.43859649122807","75.43859649122807","961.8771929824561","961.8771929824561","black","no","legacy","legacy","legacy","0","uniform","1","undefined","undefined","undefined","1","f","0","0","0","0","56","0","0","0","56","0","52","56","52","0","52","3","56","0","56","Thu Feb 18 09:25:45 2021","The main experiment item","yes","Lexical_Decision_Task.osexp","/Users/yen","no","Andale Mono","no","18","no","white","no","yes","576","legacy","52","52","3","/Users/yen/subject-5128481.csv","legacy","Lentiform Loewenfeld","3.3.7","yes","yes","600bd7cfb6416f0113b04181","602110864497cf011d9c0822","0","f","NA","space","space","space","space","f","784","NA","9006","7998","3160","18859","784","2","legacy","1024","2","48000","-16","task","5128481","odd","NA","28888","39904","30897","171213","2261","13442","10271","171724","147585","171208","171724","171156","39904","172509","24954","170656","2213","167820","Lexical Decision Task","43","54827","57","yes","1024"
"2.920123326","7.43","4","duel","word","75.86206896551724","75.86206896551724","958.1551724137931","958.1551724137931","black","no","legacy","legacy","legacy","0","uniform","1","undefined","undefined","undefined","1","j","0","0","0","0","57","0","0","0","57","0","53","57","53","0","53","3","57","0","57","Thu Feb 18 09:25:45 2021","The main experiment item","yes","Lexical_Decision_Task.osexp","/Users/yen","no","Andale Mono","no","18","no","white","no","yes","576","legacy","53","53","3","/Users/yen/subject-5128481.csv","legacy","Lentiform Loewenfeld","3.3.7","yes","yes","600bd7cfb6416f0113b04181","602110864497cf011d9c0822","0","j","NA","space","space","space","space","j","746","NA","9006","7998","3160","18859","746","2","legacy","1024","2","48000","-16","task","5128481","odd","NA","28888","39904","30897","173066","2261","13442","10271","173574","147585","173062","173574","173013","39904","174321","24954","172513","2213","167820","Lexical Decision Task","44","55573","58","yes","1024"
"3.195807436","0","6","stup","non-word","76.27118644067797","76.27118644067797","954.5254237288135","954.5254237288135","black","no","legacy","legacy","legacy","0","uniform","1","undefined","undefined","undefined","1","f","0","0","0","0","58","0","0","0","58","0","54","58","54","0","54","3","58","0","58","Thu Feb 18 09:25:45 2021","The main experiment item","yes","Lexical_Decision_Task.osexp","/Users/yen","no","Andale Mono","no","18","no","white","no","yes","576","legacy","54","54","3","/Users/yen/subject-5128481.csv","legacy","Lentiform Loewenfeld","3.3.7","yes","yes","600bd7cfb6416f0113b04181","602110864497cf011d9c0822","0","f","NA","space","space","space","space","f","744","NA","9006","7998","3160","18859","744","2","legacy","1024","2","48000","-16","task","5128481","odd","NA","28888","39904","30897","174878","2261","13442","10271","175386","147585","174874","175387","174824","39904","176131","24954","174324","2213","167820","Lexical Decision Task","45","56317","59","yes","1024"
"2.706148589","0","4","hube","non-word","76.66666666666667","76.66666666666667","947.1","947.1","black","no","legacy","legacy","legacy","0","uniform","1","undefined","undefined","undefined","1","f","0","0","0","0","59","0","0","0","59","0","55","59","55","0","55","3","59","0","59","Thu Feb 18 09:25:45 2021","The main experiment item","yes","Lexical_Decision_Task.osexp","/Users/yen","no","Andale Mono","no","18","no","white","no","yes","576","legacy","55","55","3","/Users/yen/subject-5128481.csv","legacy","Lentiform Loewenfeld","3.3.7","yes","yes","600bd7cfb6416f0113b04181","602110864497cf011d9c0822","0","f","NA","space","space","space","space","f","509","NA","9006","7998","3160","18859","509","2","legacy","1024","2","48000","-16","task","5128481","odd","NA","28888","39904","30897","176690","2261","13442","10271","177198","147585","176686","177198","176635","39904","177708","24954","176135","2213","167820","Lexical Decision Task","46","56826","60","yes","1024"
"3.261341392","5.08","8","reek","word","75.40983606557377","75.40983606557377","942.4918032786885","942.4918032786885","black","no","legacy","legacy","legacy","0","uniform","0","undefined","undefined","undefined","0","j","0","0","0","0","60","0","0","0","60","0","56","60","56","0","56","3","60","0","60","Thu Feb 18 09:25:45 2021","The main experiment item","yes","Lexical_Decision_Task.osexp","/Users/yen","no","Andale Mono","no","18","no","white","no","yes","576","legacy","56","56","3","/Users/yen/subject-5128481.csv","legacy","Lentiform Loewenfeld","3.3.7","yes","yes","600bd7cfb6416f0113b04181","602110864497cf011d9c0822","0","f","NA","space","space","space","space","f","666","NA","9006","7998","3160","18859","666","2","legacy","1024","2","48000","-16","task","5128481","odd","NA","28888","39904","30897","178265","2261","13442","10271","178772","147585","178261","178772","178211","39904","179438","24954","177711","2213","167820","Lexical Decision Task","46","57492","61","yes","1024"
"3.274157849","0","8","leet","non-word","75.80645161290323","75.80645161290323","939.8548387096774","939.8548387096774","black","no","legacy","legacy","legacy","0","uniform","1","undefined","undefined","undefined","1","f","0","0","0","0","61","0","0","0","61","0","57","61","57","0","57","3","61","0","61","Thu Feb 18 09:25:45 2021","The main experiment item","yes","Lexical_Decision_Task.osexp","/Users/yen","no","Andale Mono","no","18","no","white","no","yes","576","legacy","57","57","3","/Users/yen/subject-5128481.csv","legacy","Lentiform Loewenfeld","3.3.7","yes","yes","600bd7cfb6416f0113b04181","602110864497cf011d9c0822","0","f","NA","space","space","space","space","f","779","NA","9006","7998","3160","18859","779","2","legacy","1024","2","48000","-16","task","5128481","odd","NA","28888","39904","30897","180999","2261","13442","10271","181506","147585","180995","181506","180942","39904","182286","24954","177711","2213","179442","Lexical Decision Task","47","58271","62","yes","1024"
"2.75025376","10.2","6","jump","word","76.19047619047619","76.19047619047619","933.3333333333334","933.3333333333334","black","no","legacy","legacy","legacy","0","uniform","1","undefined","undefined","undefined","1","j","0","0","0","0","62","0","0","0","62","0","58","62","58","0","58","3","62","0","62","Thu Feb 18 09:25:45 2021","The main experiment item","yes","Lexical_Decision_Task.osexp","/Users/yen","no","Andale Mono","no","18","no","white","no","yes","576","legacy","58","58","3","/Users/yen/subject-5128481.csv","legacy","Lentiform Loewenfeld","3.3.7","yes","yes","600bd7cfb6416f0113b04181","602110864497cf011d9c0822","0","j","NA","space","space","space","space","j","529","NA","9006","7998","3160","18859","529","2","legacy","1024","2","48000","-16","task","5128481","odd","NA","28888","39904","30897","182844","2261","13442","10271","183352","147585","182840","183352","182789","39904","183882","24954","182289","2213","179442","Lexical Decision Task","48","58800","63","yes","1024"
"2.952953801","0","8","clax","non-word","76.5625","76.5625","929.359375","929.359375","black","no","legacy","legacy","legacy","0","uniform","1","undefined","undefined","undefined","1","f","0","0","0","0","63","0","0","0","63","0","59","63","59","0","59","3","63","0","63","Thu Feb 18 09:25:45 2021","The main experiment item","yes","Lexical_Decision_Task.osexp","/Users/yen","no","Andale Mono","no","18","no","white","no","yes","576","legacy","59","59","3","/Users/yen/subject-5128481.csv","legacy","Lentiform Loewenfeld","3.3.7","yes","yes","600bd7cfb6416f0113b04181","602110864497cf011d9c0822","0","f","NA","space","space","space","space","f","679","NA","9006","7998","3160","18859","679","2","legacy","1024","2","48000","-16","task","5128481","odd","NA","28888","39904","30897","184440","2261","13442","10271","184947","147585","184436","184947","184386","39904","185626","24954","183886","2213","179442","Lexical Decision Task","49","59479","64","yes","1024"
"2.755364069","7.72","2","hoax","word","76.92307692307692","76.92307692307692","928.6","928.6","black","no","legacy","legacy","legacy","0","uniform","1","undefined","undefined","undefined","1","j","0","0","0","0","64","0","0","0","64","0","60","64","60","0","60","3","64","0","64","Thu Feb 18 09:25:45 2021","The main experiment item","yes","Lexical_Decision_Task.osexp","/Users/yen","no","Andale Mono","no","18","no","white","no","yes","576","legacy","60","60","3","/Users/yen/subject-5128481.csv","legacy","Lentiform Loewenfeld","3.3.7","yes","yes","600bd7cfb6416f0113b04181","602110864497cf011d9c0822","0","j","NA","space","space","space","space","j","880","NA","9006","7998","3160","18859","880","2","legacy","1024","2","48000","-16","task","5128481","odd","NA","28888","39904","30897","186185","2261","13442","10271","186692","147585","186181","186692","186130","39904","187573","24954","185630","2213","179442","Lexical Decision Task","50","60359","65","yes","1024"
"2.986323777","10.85","8","ship","word","77.27272727272727","77.27272727272727","923.6060606060606","923.6060606060606","black","no","legacy","legacy","legacy","0","uniform","1","undefined","undefined","undefined","1","j","0","0","0","0","65","0","0","0","65","0","61","65","61","0","61","3","65","0","65","Thu Feb 18 09:25:45 2021","The main experiment item","yes","Lexical_Decision_Task.osexp","/Users/yen","no","Andale Mono","no","18","no","white","no","yes","576","legacy","61","61","3","/Users/yen/subject-5128481.csv","legacy","Lentiform Loewenfeld","3.3.7","yes","yes","600bd7cfb6416f0113b04181","602110864497cf011d9c0822","0","j","NA","space","space","space","space","j","599","NA","9006","7998","3160","18859","599","2","legacy","1024","2","48000","-16","task","5128481","odd","NA","28888","39904","30897","188131","2261","13442","10271","188638","147585","188127","188638","188077","39904","189238","24954","187577","2213","179442","Lexical Decision Task","51","60958","66","yes","1024"
"3.15462682","0","6","noal","non-word","77.61194029850746","77.61194029850746","918.7313432835821","918.7313432835821","black","no","legacy","legacy","legacy","0","uniform","1","undefined","undefined","undefined","1","f","0","0","0","0","66","0","0","0","66","0","62","66","62","0","62","3","66","0","66","Thu Feb 18 09:25:45 2021","The main experiment item","yes","Lexical_Decision_Task.osexp","/Users/yen","no","Andale Mono","no","18","no","white","no","yes","576","legacy","62","62","3","/Users/yen/subject-5128481.csv","legacy","Lentiform Loewenfeld","3.3.7","yes","yes","600bd7cfb6416f0113b04181","602110864497cf011d9c0822","0","f","NA","space","space","space","space","f","597","NA","9006","7998","3160","18859","597","2","legacy","1024","2","48000","-16","task","5128481","odd","NA","28888","39904","30897","189797","2261","13442","10271","190305","147585","189793","190305","189742","39904","190903","24954","189241","2213","179442","Lexical Decision Task","52","61555","67","yes","1024"
"2.858136002","0","4","phip","non-word","76.47058823529412","76.47058823529412","912.8823529411765","912.8823529411765","black","no","legacy","legacy","legacy","0","uniform","0","undefined","undefined","undefined","0","f","0","0","0","0","67","0","0","0","67","0","63","67","63","0","63","3","67","0","67","Thu Feb 18 09:25:45 2021","The main experiment item","yes","Lexical_Decision_Task.osexp","/Users/yen","no","Andale Mono","no","18","no","white","no","yes","576","legacy","63","63","3","/Users/yen/subject-5128481.csv","legacy","Lentiform Loewenfeld","3.3.7","yes","yes","600bd7cfb6416f0113b04181","602110864497cf011d9c0822","0","j","NA","space","space","space","space","j","521","NA","9006","7998","3160","18859","521","2","legacy","1024","2","48000","-16","task","5128481","odd","NA","28888","39904","30897","191460","2261","13442","10271","191968","147585","191456","191968","191406","39904","192490","24954","190906","2213","179442","Lexical Decision Task","52","62076","68","yes","1024"
"2.937852093","0","7","bamp","non-word","76.81159420289855","76.81159420289855","917.7101449275362","917.7101449275362","black","no","legacy","legacy","legacy","0","uniform","1","undefined","undefined","undefined","1","f","0","0","0","0","68","0","0","0","68","0","64","68","64","0","64","3","68","0","68","Thu Feb 18 09:25:45 2021","The main experiment item","yes","Lexical_Decision_Task.osexp","/Users/yen","no","Andale Mono","no","18","no","white","no","yes","576","legacy","64","64","3","/Users/yen/subject-5128481.csv","legacy","Lentiform Loewenfeld","3.3.7","yes","yes","600bd7cfb6416f0113b04181","602110864497cf011d9c0822","0","f","NA","space","space","space","space","f","1246","NA","9006","7998","3160","18859","1246","2","legacy","1024","2","48000","-16","task","5128481","odd","NA","28888","39904","30897","194054","2261","13442","10271","194561","147585","194049","194561","193993","39904","195808","24954","190906","2213","192493","Lexical Decision Task","53","63322","69","yes","1024"
"2.80048796","0","8","pife","non-word","77.14285714285714","77.14285714285714","919.4571428571429","919.4571428571429","black","no","legacy","legacy","legacy","0","uniform","1","undefined","undefined","undefined","1","f","0","0","0","0","69","0","0","0","69","0","65","69","65","0","65","3","69","0","69","Thu Feb 18 09:25:45 2021","The main experiment item","yes","Lexical_Decision_Task.osexp","/Users/yen","no","Andale Mono","no","18","no","white","no","yes","576","legacy","65","65","3","/Users/yen/subject-5128481.csv","legacy","Lentiform Loewenfeld","3.3.7","yes","yes","600bd7cfb6416f0113b04181","602110864497cf011d9c0822","0","f","NA","space","space","space","space","f","1040","NA","9006","7998","3160","18859","1040","2","legacy","1024","2","48000","-16","task","5128481","odd","NA","28888","39904","30897","196365","2261","13442","10271","196872","147585","196361","196872","196312","39904","197913","24954","195812","2213","192493","Lexical Decision Task","54","64362","70","yes","1024"
"2.82129731","6.72","5","plum","word","77.46478873239437","77.46478873239437","914.9295774647887","914.9295774647887","black","no","legacy","legacy","legacy","0","uniform","1","undefined","undefined","undefined","1","j","0","0","0","0","70","0","0","0","70","0","66","70","66","0","66","3","70","0","70","Thu Feb 18 09:25:45 2021","The main experiment item","yes","Lexical_Decision_Task.osexp","/Users/yen","no","Andale Mono","no","18","no","white","no","yes","576","legacy","66","66","3","/Users/yen/subject-5128481.csv","legacy","Lentiform Loewenfeld","3.3.7","yes","yes","600bd7cfb6416f0113b04181","602110864497cf011d9c0822","0","j","NA","space","space","space","space","j","598","NA","9006","7998","3160","18859","598","2","legacy","1024","2","48000","-16","task","5128481","odd","NA","28888","39904","30897","198472","2261","13442","10271","198978","147585","198468","198978","198417","39904","199577","24954","197917","2213","192493","Lexical Decision Task","55","64960","71","yes","1024"
"2.782472624","10.55","2","huge","word","77.77777777777777","77.77777777777777","912.875","912.875","black","no","legacy","legacy","legacy","0","uniform","1","undefined","undefined","undefined","1","j","0","0","0","0","71","0","0","0","71","0","67","71","67","0","67","3","71","0","71","Thu Feb 18 09:25:45 2021","The main experiment item","yes","Lexical_Decision_Task.osexp","/Users/yen","no","Andale Mono","no","18","no","white","no","yes","576","legacy","67","67","3","/Users/yen/subject-5128481.csv","legacy","Lentiform Loewenfeld","3.3.7","yes","yes","600bd7cfb6416f0113b04181","602110864497cf011d9c0822","0","j","NA","space","space","space","space","j","767","NA","9006","7998","3160","18859","767","2","legacy","1024","2","48000","-16","task","5128481","odd","NA","28888","39904","30897","200136","2261","13442","10271","200644","147585","200132","200644","200080","39904","201412","24954","199580","2213","192493","Lexical Decision Task","56","65727","72","yes","1024"
"2.898725182","0","7","turl","non-word","76.71232876712328","76.71232876712328","917.5479452054794","917.5479452054794","black","no","legacy","legacy","legacy","0","uniform","0","undefined","undefined","undefined","0","f","0","0","0","0","72","0","0","0","72","0","68","72","68","0","68","3","72","0","72","Thu Feb 18 09:25:45 2021","The main experiment item","yes","Lexical_Decision_Task.osexp","/Users/yen","no","Andale Mono","no","18","no","white","no","yes","576","legacy","68","68","3","/Users/yen/subject-5128481.csv","legacy","Lentiform Loewenfeld","3.3.7","yes","yes","600bd7cfb6416f0113b04181","602110864497cf011d9c0822","0","j","NA","space","space","space","space","j","1254","NA","9006","7998","3160","18859","1254","2","legacy","1024","2","48000","-16","task","5128481","odd","NA","28888","39904","30897","201965","2261","13442","10271","202474","147585","201961","202474","201916","39904","203729","24954","201416","2213","192493","Lexical Decision Task","56","66981","73","yes","1024"
"3.062080345","0","6","tomp","non-word","77.02702702702703","77.02702702702703","915.0675675675676","915.0675675675676","black","no","legacy","legacy","legacy","0","uniform","1","undefined","undefined","undefined","1","f","0","0","0","0","73","0","0","0","73","0","69","73","69","0","69","3","73","0","73","Thu Feb 18 09:25:45 2021","The main experiment item","yes","Lexical_Decision_Task.osexp","/Users/yen","no","Andale Mono","no","18","no","white","no","yes","576","legacy","69","69","3","/Users/yen/subject-5128481.csv","legacy","Lentiform Loewenfeld","3.3.7","yes","yes","600bd7cfb6416f0113b04181","602110864497cf011d9c0822","0","f","NA","space","space","space","space","f","734","NA","9006","7998","3160","18859","734","2","legacy","1024","2","48000","-16","task","5128481","odd","NA","28888","39904","30897","205294","2261","13442","10271","205806","147585","205290","205806","205232","39904","206541","24954","201416","2213","203732","Lexical Decision Task","57","67715","74","yes","1024"
"2.778633532","0","3","jurp","non-word","77.33333333333333","77.33333333333333","911","911","black","no","legacy","legacy","legacy","0","uniform","1","undefined","undefined","undefined","1","f","0","0","0","0","74","0","0","0","74","0","70","74","70","0","70","3","74","0","74","Thu Feb 18 09:25:45 2021","The main experiment item","yes","Lexical_Decision_Task.osexp","/Users/yen","no","Andale Mono","no","18","no","white","no","yes","576","legacy","70","70","3","/Users/yen/subject-5128481.csv","legacy","Lentiform Loewenfeld","3.3.7","yes","yes","600bd7cfb6416f0113b04181","602110864497cf011d9c0822","0","f","NA","space","space","space","space","f","610","NA","9006","7998","3160","18859","610","2","legacy","1024","2","48000","-16","task","5128481","odd","NA","28888","39904","30897","207099","2261","13442","10271","207606","147585","207095","207606","207045","39904","208217","24954","206545","2213","203732","Lexical Decision Task","58","68325","75","yes","1024"
"3.134602053","0","8","jart","non-word","76.3157894736842","76.3157894736842","908.078947368421","908.078947368421","black","no","legacy","legacy","legacy","0","uniform","0","undefined","undefined","undefined","0","f","0","0","0","0","75","0","0","0","75","0","71","75","71","0","71","3","75","0","75","Thu Feb 18 09:25:45 2021","The main experiment item","yes","Lexical_Decision_Task.osexp","/Users/yen","no","Andale Mono","no","18","no","white","no","yes","576","legacy","71","71","3","/Users/yen/subject-5128481.csv","legacy","Lentiform Loewenfeld","3.3.7","yes","yes","600bd7cfb6416f0113b04181","602110864497cf011d9c0822","0","j","NA","space","space","space","space","j","689","NA","9006","7998","3160","18859","689","2","legacy","1024","2","48000","-16","task","5128481","odd","NA","28888","39904","30897","208775","2261","13442","10271","209283","147585","208771","209283","208721","39904","209973","24954","208221","2213","203732","Lexical Decision Task","58","69014","76","yes","1024"
"3.088136089","8.32","9","worm","word","76.62337662337663","76.62337662337663","904.7402597402597","904.7402597402597","black","no","legacy","legacy","legacy","0","uniform","1","undefined","undefined","undefined","1","j","0","0","0","0","76","0","0","0","76","0","72","76","72","0","72","3","76","0","76","Thu Feb 18 09:25:45 2021","The main experiment item","yes","Lexical_Decision_Task.osexp","/Users/yen","no","Andale Mono","no","18","no","white","no","yes","576","legacy","72","72","3","/Users/yen/subject-5128481.csv","legacy","Lentiform Loewenfeld","3.3.7","yes","yes","600bd7cfb6416f0113b04181","602110864497cf011d9c0822","0","j","NA","space","space","space","space","j","651","NA","9006","7998","3160","18859","651","2","legacy","1024","2","48000","-16","task","5128481","odd","NA","28888","39904","30897","211536","2261","13442","10271","212043","147585","211532","212043","211476","39904","212695","24954","208221","2213","209976","Lexical Decision Task","59","69665","77","yes","1024"
"2.990042563","6.64","9","plow","word","75.64102564102564","75.64102564102564","910.7564102564103","910.7564102564103","black","no","legacy","legacy","legacy","0","uniform","0","undefined","undefined","undefined","0","j","0","0","0","0","77","0","0","0","77","0","73","77","73","0","73","3","77","0","77","Thu Feb 18 09:25:45 2021","The main experiment item","yes","Lexical_Decision_Task.osexp","/Users/yen","no","Andale Mono","no","18","no","white","no","yes","576","legacy","73","73","3","/Users/yen/subject-5128481.csv","legacy","Lentiform Loewenfeld","3.3.7","yes","yes","600bd7cfb6416f0113b04181","602110864497cf011d9c0822","0","f","NA","space","space","space","space","f","1374","NA","9006","7998","3160","18859","1374","2","legacy","1024","2","48000","-16","task","5128481","odd","NA","28888","39904","30897","213253","2261","13442","10271","213761","147585","213249","213761","213199","39904","215136","24954","212699","2213","209976","Lexical Decision Task","59","71039","78","yes","1024"
"3.529815197","0","3","lerm","non-word","75.9493670886076","75.9493670886076","909.0506329113924","909.0506329113924","black","no","legacy","legacy","legacy","0","uniform","1","undefined","undefined","undefined","1","f","0","0","0","0","78","0","0","0","78","0","74","78","74","0","74","3","78","0","78","Thu Feb 18 09:25:45 2021","The main experiment item","yes","Lexical_Decision_Task.osexp","/Users/yen","no","Andale Mono","no","18","no","white","no","yes","576","legacy","74","74","3","/Users/yen/subject-5128481.csv","legacy","Lentiform Loewenfeld","3.3.7","yes","yes","600bd7cfb6416f0113b04181","602110864497cf011d9c0822","0","f","NA","space","space","space","space","f","776","NA","9006","7998","3160","18859","776","2","legacy","1024","2","48000","-16","task","5128481","odd","NA","28888","39904","30897","216699","2261","13442","10271","217206","147585","216695","217206","216640","39904","217983","24954","212699","2213","215140","Lexical Decision Task","60","71815","79","yes","1024"
"3.22685757","9.99","7","roll","word","76.25","76.25","906.3125","906.3125","black","no","legacy","legacy","legacy","0","uniform","1","undefined","undefined","undefined","1","j","0","0","0","0","79","0","0","0","79","0","75","79","75","0","75","3","79","0","79","Thu Feb 18 09:25:45 2021","The main experiment item","yes","Lexical_Decision_Task.osexp","/Users/yen","no","Andale Mono","no","18","no","white","no","yes","576","legacy","75","75","3","/Users/yen/subject-5128481.csv","legacy","Lentiform Loewenfeld","3.3.7","yes","yes","600bd7cfb6416f0113b04181","602110864497cf011d9c0822","0","j","NA","space","space","space","space","j","690","NA","9006","7998","3160","18859","690","2","legacy","1024","2","48000","-16","task","5128481","odd","NA","28888","39904","30897","218539","2261","13442","10271","219047","147585","218535","219047","218486","39904","219738","24954","217986","2213","215140","Lexical Decision Task","61","72505","80","yes","1024"
"3.20871002","7.15","8","cram","word","76.54320987654322","76.54320987654322","905.4444444444445","905.4444444444445","black","no","legacy","legacy","legacy","0","uniform","1","undefined","undefined","undefined","1","j","0","0","0","0","80","0","0","0","80","0","76","80","76","0","76","3","80","0","80","Thu Feb 18 09:25:45 2021","The main experiment item","yes","Lexical_Decision_Task.osexp","/Users/yen","no","Andale Mono","no","18","no","white","no","yes","576","legacy","76","76","3","/Users/yen/subject-5128481.csv","legacy","Lentiform Loewenfeld","3.3.7","yes","yes","600bd7cfb6416f0113b04181","602110864497cf011d9c0822","0","j","NA","space","space","space","space","j","836","NA","9006","7998","3160","18859","836","2","legacy","1024","2","48000","-16","task","5128481","odd","NA","28888","39904","30897","220297","2261","13442","10271","220803","147585","220293","220803","220242","39904","221640","24954","219741","2213","215140","Lexical Decision Task","62","73341","81","yes","1024"
"3.165936429","0","7","leps","non-word","76.82926829268293","76.82926829268293","908.8780487804878","908.8780487804878","black","no","legacy","legacy","legacy","0","uniform","1","undefined","undefined","undefined","1","f","0","0","0","0","81","0","0","0","81","0","77","81","77","0","77","3","81","0","81","Thu Feb 18 09:25:45 2021","The main experiment item","yes","Lexical_Decision_Task.osexp","/Users/yen","no","Andale Mono","no","18","no","white","no","yes","576","legacy","77","77","3","/Users/yen/subject-5128481.csv","legacy","Lentiform Loewenfeld","3.3.7","yes","yes","600bd7cfb6416f0113b04181","602110864497cf011d9c0822","0","f","NA","space","space","space","space","f","1187","NA","9006","7998","3160","18859","1187","2","legacy","1024","2","48000","-16","task","5128481","odd","NA","28888","39904","30897","222197","2261","13442","10271","222709","147585","222193","222710","222143","39904","223898","24954","221643","2213","215140","Lexical Decision Task","63","74528","82","yes","1024"
"3.133964479","0","8","graw","non-word","77.10843373493977","77.10843373493977","907.8795180722891","907.8795180722891","black","no","legacy","legacy","legacy","0","uniform","1","undefined","undefined","undefined","1","f","0","0","0","0","82","0","0","0","82","0","78","82","78","0","78","3","82","0","82","Thu Feb 18 09:25:45 2021","The main experiment item","yes","Lexical_Decision_Task.osexp","/Users/yen","no","Andale Mono","no","18","no","white","no","yes","576","legacy","78","78","3","/Users/yen/subject-5128481.csv","legacy","Lentiform Loewenfeld","3.3.7","yes","yes","600bd7cfb6416f0113b04181","602110864497cf011d9c0822","0","f","NA","space","space","space","space","f","826","NA","9006","7998","3160","18859","826","2","legacy","1024","2","48000","-16","task","5128481","odd","NA","28888","39904","30897","224456","2261","13442","10271","224963","147585","224452","224963","224401","39904","225790","24954","223901","2213","215140","Lexical Decision Task","64","75354","83","yes","1024"
"3.043885998","0","9","gome","non-word","77.38095238095238","77.38095238095238","904.7619047619048","904.7619047619048","black","no","legacy","legacy","legacy","0","uniform","1","undefined","undefined","undefined","1","f","0","0","0","0","83","0","0","0","83","0","79","83","79","0","79","3","83","0","83","Thu Feb 18 09:25:45 2021","The main experiment item","yes","Lexical_Decision_Task.osexp","/Users/yen","no","Andale Mono","no","18","no","white","no","yes","576","legacy","79","79","3","/Users/yen/subject-5128481.csv","legacy","Lentiform Loewenfeld","3.3.7","yes","yes","600bd7cfb6416f0113b04181","602110864497cf011d9c0822","0","f","NA","space","space","space","space","f","646","NA","9006","7998","3160","18859","646","2","legacy","1024","2","48000","-16","task","5128481","odd","NA","28888","39904","30897","226347","2261","13442","10271","226853","147585","226343","226853","226294","39904","227500","24954","225794","2213","215140","Lexical Decision Task","65","76000","84","yes","1024"
"3.028977705","0","7","frow","non-word","76.47058823529412","76.47058823529412","904.6117647058824","904.6117647058824","black","no","legacy","legacy","legacy","0","uniform","0","undefined","undefined","undefined","0","f","0","0","0","0","84","0","0","0","84","0","80","84","80","0","80","3","84","0","84","Thu Feb 18 09:25:45 2021","The main experiment item","yes","Lexical_Decision_Task.osexp","/Users/yen","no","Andale Mono","no","18","no","white","no","yes","576","legacy","80","80","3","/Users/yen/subject-5128481.csv","legacy","Lentiform Loewenfeld","3.3.7","yes","yes","600bd7cfb6416f0113b04181","602110864497cf011d9c0822","0","j","NA","space","space","space","space","j","892","NA","9006","7998","3160","18859","892","2","legacy","1024","2","48000","-16","task","5128481","odd","NA","28888","39904","30897","228057","2261","13442","10271","228565","147585","228053","228565","228004","39904","229458","24954","227504","2213","215140","Lexical Decision Task","65","76892","85","yes","1024"
"2.95456409","0","4","taud","non-word","76.74418604651163","76.74418604651163","906.3488372093024","906.3488372093024","black","no","legacy","legacy","legacy","0","uniform","1","undefined","undefined","undefined","1","f","0","0","0","0","85","0","0","0","85","0","81","85","81","0","81","3","85","0","85","Thu Feb 18 09:25:45 2021","The main experiment item","yes","Lexical_Decision_Task.osexp","/Users/yen","no","Andale Mono","no","18","no","white","no","yes","576","legacy","81","81","3","/Users/yen/subject-5128481.csv","legacy","Lentiform Loewenfeld","3.3.7","yes","yes","600bd7cfb6416f0113b04181","602110864497cf011d9c0822","0","f","NA","space","space","space","space","f","1054","NA","9006","7998","3160","18859","1054","2","legacy","1024","2","48000","-16","task","5128481","odd","NA","28888","39904","30897","231025","2261","13442","10271","231530","147585","231020","231530","230962","39904","232585","24954","227504","2213","229462","Lexical Decision Task","66","77946","86","yes","1024"
"3.299579929","0","2","flis","non-word","77.01149425287356","77.01149425287356","905.1379310344828","905.1379310344828","black","no","legacy","legacy","legacy","0","uniform","1","undefined","undefined","undefined","1","f","0","0","0","0","86","0","0","0","86","0","82","86","82","0","82","3","86","0","86","Thu Feb 18 09:25:45 2021","The main experiment item","yes","Lexical_Decision_Task.osexp","/Users/yen","no","Andale Mono","no","18","no","white","no","yes","576","legacy","82","82","3","/Users/yen/subject-5128481.csv","legacy","Lentiform Loewenfeld","3.3.7","yes","yes","600bd7cfb6416f0113b04181","602110864497cf011d9c0822","0","f","NA","space","space","space","space","f","801","NA","9006","7998","3160","18859","801","2","legacy","1024","2","48000","-16","task","5128481","odd","NA","28888","39904","30897","233143","2261","13442","10271","233651","147585","233138","233651","233089","39904","234453","24954","232589","2213","229462","Lexical Decision Task","67","78747","87","yes","1024"
"2.981215883","10.66","5","hair","word","77.27272727272727","77.27272727272727","902.6818181818181","902.6818181818181","black","no","legacy","legacy","legacy","0","uniform","1","undefined","undefined","undefined","1","j","0","0","0","0","87","0","0","0","87","0","83","87","83","0","83","3","87","0","87","Thu Feb 18 09:25:45 2021","The main experiment item","yes","Lexical_Decision_Task.osexp","/Users/yen","no","Andale Mono","no","18","no","white","no","yes","576","legacy","83","83","3","/Users/yen/subject-5128481.csv","legacy","Lentiform Loewenfeld","3.3.7","yes","yes","600bd7cfb6416f0113b04181","602110864497cf011d9c0822","0","j","NA","space","space","space","space","j","689","NA","9006","7998","3160","18859","689","2","legacy","1024","2","48000","-16","task","5128481","odd","NA","28888","39904","30897","235010","2261","13442","10271","235518","147585","235006","235518","234956","39904","236208","24954","234456","2213","229462","Lexical Decision Task","68","79436","88","yes","1024"
"3.068433376","8.09","2","bulb","word","77.52808988764045","77.52808988764045","901.6629213483146","901.6629213483146","black","no","legacy","legacy","legacy","0","uniform","1","undefined","undefined","undefined","1","j","0","0","0","0","88","0","0","0","88","0","84","88","84","0","84","3","88","0","88","Thu Feb 18 09:25:45 2021","The main experiment item","yes","Lexical_Decision_Task.osexp","/Users/yen","no","Andale Mono","no","18","no","white","no","yes","576","legacy","84","84","3","/Users/yen/subject-5128481.csv","legacy","Lentiform Loewenfeld","3.3.7","yes","yes","600bd7cfb6416f0113b04181","602110864497cf011d9c0822","0","j","NA","space","space","space","space","j","812","NA","9006","7998","3160","18859","812","2","legacy","1024","2","48000","-16","task","5128481","odd","NA","28888","39904","30897","236766","2261","13442","10271","237274","147585","236762","237274","236711","39904","238087","24954","236211","2213","229462","Lexical Decision Task","69","80248","89","yes","1024"
"3.252447662","9.67","9","boat","word","77.77777777777777","77.77777777777777","897.7777777777778","897.7777777777778","black","no","legacy","legacy","legacy","0","uniform","1","undefined","undefined","undefined","1","j","0","0","0","0","89","0","0","0","89","0","85","89","85","0","85","3","89","0","89","Thu Feb 18 09:25:45 2021","The main experiment item","yes","Lexical_Decision_Task.osexp","/Users/yen","no","Andale Mono","no","18","no","white","no","yes","576","legacy","85","85","3","/Users/yen/subject-5128481.csv","legacy","Lentiform Loewenfeld","3.3.7","yes","yes","600bd7cfb6416f0113b04181","602110864497cf011d9c0822","0","j","NA","space","space","space","space","j","552","NA","9006","7998","3160","18859","552","2","legacy","1024","2","48000","-16","task","5128481","odd","NA","28888","39904","30897","238647","2261","13442","10271","239154","147585","238642","239154","238590","39904","239707","24954","238090","2213","229462","Lexical Decision Task","70","80800","90","yes","1024"
"3.20996159","0","4","clee","non-word","78.02197802197803","78.02197802197803","894.7032967032967","894.7032967032967","black","no","legacy","legacy","legacy","0","uniform","1","undefined","undefined","undefined","1","f","0","0","0","0","90","0","0","0","90","0","86","90","86","0","86","3","90","0","90","Thu Feb 18 09:25:45 2021","The main experiment item","yes","Lexical_Decision_Task.osexp","/Users/yen","no","Andale Mono","no","18","no","white","no","yes","576","legacy","86","86","3","/Users/yen/subject-5128481.csv","legacy","Lentiform Loewenfeld","3.3.7","yes","yes","600bd7cfb6416f0113b04181","602110864497cf011d9c0822","0","f","NA","space","space","space","space","f","618","NA","9006","7998","3160","18859","618","2","legacy","1024","2","48000","-16","task","5128481","odd","NA","28888","39904","30897","240256","2261","13442","10271","240764","147585","240252","240764","240210","39904","241383","24954","239710","2213","229462","Lexical Decision Task","71","81418","91","yes","1024"
"3.102203805","7.21","3","drip","word","78.26086956521739","78.26086956521739","890.9021739130435","890.9021739130435","black","no","legacy","legacy","legacy","0","uniform","1","undefined","undefined","undefined","1","j","0","0","0","0","91","0","0","0","91","0","87","91","87","0","87","3","91","0","91","Thu Feb 18 09:25:45 2021","The main experiment item","yes","Lexical_Decision_Task.osexp","/Users/yen","no","Andale Mono","no","18","no","white","no","yes","576","legacy","87","87","3","/Users/yen/subject-5128481.csv","legacy","Lentiform Loewenfeld","3.3.7","yes","yes","600bd7cfb6416f0113b04181","602110864497cf011d9c0822","0","j","NA","space","space","space","space","j","545","NA","9006","7998","3160","18859","545","2","legacy","1024","2","48000","-16","task","5128481","odd","NA","28888","39904","30897","241939","2261","13442","10271","242446","147585","241935","242446","241886","39904","242992","24954","241386","2213","229462","Lexical Decision Task","72","81963","92","yes","1024"
"3.492014979","0","9","yine","non-word","78.49462365591398","78.49462365591398","887.2688172043011","887.2688172043011","black","no","legacy","legacy","legacy","0","uniform","1","undefined","undefined","undefined","1","f","0","0","0","0","92","0","0","0","92","0","88","92","88","0","88","3","92","0","92","Thu Feb 18 09:25:45 2021","The main experiment item","yes","Lexical_Decision_Task.osexp","/Users/yen","no","Andale Mono","no","18","no","white","no","yes","576","legacy","88","88","3","/Users/yen/subject-5128481.csv","legacy","Lentiform Loewenfeld","3.3.7","yes","yes","600bd7cfb6416f0113b04181","602110864497cf011d9c0822","0","f","NA","space","space","space","space","f","553","NA","9006","7998","3160","18859","553","2","legacy","1024","2","48000","-16","task","5128481","odd","NA","28888","39904","30897","243551","2261","13442","10271","244058","147585","243546","244058","243496","39904","244612","24954","242996","2213","229462","Lexical Decision Task","73","82516","93","yes","1024"
"2.67699827","0","6","hulf","non-word","78.72340425531915","78.72340425531915","885.9893617021277","885.9893617021277","black","no","legacy","legacy","legacy","0","uniform","1","undefined","undefined","undefined","1","f","0","0","0","0","93","0","0","0","93","0","89","93","89","0","89","3","93","0","93","Thu Feb 18 09:25:45 2021","The main experiment item","yes","Lexical_Decision_Task.osexp","/Users/yen","no","Andale Mono","no","18","no","white","no","yes","576","legacy","89","89","3","/Users/yen/subject-5128481.csv","legacy","Lentiform Loewenfeld","3.3.7","yes","yes","600bd7cfb6416f0113b04181","602110864497cf011d9c0822","0","f","NA","space","space","space","space","f","767","NA","9006","7998","3160","18859","767","2","legacy","1024","2","48000","-16","task","5128481","odd","NA","28888","39904","30897","245169","2261","13442","10271","245676","147585","245165","245677","245115","39904","246445","24954","244615","2213","229462","Lexical Decision Task","74","83283","94","yes","1024"
"2.924968096","0","4","phim","non-word","78.94736842105263","78.94736842105263","884.8421052631579","884.8421052631579","black","no","legacy","legacy","legacy","0","uniform","1","undefined","undefined","undefined","1","f","0","0","0","0","94","0","0","0","94","0","90","94","90","0","90","3","94","0","94","Thu Feb 18 09:25:45 2021","The main experiment item","yes","Lexical_Decision_Task.osexp","/Users/yen","no","Andale Mono","no","18","no","white","no","yes","576","legacy","90","90","3","/Users/yen/subject-5128481.csv","legacy","Lentiform Loewenfeld","3.3.7","yes","yes","600bd7cfb6416f0113b04181","602110864497cf011d9c0822","0","f","NA","space","space","space","space","f","777","NA","9006","7998","3160","18859","777","2","legacy","1024","2","48000","-16","task","5128481","odd","NA","28888","39904","30897","247004","2261","13442","10271","247512","147585","247000","247512","246949","39904","248290","24954","246449","2213","229462","Lexical Decision Task","75","84060","95","yes","1024"
"3.121778632","0","9","sark","non-word","79.16666666666667","79.16666666666667","882.0833333333334","882.0833333333334","black","no","legacy","legacy","legacy","0","uniform","1","undefined","undefined","undefined","1","f","0","0","0","0","95","0","0","0","95","0","91","95","91","0","91","3","95","0","95","Thu Feb 18 09:25:45 2021","The main experiment item","yes","Lexical_Decision_Task.osexp","/Users/yen","no","Andale Mono","no","18","no","white","no","yes","576","legacy","91","91","3","/Users/yen/subject-5128481.csv","legacy","Lentiform Loewenfeld","3.3.7","yes","yes","600bd7cfb6416f0113b04181","602110864497cf011d9c0822","0","f","NA","space","space","space","space","f","620","NA","9006","7998","3160","18859","620","2","legacy","1024","2","48000","-16","task","5128481","odd","NA","28888","39904","30897","248848","2261","13442","10271","249355","147585","248844","249356","248794","39904","249976","24954","248294","2213","229462","Lexical Decision Task","76","84680","96","yes","1024"
"2.875447132","0","9","jelt","non-word","79.38144329896907","79.38144329896907","878.4845360824743","878.4845360824743","black","no","legacy","legacy","legacy","0","uniform","1","undefined","undefined","undefined","1","f","0","0","0","0","96","0","0","0","96","0","92","96","92","0","92","3","96","0","96","Thu Feb 18 09:25:45 2021","The main experiment item","yes","Lexical_Decision_Task.osexp","/Users/yen","no","Andale Mono","no","18","no","white","no","yes","576","legacy","92","92","3","/Users/yen/subject-5128481.csv","legacy","Lentiform Loewenfeld","3.3.7","yes","yes","600bd7cfb6416f0113b04181","602110864497cf011d9c0822","0","f","NA","space","space","space","space","f","533","NA","9006","7998","3160","18859","533","2","legacy","1024","2","48000","-16","task","5128481","odd","NA","28888","39904","30897","250533","2261","13442","10271","251042","147585","250529","251042","250480","39904","251576","24954","249980","2213","229462","Lexical Decision Task","77","85213","97","yes","1024"
"3.16326079","0","5","parg","non-word","79.59183673469387","79.59183673469387","874.6938775510204","874.6938775510204","black","no","legacy","legacy","legacy","0","uniform","1","undefined","undefined","undefined","1","f","0","0","0","0","97","0","0","0","97","0","93","97","93","0","93","3","97","0","97","Thu Feb 18 09:25:45 2021","The main experiment item","yes","Lexical_Decision_Task.osexp","/Users/yen","no","Andale Mono","no","18","no","white","no","yes","576","legacy","93","93","3","/Users/yen/subject-5128481.csv","legacy","Lentiform Loewenfeld","3.3.7","yes","yes","600bd7cfb6416f0113b04181","602110864497cf011d9c0822","0","f","NA","space","space","space","space","f","507","NA","9006","7998","3160","18859","507","2","legacy","1024","2","48000","-16","task","5128481","odd","NA","28888","39904","30897","252134","2261","13442","10271","252641","147585","252130","252642","252080","39904","253150","24954","251580","2213","229462","Lexical Decision Task","78","85720","98","yes","1024"
"2.799799878","0","4","ciff","non-word","79.79797979797979","79.79797979797979","870.7474747474747","870.7474747474747","black","no","legacy","legacy","legacy","0","uniform","1","undefined","undefined","undefined","1","f","0","0","0","0","98","0","0","0","98","0","94","98","94","0","94","3","98","0","98","Thu Feb 18 09:25:45 2021","The main experiment item","yes","Lexical_Decision_Task.osexp","/Users/yen","no","Andale Mono","no","18","no","white","no","yes","576","legacy","94","94","3","/Users/yen/subject-5128481.csv","legacy","Lentiform Loewenfeld","3.3.7","yes","yes","600bd7cfb6416f0113b04181","602110864497cf011d9c0822","0","f","NA","space","space","space","space","f","484","NA","9006","7998","3160","18859","484","2","legacy","1024","2","48000","-16","task","5128481","odd","NA","28888","39904","30897","253707","2261","13442","10271","254214","147585","253703","254214","253654","39904","254699","24954","253154","2213","229462","Lexical Decision Task","79","86204","99","yes","1024"
"2.664011697","8.19","4","hawk","word","80","80","868.53","868.53","black","no","legacy","legacy","legacy","0","uniform","1","undefined","undefined","undefined","1","j","0","0","0","0","99","0","0","0","99","0","95","99","95","0","95","3","99","0","99","Thu Feb 18 09:25:45 2021","The main experiment item","yes","Lexical_Decision_Task.osexp","/Users/yen","no","Andale Mono","no","18","no","white","no","yes","576","legacy","95","95","3","/Users/yen/subject-5128481.csv","legacy","Lentiform Loewenfeld","3.3.7","yes","yes","600bd7cfb6416f0113b04181","602110864497cf011d9c0822","0","j","NA","space","space","space","space","j","649","NA","9006","7998","3160","18859","649","2","legacy","1024","2","48000","-16","task","5128481","odd","NA","28888","39904","30897","255256","2261","13442","10271","255763","147585","255251","255763","255202","39904","256413","24954","254702","2213","229462","Lexical Decision Task","80","86853","100","yes","1024"
"2.980911938","7.15","7","hoop","word","80.1980198019802","80.1980198019802","866.8019801980198","866.8019801980198","black","no","legacy","legacy","legacy","0","uniform","1","undefined","undefined","undefined","1","j","0","0","0","0","100","0","0","0","100","0","96","100","96","0","96","3","100","0","100","Thu Feb 18 09:25:45 2021","The main experiment item","yes","Lexical_Decision_Task.osexp","/Users/yen","no","Andale Mono","no","18","no","white","no","yes","576","legacy","96","96","3","/Users/yen/subject-5128481.csv","legacy","Lentiform Loewenfeld","3.3.7","yes","yes","600bd7cfb6416f0113b04181","602110864497cf011d9c0822","0","j","NA","space","space","space","space","j","694","NA","9006","7998","3160","18859","694","2","legacy","1024","2","48000","-16","task","5128481","odd","NA","28888","39904","30897","256966","2261","13442","10271","257473","147585","256963","257474","256917","39904","258169","24954","256417","2213","229462","Lexical Decision Task","81","87547","101","yes","1024"
"3.372543801","9.24","8","coat","word","80.3921568627451","80.3921568627451","863.2745098039215","863.2745098039215","black","no","legacy","legacy","legacy","0","uniform","1","undefined","undefined","undefined","1","j","0","0","0","0","101","0","0","0","101","0","97","101","97","0","97","3","101","0","101","Thu Feb 18 09:25:45 2021","The main experiment item","yes","Lexical_Decision_Task.osexp","/Users/yen","no","Andale Mono","no","18","no","white","no","yes","576","legacy","97","97","3","/Users/yen/subject-5128481.csv","legacy","Lentiform Loewenfeld","3.3.7","yes","yes","600bd7cfb6416f0113b04181","602110864497cf011d9c0822","0","j","NA","space","space","space","space","j","507","NA","9006","7998","3160","18859","507","2","legacy","1024","2","48000","-16","task","5128481","odd","NA","28888","39904","30897","258727","2261","13442","10271","259234","147585","258723","259235","258673","39904","259743","24954","258173","2213","229462","Lexical Decision Task","82","88054","102","yes","1024"
"3.076883066","0","8","mout","non-word","79.6116504854369","79.6116504854369","864.0194174757281","864.0194174757281","black","no","legacy","legacy","legacy","0","uniform","0","undefined","undefined","undefined","0","f","0","0","0","0","102","0","0","0","102","0","98","102","98","0","98","3","102","0","102","Thu Feb 18 09:25:45 2021","The main experiment item","yes","Lexical_Decision_Task.osexp","/Users/yen","no","Andale Mono","no","18","no","white","no","yes","576","legacy","98","98","3","/Users/yen/subject-5128481.csv","legacy","Lentiform Loewenfeld","3.3.7","yes","yes","600bd7cfb6416f0113b04181","602110864497cf011d9c0822","0","j","NA","space","space","space","space","j","940","NA","9006","7998","3160","18859","940","2","legacy","1024","2","48000","-16","task","5128481","odd","NA","28888","39904","30897","260299","2261","13442","10271","260806","147585","260295","260807","260246","39904","261748","24954","259746","2213","229462","Lexical Decision Task","82","88994","103","yes","1024"
