"Log_BG","Log_Freq_HAL","Ortho_N","Stimulus","Type","acc","accuracy","average_response_time","avg_rt","background","bidi","canvas_backend","clock_backend","color_backend","compensation","coordinates","correct","correct_Experimental_intro","correct_Introduction","correct_Practice_intro","correct_experimenter_kb","correct_response","count_End_Of_Experiment","count_End_Of_Practice","count_Experimental_Loop","count_Experimental_intro","count_Fixation","count_Introduction","count_Practice_Loop","count_Practice_intro","count_Stimulus","count_block_break_feedback","count_experimental_sequence","count_experimenter_kb","count_increment_trial_count","count_init_trial_count","count_logger","count_practice_sequence","count_right","count_task","count_wrong","datetime","description","disable_garbage_collection","experiment_file","experiment_path","font_bold","font_family","font_italic","font_size","font_underline","foreground","form_clicks","fullscreen","height","keyboard_backend","live_row","live_row_Experimental_Loop","live_row_Practice_Loop","logfile","mouse_backend","opensesame_codename","opensesame_version","osf_always_upload_data","osf_always_upload_experiment","osf_datanode_id","osf_id","repeat_cycle","response","response_End_Of_Experiment","response_Experimental_intro","response_Introduction","response_Practice_intro","response_block_break_feedback","response_experimenter_kb","response_time","response_time_End_Of_Experiment","response_time_Experimental_intro","response_time_Introduction","response_time_Practice_intro","response_time_block_break_feedback","response_time_experimenter_kb","round_decimals","sampler_backend","sound_buf_size","sound_channels","sound_freq","sound_sample_size","start","subject_nr","subject_parity","time_End_Of_Experiment","time_End_Of_Practice","time_Experimental_Loop","time_Experimental_intro","time_Fixation","time_Introduction","time_Practice_Loop","time_Practice_intro","time_Stimulus","time_block_break_feedback","time_experimental_sequence","time_experimenter_kb","time_increment_trial_count","time_init_trial_count","time_logger","time_practice_sequence","time_right","time_task","time_wrong","title","total_correct","total_response_time","total_responses","uniform_coordinates","width"
"3.299579929","0","2","flis","non-word","80","80","1198","1198","black","no","legacy","legacy","legacy","0","uniform","1","undefined","undefined","undefined","1","f","0","0","0","0","4","0","0","0","4","NA","0","4","0","0","0","3","4","0","4","Thu Feb 25 14:47:02 2021","The main experiment item","yes","Lexical_Decision_Task.osexp","C:/Users/gluza/OneDrive/Desktop","no","Andale Mono","no","18","no","white","no","yes","576","legacy","0","0","3","C:/Users/gluza/OneDrive/Desktop/subject-5126117.csv","legacy","Lentiform Loewenfeld","3.3.7","yes","yes","600bd7cfb6416f0113b04181","602110864497cf011d9c0822","0","f","NA","space","space","space","NA","f","799","NA","3572","14266","3138","NA","799","2","legacy","1024","2","48000","-16","task","5126117","odd","NA","33665","39241","35668","39337","5498","22907","19767","39840","NA","39336","39840","NA","39241","40640","31944","33123","5484","26598","Lexical Decision Task","4","5990","5","yes","1024"
"3.347850856","10.51","2","rich","word","83.33333333333333","83.33333333333333","1081.1666666666667","1081.1666666666667","black","no","legacy","legacy","legacy","0","uniform","1","undefined","undefined","undefined","1","j","0","0","0","0","5","0","0","0","5","NA","1","5","1","0","1","3","5","0","5","Thu Feb 25 14:47:02 2021","The main experiment item","yes","Lexical_Decision_Task.osexp","C:/Users/gluza/OneDrive/Desktop","no","Andale Mono","no","18","no","white","no","yes","576","legacy","1","1","3","C:/Users/gluza/OneDrive/Desktop/subject-5126117.csv","legacy","Lentiform Loewenfeld","3.3.7","yes","yes","600bd7cfb6416f0113b04181","602110864497cf011d9c0822","0","j","NA","space","space","space","NA","j","497","NA","3572","14266","3138","NA","497","2","legacy","1024","2","48000","-16","task","5126117","odd","NA","33665","39241","35668","41310","5498","22907","19767","41813","NA","41307","41813","41147","39241","42312","31944","40647","5484","26598","Lexical Decision Task","5","6487","6","yes","1024"
"2.728085817","10.02","9","bike","word","85.71428571428571","85.71428571428571","998.8571428571429","998.8571428571429","black","no","legacy","legacy","legacy","0","uniform","1","undefined","undefined","undefined","1","j","0","0","0","0","6","0","0","0","6","NA","2","6","2","0","2","3","6","0","6","Thu Feb 25 14:47:02 2021","The main experiment item","yes","Lexical_Decision_Task.osexp","C:/Users/gluza/OneDrive/Desktop","no","Andale Mono","no","18","no","white","no","yes","576","legacy","2","2","3","C:/Users/gluza/OneDrive/Desktop/subject-5126117.csv","legacy","Lentiform Loewenfeld","3.3.7","yes","yes","600bd7cfb6416f0113b04181","602110864497cf011d9c0822","0","j","NA","space","space","space","NA","j","505","NA","3572","14266","3138","NA","505","2","legacy","1024","2","48000","-16","task","5126117","odd","NA","33665","39241","35668","42926","5498","22907","19767","43429","NA","42924","43430","42821","39241","43938","31944","42321","5484","26598","Lexical Decision Task","6","6992","7","yes","1024"
"2.873320602","0","4","lurg","non-word","87.5","87.5","963.25","963.25","black","no","legacy","legacy","legacy","0","uniform","1","undefined","undefined","undefined","1","f","0","0","0","0","7","0","0","0","7","NA","3","7","3","0","3","3","7","0","7","Thu Feb 25 14:47:02 2021","The main experiment item","yes","Lexical_Decision_Task.osexp","C:/Users/gluza/OneDrive/Desktop","no","Andale Mono","no","18","no","white","no","yes","576","legacy","3","3","3","C:/Users/gluza/OneDrive/Desktop/subject-5126117.csv","legacy","Lentiform Loewenfeld","3.3.7","yes","yes","600bd7cfb6416f0113b04181","602110864497cf011d9c0822","0","f","NA","space","space","space","NA","f","714","NA","3572","14266","3138","NA","714","2","legacy","1024","2","48000","-16","task","5126117","odd","NA","33665","39241","35668","44542","5498","22907","19767","45045","NA","44540","45045","44444","39241","45763","31944","43944","5484","26598","Lexical Decision Task","7","7706","8","yes","1024"
"2.839268497","0","8","maft","non-word","88.88888888888889","88.88888888888889","921","921","black","no","legacy","legacy","legacy","0","uniform","1","undefined","undefined","undefined","1","f","0","0","0","0","8","0","0","0","8","NA","4","8","4","0","4","3","8","0","8","Thu Feb 25 14:47:02 2021","The main experiment item","yes","Lexical_Decision_Task.osexp","C:/Users/gluza/OneDrive/Desktop","no","Andale Mono","no","18","no","white","no","yes","576","legacy","4","4","3","C:/Users/gluza/OneDrive/Desktop/subject-5126117.csv","legacy","Lentiform Loewenfeld","3.3.7","yes","yes","600bd7cfb6416f0113b04181","602110864497cf011d9c0822","0","f","NA","space","space","space","NA","f","583","NA","3572","14266","3138","NA","583","2","legacy","1024","2","48000","-16","task","5126117","odd","NA","33665","39241","35668","46384","5498","22907","19767","46888","NA","46382","46889","46272","39241","47474","31944","45772","5484","26598","Lexical Decision Task","8","8289","9","yes","1024"
"3.010582609","0","2","drod","non-word","90","90","933.8","933.8","black","no","legacy","legacy","legacy","0","uniform","1","undefined","undefined","undefined","1","f","0","0","0","0","9","0","0","0","9","NA","5","9","5","0","5","3","9","0","9","Thu Feb 25 14:47:02 2021","The main experiment item","yes","Lexical_Decision_Task.osexp","C:/Users/gluza/OneDrive/Desktop","no","Andale Mono","no","18","no","white","no","yes","576","legacy","5","5","3","C:/Users/gluza/OneDrive/Desktop/subject-5126117.csv","legacy","Lentiform Loewenfeld","3.3.7","yes","yes","600bd7cfb6416f0113b04181","602110864497cf011d9c0822","0","f","NA","space","space","space","NA","f","1049","NA","3572","14266","3138","NA","1049","2","legacy","1024","2","48000","-16","task","5126117","odd","NA","33665","39241","35668","48088","5498","22907","19767","48591","NA","48087","48591","47984","39241","49641","31944","47484","5484","26598","Lexical Decision Task","9","9338","10","yes","1024"
"3.474361976","5.24","6","veer","word","81.81818181818181","81.81818181818181","920.7272727272727","920.7272727272727","black","no","legacy","legacy","legacy","0","uniform","0","undefined","undefined","undefined","0","j","0","0","0","0","10","0","0","0","10","NA","6","10","6","0","6","3","10","0","10","Thu Feb 25 14:47:02 2021","The main experiment item","yes","Lexical_Decision_Task.osexp","C:/Users/gluza/OneDrive/Desktop","no","Andale Mono","no","18","no","white","no","yes","576","legacy","6","6","3","C:/Users/gluza/OneDrive/Desktop/subject-5126117.csv","legacy","Lentiform Loewenfeld","3.3.7","yes","yes","600bd7cfb6416f0113b04181","602110864497cf011d9c0822","0","f","NA","space","space","space","NA","f","790","NA","3572","14266","3138","NA","790","2","legacy","1024","2","48000","-16","task","5126117","odd","NA","33665","39241","35668","50242","5498","22907","19767","50745","NA","50240","50745","50147","39241","51537","31944","49647","5484","26598","Lexical Decision Task","9","10128","11","yes","1024"
"3.120135028","0","3","vals","non-word","75","75","949","949","black","no","legacy","legacy","legacy","0","uniform","0","undefined","undefined","undefined","0","f","0","0","0","0","11","0","0","0","11","NA","7","11","7","0","7","3","11","0","11","Thu Feb 25 14:47:02 2021","The main experiment item","yes","Lexical_Decision_Task.osexp","C:/Users/gluza/OneDrive/Desktop","no","Andale Mono","no","18","no","white","no","yes","576","legacy","7","7","3","C:/Users/gluza/OneDrive/Desktop/subject-5126117.csv","legacy","Lentiform Loewenfeld","3.3.7","yes","yes","600bd7cfb6416f0113b04181","602110864497cf011d9c0822","0","j","NA","space","space","space","NA","j","1260","NA","3572","14266","3138","NA","1260","2","legacy","1024","2","48000","-16","task","5126117","odd","NA","33665","39241","35668","53152","5498","22907","19767","53656","NA","53151","53656","53045","39241","54920","31944","49647","5484","51545","Lexical Decision Task","9","11388","12","yes","1024"
"3.067193647","6.73","6","raft","word","76.92307692307692","76.92307692307692","918.6153846153846","918.6153846153846","black","no","legacy","legacy","legacy","0","uniform","1","undefined","undefined","undefined","1","j","0","0","0","0","12","0","0","0","12","NA","8","12","8","0","8","3","12","0","12","Thu Feb 25 14:47:02 2021","The main experiment item","yes","Lexical_Decision_Task.osexp","C:/Users/gluza/OneDrive/Desktop","no","Andale Mono","no","18","no","white","no","yes","576","legacy","8","8","3","C:/Users/gluza/OneDrive/Desktop/subject-5126117.csv","legacy","Lentiform Loewenfeld","3.3.7","yes","yes","600bd7cfb6416f0113b04181","602110864497cf011d9c0822","0","j","NA","space","space","space","NA","j","554","NA","3572","14266","3138","NA","554","2","legacy","1024","2","48000","-16","task","5126117","odd","NA","33665","39241","35668","56541","5498","22907","19767","57044","NA","56541","57044","56428","39241","57600","31944","49647","5484","54928","Lexical Decision Task","10","11942","13","yes","1024"
"3.077974404","10.41","8","tool","word","78.57142857142857","78.57142857142857","899.1428571428571","899.1428571428571","black","no","legacy","legacy","legacy","0","uniform","1","undefined","undefined","undefined","1","j","0","0","0","0","13","0","0","0","13","NA","9","13","9","0","9","3","13","0","13","Thu Feb 25 14:47:02 2021","The main experiment item","yes","Lexical_Decision_Task.osexp","C:/Users/gluza/OneDrive/Desktop","no","Andale Mono","no","18","no","white","no","yes","576","legacy","9","9","3","C:/Users/gluza/OneDrive/Desktop/subject-5126117.csv","legacy","Lentiform Loewenfeld","3.3.7","yes","yes","600bd7cfb6416f0113b04181","602110864497cf011d9c0822","0","j","NA","space","space","space","NA","j","646","NA","3572","14266","3138","NA","646","2","legacy","1024","2","48000","-16","task","5126117","odd","NA","33665","39241","35668","58200","5498","22907","19767","58704","NA","58198","58704","58106","39241","59351","31944","57606","5484","54928","Lexical Decision Task","11","12588","14","yes","1024"
"3.274543461","7.46","7","scar","word","80","80","873.8666666666667","873.8666666666667","black","no","legacy","legacy","legacy","0","uniform","1","undefined","undefined","undefined","1","j","0","0","0","0","14","0","0","0","14","NA","10","14","10","0","10","3","14","0","14","Thu Feb 25 14:47:02 2021","The main experiment item","yes","Lexical_Decision_Task.osexp","C:/Users/gluza/OneDrive/Desktop","no","Andale Mono","no","18","no","white","no","yes","576","legacy","10","10","3","C:/Users/gluza/OneDrive/Desktop/subject-5126117.csv","legacy","Lentiform Loewenfeld","3.3.7","yes","yes","600bd7cfb6416f0113b04181","602110864497cf011d9c0822","0","j","NA","space","space","space","NA","j","520","NA","3572","14266","3138","NA","520","2","legacy","1024","2","48000","-16","task","5126117","odd","NA","33665","39241","35668","59963","5498","22907","19767","60466","NA","59961","60466","59856","39241","60987","31944","59356","5484","54928","Lexical Decision Task","12","13108","15","yes","1024"
"3.263399331","0","8","cour","non-word","81.25","81.25","869.9375","869.9375","black","no","legacy","legacy","legacy","0","uniform","1","undefined","undefined","undefined","1","f","0","0","0","0","15","0","0","0","15","NA","11","15","11","0","11","3","15","0","15","Thu Feb 25 14:47:02 2021","The main experiment item","yes","Lexical_Decision_Task.osexp","C:/Users/gluza/OneDrive/Desktop","no","Andale Mono","no","18","no","white","no","yes","576","legacy","11","11","3","C:/Users/gluza/OneDrive/Desktop/subject-5126117.csv","legacy","Lentiform Loewenfeld","3.3.7","yes","yes","600bd7cfb6416f0113b04181","602110864497cf011d9c0822","0","f","NA","space","space","space","NA","f","811","NA","3572","14266","3138","NA","811","2","legacy","1024","2","48000","-16","task","5126117","odd","NA","33665","39241","35668","61589","5498","22907","19767","62092","NA","61588","62093","61493","39241","62906","31944","60992","5484","54928","Lexical Decision Task","13","13919","16","yes","1024"
"3.492014979","0","9","yine","non-word","82.3529411764706","82.3529411764706","868.1176470588235","868.1176470588235","black","no","legacy","legacy","legacy","0","uniform","1","undefined","undefined","undefined","1","f","0","0","0","0","16","0","0","0","16","NA","12","16","12","0","12","3","16","0","16","Thu Feb 25 14:47:02 2021","The main experiment item","yes","Lexical_Decision_Task.osexp","C:/Users/gluza/OneDrive/Desktop","no","Andale Mono","no","18","no","white","no","yes","576","legacy","12","12","3","C:/Users/gluza/OneDrive/Desktop/subject-5126117.csv","legacy","Lentiform Loewenfeld","3.3.7","yes","yes","600bd7cfb6416f0113b04181","602110864497cf011d9c0822","0","f","NA","space","space","space","NA","f","839","NA","3572","14266","3138","NA","839","2","legacy","1024","2","48000","-16","task","5126117","odd","NA","33665","39241","35668","63529","5498","22907","19767","64032","NA","63525","64032","63414","39241","64874","31944","62914","5484","54928","Lexical Decision Task","14","14758","17","yes","1024"
"2.705007959","6.01","4","wept","word","83.33333333333333","83.33333333333333","857.5","857.5","black","no","legacy","legacy","legacy","0","uniform","1","undefined","undefined","undefined","1","j","0","0","0","0","17","0","0","0","17","NA","13","17","13","0","13","3","17","0","17","Thu Feb 25 14:47:02 2021","The main experiment item","yes","Lexical_Decision_Task.osexp","C:/Users/gluza/OneDrive/Desktop","no","Andale Mono","no","18","no","white","no","yes","576","legacy","13","13","3","C:/Users/gluza/OneDrive/Desktop/subject-5126117.csv","legacy","Lentiform Loewenfeld","3.3.7","yes","yes","600bd7cfb6416f0113b04181","602110864497cf011d9c0822","0","j","NA","space","space","space","NA","j","677","NA","3572","14266","3138","NA","677","2","legacy","1024","2","48000","-16","task","5126117","odd","NA","33665","39241","35668","65481","5498","22907","19767","65984","NA","65479","65984","65378","39241","66664","31944","64878","5484","54928","Lexical Decision Task","15","15435","18","yes","1024"
"3.20871002","7.15","8","cram","word","84.21052631578948","84.21052631578948","841.3157894736842","841.3157894736842","black","no","legacy","legacy","legacy","0","uniform","1","undefined","undefined","undefined","1","j","0","0","0","0","18","0","0","0","18","NA","14","18","14","0","14","3","18","0","18","Thu Feb 25 14:47:02 2021","The main experiment item","yes","Lexical_Decision_Task.osexp","C:/Users/gluza/OneDrive/Desktop","no","Andale Mono","no","18","no","white","no","yes","576","legacy","14","14","3","C:/Users/gluza/OneDrive/Desktop/subject-5126117.csv","legacy","Lentiform Loewenfeld","3.3.7","yes","yes","600bd7cfb6416f0113b04181","602110864497cf011d9c0822","0","j","NA","space","space","space","NA","j","550","NA","3572","14266","3138","NA","550","2","legacy","1024","2","48000","-16","task","5126117","odd","NA","33665","39241","35668","67257","5498","22907","19767","67760","NA","67256","67760","67173","39241","68314","31944","66673","5484","54928","Lexical Decision Task","16","15985","19","yes","1024"
"3.259832699","0","9","flar","non-word","85","85","834.8","834.8","black","no","legacy","legacy","legacy","0","uniform","1","undefined","undefined","undefined","1","f","0","0","0","0","19","0","0","0","19","NA","15","19","15","0","15","3","19","0","19","Thu Feb 25 14:47:02 2021","The main experiment item","yes","Lexical_Decision_Task.osexp","C:/Users/gluza/OneDrive/Desktop","no","Andale Mono","no","18","no","white","no","yes","576","legacy","15","15","3","C:/Users/gluza/OneDrive/Desktop/subject-5126117.csv","legacy","Lentiform Loewenfeld","3.3.7","yes","yes","600bd7cfb6416f0113b04181","602110864497cf011d9c0822","0","f","NA","space","space","space","NA","f","711","NA","3572","14266","3138","NA","711","2","legacy","1024","2","48000","-16","task","5126117","odd","NA","33665","39241","35668","68907","5498","22907","19767","69411","NA","68906","69411","68822","39241","70123","31944","68322","5484","54928","Lexical Decision Task","17","16696","20","yes","1024"
"2.937852093","0","7","bamp","non-word","80.95238095238095","80.95238095238095","832.2380952380952","832.2380952380952","black","no","legacy","legacy","legacy","0","uniform","0","undefined","undefined","undefined","0","f","0","0","0","0","20","0","0","0","20","NA","16","20","16","0","16","3","20","0","20","Thu Feb 25 14:47:02 2021","The main experiment item","yes","Lexical_Decision_Task.osexp","C:/Users/gluza/OneDrive/Desktop","no","Andale Mono","no","18","no","white","no","yes","576","legacy","16","16","3","C:/Users/gluza/OneDrive/Desktop/subject-5126117.csv","legacy","Lentiform Loewenfeld","3.3.7","yes","yes","600bd7cfb6416f0113b04181","602110864497cf011d9c0822","0","j","NA","space","space","space","NA","j","781","NA","3572","14266","3138","NA","781","2","legacy","1024","2","48000","-16","task","5126117","odd","NA","33665","39241","35668","70732","5498","22907","19767","71235","NA","70731","71235","70627","39241","72019","31944","70127","5484","54928","Lexical Decision Task","17","17477","21","yes","1024"
"2.893578687","8.69","3","surf","word","81.81818181818181","81.81818181818181","824.8181818181819","824.8181818181819","black","no","legacy","legacy","legacy","0","uniform","1","undefined","undefined","undefined","1","j","0","0","0","0","21","0","0","0","21","NA","17","21","17","0","17","3","21","0","21","Thu Feb 25 14:47:02 2021","The main experiment item","yes","Lexical_Decision_Task.osexp","C:/Users/gluza/OneDrive/Desktop","no","Andale Mono","no","18","no","white","no","yes","576","legacy","17","17","3","C:/Users/gluza/OneDrive/Desktop/subject-5126117.csv","legacy","Lentiform Loewenfeld","3.3.7","yes","yes","600bd7cfb6416f0113b04181","602110864497cf011d9c0822","0","j","NA","space","space","space","NA","j","669","NA","3572","14266","3138","NA","669","2","legacy","1024","2","48000","-16","task","5126117","odd","NA","33665","39241","35668","73625","5498","22907","19767","74129","NA","73623","74129","73527","39241","74799","31944","70127","5484","72026","Lexical Decision Task","18","18146","22","yes","1024"
"3.208172527","10.27","7","deck","word","82.6086956521739","82.6086956521739","812.6086956521739","812.6086956521739","black","no","legacy","legacy","legacy","0","uniform","1","undefined","undefined","undefined","1","j","0","0","0","0","22","0","0","0","22","NA","18","22","18","0","18","3","22","0","22","Thu Feb 25 14:47:02 2021","The main experiment item","yes","Lexical_Decision_Task.osexp","C:/Users/gluza/OneDrive/Desktop","no","Andale Mono","no","18","no","white","no","yes","576","legacy","18","18","3","C:/Users/gluza/OneDrive/Desktop/subject-5126117.csv","legacy","Lentiform Loewenfeld","3.3.7","yes","yes","600bd7cfb6416f0113b04181","602110864497cf011d9c0822","0","j","NA","space","space","space","NA","j","544","NA","3572","14266","3138","NA","544","2","legacy","1024","2","48000","-16","task","5126117","odd","NA","33665","39241","35668","75395","5498","22907","19767","75898","NA","75394","75898","75302","39241","76443","31944","74802","5484","72026","Lexical Decision Task","19","18690","23","yes","1024"
"3.397302518","7.01","2","knit","word","83.33333333333333","83.33333333333333","831","831","black","no","legacy","legacy","legacy","0","uniform","1","undefined","undefined","undefined","1","j","0","0","0","0","23","0","0","0","23","NA","19","23","19","0","19","3","23","0","23","Thu Feb 25 14:47:02 2021","The main experiment item","yes","Lexical_Decision_Task.osexp","C:/Users/gluza/OneDrive/Desktop","no","Andale Mono","no","18","no","white","no","yes","576","legacy","19","19","3","C:/Users/gluza/OneDrive/Desktop/subject-5126117.csv","legacy","Lentiform Loewenfeld","3.3.7","yes","yes","600bd7cfb6416f0113b04181","602110864497cf011d9c0822","0","j","NA","space","space","space","NA","j","1254","NA","3572","14266","3138","NA","1254","2","legacy","1024","2","48000","-16","task","5126117","odd","NA","33665","39241","35668","77040","5498","22907","19767","77543","NA","77038","77543","76947","39241","78797","31944","76447","5484","72026","Lexical Decision Task","20","19944","24","yes","1024"
"3.153104174","10.89","6","door","word","84","84","817.84","817.84","black","no","legacy","legacy","legacy","0","uniform","1","undefined","undefined","undefined","1","j","0","0","0","0","24","0","0","0","24","NA","20","24","20","0","20","3","24","0","24","Thu Feb 25 14:47:02 2021","The main experiment item","yes","Lexical_Decision_Task.osexp","C:/Users/gluza/OneDrive/Desktop","no","Andale Mono","no","18","no","white","no","yes","576","legacy","20","20","3","C:/Users/gluza/OneDrive/Desktop/subject-5126117.csv","legacy","Lentiform Loewenfeld","3.3.7","yes","yes","600bd7cfb6416f0113b04181","602110864497cf011d9c0822","0","j","NA","space","space","space","NA","j","502","NA","3572","14266","3138","NA","502","2","legacy","1024","2","48000","-16","task","5126117","odd","NA","33665","39241","35668","79403","5498","22907","19767","79906","NA","79401","79906","79302","39241","80411","31944","78802","5484","72026","Lexical Decision Task","21","20446","25","yes","1024"
"2.983324025","9.56","2","debt","word","84.61538461538461","84.61538461538461","809.5384615384615","809.5384615384615","black","no","legacy","legacy","legacy","0","uniform","1","undefined","undefined","undefined","1","j","0","0","0","0","25","0","0","0","25","NA","21","25","21","0","21","3","25","0","25","Thu Feb 25 14:47:02 2021","The main experiment item","yes","Lexical_Decision_Task.osexp","C:/Users/gluza/OneDrive/Desktop","no","Andale Mono","no","18","no","white","no","yes","576","legacy","21","21","3","C:/Users/gluza/OneDrive/Desktop/subject-5126117.csv","legacy","Lentiform Loewenfeld","3.3.7","yes","yes","600bd7cfb6416f0113b04181","602110864497cf011d9c0822","0","j","NA","space","space","space","NA","j","602","NA","3572","14266","3138","NA","602","2","legacy","1024","2","48000","-16","task","5126117","odd","NA","33665","39241","35668","81024","5498","22907","19767","81527","NA","81022","81528","80920","39241","82133","31944","80419","5484","72026","Lexical Decision Task","22","21048","26","yes","1024"
"2.68604012","0","3","mulb","non-word","85.18518518518519","85.18518518518519","800.7777777777778","800.7777777777778","black","no","legacy","legacy","legacy","0","uniform","1","undefined","undefined","undefined","1","f","0","0","0","0","26","0","0","0","26","NA","22","26","22","0","22","3","26","0","26","Thu Feb 25 14:47:02 2021","The main experiment item","yes","Lexical_Decision_Task.osexp","C:/Users/gluza/OneDrive/Desktop","no","Andale Mono","no","18","no","white","no","yes","576","legacy","22","22","3","C:/Users/gluza/OneDrive/Desktop/subject-5126117.csv","legacy","Lentiform Loewenfeld","3.3.7","yes","yes","600bd7cfb6416f0113b04181","602110864497cf011d9c0822","0","f","NA","space","space","space","NA","f","573","NA","3572","14266","3138","NA","573","2","legacy","1024","2","48000","-16","task","5126117","odd","NA","33665","39241","35668","82739","5498","22907","19767","83242","NA","82737","83243","82642","39241","83819","31944","82141","5484","72026","Lexical Decision Task","23","21621","27","yes","1024"
"3.276537627","9.15","5","trap","word","85.71428571428571","85.71428571428571","791.75","791.75","black","no","legacy","legacy","legacy","0","uniform","1","undefined","undefined","undefined","1","j","0","0","0","0","27","0","0","0","27","NA","23","27","23","0","23","3","27","0","27","Thu Feb 25 14:47:02 2021","The main experiment item","yes","Lexical_Decision_Task.osexp","C:/Users/gluza/OneDrive/Desktop","no","Andale Mono","no","18","no","white","no","yes","576","legacy","23","23","3","C:/Users/gluza/OneDrive/Desktop/subject-5126117.csv","legacy","Lentiform Loewenfeld","3.3.7","yes","yes","600bd7cfb6416f0113b04181","602110864497cf011d9c0822","0","j","NA","space","space","space","NA","j","548","NA","3572","14266","3138","NA","548","2","legacy","1024","2","48000","-16","task","5126117","odd","NA","33665","39241","35668","84416","5498","22907","19767","84919","NA","84414","84919","84327","39241","85470","31944","83827","5484","72026","Lexical Decision Task","24","22169","28","yes","1024"
"3.705778213","0","6","stin","non-word","86.20689655172414","86.20689655172414","807.7931034482758","807.7931034482758","black","no","legacy","legacy","legacy","0","uniform","1","undefined","undefined","undefined","1","f","0","0","0","0","28","0","0","0","28","NA","24","28","24","0","24","3","28","0","28","Thu Feb 25 14:47:02 2021","The main experiment item","yes","Lexical_Decision_Task.osexp","C:/Users/gluza/OneDrive/Desktop","no","Andale Mono","no","18","no","white","no","yes","576","legacy","24","24","3","C:/Users/gluza/OneDrive/Desktop/subject-5126117.csv","legacy","Lentiform Loewenfeld","3.3.7","yes","yes","600bd7cfb6416f0113b04181","602110864497cf011d9c0822","0","f","NA","space","space","space","NA","f","1257","NA","3572","14266","3138","NA","1257","2","legacy","1024","2","48000","-16","task","5126117","odd","NA","33665","39241","35668","86070","5498","22907","19767","86573","NA","86068","86574","85976","39241","87836","31944","85476","5484","72026","Lexical Decision Task","25","23426","29","yes","1024"
"2.782472624","10.55","2","huge","word","86.66666666666667","86.66666666666667","823.8333333333334","823.8333333333334","black","no","legacy","legacy","legacy","0","uniform","1","undefined","undefined","undefined","1","j","0","0","0","0","29","0","0","0","29","NA","25","29","25","0","25","3","29","0","29","Thu Feb 25 14:47:02 2021","The main experiment item","yes","Lexical_Decision_Task.osexp","C:/Users/gluza/OneDrive/Desktop","no","Andale Mono","no","18","no","white","no","yes","576","legacy","25","25","3","C:/Users/gluza/OneDrive/Desktop/subject-5126117.csv","legacy","Lentiform Loewenfeld","3.3.7","yes","yes","600bd7cfb6416f0113b04181","602110864497cf011d9c0822","0","j","NA","space","space","space","NA","j","1289","NA","3572","14266","3138","NA","1289","2","legacy","1024","2","48000","-16","task","5126117","odd","NA","33665","39241","35668","88437","5498","22907","19767","88940","NA","88435","88940","88345","39241","90231","31944","87845","5484","72026","Lexical Decision Task","26","24715","30","yes","1024"
"3.353210739","0","9","reet","non-word","87.09677419354838","87.09677419354838","823.0967741935484","823.0967741935484","black","no","legacy","legacy","legacy","0","uniform","1","undefined","undefined","undefined","1","f","0","0","0","0","30","0","0","0","30","NA","26","30","26","0","26","3","30","0","30","Thu Feb 25 14:47:02 2021","The main experiment item","yes","Lexical_Decision_Task.osexp","C:/Users/gluza/OneDrive/Desktop","no","Andale Mono","no","18","no","white","no","yes","576","legacy","26","26","3","C:/Users/gluza/OneDrive/Desktop/subject-5126117.csv","legacy","Lentiform Loewenfeld","3.3.7","yes","yes","600bd7cfb6416f0113b04181","602110864497cf011d9c0822","0","f","NA","space","space","space","NA","f","801","NA","3572","14266","3138","NA","801","2","legacy","1024","2","48000","-16","task","5126117","odd","NA","33665","39241","35668","90833","5498","22907","19767","91336","NA","90831","91336","90739","39241","92140","31944","90239","5484","72026","Lexical Decision Task","27","25516","31","yes","1024"
"3.374137706","10.21","4","tree","word","87.5","87.5","815.25","815.25","black","no","legacy","legacy","legacy","0","uniform","1","undefined","undefined","undefined","1","j","0","0","0","0","31","0","0","0","31","NA","27","31","27","0","27","3","31","0","31","Thu Feb 25 14:47:02 2021","The main experiment item","yes","Lexical_Decision_Task.osexp","C:/Users/gluza/OneDrive/Desktop","no","Andale Mono","no","18","no","white","no","yes","576","legacy","27","27","3","C:/Users/gluza/OneDrive/Desktop/subject-5126117.csv","legacy","Lentiform Loewenfeld","3.3.7","yes","yes","600bd7cfb6416f0113b04181","602110864497cf011d9c0822","0","j","NA","space","space","space","NA","j","572","NA","3572","14266","3138","NA","572","2","legacy","1024","2","48000","-16","task","5126117","odd","NA","33665","39241","35668","92750","5498","22907","19767","93253","NA","92748","93253","92646","39241","93828","31944","92146","5484","72026","Lexical Decision Task","28","26088","32","yes","1024"
"3.153001286","8.7","5","palm","word","87.87878787878788","87.87878787878788","812.1212121212121","812.1212121212121","black","no","legacy","legacy","legacy","0","uniform","1","undefined","undefined","undefined","1","j","0","0","0","0","32","0","0","0","32","NA","28","32","28","0","28","3","32","0","32","Thu Feb 25 14:47:02 2021","The main experiment item","yes","Lexical_Decision_Task.osexp","C:/Users/gluza/OneDrive/Desktop","no","Andale Mono","no","18","no","white","no","yes","576","legacy","28","28","3","C:/Users/gluza/OneDrive/Desktop/subject-5126117.csv","legacy","Lentiform Loewenfeld","3.3.7","yes","yes","600bd7cfb6416f0113b04181","602110864497cf011d9c0822","0","j","NA","space","space","space","NA","j","712","NA","3572","14266","3138","NA","712","2","legacy","1024","2","48000","-16","task","5126117","odd","NA","33665","39241","35668","94433","5498","22907","19767","94936","NA","94431","94937","94336","39241","95649","31944","93836","5484","72026","Lexical Decision Task","29","26800","33","yes","1024"
"2.799799878","0","4","ciff","non-word","88.23529411764706","88.23529411764706","826.5588235294117","826.5588235294117","black","no","legacy","legacy","legacy","0","uniform","1","undefined","undefined","undefined","1","f","0","0","0","0","33","0","0","0","33","NA","29","33","29","0","29","3","33","0","33","Thu Feb 25 14:47:02 2021","The main experiment item","yes","Lexical_Decision_Task.osexp","C:/Users/gluza/OneDrive/Desktop","no","Andale Mono","no","18","no","white","no","yes","576","legacy","29","29","3","C:/Users/gluza/OneDrive/Desktop/subject-5126117.csv","legacy","Lentiform Loewenfeld","3.3.7","yes","yes","600bd7cfb6416f0113b04181","602110864497cf011d9c0822","0","f","NA","space","space","space","NA","f","1303","NA","3572","14266","3138","NA","1303","2","legacy","1024","2","48000","-16","task","5126117","odd","NA","33665","39241","35668","96246","5498","22907","19767","96749","NA","96244","96750","96153","39241","98055","31944","95653","5484","72026","Lexical Decision Task","30","28103","34","yes","1024"
"2.980911938","7.15","7","hoop","word","88.57142857142857","88.57142857142857","822.8857142857142","822.8857142857142","black","no","legacy","legacy","legacy","0","uniform","1","undefined","undefined","undefined","1","j","0","0","0","0","34","0","0","0","34","NA","30","34","30","0","30","3","34","0","34","Thu Feb 25 14:47:02 2021","The main experiment item","yes","Lexical_Decision_Task.osexp","C:/Users/gluza/OneDrive/Desktop","no","Andale Mono","no","18","no","white","no","yes","576","legacy","30","30","3","C:/Users/gluza/OneDrive/Desktop/subject-5126117.csv","legacy","Lentiform Loewenfeld","3.3.7","yes","yes","600bd7cfb6416f0113b04181","602110864497cf011d9c0822","0","j","NA","space","space","space","NA","j","698","NA","3572","14266","3138","NA","698","2","legacy","1024","2","48000","-16","task","5126117","odd","NA","33665","39241","35668","98662","5498","22907","19767","99165","NA","98660","99165","98564","39241","99865","31944","98064","5484","72026","Lexical Decision Task","31","28801","35","yes","1024"
"2.953276337","6.32","4","thaw","word","86.11111111111111","86.11111111111111","820.9722222222222","820.9722222222222","black","no","legacy","legacy","legacy","0","uniform","0","undefined","undefined","undefined","0","j","0","0","0","0","35","0","0","0","35","NA","31","35","31","0","31","3","35","0","35","Thu Feb 25 14:47:02 2021","The main experiment item","yes","Lexical_Decision_Task.osexp","C:/Users/gluza/OneDrive/Desktop","no","Andale Mono","no","18","no","white","no","yes","576","legacy","31","31","3","C:/Users/gluza/OneDrive/Desktop/subject-5126117.csv","legacy","Lentiform Loewenfeld","3.3.7","yes","yes","600bd7cfb6416f0113b04181","602110864497cf011d9c0822","0","f","NA","space","space","space","NA","f","754","NA","3572","14266","3138","NA","754","2","legacy","1024","2","48000","-16","task","5126117","odd","NA","33665","39241","35668","100466","5498","22907","19767","100969","NA","100464","100969","100371","39241","101725","31944","99871","5484","72026","Lexical Decision Task","31","29555","36","yes","1024"
"2.69019608","9.01","2","myth","word","86.48648648648648","86.48648648648648","815.3243243243244","815.3243243243244","black","no","legacy","legacy","legacy","0","uniform","1","undefined","undefined","undefined","1","j","0","0","0","0","36","0","0","0","36","NA","32","36","32","0","32","3","36","0","36","Thu Feb 25 14:47:02 2021","The main experiment item","yes","Lexical_Decision_Task.osexp","C:/Users/gluza/OneDrive/Desktop","no","Andale Mono","no","18","no","white","no","yes","576","legacy","32","32","3","C:/Users/gluza/OneDrive/Desktop/subject-5126117.csv","legacy","Lentiform Loewenfeld","3.3.7","yes","yes","600bd7cfb6416f0113b04181","602110864497cf011d9c0822","0","j","NA","space","space","space","NA","j","612","NA","3572","14266","3138","NA","612","2","legacy","1024","2","48000","-16","task","5126117","odd","NA","33665","39241","35668","103342","5498","22907","19767","103845","NA","103340","103845","103234","39241","104460","31944","99871","5484","101734","Lexical Decision Task","32","30167","37","yes","1024"
"3.031408464","0","7","drow","non-word","86.84210526315789","86.84210526315789","816.0526315789474","816.0526315789474","black","no","legacy","legacy","legacy","0","uniform","1","undefined","undefined","undefined","1","f","0","0","0","0","37","0","0","0","37","NA","33","37","33","0","33","3","37","0","37","Thu Feb 25 14:47:02 2021","The main experiment item","yes","Lexical_Decision_Task.osexp","C:/Users/gluza/OneDrive/Desktop","no","Andale Mono","no","18","no","white","no","yes","576","legacy","33","33","3","C:/Users/gluza/OneDrive/Desktop/subject-5126117.csv","legacy","Lentiform Loewenfeld","3.3.7","yes","yes","600bd7cfb6416f0113b04181","602110864497cf011d9c0822","0","f","NA","space","space","space","NA","f","843","NA","3572","14266","3138","NA","843","2","legacy","1024","2","48000","-16","task","5126117","odd","NA","33665","39241","35668","105061","5498","22907","19767","105564","NA","105059","105564","104969","39241","106410","31944","104469","5484","101734","Lexical Decision Task","33","31010","38","yes","1024"
"2.594027722","9.08","8","skip","word","87.17948717948718","87.17948717948718","808.6666666666666","808.6666666666666","black","no","legacy","legacy","legacy","0","uniform","1","undefined","undefined","undefined","1","j","0","0","0","0","38","0","0","0","38","NA","34","38","34","0","34","3","38","0","38","Thu Feb 25 14:47:02 2021","The main experiment item","yes","Lexical_Decision_Task.osexp","C:/Users/gluza/OneDrive/Desktop","no","Andale Mono","no","18","no","white","no","yes","576","legacy","34","34","3","C:/Users/gluza/OneDrive/Desktop/subject-5126117.csv","legacy","Lentiform Loewenfeld","3.3.7","yes","yes","600bd7cfb6416f0113b04181","602110864497cf011d9c0822","0","j","NA","space","space","space","NA","j","528","NA","3572","14266","3138","NA","528","2","legacy","1024","2","48000","-16","task","5126117","odd","NA","33665","39241","35668","107007","5498","22907","19767","107510","NA","107006","107510","106919","39241","108041","31944","106419","5484","101734","Lexical Decision Task","34","31538","39","yes","1024"
"3.156347201","0","8","lasp","non-word","87.5","87.5","806.875","806.875","black","no","legacy","legacy","legacy","0","uniform","1","undefined","undefined","undefined","1","f","0","0","0","0","39","0","0","0","39","NA","35","39","35","0","35","3","39","0","39","Thu Feb 25 14:47:02 2021","The main experiment item","yes","Lexical_Decision_Task.osexp","C:/Users/gluza/OneDrive/Desktop","no","Andale Mono","no","18","no","white","no","yes","576","legacy","35","35","3","C:/Users/gluza/OneDrive/Desktop/subject-5126117.csv","legacy","Lentiform Loewenfeld","3.3.7","yes","yes","600bd7cfb6416f0113b04181","602110864497cf011d9c0822","0","f","NA","space","space","space","NA","f","737","NA","3572","14266","3138","NA","737","2","legacy","1024","2","48000","-16","task","5126117","odd","NA","33665","39241","35668","108655","5498","22907","19767","109159","NA","108654","109160","108550","39241","109899","31944","108050","5484","101734","Lexical Decision Task","35","32275","40","yes","1024"
"2.858136002","0","4","phip","non-word","87.8048780487805","87.8048780487805","808.0243902439024","808.0243902439024","black","no","legacy","legacy","legacy","0","uniform","1","undefined","undefined","undefined","1","f","0","0","0","0","40","0","0","0","40","NA","36","40","36","0","36","3","40","0","40","Thu Feb 25 14:47:02 2021","The main experiment item","yes","Lexical_Decision_Task.osexp","C:/Users/gluza/OneDrive/Desktop","no","Andale Mono","no","18","no","white","no","yes","576","legacy","36","36","3","C:/Users/gluza/OneDrive/Desktop/subject-5126117.csv","legacy","Lentiform Loewenfeld","3.3.7","yes","yes","600bd7cfb6416f0113b04181","602110864497cf011d9c0822","0","f","NA","space","space","space","NA","f","854","NA","3572","14266","3138","NA","854","2","legacy","1024","2","48000","-16","task","5126117","odd","NA","33665","39241","35668","110514","5498","22907","19767","111017","NA","110512","111018","110406","39241","111874","31944","109905","5484","101734","Lexical Decision Task","36","33129","41","yes","1024"
"2.703007489","8.37","3","pulp","word","85.71428571428571","85.71428571428571","804.0952380952381","804.0952380952381","black","no","legacy","legacy","legacy","0","uniform","0","undefined","undefined","undefined","0","j","0","0","0","0","41","0","0","0","41","NA","37","41","37","0","37","3","41","0","41","Thu Feb 25 14:47:02 2021","The main experiment item","yes","Lexical_Decision_Task.osexp","C:/Users/gluza/OneDrive/Desktop","no","Andale Mono","no","18","no","white","no","yes","576","legacy","37","37","3","C:/Users/gluza/OneDrive/Desktop/subject-5126117.csv","legacy","Lentiform Loewenfeld","3.3.7","yes","yes","600bd7cfb6416f0113b04181","602110864497cf011d9c0822","0","f","NA","space","space","space","NA","f","643","NA","3572","14266","3138","NA","643","2","legacy","1024","2","48000","-16","task","5126117","odd","NA","33665","39241","35668","112468","5498","22907","19767","112971","NA","112466","112971","112379","39241","113615","31944","111878","5484","101734","Lexical Decision Task","36","33772","42","yes","1024"
"3.049218023","7.4","9","robe","word","86.04651162790698","86.04651162790698","798.9767441860465","798.9767441860465","black","no","legacy","legacy","legacy","0","uniform","1","undefined","undefined","undefined","1","j","0","0","0","0","42","0","0","0","42","NA","38","42","38","0","38","3","42","0","42","Thu Feb 25 14:47:02 2021","The main experiment item","yes","Lexical_Decision_Task.osexp","C:/Users/gluza/OneDrive/Desktop","no","Andale Mono","no","18","no","white","no","yes","576","legacy","38","38","3","C:/Users/gluza/OneDrive/Desktop/subject-5126117.csv","legacy","Lentiform Loewenfeld","3.3.7","yes","yes","600bd7cfb6416f0113b04181","602110864497cf011d9c0822","0","j","NA","space","space","space","NA","j","584","NA","3572","14266","3138","NA","584","2","legacy","1024","2","48000","-16","task","5126117","odd","NA","33665","39241","35668","115224","5498","22907","19767","115728","NA","115222","115728","115119","39241","116314","31944","111878","5484","113619","Lexical Decision Task","37","34356","43","yes","1024"
"2.719886232","7.98","2","quiz","word","86.36363636363636","86.36363636363636","791.9318181818181","791.9318181818181","black","no","legacy","legacy","legacy","0","uniform","1","undefined","undefined","undefined","1","j","0","0","0","0","43","0","0","0","43","NA","39","43","39","0","39","3","43","0","43","Thu Feb 25 14:47:02 2021","The main experiment item","yes","Lexical_Decision_Task.osexp","C:/Users/gluza/OneDrive/Desktop","no","Andale Mono","no","18","no","white","no","yes","576","legacy","39","39","3","C:/Users/gluza/OneDrive/Desktop/subject-5126117.csv","legacy","Lentiform Loewenfeld","3.3.7","yes","yes","600bd7cfb6416f0113b04181","602110864497cf011d9c0822","0","j","NA","space","space","space","NA","j","489","NA","3572","14266","3138","NA","489","2","legacy","1024","2","48000","-16","task","5126117","odd","NA","33665","39241","35668","116934","5498","22907","19767","117437","NA","116930","117438","116824","39241","117929","31944","116324","5484","113619","Lexical Decision Task","38","34845","44","yes","1024"
"2.784379519","0","2","snaf","non-word","86.66666666666667","86.66666666666667","793.1777777777778","793.1777777777778","black","no","legacy","legacy","legacy","0","uniform","1","undefined","undefined","undefined","1","f","0","0","0","0","44","0","0","0","44","NA","40","44","40","0","40","3","44","0","44","Thu Feb 25 14:47:02 2021","The main experiment item","yes","Lexical_Decision_Task.osexp","C:/Users/gluza/OneDrive/Desktop","no","Andale Mono","no","18","no","white","no","yes","576","legacy","40","40","3","C:/Users/gluza/OneDrive/Desktop/subject-5126117.csv","legacy","Lentiform Loewenfeld","3.3.7","yes","yes","600bd7cfb6416f0113b04181","602110864497cf011d9c0822","0","f","NA","space","space","space","NA","f","848","NA","3572","14266","3138","NA","848","2","legacy","1024","2","48000","-16","task","5126117","odd","NA","33665","39241","35668","118530","5498","22907","19767","119033","NA","118528","119033","118438","39241","119884","31944","117938","5484","113619","Lexical Decision Task","39","35693","45","yes","1024"
"3.082307743","9.68","8","camp","word","86.95652173913044","86.95652173913044","803.4565217391304","803.4565217391304","black","no","legacy","legacy","legacy","0","uniform","1","undefined","undefined","undefined","1","j","0","0","0","0","45","0","0","0","45","NA","41","45","41","0","41","3","45","0","45","Thu Feb 25 14:47:02 2021","The main experiment item","yes","Lexical_Decision_Task.osexp","C:/Users/gluza/OneDrive/Desktop","no","Andale Mono","no","18","no","white","no","yes","576","legacy","41","41","3","C:/Users/gluza/OneDrive/Desktop/subject-5126117.csv","legacy","Lentiform Loewenfeld","3.3.7","yes","yes","600bd7cfb6416f0113b04181","602110864497cf011d9c0822","0","j","NA","space","space","space","NA","j","1266","NA","3572","14266","3138","NA","1266","2","legacy","1024","2","48000","-16","task","5126117","odd","NA","33665","39241","35668","120484","5498","22907","19767","120987","NA","120482","120987","120392","39241","122254","31944","119892","5484","113619","Lexical Decision Task","40","36959","46","yes","1024"
"2.972357144","0","5","dasp","non-word","87.23404255319149","87.23404255319149","804.2765957446809","804.2765957446809","black","no","legacy","legacy","legacy","0","uniform","1","undefined","undefined","undefined","1","f","0","0","0","0","46","0","0","0","46","NA","42","46","42","0","42","3","46","0","46","Thu Feb 25 14:47:02 2021","The main experiment item","yes","Lexical_Decision_Task.osexp","C:/Users/gluza/OneDrive/Desktop","no","Andale Mono","no","18","no","white","no","yes","576","legacy","42","42","3","C:/Users/gluza/OneDrive/Desktop/subject-5126117.csv","legacy","Lentiform Loewenfeld","3.3.7","yes","yes","600bd7cfb6416f0113b04181","602110864497cf011d9c0822","0","f","NA","space","space","space","NA","f","842","NA","3572","14266","3138","NA","842","2","legacy","1024","2","48000","-16","task","5126117","odd","NA","33665","39241","35668","122847","5498","22907","19767","123350","NA","122846","123350","122758","39241","124195","31944","122257","5484","113619","Lexical Decision Task","41","37801","47","yes","1024"
"3.197740804","6.74","3","ache","word","87.5","87.5","802.9583333333334","802.9583333333334","black","no","legacy","legacy","legacy","0","uniform","1","undefined","undefined","undefined","1","j","0","0","0","0","47","0","0","0","47","NA","43","47","43","0","43","3","47","0","47","Thu Feb 25 14:47:02 2021","The main experiment item","yes","Lexical_Decision_Task.osexp","C:/Users/gluza/OneDrive/Desktop","no","Andale Mono","no","18","no","white","no","yes","576","legacy","43","43","3","C:/Users/gluza/OneDrive/Desktop/subject-5126117.csv","legacy","Lentiform Loewenfeld","3.3.7","yes","yes","600bd7cfb6416f0113b04181","602110864497cf011d9c0822","0","j","NA","space","space","space","NA","j","741","NA","3572","14266","3138","NA","741","2","legacy","1024","2","48000","-16","task","5126117","odd","NA","33665","39241","35668","124800","5498","22907","19767","125303","NA","124798","125304","124704","39241","126046","31944","124204","5484","113619","Lexical Decision Task","42","38542","48","yes","1024"
"2.809559715","8.44","4","volt","word","87.75510204081633","87.75510204081633","797.0816326530612","797.0816326530612","black","no","legacy","legacy","legacy","0","uniform","1","undefined","undefined","undefined","1","j","0","0","0","0","48","0","0","0","48","NA","44","48","44","0","44","3","48","0","48","Thu Feb 25 14:47:02 2021","The main experiment item","yes","Lexical_Decision_Task.osexp","C:/Users/gluza/OneDrive/Desktop","no","Andale Mono","no","18","no","white","no","yes","576","legacy","44","44","3","C:/Users/gluza/OneDrive/Desktop/subject-5126117.csv","legacy","Lentiform Loewenfeld","3.3.7","yes","yes","600bd7cfb6416f0113b04181","602110864497cf011d9c0822","0","j","NA","space","space","space","NA","j","515","NA","3572","14266","3138","NA","515","2","legacy","1024","2","48000","-16","task","5126117","odd","NA","33665","39241","35668","126655","5498","22907","19767","127158","NA","126653","127158","126550","39241","127675","31944","126050","5484","113619","Lexical Decision Task","43","39057","49","yes","1024"
"2.86332286","6.71","2","feud","word","88","88","796.32","796.32","black","no","legacy","legacy","legacy","0","uniform","1","undefined","undefined","undefined","1","j","0","0","0","0","49","0","0","0","49","NA","45","49","45","0","45","3","49","0","49","Thu Feb 25 14:47:02 2021","The main experiment item","yes","Lexical_Decision_Task.osexp","C:/Users/gluza/OneDrive/Desktop","no","Andale Mono","no","18","no","white","no","yes","576","legacy","45","45","3","C:/Users/gluza/OneDrive/Desktop/subject-5126117.csv","legacy","Lentiform Loewenfeld","3.3.7","yes","yes","600bd7cfb6416f0113b04181","602110864497cf011d9c0822","0","j","NA","space","space","space","NA","j","759","NA","3572","14266","3138","NA","759","2","legacy","1024","2","48000","-16","task","5126117","odd","NA","33665","39241","35668","128279","5498","22907","19767","128782","NA","128277","128782","128181","39241","129544","31944","127681","5484","113619","Lexical Decision Task","44","39816","50","yes","1024"
"2.839898939","8.99","6","soap","word","88.23529411764706","88.23529411764706","796.4117647058823","796.4117647058823","black","no","legacy","legacy","legacy","0","uniform","1","undefined","undefined","undefined","1","j","0","0","0","0","50","0","0","0","50","NA","46","50","46","0","46","3","50","0","50","Thu Feb 25 14:47:02 2021","The main experiment item","yes","Lexical_Decision_Task.osexp","C:/Users/gluza/OneDrive/Desktop","no","Andale Mono","no","18","no","white","no","yes","576","legacy","46","46","3","C:/Users/gluza/OneDrive/Desktop/subject-5126117.csv","legacy","Lentiform Loewenfeld","3.3.7","yes","yes","600bd7cfb6416f0113b04181","602110864497cf011d9c0822","0","j","NA","space","space","space","NA","j","801","NA","3572","14266","3138","NA","801","2","legacy","1024","2","48000","-16","task","5126117","odd","NA","33665","39241","35668","130141","5498","22907","19767","130644","NA","130139","130644","130053","39241","131448","31944","129553","5484","113619","Lexical Decision Task","45","40617","51","yes","1024"
"3.137775856","7.39","5","comb","word","88.46153846153847","88.46153846153847","793.1153846153846","793.1153846153846","black","no","legacy","legacy","legacy","0","uniform","1","undefined","undefined","undefined","1","j","0","0","0","0","51","0","0","0","51","NA","47","51","47","0","47","3","51","0","51","Thu Feb 25 14:47:02 2021","The main experiment item","yes","Lexical_Decision_Task.osexp","C:/Users/gluza/OneDrive/Desktop","no","Andale Mono","no","18","no","white","no","yes","576","legacy","47","47","3","C:/Users/gluza/OneDrive/Desktop/subject-5126117.csv","legacy","Lentiform Loewenfeld","3.3.7","yes","yes","600bd7cfb6416f0113b04181","602110864497cf011d9c0822","0","j","NA","space","space","space","NA","j","625","NA","3572","14266","3138","NA","625","2","legacy","1024","2","48000","-16","task","5126117","odd","NA","33665","39241","35668","132053","5498","22907","19767","132557","NA","132052","132557","131957","39241","133185","31944","131457","5484","113619","Lexical Decision Task","46","41242","52","yes","1024"
"3.076883066","0","8","mout","non-word","88.67924528301887","88.67924528301887","791.5094339622641","791.5094339622641","black","no","legacy","legacy","legacy","0","uniform","1","undefined","undefined","undefined","1","f","0","0","0","0","52","0","0","0","52","NA","48","52","48","0","48","3","52","0","52","Thu Feb 25 14:47:02 2021","The main experiment item","yes","Lexical_Decision_Task.osexp","C:/Users/gluza/OneDrive/Desktop","no","Andale Mono","no","18","no","white","no","yes","576","legacy","48","48","3","C:/Users/gluza/OneDrive/Desktop/subject-5126117.csv","legacy","Lentiform Loewenfeld","3.3.7","yes","yes","600bd7cfb6416f0113b04181","602110864497cf011d9c0822","0","f","NA","space","space","space","NA","f","708","NA","3572","14266","3138","NA","708","2","legacy","1024","2","48000","-16","task","5126117","odd","NA","33665","39241","35668","133796","5498","22907","19767","134299","NA","133795","134299","133692","39241","135010","31944","133192","5484","113619","Lexical Decision Task","47","41950","53","yes","1024"
"3.194328374","9.42","6","harm","word","88.88888888888889","88.88888888888889","788.2962962962963","788.2962962962963","black","no","legacy","legacy","legacy","0","uniform","1","undefined","undefined","undefined","1","j","0","0","0","0","53","0","0","0","53","NA","49","53","49","0","49","3","53","0","53","Thu Feb 25 14:47:02 2021","The main experiment item","yes","Lexical_Decision_Task.osexp","C:/Users/gluza/OneDrive/Desktop","no","Andale Mono","no","18","no","white","no","yes","576","legacy","49","49","3","C:/Users/gluza/OneDrive/Desktop/subject-5126117.csv","legacy","Lentiform Loewenfeld","3.3.7","yes","yes","600bd7cfb6416f0113b04181","602110864497cf011d9c0822","0","j","NA","space","space","space","NA","j","618","NA","3572","14266","3138","NA","618","2","legacy","1024","2","48000","-16","task","5126117","odd","NA","33665","39241","35668","135624","5498","22907","19767","136128","NA","135622","136128","135519","39241","136747","31944","135019","5484","113619","Lexical Decision Task","48","42568","54","yes","1024"
"3.261341392","5.08","8","reek","word","87.27272727272727","87.27272727272727","810.2727272727273","810.2727272727273","black","no","legacy","legacy","legacy","0","uniform","0","undefined","undefined","undefined","0","j","0","0","0","0","54","0","0","0","54","0","50","54","50","0","50","3","54","0","54","Thu Feb 25 14:47:02 2021","The main experiment item","yes","Lexical_Decision_Task.osexp","C:/Users/gluza/OneDrive/Desktop","no","Andale Mono","no","18","no","white","no","yes","576","legacy","50","50","3","C:/Users/gluza/OneDrive/Desktop/subject-5126117.csv","legacy","Lentiform Loewenfeld","3.3.7","yes","yes","600bd7cfb6416f0113b04181","602110864497cf011d9c0822","0","f","NA","space","space","space","j","f","1997","NA","3572","14266","3138","7377","1997","2","legacy","1024","2","48000","-16","task","5126117","odd","NA","33665","39241","35668","144826","5498","22907","19767","145329","137360","144824","145329","137252","39241","147327","31944","136751","5484","113619","Lexical Decision Task","48","44565","55","yes","1024"
"3.090140555","5.81","8","pout","word","87.5","87.5","818.125","818.125","black","no","legacy","legacy","legacy","0","uniform","1","undefined","undefined","undefined","1","j","0","0","0","0","55","0","0","0","55","0","51","55","51","0","51","3","55","0","55","Thu Feb 25 14:47:02 2021","The main experiment item","yes","Lexical_Decision_Task.osexp","C:/Users/gluza/OneDrive/Desktop","no","Andale Mono","no","18","no","white","no","yes","576","legacy","51","51","3","C:/Users/gluza/OneDrive/Desktop/subject-5126117.csv","legacy","Lentiform Loewenfeld","3.3.7","yes","yes","600bd7cfb6416f0113b04181","602110864497cf011d9c0822","0","j","NA","space","space","space","j","j","1250","NA","3572","14266","3138","7377","1250","2","legacy","1024","2","48000","-16","task","5126117","odd","NA","33665","39241","35668","148935","5498","22907","19767","149438","137360","148933","149438","148832","39241","150690","31944","136751","5484","147332","Lexical Decision Task","49","45815","56","yes","1024"
"3.003891166","8.05","2","frog","word","87.71929824561404","87.71929824561404","812.4736842105264","812.4736842105264","black","no","legacy","legacy","legacy","0","uniform","1","undefined","undefined","undefined","1","j","0","0","0","0","56","0","0","0","56","0","52","56","52","0","52","3","56","0","56","Thu Feb 25 14:47:02 2021","The main experiment item","yes","Lexical_Decision_Task.osexp","C:/Users/gluza/OneDrive/Desktop","no","Andale Mono","no","18","no","white","no","yes","576","legacy","52","52","3","C:/Users/gluza/OneDrive/Desktop/subject-5126117.csv","legacy","Lentiform Loewenfeld","3.3.7","yes","yes","600bd7cfb6416f0113b04181","602110864497cf011d9c0822","0","j","NA","space","space","space","j","j","496","NA","3572","14266","3138","7377","496","2","legacy","1024","2","48000","-16","task","5126117","odd","NA","33665","39241","35668","151285","5498","22907","19767","151789","137360","151283","151789","151194","39241","152289","31944","150694","5484","147332","Lexical Decision Task","50","46311","57","yes","1024"
"3.316948329","0","1","besc","non-word","87.93103448275862","87.93103448275862","807.7241379310345","807.7241379310345","black","no","legacy","legacy","legacy","0","uniform","1","undefined","undefined","undefined","1","f","0","0","0","0","57","0","0","0","57","0","53","57","53","0","53","3","57","0","57","Thu Feb 25 14:47:02 2021","The main experiment item","yes","Lexical_Decision_Task.osexp","C:/Users/gluza/OneDrive/Desktop","no","Andale Mono","no","18","no","white","no","yes","576","legacy","53","53","3","C:/Users/gluza/OneDrive/Desktop/subject-5126117.csv","legacy","Lentiform Loewenfeld","3.3.7","yes","yes","600bd7cfb6416f0113b04181","602110864497cf011d9c0822","0","f","NA","space","space","space","j","f","537","NA","3572","14266","3138","7377","537","2","legacy","1024","2","48000","-16","task","5126117","odd","NA","33665","39241","35668","152900","5498","22907","19767","153403","137360","152898","153403","152797","39241","153942","31944","152297","5484","147332","Lexical Decision Task","51","46848","58","yes","1024"
"2.996511672","0","7","hoil","non-word","88.13559322033899","88.13559322033899","807.7627118644068","807.7627118644068","black","no","legacy","legacy","legacy","0","uniform","1","undefined","undefined","undefined","1","f","0","0","0","0","58","0","0","0","58","0","54","58","54","0","54","3","58","0","58","Thu Feb 25 14:47:02 2021","The main experiment item","yes","Lexical_Decision_Task.osexp","C:/Users/gluza/OneDrive/Desktop","no","Andale Mono","no","18","no","white","no","yes","576","legacy","54","54","3","C:/Users/gluza/OneDrive/Desktop/subject-5126117.csv","legacy","Lentiform Loewenfeld","3.3.7","yes","yes","600bd7cfb6416f0113b04181","602110864497cf011d9c0822","0","f","NA","space","space","space","j","f","810","NA","3572","14266","3138","7377","810","2","legacy","1024","2","48000","-16","task","5126117","odd","NA","33665","39241","35668","154555","5498","22907","19767","155058","137360","154553","155059","154448","39241","155874","31944","153948","5484","147332","Lexical Decision Task","52","47658","59","yes","1024"
"2.668385917","5.48","4","twig","word","88.33333333333333","88.33333333333333","810.2166666666667","810.2166666666667","black","no","legacy","legacy","legacy","0","uniform","1","undefined","undefined","undefined","1","j","0","0","0","0","59","0","0","0","59","0","55","59","55","0","55","3","59","0","59","Thu Feb 25 14:47:02 2021","The main experiment item","yes","Lexical_Decision_Task.osexp","C:/Users/gluza/OneDrive/Desktop","no","Andale Mono","no","18","no","white","no","yes","576","legacy","55","55","3","C:/Users/gluza/OneDrive/Desktop/subject-5126117.csv","legacy","Lentiform Loewenfeld","3.3.7","yes","yes","600bd7cfb6416f0113b04181","602110864497cf011d9c0822","0","j","NA","space","space","space","j","j","955","NA","3572","14266","3138","7377","955","2","legacy","1024","2","48000","-16","task","5126117","odd","NA","33665","39241","35668","156479","5498","22907","19767","156982","137360","156477","156982","156380","39241","157940","31944","155880","5484","147332","Lexical Decision Task","53","48613","60","yes","1024"
"2.980306438","0","7","slun","non-word","88.52459016393442","88.52459016393442","808.9344262295082","808.9344262295082","black","no","legacy","legacy","legacy","0","uniform","1","undefined","undefined","undefined","1","f","0","0","0","0","60","0","0","0","60","0","56","60","56","0","56","3","60","0","60","Thu Feb 25 14:47:02 2021","The main experiment item","yes","Lexical_Decision_Task.osexp","C:/Users/gluza/OneDrive/Desktop","no","Andale Mono","no","18","no","white","no","yes","576","legacy","56","56","3","C:/Users/gluza/OneDrive/Desktop/subject-5126117.csv","legacy","Lentiform Loewenfeld","3.3.7","yes","yes","600bd7cfb6416f0113b04181","602110864497cf011d9c0822","0","f","NA","space","space","space","j","f","732","NA","3572","14266","3138","7377","732","2","legacy","1024","2","48000","-16","task","5126117","odd","NA","33665","39241","35668","158542","5498","22907","19767","159046","137360","158541","159046","158446","39241","159780","31944","157946","5484","147332","Lexical Decision Task","54","49345","61","yes","1024"
"3.159867847","5.98","5","brim","word","87.09677419354838","87.09677419354838","825.258064516129","825.258064516129","black","no","legacy","legacy","legacy","0","uniform","0","undefined","undefined","undefined","0","j","0","0","0","0","61","0","0","0","61","0","57","61","57","0","57","3","61","0","61","Thu Feb 25 14:47:02 2021","The main experiment item","yes","Lexical_Decision_Task.osexp","C:/Users/gluza/OneDrive/Desktop","no","Andale Mono","no","18","no","white","no","yes","576","legacy","57","57","3","C:/Users/gluza/OneDrive/Desktop/subject-5126117.csv","legacy","Lentiform Loewenfeld","3.3.7","yes","yes","600bd7cfb6416f0113b04181","602110864497cf011d9c0822","0","f","NA","space","space","space","j","f","1821","NA","3572","14266","3138","7377","1821","2","legacy","1024","2","48000","-16","task","5126117","odd","NA","33665","39241","35668","160377","5498","22907","19767","160879","137360","160375","160880","160289","39241","162705","31944","159789","5484","147332","Lexical Decision Task","54","51166","62","yes","1024"
"3.218535505","7.85","7","goat","word","87.3015873015873","87.3015873015873","821.1269841269841","821.1269841269841","black","no","legacy","legacy","legacy","0","uniform","1","undefined","undefined","undefined","1","j","0","0","0","0","62","0","0","0","62","0","58","62","58","0","58","3","62","0","62","Thu Feb 25 14:47:02 2021","The main experiment item","yes","Lexical_Decision_Task.osexp","C:/Users/gluza/OneDrive/Desktop","no","Andale Mono","no","18","no","white","no","yes","576","legacy","58","58","3","C:/Users/gluza/OneDrive/Desktop/subject-5126117.csv","legacy","Lentiform Loewenfeld","3.3.7","yes","yes","600bd7cfb6416f0113b04181","602110864497cf011d9c0822","0","j","NA","space","space","space","j","j","565","NA","3572","14266","3138","7377","565","2","legacy","1024","2","48000","-16","task","5126117","odd","NA","33665","39241","35668","164311","5498","22907","19767","164814","137360","164309","164814","164214","39241","165380","31944","159789","5484","162714","Lexical Decision Task","55","51731","63","yes","1024"
"2.576725172","0","8","gowl","non-word","87.5","87.5","823.4375","823.4375","black","no","legacy","legacy","legacy","0","uniform","1","undefined","undefined","undefined","1","f","0","0","0","0","63","0","0","0","63","0","59","63","59","0","59","3","63","0","63","Thu Feb 25 14:47:02 2021","The main experiment item","yes","Lexical_Decision_Task.osexp","C:/Users/gluza/OneDrive/Desktop","no","Andale Mono","no","18","no","white","no","yes","576","legacy","59","59","3","C:/Users/gluza/OneDrive/Desktop/subject-5126117.csv","legacy","Lentiform Loewenfeld","3.3.7","yes","yes","600bd7cfb6416f0113b04181","602110864497cf011d9c0822","0","f","NA","space","space","space","j","f","969","NA","3572","14266","3138","7377","969","2","legacy","1024","2","48000","-16","task","5126117","odd","NA","33665","39241","35668","165980","5498","22907","19767","166483","137360","165978","166483","165883","39241","167457","31944","165383","5484","162714","Lexical Decision Task","56","52700","64","yes","1024"
"3.105055783","0","2","norp","non-word","87.6923076923077","87.6923076923077","820.5692307692308","820.5692307692308","black","no","legacy","legacy","legacy","0","uniform","1","undefined","undefined","undefined","1","f","0","0","0","0","64","0","0","0","64","0","60","64","60","0","60","3","64","0","64","Thu Feb 25 14:47:02 2021","The main experiment item","yes","Lexical_Decision_Task.osexp","C:/Users/gluza/OneDrive/Desktop","no","Andale Mono","no","18","no","white","no","yes","576","legacy","60","60","3","C:/Users/gluza/OneDrive/Desktop/subject-5126117.csv","legacy","Lentiform Loewenfeld","3.3.7","yes","yes","600bd7cfb6416f0113b04181","602110864497cf011d9c0822","0","f","NA","space","space","space","j","f","637","NA","3572","14266","3138","7377","637","2","legacy","1024","2","48000","-16","task","5126117","odd","NA","33665","39241","35668","168055","5498","22907","19767","168558","137360","168053","168559","167964","39241","169200","31944","167464","5484","162714","Lexical Decision Task","57","53337","65","yes","1024"
"3.1430148","7.92","8","bald","word","87.87878787878788","87.87878787878788","817.7424242424242","817.7424242424242","black","no","legacy","legacy","legacy","0","uniform","1","undefined","undefined","undefined","1","j","0","0","0","0","65","0","0","0","65","0","61","65","61","0","61","3","65","0","65","Thu Feb 25 14:47:02 2021","The main experiment item","yes","Lexical_Decision_Task.osexp","C:/Users/gluza/OneDrive/Desktop","no","Andale Mono","no","18","no","white","no","yes","576","legacy","61","61","3","C:/Users/gluza/OneDrive/Desktop/subject-5126117.csv","legacy","Lentiform Loewenfeld","3.3.7","yes","yes","600bd7cfb6416f0113b04181","602110864497cf011d9c0822","0","j","NA","space","space","space","j","j","634","NA","3572","14266","3138","7377","634","2","legacy","1024","2","48000","-16","task","5126117","odd","NA","33665","39241","35668","169801","5498","22907","19767","170304","137360","169799","170304","169710","39241","170941","31944","169210","5484","162714","Lexical Decision Task","58","53971","66","yes","1024"
"3.174641193","0","3","ramb","non-word","88.05970149253731","88.05970149253731","818.9402985074627","818.9402985074627","black","no","legacy","legacy","legacy","0","uniform","1","undefined","undefined","undefined","1","f","0","0","0","0","66","0","0","0","66","0","62","66","62","0","62","3","66","0","66","Thu Feb 25 14:47:02 2021","The main experiment item","yes","Lexical_Decision_Task.osexp","C:/Users/gluza/OneDrive/Desktop","no","Andale Mono","no","18","no","white","no","yes","576","legacy","62","62","3","C:/Users/gluza/OneDrive/Desktop/subject-5126117.csv","legacy","Lentiform Loewenfeld","3.3.7","yes","yes","600bd7cfb6416f0113b04181","602110864497cf011d9c0822","0","f","NA","space","space","space","j","f","898","NA","3572","14266","3138","7377","898","2","legacy","1024","2","48000","-16","task","5126117","odd","NA","33665","39241","35668","171537","5498","22907","19767","172040","137360","171536","172040","171450","39241","172940","31944","170949","5484","162714","Lexical Decision Task","59","54869","67","yes","1024"
"3.134602053","0","8","jart","non-word","88.23529411764706","88.23529411764706","818.0441176470588","818.0441176470588","black","no","legacy","legacy","legacy","0","uniform","1","undefined","undefined","undefined","1","f","0","0","0","0","67","0","0","0","67","0","63","67","63","0","63","3","67","0","67","Thu Feb 25 14:47:02 2021","The main experiment item","yes","Lexical_Decision_Task.osexp","C:/Users/gluza/OneDrive/Desktop","no","Andale Mono","no","18","no","white","no","yes","576","legacy","63","63","3","C:/Users/gluza/OneDrive/Desktop/subject-5126117.csv","legacy","Lentiform Loewenfeld","3.3.7","yes","yes","600bd7cfb6416f0113b04181","602110864497cf011d9c0822","0","f","NA","space","space","space","j","f","758","NA","3572","14266","3138","7377","758","2","legacy","1024","2","48000","-16","task","5126117","odd","NA","33665","39241","35668","173545","5498","22907","19767","174049","137360","173543","174049","173445","39241","174810","31944","172945","5484","162714","Lexical Decision Task","60","55627","68","yes","1024"
"3.088136089","8.32","9","worm","word","88.40579710144928","88.40579710144928","815.8695652173913","815.8695652173913","black","no","legacy","legacy","legacy","0","uniform","1","undefined","undefined","undefined","1","j","0","0","0","0","68","0","0","0","68","0","64","68","64","0","64","3","68","0","68","Thu Feb 25 14:47:02 2021","The main experiment item","yes","Lexical_Decision_Task.osexp","C:/Users/gluza/OneDrive/Desktop","no","Andale Mono","no","18","no","white","no","yes","576","legacy","64","64","3","C:/Users/gluza/OneDrive/Desktop/subject-5126117.csv","legacy","Lentiform Loewenfeld","3.3.7","yes","yes","600bd7cfb6416f0113b04181","602110864497cf011d9c0822","0","j","NA","space","space","space","j","j","668","NA","3572","14266","3138","7377","668","2","legacy","1024","2","48000","-16","task","5126117","odd","NA","33665","39241","35668","175408","5498","22907","19767","175911","137360","175406","175911","175319","39241","176581","31944","174819","5484","162714","Lexical Decision Task","61","56295","69","yes","1024"
"2.895974732","6.65","5","sift","word","87.14285714285714","87.14285714285714","821.8857142857142","821.8857142857142","black","no","legacy","legacy","legacy","0","uniform","0","undefined","undefined","undefined","0","j","0","0","0","0","69","0","0","0","69","0","65","69","65","0","65","3","69","0","69","Thu Feb 25 14:47:02 2021","The main experiment item","yes","Lexical_Decision_Task.osexp","C:/Users/gluza/OneDrive/Desktop","no","Andale Mono","no","18","no","white","no","yes","576","legacy","65","65","3","C:/Users/gluza/OneDrive/Desktop/subject-5126117.csv","legacy","Lentiform Loewenfeld","3.3.7","yes","yes","600bd7cfb6416f0113b04181","602110864497cf011d9c0822","0","f","NA","space","space","space","j","f","1237","NA","3572","14266","3138","7377","1237","2","legacy","1024","2","48000","-16","task","5126117","odd","NA","33665","39241","35668","177177","5498","22907","19767","177680","137360","177175","177680","177085","39241","178920","31944","176585","5484","162714","Lexical Decision Task","61","57532","70","yes","1024"
"2.675164031","8.57","6","glue","word","87.32394366197182","87.32394366197182","817.056338028169","817.056338028169","black","no","legacy","legacy","legacy","0","uniform","1","undefined","undefined","undefined","1","j","0","0","0","0","70","0","0","0","70","0","66","70","66","0","66","3","70","0","70","Thu Feb 25 14:47:02 2021","The main experiment item","yes","Lexical_Decision_Task.osexp","C:/Users/gluza/OneDrive/Desktop","no","Andale Mono","no","18","no","white","no","yes","576","legacy","66","66","3","C:/Users/gluza/OneDrive/Desktop/subject-5126117.csv","legacy","Lentiform Loewenfeld","3.3.7","yes","yes","600bd7cfb6416f0113b04181","602110864497cf011d9c0822","0","j","NA","space","space","space","j","j","479","NA","3572","14266","3138","7377","479","2","legacy","1024","2","48000","-16","task","5126117","odd","NA","33665","39241","35668","180533","5498","22907","19767","181036","137360","180531","181036","180425","39241","181519","31944","176585","5484","178925","Lexical Decision Task","62","58011","71","yes","1024"
"3.043885998","0","9","gome","non-word","87.5","87.5","821.4861111111111","821.4861111111111","black","no","legacy","legacy","legacy","0","uniform","1","undefined","undefined","undefined","1","f","0","0","0","0","71","0","0","0","71","0","67","71","67","0","67","3","71","0","71","Thu Feb 25 14:47:02 2021","The main experiment item","yes","Lexical_Decision_Task.osexp","C:/Users/gluza/OneDrive/Desktop","no","Andale Mono","no","18","no","white","no","yes","576","legacy","67","67","3","C:/Users/gluza/OneDrive/Desktop/subject-5126117.csv","legacy","Lentiform Loewenfeld","3.3.7","yes","yes","600bd7cfb6416f0113b04181","602110864497cf011d9c0822","0","f","NA","space","space","space","j","f","1136","NA","3572","14266","3138","7377","1136","2","legacy","1024","2","48000","-16","task","5126117","odd","NA","33665","39241","35668","182128","5498","22907","19767","182631","137360","182126","182631","182028","39241","183770","31944","181528","5484","178925","Lexical Decision Task","63","59147","72","yes","1024"
"2.767650507","0","6","yolt","non-word","86.3013698630137","86.3013698630137","817.917808219178","817.917808219178","black","no","legacy","legacy","legacy","0","uniform","0","undefined","undefined","undefined","0","f","0","0","0","0","72","0","0","0","72","0","68","72","68","0","68","3","72","0","72","Thu Feb 25 14:47:02 2021","The main experiment item","yes","Lexical_Decision_Task.osexp","C:/Users/gluza/OneDrive/Desktop","no","Andale Mono","no","18","no","white","no","yes","576","legacy","68","68","3","C:/Users/gluza/OneDrive/Desktop/subject-5126117.csv","legacy","Lentiform Loewenfeld","3.3.7","yes","yes","600bd7cfb6416f0113b04181","602110864497cf011d9c0822","0","j","NA","space","space","space","j","j","561","NA","3572","14266","3138","7377","561","2","legacy","1024","2","48000","-16","task","5126117","odd","NA","33665","39241","35668","184377","5498","22907","19767","184880","137360","184375","184880","184279","39241","185444","31944","183779","5484","178925","Lexical Decision Task","63","59708","73","yes","1024"
"3.481012421","8.34","5","teen","word","86.48648648648648","86.48648648648648","814.9324324324324","814.9324324324324","black","no","legacy","legacy","legacy","0","uniform","1","undefined","undefined","undefined","1","j","0","0","0","0","73","0","0","0","73","0","69","73","69","0","69","3","73","0","73","Thu Feb 25 14:47:02 2021","The main experiment item","yes","Lexical_Decision_Task.osexp","C:/Users/gluza/OneDrive/Desktop","no","Andale Mono","no","18","no","white","no","yes","576","legacy","69","69","3","C:/Users/gluza/OneDrive/Desktop/subject-5126117.csv","legacy","Lentiform Loewenfeld","3.3.7","yes","yes","600bd7cfb6416f0113b04181","602110864497cf011d9c0822","0","j","NA","space","space","space","j","j","597","NA","3572","14266","3138","7377","597","2","legacy","1024","2","48000","-16","task","5126117","odd","NA","33665","39241","35668","187048","5498","22907","19767","187552","137360","187047","187552","186950","39241","188152","31944","183779","5484","185450","Lexical Decision Task","64","60305","74","yes","1024"
"2.899092422","7.27","6","snag","word","85.33333333333333","85.33333333333333","812.88","812.88","black","no","legacy","legacy","legacy","0","uniform","0","undefined","undefined","undefined","0","j","0","0","0","0","74","0","0","0","74","0","70","74","70","0","70","3","74","0","74","Thu Feb 25 14:47:02 2021","The main experiment item","yes","Lexical_Decision_Task.osexp","C:/Users/gluza/OneDrive/Desktop","no","Andale Mono","no","18","no","white","no","yes","576","legacy","70","70","3","C:/Users/gluza/OneDrive/Desktop/subject-5126117.csv","legacy","Lentiform Loewenfeld","3.3.7","yes","yes","600bd7cfb6416f0113b04181","602110864497cf011d9c0822","0","f","NA","space","space","space","j","f","661","NA","3572","14266","3138","7377","661","2","legacy","1024","2","48000","-16","task","5126117","odd","NA","33665","39241","35668","188758","5498","22907","19767","189261","137360","188757","189261","188659","39241","189925","31944","188159","5484","185450","Lexical Decision Task","64","60966","75","yes","1024"
"3.091901331","0","9","nipe","non-word","85.52631578947368","85.52631578947368","812.2894736842105","812.2894736842105","black","no","legacy","legacy","legacy","0","uniform","1","undefined","undefined","undefined","1","f","0","0","0","0","75","0","0","0","75","0","71","75","71","0","71","3","75","0","75","Thu Feb 25 14:47:02 2021","The main experiment item","yes","Lexical_Decision_Task.osexp","C:/Users/gluza/OneDrive/Desktop","no","Andale Mono","no","18","no","white","no","yes","576","legacy","71","71","3","C:/Users/gluza/OneDrive/Desktop/subject-5126117.csv","legacy","Lentiform Loewenfeld","3.3.7","yes","yes","600bd7cfb6416f0113b04181","602110864497cf011d9c0822","0","f","NA","space","space","space","j","f","768","NA","3572","14266","3138","7377","768","2","legacy","1024","2","48000","-16","task","5126117","odd","NA","33665","39241","35668","191542","5498","22907","19767","192045","137360","191540","192046","191433","39241","192817","31944","188159","5484","189933","Lexical Decision Task","65","61734","76","yes","1024"
"2.67699827","0","6","hulf","non-word","85.71428571428571","85.71428571428571","810.4935064935065","810.4935064935065","black","no","legacy","legacy","legacy","0","uniform","1","undefined","undefined","undefined","1","f","0","0","0","0","76","0","0","0","76","0","72","76","72","0","72","3","76","0","76","Thu Feb 25 14:47:02 2021","The main experiment item","yes","Lexical_Decision_Task.osexp","C:/Users/gluza/OneDrive/Desktop","no","Andale Mono","no","18","no","white","no","yes","576","legacy","72","72","3","C:/Users/gluza/OneDrive/Desktop/subject-5126117.csv","legacy","Lentiform Loewenfeld","3.3.7","yes","yes","600bd7cfb6416f0113b04181","602110864497cf011d9c0822","0","f","NA","space","space","space","j","f","674","NA","3572","14266","3138","7377","674","2","legacy","1024","2","48000","-16","task","5126117","odd","NA","33665","39241","35668","193415","5498","22907","19767","193919","137360","193413","193919","193324","39241","194595","31944","192823","5484","189933","Lexical Decision Task","66","62408","77","yes","1024"
"3.257359335","8","6","brew","word","85.8974358974359","85.8974358974359","807.8461538461538","807.8461538461538","black","no","legacy","legacy","legacy","0","uniform","1","undefined","undefined","undefined","1","j","0","0","0","0","77","0","0","0","77","0","73","77","73","0","73","3","77","0","77","Thu Feb 25 14:47:02 2021","The main experiment item","yes","Lexical_Decision_Task.osexp","C:/Users/gluza/OneDrive/Desktop","no","Andale Mono","no","18","no","white","no","yes","576","legacy","73","73","3","C:/Users/gluza/OneDrive/Desktop/subject-5126117.csv","legacy","Lentiform Loewenfeld","3.3.7","yes","yes","600bd7cfb6416f0113b04181","602110864497cf011d9c0822","0","j","NA","space","space","space","j","j","604","NA","3572","14266","3138","7377","604","2","legacy","1024","2","48000","-16","task","5126117","odd","NA","33665","39241","35668","195205","5498","22907","19767","195709","137360","195203","195709","195101","39241","196317","31944","194601","5484","189933","Lexical Decision Task","67","63012","78","yes","1024"
"2.64476673","0","5","moft","non-word","84.81012658227849","84.81012658227849","805.2911392405064","805.2911392405064","black","no","legacy","legacy","legacy","0","uniform","0","undefined","undefined","undefined","0","f","0","0","0","0","78","0","0","0","78","0","74","78","74","0","74","3","78","0","78","Thu Feb 25 14:47:02 2021","The main experiment item","yes","Lexical_Decision_Task.osexp","C:/Users/gluza/OneDrive/Desktop","no","Andale Mono","no","18","no","white","no","yes","576","legacy","74","74","3","C:/Users/gluza/OneDrive/Desktop/subject-5126117.csv","legacy","Lentiform Loewenfeld","3.3.7","yes","yes","600bd7cfb6416f0113b04181","602110864497cf011d9c0822","0","j","NA","space","space","space","j","j","606","NA","3572","14266","3138","7377","606","2","legacy","1024","2","48000","-16","task","5126117","odd","NA","33665","39241","35668","196916","5498","22907","19767","197419","137360","196914","197419","196826","39241","198028","31944","196326","5484","189933","Lexical Decision Task","67","63618","79","yes","1024"
"2.803231716","5.26","3","kiln","word","83.75","83.75","802.35","802.35","black","no","legacy","legacy","legacy","0","uniform","0","undefined","undefined","undefined","0","j","0","0","0","0","79","0","0","0","79","0","75","79","75","0","75","3","79","0","79","Thu Feb 25 14:47:02 2021","The main experiment item","yes","Lexical_Decision_Task.osexp","C:/Users/gluza/OneDrive/Desktop","no","Andale Mono","no","18","no","white","no","yes","576","legacy","75","75","3","C:/Users/gluza/OneDrive/Desktop/subject-5126117.csv","legacy","Lentiform Loewenfeld","3.3.7","yes","yes","600bd7cfb6416f0113b04181","602110864497cf011d9c0822","0","f","NA","space","space","space","j","f","570","NA","3572","14266","3138","7377","570","2","legacy","1024","2","48000","-16","task","5126117","odd","NA","33665","39241","35668","199645","5498","22907","19767","200148","137360","199644","200148","199537","39241","200720","31944","196326","5484","198037","Lexical Decision Task","67","64188","80","yes","1024"
"3.488597715","0","9","nain","non-word","83.95061728395062","83.95061728395062","807.9876543209876","807.9876543209876","black","no","legacy","legacy","legacy","0","uniform","1","undefined","undefined","undefined","1","f","0","0","0","0","80","0","0","0","80","0","76","80","76","0","76","3","80","0","80","Thu Feb 25 14:47:02 2021","The main experiment item","yes","Lexical_Decision_Task.osexp","C:/Users/gluza/OneDrive/Desktop","no","Andale Mono","no","18","no","white","no","yes","576","legacy","76","76","3","C:/Users/gluza/OneDrive/Desktop/subject-5126117.csv","legacy","Lentiform Loewenfeld","3.3.7","yes","yes","600bd7cfb6416f0113b04181","602110864497cf011d9c0822","0","f","NA","space","space","space","j","f","1259","NA","3572","14266","3138","7377","1259","2","legacy","1024","2","48000","-16","task","5126117","odd","NA","33665","39241","35668","202339","5498","22907","19767","202843","137360","202337","202843","202228","39241","204103","31944","196326","5484","200728","Lexical Decision Task","68","65447","81","yes","1024"
"3.307211407","6.07","7","honk","word","84.14634146341463","84.14634146341463","808.4634146341464","808.4634146341464","black","no","legacy","legacy","legacy","0","uniform","1","undefined","undefined","undefined","1","j","0","0","0","0","81","0","0","0","81","0","77","81","77","0","77","3","81","0","81","Thu Feb 25 14:47:02 2021","The main experiment item","yes","Lexical_Decision_Task.osexp","C:/Users/gluza/OneDrive/Desktop","no","Andale Mono","no","18","no","white","no","yes","576","legacy","77","77","3","C:/Users/gluza/OneDrive/Desktop/subject-5126117.csv","legacy","Lentiform Loewenfeld","3.3.7","yes","yes","600bd7cfb6416f0113b04181","602110864497cf011d9c0822","0","j","NA","space","space","space","j","j","847","NA","3572","14266","3138","7377","847","2","legacy","1024","2","48000","-16","task","5126117","odd","NA","33665","39241","35668","204708","5498","22907","19767","205211","137360","204707","205211","204607","39241","206063","31944","204107","5484","200728","Lexical Decision Task","69","66294","82","yes","1024"
"3.225825991","0","7","talm","non-word","84.33734939759036","84.33734939759036","805.7710843373494","805.7710843373494","black","no","legacy","legacy","legacy","0","uniform","1","undefined","undefined","undefined","1","f","0","0","0","0","82","0","0","0","82","0","78","82","78","0","78","3","82","0","82","Thu Feb 25 14:47:02 2021","The main experiment item","yes","Lexical_Decision_Task.osexp","C:/Users/gluza/OneDrive/Desktop","no","Andale Mono","no","18","no","white","no","yes","576","legacy","78","78","3","C:/Users/gluza/OneDrive/Desktop/subject-5126117.csv","legacy","Lentiform Loewenfeld","3.3.7","yes","yes","600bd7cfb6416f0113b04181","602110864497cf011d9c0822","0","f","NA","space","space","space","j","f","585","NA","3572","14266","3138","7377","585","2","legacy","1024","2","48000","-16","task","5126117","odd","NA","33665","39241","35668","206664","5498","22907","19767","207167","137360","206662","207167","206571","39241","207754","31944","206071","5484","200728","Lexical Decision Task","70","66879","83","yes","1024"
"3.384413096","10.15","3","glad","word","84.52380952380952","84.52380952380952","803.3095238095239","803.3095238095239","black","no","legacy","legacy","legacy","0","uniform","1","undefined","undefined","undefined","1","j","0","0","0","0","83","0","0","0","83","0","79","83","79","0","79","3","83","0","83","Thu Feb 25 14:47:02 2021","The main experiment item","yes","Lexical_Decision_Task.osexp","C:/Users/gluza/OneDrive/Desktop","no","Andale Mono","no","18","no","white","no","yes","576","legacy","79","79","3","C:/Users/gluza/OneDrive/Desktop/subject-5126117.csv","legacy","Lentiform Loewenfeld","3.3.7","yes","yes","600bd7cfb6416f0113b04181","602110864497cf011d9c0822","0","j","NA","space","space","space","j","j","599","NA","3572","14266","3138","7377","599","2","legacy","1024","2","48000","-16","task","5126117","odd","NA","33665","39241","35668","208349","5498","22907","19767","208852","137360","208348","208853","208258","39241","209456","31944","207758","5484","200728","Lexical Decision Task","71","67478","84","yes","1024"
"2.664328519","0","4","plux","non-word","84.70588235294117","84.70588235294117","800.7411764705882","800.7411764705882","black","no","legacy","legacy","legacy","0","uniform","1","undefined","undefined","undefined","1","f","0","0","0","0","84","0","0","0","84","0","80","84","80","0","80","3","84","0","84","Thu Feb 25 14:47:02 2021","The main experiment item","yes","Lexical_Decision_Task.osexp","C:/Users/gluza/OneDrive/Desktop","no","Andale Mono","no","18","no","white","no","yes","576","legacy","80","80","3","C:/Users/gluza/OneDrive/Desktop/subject-5126117.csv","legacy","Lentiform Loewenfeld","3.3.7","yes","yes","600bd7cfb6416f0113b04181","602110864497cf011d9c0822","0","f","NA","space","space","space","j","f","585","NA","3572","14266","3138","7377","585","2","legacy","1024","2","48000","-16","task","5126117","odd","NA","33665","39241","35668","210055","5498","22907","19767","210558","137360","210054","210558","209963","39241","211145","31944","209463","5484","200728","Lexical Decision Task","72","68063","85","yes","1024"
"2.6599162","0","2","saff","non-word","84.88372093023256","84.88372093023256","799.8023255813954","799.8023255813954","black","no","legacy","legacy","legacy","0","uniform","1","undefined","undefined","undefined","1","f","0","0","0","0","85","0","0","0","85","0","81","85","81","0","81","3","85","0","85","Thu Feb 25 14:47:02 2021","The main experiment item","yes","Lexical_Decision_Task.osexp","C:/Users/gluza/OneDrive/Desktop","no","Andale Mono","no","18","no","white","no","yes","576","legacy","81","81","3","C:/Users/gluza/OneDrive/Desktop/subject-5126117.csv","legacy","Lentiform Loewenfeld","3.3.7","yes","yes","600bd7cfb6416f0113b04181","602110864497cf011d9c0822","0","f","NA","space","space","space","j","f","720","NA","3572","14266","3138","7377","720","2","legacy","1024","2","48000","-16","task","5126117","odd","NA","33665","39241","35668","211743","5498","22907","19767","212246","137360","211741","212247","211649","39241","212971","31944","211149","5484","200728","Lexical Decision Task","73","68783","86","yes","1024"
"2.986323777","10.85","8","ship","word","85.05747126436782","85.05747126436782","796.6551724137931","796.6551724137931","black","no","legacy","legacy","legacy","0","uniform","1","undefined","undefined","undefined","1","j","0","0","0","0","86","0","0","0","86","0","82","86","82","0","82","3","86","0","86","Thu Feb 25 14:47:02 2021","The main experiment item","yes","Lexical_Decision_Task.osexp","C:/Users/gluza/OneDrive/Desktop","no","Andale Mono","no","18","no","white","no","yes","576","legacy","82","82","3","C:/Users/gluza/OneDrive/Desktop/subject-5126117.csv","legacy","Lentiform Loewenfeld","3.3.7","yes","yes","600bd7cfb6416f0113b04181","602110864497cf011d9c0822","0","j","NA","space","space","space","j","j","526","NA","3572","14266","3138","7377","526","2","legacy","1024","2","48000","-16","task","5126117","odd","NA","33665","39241","35668","213571","5498","22907","19767","214074","137360","213569","214074","213477","39241","214602","31944","212977","5484","200728","Lexical Decision Task","74","69309","87","yes","1024"
"2.892836167","10.01","5","soft","word","85.22727272727273","85.22727272727273","793.3977272727273","793.3977272727273","black","no","legacy","legacy","legacy","0","uniform","1","undefined","undefined","undefined","1","j","0","0","0","0","87","0","0","0","87","0","83","87","83","0","83","3","87","0","87","Thu Feb 25 14:47:02 2021","The main experiment item","yes","Lexical_Decision_Task.osexp","C:/Users/gluza/OneDrive/Desktop","no","Andale Mono","no","18","no","white","no","yes","576","legacy","83","83","3","C:/Users/gluza/OneDrive/Desktop/subject-5126117.csv","legacy","Lentiform Loewenfeld","3.3.7","yes","yes","600bd7cfb6416f0113b04181","602110864497cf011d9c0822","0","j","NA","space","space","space","j","j","510","NA","3572","14266","3138","7377","510","2","legacy","1024","2","48000","-16","task","5126117","odd","NA","33665","39241","35668","215215","5498","22907","19767","215718","137360","215214","215718","215108","39241","216231","31944","214608","5484","200728","Lexical Decision Task","75","69819","88","yes","1024"
"3.378276681","6.39","8","bran","word","84.26966292134831","84.26966292134831","793.5168539325842","793.5168539325842","black","no","legacy","legacy","legacy","0","uniform","0","undefined","undefined","undefined","0","j","0","0","0","0","88","0","0","0","88","0","84","88","84","0","84","3","88","0","88","Thu Feb 25 14:47:02 2021","The main experiment item","yes","Lexical_Decision_Task.osexp","C:/Users/gluza/OneDrive/Desktop","no","Andale Mono","no","18","no","white","no","yes","576","legacy","84","84","3","C:/Users/gluza/OneDrive/Desktop/subject-5126117.csv","legacy","Lentiform Loewenfeld","3.3.7","yes","yes","600bd7cfb6416f0113b04181","602110864497cf011d9c0822","0","f","NA","space","space","space","j","f","804","NA","3572","14266","3138","7377","804","2","legacy","1024","2","48000","-16","task","5126117","odd","NA","33665","39241","35668","216838","5498","22907","19767","217342","137360","216837","217342","216740","39241","218150","31944","216240","5484","200728","Lexical Decision Task","75","70623","89","yes","1024"
"2.793790385","5.67","9","swab","word","84.44444444444444","84.44444444444444","799.6777777777778","799.6777777777778","black","no","legacy","legacy","legacy","0","uniform","1","undefined","undefined","undefined","1","j","0","0","0","0","89","0","0","0","89","0","85","89","85","0","85","3","89","0","89","Thu Feb 25 14:47:02 2021","The main experiment item","yes","Lexical_Decision_Task.osexp","C:/Users/gluza/OneDrive/Desktop","no","Andale Mono","no","18","no","white","no","yes","576","legacy","85","85","3","C:/Users/gluza/OneDrive/Desktop/subject-5126117.csv","legacy","Lentiform Loewenfeld","3.3.7","yes","yes","600bd7cfb6416f0113b04181","602110864497cf011d9c0822","0","j","NA","space","space","space","j","j","1348","NA","3572","14266","3138","7377","1348","2","legacy","1024","2","48000","-16","task","5126117","odd","NA","33665","39241","35668","219770","5498","22907","19767","220274","137360","219769","220275","219659","39241","221627","31944","216240","5484","218159","Lexical Decision Task","76","71971","90","yes","1024"
"3.195807436","0","6","stup","non-word","84.61538461538461","84.61538461538461","798.8901098901099","798.8901098901099","black","no","legacy","legacy","legacy","0","uniform","1","undefined","undefined","undefined","1","f","0","0","0","0","90","0","0","0","90","0","86","90","86","0","86","3","90","0","90","Thu Feb 25 14:47:02 2021","The main experiment item","yes","Lexical_Decision_Task.osexp","C:/Users/gluza/OneDrive/Desktop","no","Andale Mono","no","18","no","white","no","yes","576","legacy","86","86","3","C:/Users/gluza/OneDrive/Desktop/subject-5126117.csv","legacy","Lentiform Loewenfeld","3.3.7","yes","yes","600bd7cfb6416f0113b04181","602110864497cf011d9c0822","0","f","NA","space","space","space","j","f","728","NA","3572","14266","3138","7377","728","2","legacy","1024","2","48000","-16","task","5126117","odd","NA","33665","39241","35668","222232","5498","22907","19767","222735","137360","222231","222735","222135","39241","223467","31944","221635","5484","218159","Lexical Decision Task","77","72699","91","yes","1024"
"3.131833513","7.66","4","limb","word","84.78260869565217","84.78260869565217","795.7065217391304","795.7065217391304","black","no","legacy","legacy","legacy","0","uniform","1","undefined","undefined","undefined","1","j","0","0","0","0","91","0","0","0","91","0","87","91","87","0","87","3","91","0","91","Thu Feb 25 14:47:02 2021","The main experiment item","yes","Lexical_Decision_Task.osexp","C:/Users/gluza/OneDrive/Desktop","no","Andale Mono","no","18","no","white","no","yes","576","legacy","87","87","3","C:/Users/gluza/OneDrive/Desktop/subject-5126117.csv","legacy","Lentiform Loewenfeld","3.3.7","yes","yes","600bd7cfb6416f0113b04181","602110864497cf011d9c0822","0","j","NA","space","space","space","j","j","506","NA","3572","14266","3138","7377","506","2","legacy","1024","2","48000","-16","task","5126117","odd","NA","33665","39241","35668","224065","5498","22907","19767","224568","137360","224063","224568","223973","39241","225077","31944","223473","5484","218159","Lexical Decision Task","78","73205","92","yes","1024"
"3.282244367","0","6","fute","non-word","84.94623655913979","84.94623655913979","793.5913978494624","793.5913978494624","black","no","legacy","legacy","legacy","0","uniform","1","undefined","undefined","undefined","1","f","0","0","0","0","92","0","0","0","92","0","88","92","88","0","88","3","92","0","92","Thu Feb 25 14:47:02 2021","The main experiment item","yes","Lexical_Decision_Task.osexp","C:/Users/gluza/OneDrive/Desktop","no","Andale Mono","no","18","no","white","no","yes","576","legacy","88","88","3","C:/Users/gluza/OneDrive/Desktop/subject-5126117.csv","legacy","Lentiform Loewenfeld","3.3.7","yes","yes","600bd7cfb6416f0113b04181","602110864497cf011d9c0822","0","f","NA","space","space","space","j","f","599","NA","3572","14266","3138","7377","599","2","legacy","1024","2","48000","-16","task","5126117","odd","NA","33665","39241","35668","225686","5498","22907","19767","226189","137360","225684","226189","225584","39241","226791","31944","225084","5484","218159","Lexical Decision Task","79","73804","93","yes","1024"
"3.119255889","6.63","2","itch","word","85.1063829787234","85.1063829787234","793.1595744680851","793.1595744680851","black","no","legacy","legacy","legacy","0","uniform","1","undefined","undefined","undefined","1","j","0","0","0","0","93","0","0","0","93","0","89","93","89","0","89","3","93","0","93","Thu Feb 25 14:47:02 2021","The main experiment item","yes","Lexical_Decision_Task.osexp","C:/Users/gluza/OneDrive/Desktop","no","Andale Mono","no","18","no","white","no","yes","576","legacy","89","89","3","C:/Users/gluza/OneDrive/Desktop/subject-5126117.csv","legacy","Lentiform Loewenfeld","3.3.7","yes","yes","600bd7cfb6416f0113b04181","602110864497cf011d9c0822","0","j","NA","space","space","space","j","j","753","NA","3572","14266","3138","7377","753","2","legacy","1024","2","48000","-16","task","5126117","odd","NA","33665","39241","35668","227397","5498","22907","19767","227902","137360","227396","227902","227297","39241","228657","31944","226797","5484","218159","Lexical Decision Task","80","74557","94","yes","1024"
"2.755364069","7.72","2","hoax","word","85.26315789473684","85.26315789473684","791.1263157894737","791.1263157894737","black","no","legacy","legacy","legacy","0","uniform","1","undefined","undefined","undefined","1","j","0","0","0","0","94","0","0","0","94","0","90","94","90","0","90","3","94","0","94","Thu Feb 25 14:47:02 2021","The main experiment item","yes","Lexical_Decision_Task.osexp","C:/Users/gluza/OneDrive/Desktop","no","Andale Mono","no","18","no","white","no","yes","576","legacy","90","90","3","C:/Users/gluza/OneDrive/Desktop/subject-5126117.csv","legacy","Lentiform Loewenfeld","3.3.7","yes","yes","600bd7cfb6416f0113b04181","602110864497cf011d9c0822","0","j","NA","space","space","space","j","j","600","NA","3572","14266","3138","7377","600","2","legacy","1024","2","48000","-16","task","5126117","odd","NA","33665","39241","35668","229254","5498","22907","19767","229758","137360","229253","229758","229164","39241","230361","31944","228664","5484","218159","Lexical Decision Task","81","75157","95","yes","1024"
"2.814027728","8.2","4","foam","word","85.41666666666667","85.41666666666667","790.5104166666666","790.5104166666666","black","no","legacy","legacy","legacy","0","uniform","1","undefined","undefined","undefined","1","j","0","0","0","0","95","0","0","0","95","0","91","95","91","0","91","3","95","0","95","Thu Feb 25 14:47:02 2021","The main experiment item","yes","Lexical_Decision_Task.osexp","C:/Users/gluza/OneDrive/Desktop","no","Andale Mono","no","18","no","white","no","yes","576","legacy","91","91","3","C:/Users/gluza/OneDrive/Desktop/subject-5126117.csv","legacy","Lentiform Loewenfeld","3.3.7","yes","yes","600bd7cfb6416f0113b04181","602110864497cf011d9c0822","0","j","NA","space","space","space","j","j","732","NA","3572","14266","3138","7377","732","2","legacy","1024","2","48000","-16","task","5126117","odd","NA","33665","39241","35668","230968","5498","22907","19767","231471","137360","230967","231472","230867","39241","232206","31944","230367","5484","218159","Lexical Decision Task","82","75889","96","yes","1024"
"3.120025233","0","2","nyst","non-word","85.56701030927834","85.56701030927834","791.7216494845361","791.7216494845361","black","no","legacy","legacy","legacy","0","uniform","1","undefined","undefined","undefined","1","f","0","0","0","0","96","0","0","0","96","0","92","96","92","0","92","3","96","0","96","Thu Feb 25 14:47:02 2021","The main experiment item","yes","Lexical_Decision_Task.osexp","C:/Users/gluza/OneDrive/Desktop","no","Andale Mono","no","18","no","white","no","yes","576","legacy","92","92","3","C:/Users/gluza/OneDrive/Desktop/subject-5126117.csv","legacy","Lentiform Loewenfeld","3.3.7","yes","yes","600bd7cfb6416f0113b04181","602110864497cf011d9c0822","0","f","NA","space","space","space","j","f","908","NA","3572","14266","3138","7377","908","2","legacy","1024","2","48000","-16","task","5126117","odd","NA","33665","39241","35668","232801","5498","22907","19767","233304","137360","232800","233304","232710","39241","234216","31944","232210","5484","218159","Lexical Decision Task","83","76797","97","yes","1024"
"2.68604012","0","4","pumb","non-word","85.71428571428571","85.71428571428571","795.1836734693877","795.1836734693877","black","no","legacy","legacy","legacy","0","uniform","1","undefined","undefined","undefined","1","f","0","0","0","0","97","0","0","0","97","0","93","97","93","0","93","3","97","0","97","Thu Feb 25 14:47:02 2021","The main experiment item","yes","Lexical_Decision_Task.osexp","C:/Users/gluza/OneDrive/Desktop","no","Andale Mono","no","18","no","white","no","yes","576","legacy","93","93","3","C:/Users/gluza/OneDrive/Desktop/subject-5126117.csv","legacy","Lentiform Loewenfeld","3.3.7","yes","yes","600bd7cfb6416f0113b04181","602110864497cf011d9c0822","0","f","NA","space","space","space","j","f","1131","NA","3572","14266","3138","7377","1131","2","legacy","1024","2","48000","-16","task","5126117","odd","NA","33665","39241","35668","234807","5498","22907","19767","235310","137360","234806","235310","234722","39241","236444","31944","234222","5484","218159","Lexical Decision Task","84","77928","98","yes","1024"
"3.102203805","7.21","3","drip","word","85.85858585858585","85.85858585858585","793.1919191919192","793.1919191919192","black","no","legacy","legacy","legacy","0","uniform","1","undefined","undefined","undefined","1","j","0","0","0","0","98","0","0","0","98","0","94","98","94","0","94","3","98","0","98","Thu Feb 25 14:47:02 2021","The main experiment item","yes","Lexical_Decision_Task.osexp","C:/Users/gluza/OneDrive/Desktop","no","Andale Mono","no","18","no","white","no","yes","576","legacy","94","94","3","C:/Users/gluza/OneDrive/Desktop/subject-5126117.csv","legacy","Lentiform Loewenfeld","3.3.7","yes","yes","600bd7cfb6416f0113b04181","602110864497cf011d9c0822","0","j","NA","space","space","space","j","j","598","NA","3572","14266","3138","7377","598","2","legacy","1024","2","48000","-16","task","5126117","odd","NA","33665","39241","35668","237052","5498","22907","19767","237555","137360","237051","237556","236951","39241","238155","31944","236451","5484","218159","Lexical Decision Task","85","78526","99","yes","1024"
