"Log_BG","Log_Freq_HAL","Ortho_N","Stimulus","Type","acc","accuracy","average_response_time","avg_rt","background","bidi","canvas_backend","clock_backend","color_backend","compensation","coordinates","correct","correct_Experimental_intro","correct_Introduction","correct_Practice_intro","correct_experimenter_kb","correct_response","count_End_Of_Experiment","count_End_Of_Practice","count_Experimental_Loop","count_Experimental_intro","count_Fixation","count_Introduction","count_Practice_Loop","count_Practice_intro","count_Stimulus","count_block_break_feedback","count_experimental_sequence","count_experimenter_kb","count_increment_trial_count","count_init_trial_count","count_logger","count_practice_sequence","count_right","count_task","count_wrong","datetime","description","disable_garbage_collection","experiment_file","experiment_path","font_bold","font_family","font_italic","font_size","font_underline","foreground","form_clicks","fullscreen","height","keyboard_backend","live_row","live_row_Experimental_Loop","live_row_Practice_Loop","logfile","mouse_backend","opensesame_codename","opensesame_version","osf_always_upload_data","osf_always_upload_experiment","osf_datanode_id","osf_id","repeat_cycle","response","response_End_Of_Experiment","response_Experimental_intro","response_Introduction","response_Practice_intro","response_block_break_feedback","response_experimenter_kb","response_time","response_time_End_Of_Experiment","response_time_Experimental_intro","response_time_Introduction","response_time_Practice_intro","response_time_block_break_feedback","response_time_experimenter_kb","round_decimals","sampler_backend","sound_buf_size","sound_channels","sound_freq","sound_sample_size","start","subject_nr","subject_parity","time_End_Of_Experiment","time_End_Of_Practice","time_Experimental_Loop","time_Experimental_intro","time_Fixation","time_Introduction","time_Practice_Loop","time_Practice_intro","time_Stimulus","time_block_break_feedback","time_experimental_sequence","time_experimenter_kb","time_increment_trial_count","time_init_trial_count","time_logger","time_practice_sequence","time_right","time_task","time_wrong","title","total_correct","total_response_time","total_responses","uniform_coordinates","width"
"2.698100546","0","9","mulk","non-word","20","20","2893.2","2893.2","black","no","legacy","legacy","legacy","0","uniform","1","undefined","undefined","undefined","1","f","0","0","0","0","4","0","0","0","4","NA","0","4","0","0","0","3","4","0","4","Wed Feb 17 11:49:42 2021","The main experiment item","yes","Lexical_Decision_Task.osexp","C:/Users/Andrea/Downloads","no","Andale Mono","no","18","no","white","no","yes","576","legacy","0","0","3","C:/Users/Andrea/Downloads/subject-5220796.csv","legacy","Lentiform Loewenfeld","3.3.7","yes","yes","600bd7cfb6416f0113b04181","602110864497cf011d9c0822","0","f","NA","space","space","space","NA","f","2466","NA","7682","16139","8395","NA","2466","2","legacy","1024","2","48000","-16","task","5220796","even","NA","47570","57255","49571","57298","2582","27118","18723","57801","NA","57297","57802","NA","57254","60269","42534","NA","2579","46039","Lexical Decision Task","1","14466","5","yes","1024"
"3.140404328","10.66","9","deep","word","33.333333333333336","33.333333333333336","2641.1666666666665","2641.1666666666665","black","no","legacy","legacy","legacy","0","uniform","1","undefined","undefined","undefined","1","j","0","0","0","0","5","0","0","0","5","NA","1","5","1","0","1","3","5","0","5","Wed Feb 17 11:49:42 2021","The main experiment item","yes","Lexical_Decision_Task.osexp","C:/Users/Andrea/Downloads","no","Andale Mono","no","18","no","white","no","yes","576","legacy","1","1","3","C:/Users/Andrea/Downloads/subject-5220796.csv","legacy","Lentiform Loewenfeld","3.3.7","yes","yes","600bd7cfb6416f0113b04181","602110864497cf011d9c0822","0","j","NA","space","space","space","NA","j","1381","NA","7682","16139","8395","NA","1381","2","legacy","1024","2","48000","-16","task","5220796","even","NA","47570","57255","49571","61027","2582","27118","18723","61530","NA","61026","61530","60920","57254","62912","42534","60420","2579","46039","Lexical Decision Task","2","15847","6","yes","1024"
"2.819763221","0","2","durp","non-word","28.571428571428573","28.571428571428573","2692.5714285714284","2692.5714285714284","black","no","legacy","legacy","legacy","0","uniform","0","undefined","undefined","undefined","0","f","0","0","0","0","6","0","0","0","6","NA","2","6","2","0","2","3","6","0","6","Wed Feb 17 11:49:42 2021","The main experiment item","yes","Lexical_Decision_Task.osexp","C:/Users/Andrea/Downloads","no","Andale Mono","no","18","no","white","no","yes","576","legacy","2","2","3","C:/Users/Andrea/Downloads/subject-5220796.csv","legacy","Lentiform Loewenfeld","3.3.7","yes","yes","600bd7cfb6416f0113b04181","602110864497cf011d9c0822","0","None","NA","space","space","space","NA","None","3001","NA","7682","16139","8395","NA","3001","2","legacy","1024","2","48000","-16","task","5220796","even","NA","47570","57255","49571","63615","2582","27118","18723","64116","NA","63614","64116","63534","57254","67117","42534","63034","2579","46039","Lexical Decision Task","2","18848","7","yes","1024"
"2.778633532","0","3","jurp","non-word","37.5","37.5","2513.125","2513.125","black","no","legacy","legacy","legacy","0","uniform","1","undefined","undefined","undefined","1","f","0","0","0","0","7","0","0","0","7","NA","3","7","3","0","3","3","7","0","7","Wed Feb 17 11:49:42 2021","The main experiment item","yes","Lexical_Decision_Task.osexp","C:/Users/Andrea/Downloads","no","Andale Mono","no","18","no","white","no","yes","576","legacy","3","3","3","C:/Users/Andrea/Downloads/subject-5220796.csv","legacy","Lentiform Loewenfeld","3.3.7","yes","yes","600bd7cfb6416f0113b04181","602110864497cf011d9c0822","0","f","NA","space","space","space","NA","f","1257","NA","7682","16139","8395","NA","1257","2","legacy","1024","2","48000","-16","task","5220796","even","NA","47570","57255","49571","68754","2582","27118","18723","69255","NA","68752","69255","68652","57254","70513","42534","63034","2579","67152","Lexical Decision Task","3","20105","8","yes","1024"
"2.980306438","0","7","slun","non-word","44.44444444444444","44.44444444444444","2414.222222222222","2414.222222222222","black","no","legacy","legacy","legacy","0","uniform","1","undefined","undefined","undefined","1","f","0","0","0","0","8","0","0","0","8","NA","4","8","4","0","4","3","8","0","8","Wed Feb 17 11:49:42 2021","The main experiment item","yes","Lexical_Decision_Task.osexp","C:/Users/Andrea/Downloads","no","Andale Mono","no","18","no","white","no","yes","576","legacy","4","4","3","C:/Users/Andrea/Downloads/subject-5220796.csv","legacy","Lentiform Loewenfeld","3.3.7","yes","yes","600bd7cfb6416f0113b04181","602110864497cf011d9c0822","0","f","NA","space","space","space","NA","f","1623","NA","7682","16139","8395","NA","1623","2","legacy","1024","2","48000","-16","task","5220796","even","NA","47570","57255","49571","71196","2582","27118","18723","71699","NA","71194","71699","71129","57254","73322","42534","70629","2579","67152","Lexical Decision Task","4","21728","9","yes","1024"
"3.384413096","10.15","3","glad","word","50","50","2407.4","2407.4","black","no","legacy","legacy","legacy","0","uniform","1","undefined","undefined","undefined","1","j","0","0","0","0","9","0","0","0","9","NA","5","9","5","0","5","3","9","0","9","Wed Feb 17 11:49:42 2021","The main experiment item","yes","Lexical_Decision_Task.osexp","C:/Users/Andrea/Downloads","no","Andale Mono","no","18","no","white","no","yes","576","legacy","5","5","3","C:/Users/Andrea/Downloads/subject-5220796.csv","legacy","Lentiform Loewenfeld","3.3.7","yes","yes","600bd7cfb6416f0113b04181","602110864497cf011d9c0822","0","j","NA","space","space","space","NA","j","2346","NA","7682","16139","8395","NA","2346","2","legacy","1024","2","48000","-16","task","5220796","even","NA","47570","57255","49571","74030","2582","27118","18723","74531","NA","74027","74531","73941","57254","76877","42534","73441","2579","67152","Lexical Decision Task","5","24074","10","yes","1024"
"2.793790385","5.67","9","swab","word","54.54545454545455","54.54545454545455","2339.5454545454545","2339.5454545454545","black","no","legacy","legacy","legacy","0","uniform","1","undefined","undefined","undefined","1","j","0","0","0","0","10","0","0","0","10","NA","6","10","6","0","6","3","10","0","10","Wed Feb 17 11:49:42 2021","The main experiment item","yes","Lexical_Decision_Task.osexp","C:/Users/Andrea/Downloads","no","Andale Mono","no","18","no","white","no","yes","576","legacy","6","6","3","C:/Users/Andrea/Downloads/subject-5220796.csv","legacy","Lentiform Loewenfeld","3.3.7","yes","yes","600bd7cfb6416f0113b04181","602110864497cf011d9c0822","0","j","NA","space","space","space","NA","j","1661","NA","7682","16139","8395","NA","1661","2","legacy","1024","2","48000","-16","task","5220796","even","NA","47570","57255","49571","77591","2582","27118","18723","78092","NA","77590","78092","77495","57254","79753","42534","76995","2579","67152","Lexical Decision Task","6","25735","11","yes","1024"
"3.067070856","9.39","3","loud","word","58.333333333333336","58.333333333333336","2219.4166666666665","2219.4166666666665","black","no","legacy","legacy","legacy","0","uniform","1","undefined","undefined","undefined","1","j","0","0","0","0","11","0","0","0","11","NA","7","11","7","0","7","3","11","0","11","Wed Feb 17 11:49:42 2021","The main experiment item","yes","Lexical_Decision_Task.osexp","C:/Users/Andrea/Downloads","no","Andale Mono","no","18","no","white","no","yes","576","legacy","7","7","3","C:/Users/Andrea/Downloads/subject-5220796.csv","legacy","Lentiform Loewenfeld","3.3.7","yes","yes","600bd7cfb6416f0113b04181","602110864497cf011d9c0822","0","j","NA","space","space","space","NA","j","898","NA","7682","16139","8395","NA","898","2","legacy","1024","2","48000","-16","task","5220796","even","NA","47570","57255","49571","80453","2582","27118","18723","80954","NA","80451","80954","80362","57254","81852","42534","79862","2579","67152","Lexical Decision Task","7","26633","12","yes","1024"
"3.121778632","0","9","sark","non-word","61.53846153846154","61.53846153846154","2198.230769230769","2198.230769230769","black","no","legacy","legacy","legacy","0","uniform","1","undefined","undefined","undefined","1","f","0","0","0","0","12","0","0","0","12","NA","8","12","8","0","8","3","12","0","12","Wed Feb 17 11:49:42 2021","The main experiment item","yes","Lexical_Decision_Task.osexp","C:/Users/Andrea/Downloads","no","Andale Mono","no","18","no","white","no","yes","576","legacy","8","8","3","C:/Users/Andrea/Downloads/subject-5220796.csv","legacy","Lentiform Loewenfeld","3.3.7","yes","yes","600bd7cfb6416f0113b04181","602110864497cf011d9c0822","0","f","NA","space","space","space","NA","f","1944","NA","7682","16139","8395","NA","1944","2","legacy","1024","2","48000","-16","task","5220796","even","NA","47570","57255","49571","82574","2582","27118","18723","83075","NA","82573","83075","82479","57254","85020","42534","81979","2579","67152","Lexical Decision Task","8","28577","13","yes","1024"
"3.094121596","0","8","fode","non-word","64.28571428571429","64.28571428571429","2124.1428571428573","2124.1428571428573","black","no","legacy","legacy","legacy","0","uniform","1","undefined","undefined","undefined","1","f","0","0","0","0","13","0","0","0","13","NA","9","13","9","0","9","3","13","0","13","Wed Feb 17 11:49:42 2021","The main experiment item","yes","Lexical_Decision_Task.osexp","C:/Users/Andrea/Downloads","no","Andale Mono","no","18","no","white","no","yes","576","legacy","9","9","3","C:/Users/Andrea/Downloads/subject-5220796.csv","legacy","Lentiform Loewenfeld","3.3.7","yes","yes","600bd7cfb6416f0113b04181","602110864497cf011d9c0822","0","f","NA","space","space","space","NA","f","1161","NA","7682","16139","8395","NA","1161","2","legacy","1024","2","48000","-16","task","5220796","even","NA","47570","57255","49571","85736","2582","27118","18723","86239","NA","85735","86239","85643","57254","87401","42534","85143","2579","67152","Lexical Decision Task","9","29738","14","yes","1024"
"3.22685757","9.99","7","roll","word","66.66666666666667","66.66666666666667","2059.733333333333","2059.733333333333","black","no","legacy","legacy","legacy","0","uniform","1","undefined","undefined","undefined","1","j","0","0","0","0","14","0","0","0","14","NA","10","14","10","0","10","3","14","0","14","Wed Feb 17 11:49:42 2021","The main experiment item","yes","Lexical_Decision_Task.osexp","C:/Users/Andrea/Downloads","no","Andale Mono","no","18","no","white","no","yes","576","legacy","10","10","3","C:/Users/Andrea/Downloads/subject-5220796.csv","legacy","Lentiform Loewenfeld","3.3.7","yes","yes","600bd7cfb6416f0113b04181","602110864497cf011d9c0822","0","j","NA","space","space","space","NA","j","1158","NA","7682","16139","8395","NA","1158","2","legacy","1024","2","48000","-16","task","5220796","even","NA","47570","57255","49571","88067","2582","27118","18723","88568","NA","88065","88568","87992","57254","89727","42534","87492","2579","67152","Lexical Decision Task","10","30896","15","yes","1024"
"3.062080345","0","6","tomp","non-word","68.75","68.75","2005.25","2005.25","black","no","legacy","legacy","legacy","0","uniform","1","undefined","undefined","undefined","1","f","0","0","0","0","15","0","0","0","15","NA","11","15","11","0","11","3","15","0","15","Wed Feb 17 11:49:42 2021","The main experiment item","yes","Lexical_Decision_Task.osexp","C:/Users/Andrea/Downloads","no","Andale Mono","no","18","no","white","no","yes","576","legacy","11","11","3","C:/Users/Andrea/Downloads/subject-5220796.csv","legacy","Lentiform Loewenfeld","3.3.7","yes","yes","600bd7cfb6416f0113b04181","602110864497cf011d9c0822","0","f","NA","space","space","space","NA","f","1188","NA","7682","16139","8395","NA","1188","2","legacy","1024","2","48000","-16","task","5220796","even","NA","47570","57255","49571","90353","2582","27118","18723","90854","NA","90351","90854","90260","57254","92043","42534","89760","2579","67152","Lexical Decision Task","11","32084","16","yes","1024"
"2.664328519","0","4","plux","non-word","70.58823529411765","70.58823529411765","1956.1176470588234","1956.1176470588234","black","no","legacy","legacy","legacy","0","uniform","1","undefined","undefined","undefined","1","f","0","0","0","0","16","0","0","0","16","NA","12","16","12","0","12","3","16","0","16","Wed Feb 17 11:49:42 2021","The main experiment item","yes","Lexical_Decision_Task.osexp","C:/Users/Andrea/Downloads","no","Andale Mono","no","18","no","white","no","yes","576","legacy","12","12","3","C:/Users/Andrea/Downloads/subject-5220796.csv","legacy","Lentiform Loewenfeld","3.3.7","yes","yes","600bd7cfb6416f0113b04181","602110864497cf011d9c0822","0","f","NA","space","space","space","NA","f","1170","NA","7682","16139","8395","NA","1170","2","legacy","1024","2","48000","-16","task","5220796","even","NA","47570","57255","49571","92673","2582","27118","18723","93175","NA","92673","93176","92614","57254","94347","42534","92114","2579","67152","Lexical Decision Task","12","33254","17","yes","1024"
"3.302475237","0","7","leel","non-word","72.22222222222223","72.22222222222223","1910.5555555555557","1910.5555555555557","black","no","legacy","legacy","legacy","0","uniform","1","undefined","undefined","undefined","1","f","0","0","0","0","17","0","0","0","17","NA","13","17","13","0","13","3","17","0","17","Wed Feb 17 11:49:42 2021","The main experiment item","yes","Lexical_Decision_Task.osexp","C:/Users/Andrea/Downloads","no","Andale Mono","no","18","no","white","no","yes","576","legacy","13","13","3","C:/Users/Andrea/Downloads/subject-5220796.csv","legacy","Lentiform Loewenfeld","3.3.7","yes","yes","600bd7cfb6416f0113b04181","602110864497cf011d9c0822","0","f","NA","space","space","space","NA","f","1136","NA","7682","16139","8395","NA","1136","2","legacy","1024","2","48000","-16","task","5220796","even","NA","47570","57255","49571","94952","2582","27118","18723","95454","NA","94951","95454","94882","57254","96591","42534","94382","2579","67152","Lexical Decision Task","13","34390","18","yes","1024"
"2.6599162","0","6","flug","non-word","68.42105263157895","68.42105263157895","1884.1052631578948","1884.1052631578948","black","no","legacy","legacy","legacy","0","uniform","0","undefined","undefined","undefined","0","f","0","0","0","0","18","0","0","0","18","NA","14","18","14","0","14","3","18","0","18","Wed Feb 17 11:49:42 2021","The main experiment item","yes","Lexical_Decision_Task.osexp","C:/Users/Andrea/Downloads","no","Andale Mono","no","18","no","white","no","yes","576","legacy","14","14","3","C:/Users/Andrea/Downloads/subject-5220796.csv","legacy","Lentiform Loewenfeld","3.3.7","yes","yes","600bd7cfb6416f0113b04181","602110864497cf011d9c0822","0","j","NA","space","space","space","NA","j","1408","NA","7682","16139","8395","NA","1408","2","legacy","1024","2","48000","-16","task","5220796","even","NA","47570","57255","49571","97304","2582","27118","18723","97805","NA","97302","97805","97222","57254","99213","42534","96722","2579","67152","Lexical Decision Task","13","35798","19","yes","1024"
"2.668385917","5.48","4","twig","word","70","70","1907.9","1907.9","black","no","legacy","legacy","legacy","0","uniform","1","undefined","undefined","undefined","1","j","0","0","0","0","19","0","0","0","19","NA","15","19","15","0","15","3","19","0","19","Wed Feb 17 11:49:42 2021","The main experiment item","yes","Lexical_Decision_Task.osexp","C:/Users/Andrea/Downloads","no","Andale Mono","no","18","no","white","no","yes","576","legacy","15","15","3","C:/Users/Andrea/Downloads/subject-5220796.csv","legacy","Lentiform Loewenfeld","3.3.7","yes","yes","600bd7cfb6416f0113b04181","602110864497cf011d9c0822","0","j","NA","space","space","space","NA","j","2360","NA","7682","16139","8395","NA","2360","2","legacy","1024","2","48000","-16","task","5220796","even","NA","47570","57255","49571","100929","2582","27118","18723","101430","NA","100927","101431","100839","57254","103792","42534","96722","2579","99339","Lexical Decision Task","14","38158","20","yes","1024"
"2.920123326","7.43","4","duel","word","71.42857142857143","71.42857142857143","1875","1875","black","no","legacy","legacy","legacy","0","uniform","1","undefined","undefined","undefined","1","j","0","0","0","0","20","0","0","0","20","NA","16","20","16","0","16","3","20","0","20","Wed Feb 17 11:49:42 2021","The main experiment item","yes","Lexical_Decision_Task.osexp","C:/Users/Andrea/Downloads","no","Andale Mono","no","18","no","white","no","yes","576","legacy","16","16","3","C:/Users/Andrea/Downloads/subject-5220796.csv","legacy","Lentiform Loewenfeld","3.3.7","yes","yes","600bd7cfb6416f0113b04181","602110864497cf011d9c0822","0","j","NA","space","space","space","NA","j","1217","NA","7682","16139","8395","NA","1217","2","legacy","1024","2","48000","-16","task","5220796","even","NA","47570","57255","49571","104490","2582","27118","18723","104991","NA","104488","104991","104401","57254","106209","42534","103900","2579","99339","Lexical Decision Task","15","39375","21","yes","1024"
"3.209246849","0","7","slem","non-word","72.72727272727273","72.72727272727273","1853.2272727272727","1853.2272727272727","black","no","legacy","legacy","legacy","0","uniform","1","undefined","undefined","undefined","1","f","0","0","0","0","21","0","0","0","21","NA","17","21","17","0","17","3","21","0","21","Wed Feb 17 11:49:42 2021","The main experiment item","yes","Lexical_Decision_Task.osexp","C:/Users/Andrea/Downloads","no","Andale Mono","no","18","no","white","no","yes","576","legacy","17","17","3","C:/Users/Andrea/Downloads/subject-5220796.csv","legacy","Lentiform Loewenfeld","3.3.7","yes","yes","600bd7cfb6416f0113b04181","602110864497cf011d9c0822","0","f","NA","space","space","space","NA","f","1396","NA","7682","16139","8395","NA","1396","2","legacy","1024","2","48000","-16","task","5220796","even","NA","47570","57255","49571","106895","2582","27118","18723","107398","NA","106894","107399","106836","57254","108796","42534","106336","2579","99339","Lexical Decision Task","16","40771","22","yes","1024"
"2.8162413","0","5","nusk","non-word","73.91304347826087","73.91304347826087","1820.4782608695652","1820.4782608695652","black","no","legacy","legacy","legacy","0","uniform","1","undefined","undefined","undefined","1","f","0","0","0","0","22","0","0","0","22","NA","18","22","18","0","18","3","22","0","22","Wed Feb 17 11:49:42 2021","The main experiment item","yes","Lexical_Decision_Task.osexp","C:/Users/Andrea/Downloads","no","Andale Mono","no","18","no","white","no","yes","576","legacy","18","18","3","C:/Users/Andrea/Downloads/subject-5220796.csv","legacy","Lentiform Loewenfeld","3.3.7","yes","yes","600bd7cfb6416f0113b04181","602110864497cf011d9c0822","0","f","NA","space","space","space","NA","f","1100","NA","7682","16139","8395","NA","1100","2","legacy","1024","2","48000","-16","task","5220796","even","NA","47570","57255","49571","109444","2582","27118","18723","109946","NA","109443","109946","109328","57254","111047","42534","108828","2579","99339","Lexical Decision Task","17","41871","23","yes","1024"
"3.174641193","0","3","ramb","non-word","70.83333333333333","70.83333333333333","1786.625","1786.625","black","no","legacy","legacy","legacy","0","uniform","0","undefined","undefined","undefined","0","f","0","0","0","0","23","0","0","0","23","NA","19","23","19","0","19","3","23","0","23","Wed Feb 17 11:49:42 2021","The main experiment item","yes","Lexical_Decision_Task.osexp","C:/Users/Andrea/Downloads","no","Andale Mono","no","18","no","white","no","yes","576","legacy","19","19","3","C:/Users/Andrea/Downloads/subject-5220796.csv","legacy","Lentiform Loewenfeld","3.3.7","yes","yes","600bd7cfb6416f0113b04181","602110864497cf011d9c0822","0","j","NA","space","space","space","NA","j","1008","NA","7682","16139","8395","NA","1008","2","legacy","1024","2","48000","-16","task","5220796","even","NA","47570","57255","49571","111667","2582","27118","18723","112168","NA","111665","112168","111583","57254","113177","42534","111083","2579","99339","Lexical Decision Task","17","42879","24","yes","1024"
"3.353210739","0","9","reet","non-word","68","68","1773.48","1773.48","black","no","legacy","legacy","legacy","0","uniform","0","undefined","undefined","undefined","0","f","0","0","0","0","24","0","0","0","24","NA","20","24","20","0","20","3","24","0","24","Wed Feb 17 11:49:42 2021","The main experiment item","yes","Lexical_Decision_Task.osexp","C:/Users/Andrea/Downloads","no","Andale Mono","no","18","no","white","no","yes","576","legacy","20","20","3","C:/Users/Andrea/Downloads/subject-5220796.csv","legacy","Lentiform Loewenfeld","3.3.7","yes","yes","600bd7cfb6416f0113b04181","602110864497cf011d9c0822","0","j","NA","space","space","space","NA","j","1458","NA","7682","16139","8395","NA","1458","2","legacy","1024","2","48000","-16","task","5220796","even","NA","47570","57255","49571","114809","2582","27118","18723","115310","NA","114807","115310","114719","57254","116769","42534","111083","2579","113219","Lexical Decision Task","17","44337","25","yes","1024"
"2.594027722","9.08","8","skip","word","69.23076923076923","69.23076923076923","1734.6923076923076","1734.6923076923076","black","no","legacy","legacy","legacy","0","uniform","1","undefined","undefined","undefined","1","j","0","0","0","0","25","0","0","0","25","NA","21","25","21","0","21","3","25","0","25","Wed Feb 17 11:49:42 2021","The main experiment item","yes","Lexical_Decision_Task.osexp","C:/Users/Andrea/Downloads","no","Andale Mono","no","18","no","white","no","yes","576","legacy","21","21","3","C:/Users/Andrea/Downloads/subject-5220796.csv","legacy","Lentiform Loewenfeld","3.3.7","yes","yes","600bd7cfb6416f0113b04181","602110864497cf011d9c0822","0","j","NA","space","space","space","NA","j","765","NA","7682","16139","8395","NA","765","2","legacy","1024","2","48000","-16","task","5220796","even","NA","47570","57255","49571","118461","2582","27118","18723","118963","NA","118460","118963","118372","57254","119729","42534","111083","2579","116872","Lexical Decision Task","18","45102","26","yes","1024"
"2.986323777","10.85","8","ship","word","70.37037037037037","70.37037037037037","1703.888888888889","1703.888888888889","black","no","legacy","legacy","legacy","0","uniform","1","undefined","undefined","undefined","1","j","0","0","0","0","26","0","0","0","26","NA","22","26","22","0","22","3","26","0","26","Wed Feb 17 11:49:42 2021","The main experiment item","yes","Lexical_Decision_Task.osexp","C:/Users/Andrea/Downloads","no","Andale Mono","no","18","no","white","no","yes","576","legacy","22","22","3","C:/Users/Andrea/Downloads/subject-5220796.csv","legacy","Lentiform Loewenfeld","3.3.7","yes","yes","600bd7cfb6416f0113b04181","602110864497cf011d9c0822","0","j","NA","space","space","space","NA","j","903","NA","7682","16139","8395","NA","903","2","legacy","1024","2","48000","-16","task","5220796","even","NA","47570","57255","49571","120448","2582","27118","18723","120950","NA","120445","120950","120351","57254","121854","42534","119851","2579","116872","Lexical Decision Task","19","46005","27","yes","1024"
"2.794720352","0","9","koot","non-word","67.85714285714286","67.85714285714286","1744.892857142857","1744.892857142857","black","no","legacy","legacy","legacy","0","uniform","0","undefined","undefined","undefined","0","f","0","0","0","0","27","0","0","0","27","NA","23","27","23","0","23","3","27","0","27","Wed Feb 17 11:49:42 2021","The main experiment item","yes","Lexical_Decision_Task.osexp","C:/Users/Andrea/Downloads","no","Andale Mono","no","18","no","white","no","yes","576","legacy","23","23","3","C:/Users/Andrea/Downloads/subject-5220796.csv","legacy","Lentiform Loewenfeld","3.3.7","yes","yes","600bd7cfb6416f0113b04181","602110864497cf011d9c0822","0","j","NA","space","space","space","NA","j","2852","NA","7682","16139","8395","NA","2852","2","legacy","1024","2","48000","-16","task","5220796","even","NA","47570","57255","49571","122544","2582","27118","18723","123046","NA","122542","123046","122467","57254","125899","42534","121967","2579","116872","Lexical Decision Task","19","48857","28","yes","1024"
"2.728085817","10.02","9","bike","word","68.96551724137932","68.96551724137932","1712.0344827586207","1712.0344827586207","black","no","legacy","legacy","legacy","0","uniform","1","undefined","undefined","undefined","1","j","0","0","0","0","28","0","0","0","28","NA","24","28","24","0","24","3","28","0","28","Wed Feb 17 11:49:42 2021","The main experiment item","yes","Lexical_Decision_Task.osexp","C:/Users/Andrea/Downloads","no","Andale Mono","no","18","no","white","no","yes","576","legacy","24","24","3","C:/Users/Andrea/Downloads/subject-5220796.csv","legacy","Lentiform Loewenfeld","3.3.7","yes","yes","600bd7cfb6416f0113b04181","602110864497cf011d9c0822","0","j","NA","space","space","space","NA","j","792","NA","7682","16139","8395","NA","792","2","legacy","1024","2","48000","-16","task","5220796","even","NA","47570","57255","49571","127559","2582","27118","18723","128061","NA","127557","128062","127468","57254","128855","42534","121967","2579","125968","Lexical Decision Task","20","49649","29","yes","1024"
"3.378276681","6.39","8","bran","word","66.66666666666667","66.66666666666667","1693.4333333333334","1693.4333333333334","black","no","legacy","legacy","legacy","0","uniform","0","undefined","undefined","undefined","0","j","0","0","0","0","29","0","0","0","29","NA","25","29","25","0","25","3","29","0","29","Wed Feb 17 11:49:42 2021","The main experiment item","yes","Lexical_Decision_Task.osexp","C:/Users/Andrea/Downloads","no","Andale Mono","no","18","no","white","no","yes","576","legacy","25","25","3","C:/Users/Andrea/Downloads/subject-5220796.csv","legacy","Lentiform Loewenfeld","3.3.7","yes","yes","600bd7cfb6416f0113b04181","602110864497cf011d9c0822","0","f","NA","space","space","space","NA","f","1154","NA","7682","16139","8395","NA","1154","2","legacy","1024","2","48000","-16","task","5220796","even","NA","47570","57255","49571","129569","2582","27118","18723","130070","NA","129567","130070","129481","57254","131227","42534","128981","2579","125968","Lexical Decision Task","20","50803","30","yes","1024"
"2.838639236","0","4","furg","non-word","64.51612903225806","64.51612903225806","1664.741935483871","1664.741935483871","black","no","legacy","legacy","legacy","0","uniform","0","undefined","undefined","undefined","0","f","0","0","0","0","30","0","0","0","30","NA","26","30","26","0","26","3","30","0","30","Wed Feb 17 11:49:42 2021","The main experiment item","yes","Lexical_Decision_Task.osexp","C:/Users/Andrea/Downloads","no","Andale Mono","no","18","no","white","no","yes","576","legacy","26","26","3","C:/Users/Andrea/Downloads/subject-5220796.csv","legacy","Lentiform Loewenfeld","3.3.7","yes","yes","600bd7cfb6416f0113b04181","602110864497cf011d9c0822","0","j","NA","space","space","space","NA","j","804","NA","7682","16139","8395","NA","804","2","legacy","1024","2","48000","-16","task","5220796","even","NA","47570","57255","49571","132941","2582","27118","18723","133444","NA","132939","133444","132851","57254","134249","42534","128981","2579","131351","Lexical Decision Task","20","51607","31","yes","1024"
"3.14849993","10.75","7","hour","word","65.625","65.625","1637.40625","1637.40625","black","no","legacy","legacy","legacy","0","uniform","1","undefined","undefined","undefined","1","j","0","0","0","0","31","0","0","0","31","NA","27","31","27","0","27","3","31","0","31","Wed Feb 17 11:49:42 2021","The main experiment item","yes","Lexical_Decision_Task.osexp","C:/Users/Andrea/Downloads","no","Andale Mono","no","18","no","white","no","yes","576","legacy","27","27","3","C:/Users/Andrea/Downloads/subject-5220796.csv","legacy","Lentiform Loewenfeld","3.3.7","yes","yes","600bd7cfb6416f0113b04181","602110864497cf011d9c0822","0","j","NA","space","space","space","NA","j","790","NA","7682","16139","8395","NA","790","2","legacy","1024","2","48000","-16","task","5220796","even","NA","47570","57255","49571","135957","2582","27118","18723","136458","NA","135956","136458","135884","57254","137248","42534","128981","2579","134384","Lexical Decision Task","21","52397","32","yes","1024"
"2.845304797","0","6","buct","non-word","66.66666666666667","66.66666666666667","1615.060606060606","1615.060606060606","black","no","legacy","legacy","legacy","0","uniform","1","undefined","undefined","undefined","1","f","0","0","0","0","32","0","0","0","32","NA","28","32","28","0","28","3","32","0","32","Wed Feb 17 11:49:42 2021","The main experiment item","yes","Lexical_Decision_Task.osexp","C:/Users/Andrea/Downloads","no","Andale Mono","no","18","no","white","no","yes","576","legacy","28","28","3","C:/Users/Andrea/Downloads/subject-5220796.csv","legacy","Lentiform Loewenfeld","3.3.7","yes","yes","600bd7cfb6416f0113b04181","602110864497cf011d9c0822","0","f","NA","space","space","space","NA","f","900","NA","7682","16139","8395","NA","900","2","legacy","1024","2","48000","-16","task","5220796","even","NA","47570","57255","49571","137940","2582","27118","18723","138441","NA","137938","138441","137870","57254","139342","42534","137370","2579","134384","Lexical Decision Task","22","53297","33","yes","1024"
"2.812467698","0","7","hafe","non-word","67.6470588235294","67.6470588235294","1595.1176470588234","1595.1176470588234","black","no","legacy","legacy","legacy","0","uniform","1","undefined","undefined","undefined","1","f","0","0","0","0","33","0","0","0","33","NA","29","33","29","0","29","3","33","0","33","Wed Feb 17 11:49:42 2021","The main experiment item","yes","Lexical_Decision_Task.osexp","C:/Users/Andrea/Downloads","no","Andale Mono","no","18","no","white","no","yes","576","legacy","29","29","3","C:/Users/Andrea/Downloads/subject-5220796.csv","legacy","Lentiform Loewenfeld","3.3.7","yes","yes","600bd7cfb6416f0113b04181","602110864497cf011d9c0822","0","f","NA","space","space","space","NA","f","937","NA","7682","16139","8395","NA","937","2","legacy","1024","2","48000","-16","task","5220796","even","NA","47570","57255","49571","140049","2582","27118","18723","140552","NA","140047","140552","139963","57254","141490","42534","139463","2579","134384","Lexical Decision Task","23","54234","34","yes","1024"
"2.67699827","0","6","hulf","non-word","65.71428571428571","65.71428571428571","1579.7142857142858","1579.7142857142858","black","no","legacy","legacy","legacy","0","uniform","0","undefined","undefined","undefined","0","f","0","0","0","0","34","0","0","0","34","NA","30","34","30","0","30","3","34","0","34","Wed Feb 17 11:49:42 2021","The main experiment item","yes","Lexical_Decision_Task.osexp","C:/Users/Andrea/Downloads","no","Andale Mono","no","18","no","white","no","yes","576","legacy","30","30","3","C:/Users/Andrea/Downloads/subject-5220796.csv","legacy","Lentiform Loewenfeld","3.3.7","yes","yes","600bd7cfb6416f0113b04181","602110864497cf011d9c0822","0","j","NA","space","space","space","NA","j","1056","NA","7682","16139","8395","NA","1056","2","legacy","1024","2","48000","-16","task","5220796","even","NA","47570","57255","49571","142128","2582","27118","18723","142630","NA","142125","142630","142032","57254","143687","42534","141532","2579","134384","Lexical Decision Task","23","55290","35","yes","1024"
"3.274157849","0","8","leet","non-word","66.66666666666667","66.66666666666667","1567.861111111111","1567.861111111111","black","no","legacy","legacy","legacy","0","uniform","1","undefined","undefined","undefined","1","f","0","0","0","0","35","0","0","0","35","NA","31","35","31","0","31","3","35","0","35","Wed Feb 17 11:49:42 2021","The main experiment item","yes","Lexical_Decision_Task.osexp","C:/Users/Andrea/Downloads","no","Andale Mono","no","18","no","white","no","yes","576","legacy","31","31","3","C:/Users/Andrea/Downloads/subject-5220796.csv","legacy","Lentiform Loewenfeld","3.3.7","yes","yes","600bd7cfb6416f0113b04181","602110864497cf011d9c0822","0","f","NA","space","space","space","NA","f","1153","NA","7682","16139","8395","NA","1153","2","legacy","1024","2","48000","-16","task","5220796","even","NA","47570","57255","49571","145301","2582","27118","18723","145802","NA","145300","145802","145215","57254","146958","42534","141532","2579","143715","Lexical Decision Task","24","56443","36","yes","1024"
"3.311895072","0","9","gung","non-word","67.56756756756756","67.56756756756756","1589.4864864864865","1589.4864864864865","black","no","legacy","legacy","legacy","0","uniform","1","undefined","undefined","undefined","1","f","0","0","0","0","36","0","0","0","36","NA","32","36","32","0","32","3","36","0","36","Wed Feb 17 11:49:42 2021","The main experiment item","yes","Lexical_Decision_Task.osexp","C:/Users/Andrea/Downloads","no","Andale Mono","no","18","no","white","no","yes","576","legacy","32","32","3","C:/Users/Andrea/Downloads/subject-5220796.csv","legacy","Lentiform Loewenfeld","3.3.7","yes","yes","600bd7cfb6416f0113b04181","602110864497cf011d9c0822","0","f","NA","space","space","space","NA","f","2368","NA","7682","16139","8395","NA","2368","2","legacy","1024","2","48000","-16","task","5220796","even","NA","47570","57255","49571","147675","2582","27118","18723","148179","NA","147674","148179","147569","57254","150549","42534","147069","2579","143715","Lexical Decision Task","25","58811","37","yes","1024"
"2.966923697","5.4","2","fume","word","65.78947368421052","65.78947368421052","1626.6052631578948","1626.6052631578948","black","no","legacy","legacy","legacy","0","uniform","0","undefined","undefined","undefined","0","j","0","0","0","0","37","0","0","0","37","NA","33","37","33","0","33","3","37","0","37","Wed Feb 17 11:49:42 2021","The main experiment item","yes","Lexical_Decision_Task.osexp","C:/Users/Andrea/Downloads","no","Andale Mono","no","18","no","white","no","yes","576","legacy","33","33","3","C:/Users/Andrea/Downloads/subject-5220796.csv","legacy","Lentiform Loewenfeld","3.3.7","yes","yes","600bd7cfb6416f0113b04181","602110864497cf011d9c0822","0","None","NA","space","space","space","NA","None","3000","NA","7682","16139","8395","NA","3000","2","legacy","1024","2","48000","-16","task","5220796","even","NA","47570","57255","49571","151288","2582","27118","18723","151791","NA","151286","151792","151165","57254","154792","42534","150665","2579","143715","Lexical Decision Task","25","61811","38","yes","1024"
"2.771097306","0","9","jold","non-word","66.66666666666667","66.66666666666667","1610.974358974359","1610.974358974359","black","no","legacy","legacy","legacy","0","uniform","1","undefined","undefined","undefined","1","f","0","0","0","0","38","0","0","0","38","NA","34","38","34","0","34","3","38","0","38","Wed Feb 17 11:49:42 2021","The main experiment item","yes","Lexical_Decision_Task.osexp","C:/Users/Andrea/Downloads","no","Andale Mono","no","18","no","white","no","yes","576","legacy","34","34","3","C:/Users/Andrea/Downloads/subject-5220796.csv","legacy","Lentiform Loewenfeld","3.3.7","yes","yes","600bd7cfb6416f0113b04181","602110864497cf011d9c0822","0","f","NA","space","space","space","NA","f","1017","NA","7682","16139","8395","NA","1017","2","legacy","1024","2","48000","-16","task","5220796","even","NA","47570","57255","49571","156512","2582","27118","18723","157013","NA","156511","157013","156420","57254","158032","42534","150665","2579","154919","Lexical Decision Task","26","62828","39","yes","1024"
"3.307211407","6.07","7","honk","word","65","65","1593.375","1593.375","black","no","legacy","legacy","legacy","0","uniform","0","undefined","undefined","undefined","0","j","0","0","0","0","39","0","0","0","39","NA","35","39","35","0","35","3","39","0","39","Wed Feb 17 11:49:42 2021","The main experiment item","yes","Lexical_Decision_Task.osexp","C:/Users/Andrea/Downloads","no","Andale Mono","no","18","no","white","no","yes","576","legacy","35","35","3","C:/Users/Andrea/Downloads/subject-5220796.csv","legacy","Lentiform Loewenfeld","3.3.7","yes","yes","600bd7cfb6416f0113b04181","602110864497cf011d9c0822","0","f","NA","space","space","space","NA","f","907","NA","7682","16139","8395","NA","907","2","legacy","1024","2","48000","-16","task","5220796","even","NA","47570","57255","49571","158645","2582","27118","18723","159147","NA","158644","159147","158571","57254","160056","42534","158071","2579","154919","Lexical Decision Task","26","63735","40","yes","1024"
"2.980911938","7.15","7","hoop","word","65.85365853658537","65.85365853658537","1574.2439024390244","1574.2439024390244","black","no","legacy","legacy","legacy","0","uniform","1","undefined","undefined","undefined","1","j","0","0","0","0","40","0","0","0","40","NA","36","40","36","0","36","3","40","0","40","Wed Feb 17 11:49:42 2021","The main experiment item","yes","Lexical_Decision_Task.osexp","C:/Users/Andrea/Downloads","no","Andale Mono","no","18","no","white","no","yes","576","legacy","36","36","3","C:/Users/Andrea/Downloads/subject-5220796.csv","legacy","Lentiform Loewenfeld","3.3.7","yes","yes","600bd7cfb6416f0113b04181","602110864497cf011d9c0822","0","j","NA","space","space","space","NA","j","809","NA","7682","16139","8395","NA","809","2","legacy","1024","2","48000","-16","task","5220796","even","NA","47570","57255","49571","161741","2582","27118","18723","162243","NA","161740","162243","161668","57254","163053","42534","158071","2579","160168","Lexical Decision Task","27","64544","41","yes","1024"
"2.696644658","5.78","2","yolk","word","64.28571428571429","64.28571428571429","1567.047619047619","1567.047619047619","black","no","legacy","legacy","legacy","0","uniform","0","undefined","undefined","undefined","0","j","0","0","0","0","41","0","0","0","41","NA","37","41","37","0","37","3","41","0","41","Wed Feb 17 11:49:42 2021","The main experiment item","yes","Lexical_Decision_Task.osexp","C:/Users/Andrea/Downloads","no","Andale Mono","no","18","no","white","no","yes","576","legacy","37","37","3","C:/Users/Andrea/Downloads/subject-5220796.csv","legacy","Lentiform Loewenfeld","3.3.7","yes","yes","600bd7cfb6416f0113b04181","602110864497cf011d9c0822","0","f","NA","space","space","space","NA","f","1272","NA","7682","16139","8395","NA","1272","2","legacy","1024","2","48000","-16","task","5220796","even","NA","47570","57255","49571","163787","2582","27118","18723","164291","NA","163785","164291","163669","57254","165564","42534","163169","2579","160168","Lexical Decision Task","27","65816","42","yes","1024"
"3.230789326","5.38","5","prim","word","62.7906976744186","62.7906976744186","1555.6511627906978","1555.6511627906978","black","no","legacy","legacy","legacy","0","uniform","0","undefined","undefined","undefined","0","j","0","0","0","0","42","0","0","0","42","NA","38","42","38","0","38","3","42","0","42","Wed Feb 17 11:49:42 2021","The main experiment item","yes","Lexical_Decision_Task.osexp","C:/Users/Andrea/Downloads","no","Andale Mono","no","18","no","white","no","yes","576","legacy","38","38","3","C:/Users/Andrea/Downloads/subject-5220796.csv","legacy","Lentiform Loewenfeld","3.3.7","yes","yes","600bd7cfb6416f0113b04181","602110864497cf011d9c0822","0","f","NA","space","space","space","NA","f","1077","NA","7682","16139","8395","NA","1077","2","legacy","1024","2","48000","-16","task","5220796","even","NA","47570","57255","49571","167277","2582","27118","18723","167780","NA","167276","167780","167189","57254","168858","42534","163169","2579","165689","Lexical Decision Task","27","66893","43","yes","1024"
"3.216517684","10.87","3","film","word","63.63636363636363","63.63636363636363","1534.8863636363637","1534.8863636363637","black","no","legacy","legacy","legacy","0","uniform","1","undefined","undefined","undefined","1","j","0","0","0","0","43","0","0","0","43","NA","39","43","39","0","39","3","43","0","43","Wed Feb 17 11:49:42 2021","The main experiment item","yes","Lexical_Decision_Task.osexp","C:/Users/Andrea/Downloads","no","Andale Mono","no","18","no","white","no","yes","576","legacy","39","39","3","C:/Users/Andrea/Downloads/subject-5220796.csv","legacy","Lentiform Loewenfeld","3.3.7","yes","yes","600bd7cfb6416f0113b04181","602110864497cf011d9c0822","0","j","NA","space","space","space","NA","j","642","NA","7682","16139","8395","NA","642","2","legacy","1024","2","48000","-16","task","5220796","even","NA","47570","57255","49571","170535","2582","27118","18723","171036","NA","170533","171036","170465","57254","171679","42534","163169","2579","168965","Lexical Decision Task","28","67535","44","yes","1024"
"2.767650507","0","6","yolt","non-word","64.44444444444444","64.44444444444444","1519.1333333333334","1519.1333333333334","black","no","legacy","legacy","legacy","0","uniform","1","undefined","undefined","undefined","1","f","0","0","0","0","44","0","0","0","44","NA","40","44","40","0","40","3","44","0","44","Wed Feb 17 11:49:42 2021","The main experiment item","yes","Lexical_Decision_Task.osexp","C:/Users/Andrea/Downloads","no","Andale Mono","no","18","no","white","no","yes","576","legacy","40","40","3","C:/Users/Andrea/Downloads/subject-5220796.csv","legacy","Lentiform Loewenfeld","3.3.7","yes","yes","600bd7cfb6416f0113b04181","602110864497cf011d9c0822","0","f","NA","space","space","space","NA","f","826","NA","7682","16139","8395","NA","826","2","legacy","1024","2","48000","-16","task","5220796","even","NA","47570","57255","49571","172350","2582","27118","18723","172854","NA","172349","172854","172291","57254","173681","42534","171791","2579","168965","Lexical Decision Task","29","68361","45","yes","1024"
"2.907588697","8.91","9","mood","word","65.21739130434783","65.21739130434783","1500.695652173913","1500.695652173913","black","no","legacy","legacy","legacy","0","uniform","1","undefined","undefined","undefined","1","j","0","0","0","0","45","0","0","0","45","NA","41","45","41","0","41","3","45","0","45","Wed Feb 17 11:49:42 2021","The main experiment item","yes","Lexical_Decision_Task.osexp","C:/Users/Andrea/Downloads","no","Andale Mono","no","18","no","white","no","yes","576","legacy","41","41","3","C:/Users/Andrea/Downloads/subject-5220796.csv","legacy","Lentiform Loewenfeld","3.3.7","yes","yes","600bd7cfb6416f0113b04181","602110864497cf011d9c0822","0","j","NA","space","space","space","NA","j","671","NA","7682","16139","8395","NA","671","2","legacy","1024","2","48000","-16","task","5220796","even","NA","47570","57255","49571","174344","2582","27118","18723","174846","NA","174342","174846","174226","57254","175519","42534","173726","2579","168965","Lexical Decision Task","30","69032","46","yes","1024"
"3.316948329","0","1","besc","non-word","65.95744680851064","65.95744680851064","1486.6382978723404","1486.6382978723404","black","no","legacy","legacy","legacy","0","uniform","1","undefined","undefined","undefined","1","f","0","0","0","0","46","0","0","0","46","NA","42","46","42","0","42","3","46","0","46","Wed Feb 17 11:49:42 2021","The main experiment item","yes","Lexical_Decision_Task.osexp","C:/Users/Andrea/Downloads","no","Andale Mono","no","18","no","white","no","yes","576","legacy","42","42","3","C:/Users/Andrea/Downloads/subject-5220796.csv","legacy","Lentiform Loewenfeld","3.3.7","yes","yes","600bd7cfb6416f0113b04181","602110864497cf011d9c0822","0","f","NA","space","space","space","NA","f","840","NA","7682","16139","8395","NA","840","2","legacy","1024","2","48000","-16","task","5220796","even","NA","47570","57255","49571","176100","2582","27118","18723","176604","NA","176099","176604","176041","57254","177445","42534","175541","2579","168965","Lexical Decision Task","31","69872","47","yes","1024"
"3.120135028","0","3","vals","non-word","66.66666666666667","66.66666666666667","1475.6458333333333","1475.6458333333333","black","no","legacy","legacy","legacy","0","uniform","1","undefined","undefined","undefined","1","f","0","0","0","0","47","0","0","0","47","NA","43","47","43","0","43","3","47","0","47","Wed Feb 17 11:49:42 2021","The main experiment item","yes","Lexical_Decision_Task.osexp","C:/Users/Andrea/Downloads","no","Andale Mono","no","18","no","white","no","yes","576","legacy","43","43","3","C:/Users/Andrea/Downloads/subject-5220796.csv","legacy","Lentiform Loewenfeld","3.3.7","yes","yes","600bd7cfb6416f0113b04181","602110864497cf011d9c0822","0","f","NA","space","space","space","NA","f","959","NA","7682","16139","8395","NA","959","2","legacy","1024","2","48000","-16","task","5220796","even","NA","47570","57255","49571","178139","2582","27118","18723","178640","NA","178137","178640","178053","57254","179600","42534","177553","2579","168965","Lexical Decision Task","32","70831","48","yes","1024"
"3.031812271","6.52","3","gulp","word","65.3061224489796","65.3061224489796","1460.0408163265306","1460.0408163265306","black","no","legacy","legacy","legacy","0","uniform","0","undefined","undefined","undefined","0","j","0","0","0","0","48","0","0","0","48","NA","44","48","44","0","44","3","48","0","48","Wed Feb 17 11:49:42 2021","The main experiment item","yes","Lexical_Decision_Task.osexp","C:/Users/Andrea/Downloads","no","Andale Mono","no","18","no","white","no","yes","576","legacy","44","44","3","C:/Users/Andrea/Downloads/subject-5220796.csv","legacy","Lentiform Loewenfeld","3.3.7","yes","yes","600bd7cfb6416f0113b04181","602110864497cf011d9c0822","0","f","NA","space","space","space","NA","f","711","NA","7682","16139","8395","NA","711","2","legacy","1024","2","48000","-16","task","5220796","even","NA","47570","57255","49571","180323","2582","27118","18723","180824","NA","180321","180824","180211","57254","181536","42534","179711","2579","168965","Lexical Decision Task","32","71542","49","yes","1024"
"3.29439347","8.6","9","wand","word","64","64","1459.8","1459.8","black","no","legacy","legacy","legacy","0","uniform","0","undefined","undefined","undefined","0","j","0","0","0","0","49","0","0","0","49","NA","45","49","45","0","45","3","49","0","49","Wed Feb 17 11:49:42 2021","The main experiment item","yes","Lexical_Decision_Task.osexp","C:/Users/Andrea/Downloads","no","Andale Mono","no","18","no","white","no","yes","576","legacy","45","45","3","C:/Users/Andrea/Downloads/subject-5220796.csv","legacy","Lentiform Loewenfeld","3.3.7","yes","yes","600bd7cfb6416f0113b04181","602110864497cf011d9c0822","0","f","NA","space","space","space","NA","f","1448","NA","7682","16139","8395","NA","1448","2","legacy","1024","2","48000","-16","task","5220796","even","NA","47570","57255","49571","183237","2582","27118","18723","183739","NA","183236","183740","183145","57254","185189","42534","179711","2579","181645","Lexical Decision Task","32","72990","50","yes","1024"
"2.983324025","9.56","2","debt","word","64.70588235294117","64.70588235294117","1443.7254901960785","1443.7254901960785","black","no","legacy","legacy","legacy","0","uniform","1","undefined","undefined","undefined","1","j","0","0","0","0","50","0","0","0","50","NA","46","50","46","0","46","3","50","0","50","Wed Feb 17 11:49:42 2021","The main experiment item","yes","Lexical_Decision_Task.osexp","C:/Users/Andrea/Downloads","no","Andale Mono","no","18","no","white","no","yes","576","legacy","46","46","3","C:/Users/Andrea/Downloads/subject-5220796.csv","legacy","Lentiform Loewenfeld","3.3.7","yes","yes","600bd7cfb6416f0113b04181","602110864497cf011d9c0822","0","j","NA","space","space","space","NA","j","640","NA","7682","16139","8395","NA","640","2","legacy","1024","2","48000","-16","task","5220796","even","NA","47570","57255","49571","186870","2582","27118","18723","187373","NA","186869","187374","186803","57254","188015","42534","179711","2579","185303","Lexical Decision Task","33","73630","51","yes","1024"
"3.137775856","7.39","5","comb","word","65.38461538461539","65.38461538461539","1435.4423076923076","1435.4423076923076","black","no","legacy","legacy","legacy","0","uniform","1","undefined","undefined","undefined","1","j","0","0","0","0","51","0","0","0","51","NA","47","51","47","0","47","3","51","0","51","Wed Feb 17 11:49:42 2021","The main experiment item","yes","Lexical_Decision_Task.osexp","C:/Users/Andrea/Downloads","no","Andale Mono","no","18","no","white","no","yes","576","legacy","47","47","3","C:/Users/Andrea/Downloads/subject-5220796.csv","legacy","Lentiform Loewenfeld","3.3.7","yes","yes","600bd7cfb6416f0113b04181","602110864497cf011d9c0822","0","j","NA","space","space","space","NA","j","1013","NA","7682","16139","8395","NA","1013","2","legacy","1024","2","48000","-16","task","5220796","even","NA","47570","57255","49571","188712","2582","27118","18723","189213","NA","188711","189213","188621","57254","190228","42534","188121","2579","185303","Lexical Decision Task","34","74643","52","yes","1024"
"3.120025233","0","2","nyst","non-word","64.15094339622641","64.15094339622641","1438.7169811320755","1438.7169811320755","black","no","legacy","legacy","legacy","0","uniform","0","undefined","undefined","undefined","0","f","0","0","0","0","52","0","0","0","52","NA","48","52","48","0","48","3","52","0","52","Wed Feb 17 11:49:42 2021","The main experiment item","yes","Lexical_Decision_Task.osexp","C:/Users/Andrea/Downloads","no","Andale Mono","no","18","no","white","no","yes","576","legacy","48","48","3","C:/Users/Andrea/Downloads/subject-5220796.csv","legacy","Lentiform Loewenfeld","3.3.7","yes","yes","600bd7cfb6416f0113b04181","602110864497cf011d9c0822","0","j","NA","space","space","space","NA","j","1609","NA","7682","16139","8395","NA","1609","2","legacy","1024","2","48000","-16","task","5220796","even","NA","47570","57255","49571","190968","2582","27118","18723","191470","NA","190967","191470","190834","57254","193080","42534","190334","2579","185303","Lexical Decision Task","34","76252","53","yes","1024"
"2.7084209","0","8","vump","non-word","64.81481481481481","64.81481481481481","1429.5","1429.5","black","no","legacy","legacy","legacy","0","uniform","1","undefined","undefined","undefined","1","f","0","0","0","0","53","0","0","0","53","NA","49","53","49","0","49","3","53","0","53","Wed Feb 17 11:49:42 2021","The main experiment item","yes","Lexical_Decision_Task.osexp","C:/Users/Andrea/Downloads","no","Andale Mono","no","18","no","white","no","yes","576","legacy","49","49","3","C:/Users/Andrea/Downloads/subject-5220796.csv","legacy","Lentiform Loewenfeld","3.3.7","yes","yes","600bd7cfb6416f0113b04181","602110864497cf011d9c0822","0","f","NA","space","space","space","NA","f","941","NA","7682","16139","8395","NA","941","2","legacy","1024","2","48000","-16","task","5220796","even","NA","47570","57255","49571","194709","2582","27118","18723","195210","NA","194707","195210","194618","57254","196152","42534","190334","2579","193118","Lexical Decision Task","35","77193","54","yes","1024"
"3.382617311","0","4","pret","non-word","63.63636363636363","63.63636363636363","1446.4727272727273","1446.4727272727273","black","no","legacy","legacy","legacy","0","uniform","0","undefined","undefined","undefined","0","f","0","0","0","0","54","0","0","0","54","0","50","54","50","0","50","3","54","0","54","Wed Feb 17 11:49:42 2021","The main experiment item","yes","Lexical_Decision_Task.osexp","C:/Users/Andrea/Downloads","no","Andale Mono","no","18","no","white","no","yes","576","legacy","50","50","3","C:/Users/Andrea/Downloads/subject-5220796.csv","legacy","Lentiform Loewenfeld","3.3.7","yes","yes","600bd7cfb6416f0113b04181","602110864497cf011d9c0822","0","j","NA","space","space","space","space","j","2363","NA","7682","16139","8395","13725","2363","2","legacy","1024","2","48000","-16","task","5220796","even","NA","47570","57255","49571","210611","2582","27118","18723","211112","196810","210609","211112","196759","57254","213475","42534","196259","2579","193118","Lexical Decision Task","35","79556","55","yes","1024"
"2.996511672","0","7","hoil","non-word","64.28571428571429","64.28571428571429","1439.8035714285713","1439.8035714285713","black","no","legacy","legacy","legacy","0","uniform","1","undefined","undefined","undefined","1","f","0","0","0","0","55","0","0","0","55","0","51","55","51","0","51","3","55","0","55","Wed Feb 17 11:49:42 2021","The main experiment item","yes","Lexical_Decision_Task.osexp","C:/Users/Andrea/Downloads","no","Andale Mono","no","18","no","white","no","yes","576","legacy","51","51","3","C:/Users/Andrea/Downloads/subject-5220796.csv","legacy","Lentiform Loewenfeld","3.3.7","yes","yes","600bd7cfb6416f0113b04181","602110864497cf011d9c0822","0","f","NA","space","space","space","space","f","1073","NA","7682","16139","8395","13725","1073","2","legacy","1024","2","48000","-16","task","5220796","even","NA","47570","57255","49571","215171","2582","27118","18723","215672","196810","215170","215672","215092","57254","216746","42534","196259","2579","213592","Lexical Decision Task","36","80629","56","yes","1024"
"2.705007959","6.01","4","wept","word","63.1578947368421","63.1578947368421","1467.1754385964912","1467.1754385964912","black","no","legacy","legacy","legacy","0","uniform","0","undefined","undefined","undefined","0","j","0","0","0","0","56","0","0","0","56","0","52","56","52","0","52","3","56","0","56","Wed Feb 17 11:49:42 2021","The main experiment item","yes","Lexical_Decision_Task.osexp","C:/Users/Andrea/Downloads","no","Andale Mono","no","18","no","white","no","yes","576","legacy","52","52","3","C:/Users/Andrea/Downloads/subject-5220796.csv","legacy","Lentiform Loewenfeld","3.3.7","yes","yes","600bd7cfb6416f0113b04181","602110864497cf011d9c0822","0","None","NA","space","space","space","space","None","3000","NA","7682","16139","8395","13725","3000","2","legacy","1024","2","48000","-16","task","5220796","even","NA","47570","57255","49571","217456","2582","27118","18723","217957","196810","217455","217957","217359","57254","220958","42534","216859","2579","213592","Lexical Decision Task","36","83629","57","yes","1024"
"2.708989954","9.28","9","bowl","word","63.793103448275865","63.793103448275865","1466.2413793103449","1466.2413793103449","black","no","legacy","legacy","legacy","0","uniform","1","undefined","undefined","undefined","1","j","0","0","0","0","57","0","0","0","57","0","53","57","53","0","53","3","57","0","57","Wed Feb 17 11:49:42 2021","The main experiment item","yes","Lexical_Decision_Task.osexp","C:/Users/Andrea/Downloads","no","Andale Mono","no","18","no","white","no","yes","576","legacy","53","53","3","C:/Users/Andrea/Downloads/subject-5220796.csv","legacy","Lentiform Loewenfeld","3.3.7","yes","yes","600bd7cfb6416f0113b04181","602110864497cf011d9c0822","0","j","NA","space","space","space","space","j","1413","NA","7682","16139","8395","13725","1413","2","legacy","1024","2","48000","-16","task","5220796","even","NA","47570","57255","49571","222643","2582","27118","18723","223144","196810","222641","223144","222581","57254","224558","42534","216859","2579","221081","Lexical Decision Task","37","85042","58","yes","1024"
"3.363486562","6.93","9","lush","word","64.40677966101696","64.40677966101696","1463.1525423728813","1463.1525423728813","black","no","legacy","legacy","legacy","0","uniform","1","undefined","undefined","undefined","1","j","0","0","0","0","58","0","0","0","58","0","54","58","54","0","54","3","58","0","58","Wed Feb 17 11:49:42 2021","The main experiment item","yes","Lexical_Decision_Task.osexp","C:/Users/Andrea/Downloads","no","Andale Mono","no","18","no","white","no","yes","576","legacy","54","54","3","C:/Users/Andrea/Downloads/subject-5220796.csv","legacy","Lentiform Loewenfeld","3.3.7","yes","yes","600bd7cfb6416f0113b04181","602110864497cf011d9c0822","0","j","NA","space","space","space","space","j","1284","NA","7682","16139","8395","13725","1284","2","legacy","1024","2","48000","-16","task","5220796","even","NA","47570","57255","49571","225175","2582","27118","18723","225678","196810","225174","225678","225105","57254","226963","42534","224605","2579","221081","Lexical Decision Task","38","86326","59","yes","1024"
"2.709837904","6.85","8","skim","word","63.333333333333336","63.333333333333336","1488.7666666666667","1488.7666666666667","black","no","legacy","legacy","legacy","0","uniform","0","undefined","undefined","undefined","0","j","0","0","0","0","59","0","0","0","59","0","55","59","55","0","55","3","59","0","59","Wed Feb 17 11:49:42 2021","The main experiment item","yes","Lexical_Decision_Task.osexp","C:/Users/Andrea/Downloads","no","Andale Mono","no","18","no","white","no","yes","576","legacy","55","55","3","C:/Users/Andrea/Downloads/subject-5220796.csv","legacy","Lentiform Loewenfeld","3.3.7","yes","yes","600bd7cfb6416f0113b04181","602110864497cf011d9c0822","0","None","NA","space","space","space","space","None","3000","NA","7682","16139","8395","13725","3000","2","legacy","1024","2","48000","-16","task","5220796","even","NA","47570","57255","49571","227676","2582","27118","18723","228177","196810","227674","228177","227588","57254","231178","42534","227087","2579","221081","Lexical Decision Task","38","89326","60","yes","1024"
"3.299579929","0","2","flis","non-word","63.9344262295082","63.9344262295082","1500.2459016393443","1500.2459016393443","black","no","legacy","legacy","legacy","0","uniform","1","undefined","undefined","undefined","1","f","0","0","0","0","60","0","0","0","60","0","56","60","56","0","56","3","60","0","60","Wed Feb 17 11:49:42 2021","The main experiment item","yes","Lexical_Decision_Task.osexp","C:/Users/Andrea/Downloads","no","Andale Mono","no","18","no","white","no","yes","576","legacy","56","56","3","C:/Users/Andrea/Downloads/subject-5220796.csv","legacy","Lentiform Loewenfeld","3.3.7","yes","yes","600bd7cfb6416f0113b04181","602110864497cf011d9c0822","0","f","NA","space","space","space","space","f","2189","NA","7682","16139","8395","13725","2189","2","legacy","1024","2","48000","-16","task","5220796","even","NA","47570","57255","49571","232924","2582","27118","18723","233426","196810","232923","233426","232798","57254","235615","42534","227087","2579","231298","Lexical Decision Task","39","91515","61","yes","1024"
"3.15462682","0","6","noal","non-word","64.51612903225806","64.51612903225806","1506.8870967741937","1506.8870967741937","black","no","legacy","legacy","legacy","0","uniform","1","undefined","undefined","undefined","1","f","0","0","0","0","61","0","0","0","61","0","57","61","57","0","57","3","61","0","61","Wed Feb 17 11:49:42 2021","The main experiment item","yes","Lexical_Decision_Task.osexp","C:/Users/Andrea/Downloads","no","Andale Mono","no","18","no","white","no","yes","576","legacy","57","57","3","C:/Users/Andrea/Downloads/subject-5220796.csv","legacy","Lentiform Loewenfeld","3.3.7","yes","yes","600bd7cfb6416f0113b04181","602110864497cf011d9c0822","0","f","NA","space","space","space","space","f","1912","NA","7682","16139","8395","13725","1912","2","legacy","1024","2","48000","-16","task","5220796","even","NA","47570","57255","49571","236221","2582","27118","18723","236722","196810","236220","236722","236154","57254","238635","42534","235654","2579","231298","Lexical Decision Task","40","93427","62","yes","1024"
"2.858136002","0","4","phip","non-word","65.07936507936508","65.07936507936508","1515.2063492063492","1515.2063492063492","black","no","legacy","legacy","legacy","0","uniform","1","undefined","undefined","undefined","1","f","0","0","0","0","62","0","0","0","62","0","58","62","58","0","58","3","62","0","62","Wed Feb 17 11:49:42 2021","The main experiment item","yes","Lexical_Decision_Task.osexp","C:/Users/Andrea/Downloads","no","Andale Mono","no","18","no","white","no","yes","576","legacy","58","58","3","C:/Users/Andrea/Downloads/subject-5220796.csv","legacy","Lentiform Loewenfeld","3.3.7","yes","yes","600bd7cfb6416f0113b04181","602110864497cf011d9c0822","0","f","NA","space","space","space","space","f","2031","NA","7682","16139","8395","13725","2031","2","legacy","1024","2","48000","-16","task","5220796","even","NA","47570","57255","49571","239270","2582","27118","18723","239773","196810","239268","239774","239153","57254","241807","42534","238653","2579","231298","Lexical Decision Task","41","95458","63","yes","1024"
"3.366547468","0","6","plat","non-word","65.625","65.625","1516.734375","1516.734375","black","no","legacy","legacy","legacy","0","uniform","1","undefined","undefined","undefined","1","f","0","0","0","0","63","0","0","0","63","0","59","63","59","0","59","3","63","0","63","Wed Feb 17 11:49:42 2021","The main experiment item","yes","Lexical_Decision_Task.osexp","C:/Users/Andrea/Downloads","no","Andale Mono","no","18","no","white","no","yes","576","legacy","59","59","3","C:/Users/Andrea/Downloads/subject-5220796.csv","legacy","Lentiform Loewenfeld","3.3.7","yes","yes","600bd7cfb6416f0113b04181","602110864497cf011d9c0822","0","f","NA","space","space","space","space","f","1613","NA","7682","16139","8395","13725","1613","2","legacy","1024","2","48000","-16","task","5220796","even","NA","47570","57255","49571","242506","2582","27118","18723","243008","196810","242505","243008","242432","57254","244622","42534","241932","2579","231298","Lexical Decision Task","42","97071","64","yes","1024"
"2.981215883","10.66","5","hair","word","64.61538461538461","64.61538461538461","1539.553846153846","1539.553846153846","black","no","legacy","legacy","legacy","0","uniform","0","undefined","undefined","undefined","0","j","0","0","0","0","64","0","0","0","64","0","60","64","60","0","60","3","64","0","64","Wed Feb 17 11:49:42 2021","The main experiment item","yes","Lexical_Decision_Task.osexp","C:/Users/Andrea/Downloads","no","Andale Mono","no","18","no","white","no","yes","576","legacy","60","60","3","C:/Users/Andrea/Downloads/subject-5220796.csv","legacy","Lentiform Loewenfeld","3.3.7","yes","yes","600bd7cfb6416f0113b04181","602110864497cf011d9c0822","0","None","NA","space","space","space","space","None","3000","NA","7682","16139","8395","13725","3000","2","legacy","1024","2","48000","-16","task","5220796","even","NA","47570","57255","49571","245305","2582","27118","18723","245806","196810","245303","245806","245226","57254","248806","42534","244726","2579","231298","Lexical Decision Task","42","100071","65","yes","1024"
"3.20871002","7.15","8","cram","word","63.63636363636363","63.63636363636363","1544.3181818181818","1544.3181818181818","black","no","legacy","legacy","legacy","0","uniform","0","undefined","undefined","undefined","0","j","0","0","0","0","65","0","0","0","65","0","61","65","61","0","61","3","65","0","65","Wed Feb 17 11:49:42 2021","The main experiment item","yes","Lexical_Decision_Task.osexp","C:/Users/Andrea/Downloads","no","Andale Mono","no","18","no","white","no","yes","576","legacy","61","61","3","C:/Users/Andrea/Downloads/subject-5220796.csv","legacy","Lentiform Loewenfeld","3.3.7","yes","yes","600bd7cfb6416f0113b04181","602110864497cf011d9c0822","0","f","NA","space","space","space","space","f","1854","NA","7682","16139","8395","13725","1854","2","legacy","1024","2","48000","-16","task","5220796","even","NA","47570","57255","49571","250516","2582","27118","18723","251018","196810","250514","251019","250425","57254","252874","42534","244726","2579","248925","Lexical Decision Task","42","101925","66","yes","1024"
"3.168890155","0","6","thet","non-word","62.6865671641791","62.6865671641791","1566.044776119403","1566.044776119403","black","no","legacy","legacy","legacy","0","uniform","0","undefined","undefined","undefined","0","f","0","0","0","0","66","0","0","0","66","0","62","66","62","0","62","3","66","0","66","Wed Feb 17 11:49:42 2021","The main experiment item","yes","Lexical_Decision_Task.osexp","C:/Users/Andrea/Downloads","no","Andale Mono","no","18","no","white","no","yes","576","legacy","62","62","3","C:/Users/Andrea/Downloads/subject-5220796.csv","legacy","Lentiform Loewenfeld","3.3.7","yes","yes","600bd7cfb6416f0113b04181","602110864497cf011d9c0822","0","None","NA","space","space","space","space","None","3000","NA","7682","16139","8395","13725","3000","2","legacy","1024","2","48000","-16","task","5220796","even","NA","47570","57255","49571","254572","2582","27118","18723","255074","196810","254571","255074","254494","57254","258075","42534","244726","2579","252994","Lexical Decision Task","42","104925","67","yes","1024"
"2.616654026","9.37","5","gift","word","63.23529411764706","63.23529411764706","1574.514705882353","1574.514705882353","black","no","legacy","legacy","legacy","0","uniform","1","undefined","undefined","undefined","1","j","0","0","0","0","67","0","0","0","67","0","63","67","63","0","63","3","67","0","67","Wed Feb 17 11:49:42 2021","The main experiment item","yes","Lexical_Decision_Task.osexp","C:/Users/Andrea/Downloads","no","Andale Mono","no","18","no","white","no","yes","576","legacy","63","63","3","C:/Users/Andrea/Downloads/subject-5220796.csv","legacy","Lentiform Loewenfeld","3.3.7","yes","yes","600bd7cfb6416f0113b04181","602110864497cf011d9c0822","0","j","NA","space","space","space","space","j","2142","NA","7682","16139","8395","13725","2142","2","legacy","1024","2","48000","-16","task","5220796","even","NA","47570","57255","49571","259698","2582","27118","18723","260201","196810","259697","260201","259607","57254","262344","42534","244726","2579","258107","Lexical Decision Task","43","107067","68","yes","1024"
"3.529815197","0","3","lerm","non-word","63.768115942028984","63.768115942028984","1574.4347826086957","1574.4347826086957","black","no","legacy","legacy","legacy","0","uniform","1","undefined","undefined","undefined","1","f","0","0","0","0","68","0","0","0","68","0","64","68","64","0","64","3","68","0","68","Wed Feb 17 11:49:42 2021","The main experiment item","yes","Lexical_Decision_Task.osexp","C:/Users/Andrea/Downloads","no","Andale Mono","no","18","no","white","no","yes","576","legacy","64","64","3","C:/Users/Andrea/Downloads/subject-5220796.csv","legacy","Lentiform Loewenfeld","3.3.7","yes","yes","600bd7cfb6416f0113b04181","602110864497cf011d9c0822","0","f","NA","space","space","space","space","f","1569","NA","7682","16139","8395","13725","1569","2","legacy","1024","2","48000","-16","task","5220796","even","NA","47570","57255","49571","263056","2582","27118","18723","263559","196810","263054","263559","262964","57254","265128","42534","262464","2579","258107","Lexical Decision Task","44","108636","69","yes","1024"
"3.066077331","0","7","vorn","non-word","62.857142857142854","62.857142857142854","1573.7571428571428","1573.7571428571428","black","no","legacy","legacy","legacy","0","uniform","0","undefined","undefined","undefined","0","f","0","0","0","0","69","0","0","0","69","0","65","69","65","0","65","3","69","0","69","Wed Feb 17 11:49:42 2021","The main experiment item","yes","Lexical_Decision_Task.osexp","C:/Users/Andrea/Downloads","no","Andale Mono","no","18","no","white","no","yes","576","legacy","65","65","3","C:/Users/Andrea/Downloads/subject-5220796.csv","legacy","Lentiform Loewenfeld","3.3.7","yes","yes","600bd7cfb6416f0113b04181","602110864497cf011d9c0822","0","j","NA","space","space","space","space","j","1527","NA","7682","16139","8395","13725","1527","2","legacy","1024","2","48000","-16","task","5220796","even","NA","47570","57255","49571","265860","2582","27118","18723","266361","196810","265859","266361","265770","57254","267889","42534","265269","2579","258107","Lexical Decision Task","44","110163","70","yes","1024"
"3.269668578","0","7","trag","non-word","63.38028169014085","63.38028169014085","1574.3521126760563","1574.3521126760563","black","no","legacy","legacy","legacy","0","uniform","1","undefined","undefined","undefined","1","f","0","0","0","0","70","0","0","0","70","0","66","70","66","0","66","3","70","0","70","Wed Feb 17 11:49:42 2021","The main experiment item","yes","Lexical_Decision_Task.osexp","C:/Users/Andrea/Downloads","no","Andale Mono","no","18","no","white","no","yes","576","legacy","66","66","3","C:/Users/Andrea/Downloads/subject-5220796.csv","legacy","Lentiform Loewenfeld","3.3.7","yes","yes","600bd7cfb6416f0113b04181","602110864497cf011d9c0822","0","f","NA","space","space","space","space","f","1616","NA","7682","16139","8395","13725","1616","2","legacy","1024","2","48000","-16","task","5220796","even","NA","47570","57255","49571","269520","2582","27118","18723","270021","196810","269519","270021","269417","57254","271639","42534","265269","2579","267917","Lexical Decision Task","45","111779","71","yes","1024"
"2.9737419","7.69","7","claw","word","63.888888888888886","63.888888888888886","1575.986111111111","1575.986111111111","black","no","legacy","legacy","legacy","0","uniform","1","undefined","undefined","undefined","1","j","0","0","0","0","71","0","0","0","71","0","67","71","67","0","67","3","71","0","71","Wed Feb 17 11:49:42 2021","The main experiment item","yes","Lexical_Decision_Task.osexp","C:/Users/Andrea/Downloads","no","Andale Mono","no","18","no","white","no","yes","576","legacy","67","67","3","C:/Users/Andrea/Downloads/subject-5220796.csv","legacy","Lentiform Loewenfeld","3.3.7","yes","yes","600bd7cfb6416f0113b04181","602110864497cf011d9c0822","0","j","NA","space","space","space","space","j","1692","NA","7682","16139","8395","13725","1692","2","legacy","1024","2","48000","-16","task","5220796","even","NA","47570","57255","49571","272336","2582","27118","18723","272839","196810","272335","272840","272254","57254","274533","42534","271754","2579","267917","Lexical Decision Task","46","113471","72","yes","1024"
"2.714888338","0","3","brug","non-word","63.013698630136986","63.013698630136986","1573.8082191780823","1573.8082191780823","black","no","legacy","legacy","legacy","0","uniform","0","undefined","undefined","undefined","0","f","0","0","0","0","72","0","0","0","72","0","68","72","68","0","68","3","72","0","72","Wed Feb 17 11:49:42 2021","The main experiment item","yes","Lexical_Decision_Task.osexp","C:/Users/Andrea/Downloads","no","Andale Mono","no","18","no","white","no","yes","576","legacy","68","68","3","C:/Users/Andrea/Downloads/subject-5220796.csv","legacy","Lentiform Loewenfeld","3.3.7","yes","yes","600bd7cfb6416f0113b04181","602110864497cf011d9c0822","0","j","NA","space","space","space","space","j","1417","NA","7682","16139","8395","13725","1417","2","legacy","1024","2","48000","-16","task","5220796","even","NA","47570","57255","49571","275157","2582","27118","18723","275659","196810","275156","275659","275080","57254","277077","42534","274580","2579","267917","Lexical Decision Task","46","114888","73","yes","1024"
"2.75025376","10.2","6","jump","word","63.513513513513516","63.513513513513516","1564.7162162162163","1564.7162162162163","black","no","legacy","legacy","legacy","0","uniform","1","undefined","undefined","undefined","1","j","0","0","0","0","73","0","0","0","73","0","69","73","69","0","69","3","73","0","73","Wed Feb 17 11:49:42 2021","The main experiment item","yes","Lexical_Decision_Task.osexp","C:/Users/Andrea/Downloads","no","Andale Mono","no","18","no","white","no","yes","576","legacy","69","69","3","C:/Users/Andrea/Downloads/subject-5220796.csv","legacy","Lentiform Loewenfeld","3.3.7","yes","yes","600bd7cfb6416f0113b04181","602110864497cf011d9c0822","0","j","NA","space","space","space","space","j","901","NA","7682","16139","8395","13725","901","2","legacy","1024","2","48000","-16","task","5220796","even","NA","47570","57255","49571","278700","2582","27118","18723","279203","196810","278699","279204","278610","57254","280107","42534","274580","2579","277110","Lexical Decision Task","47","115789","74","yes","1024"
"3.431095062","5.74","9","perk","word","64","64","1558.12","1558.12","black","no","legacy","legacy","legacy","0","uniform","1","undefined","undefined","undefined","1","j","0","0","0","0","74","0","0","0","74","0","70","74","70","0","70","3","74","0","74","Wed Feb 17 11:49:42 2021","The main experiment item","yes","Lexical_Decision_Task.osexp","C:/Users/Andrea/Downloads","no","Andale Mono","no","18","no","white","no","yes","576","legacy","70","70","3","C:/Users/Andrea/Downloads/subject-5220796.csv","legacy","Lentiform Loewenfeld","3.3.7","yes","yes","600bd7cfb6416f0113b04181","602110864497cf011d9c0822","0","j","NA","space","space","space","space","j","1070","NA","7682","16139","8395","13725","1070","2","legacy","1024","2","48000","-16","task","5220796","even","NA","47570","57255","49571","280741","2582","27118","18723","281242","196810","280739","281242","280656","57254","282314","42534","280156","2579","277110","Lexical Decision Task","48","116859","75","yes","1024"
"2.892836167","10.01","5","soft","word","64.47368421052632","64.47368421052632","1545.6447368421052","1545.6447368421052","black","no","legacy","legacy","legacy","0","uniform","1","undefined","undefined","undefined","1","j","0","0","0","0","75","0","0","0","75","0","71","75","71","0","71","3","75","0","75","Wed Feb 17 11:49:42 2021","The main experiment item","yes","Lexical_Decision_Task.osexp","C:/Users/Andrea/Downloads","no","Andale Mono","no","18","no","white","no","yes","576","legacy","71","71","3","C:/Users/Andrea/Downloads/subject-5220796.csv","legacy","Lentiform Loewenfeld","3.3.7","yes","yes","600bd7cfb6416f0113b04181","602110864497cf011d9c0822","0","j","NA","space","space","space","space","j","610","NA","7682","16139","8395","13725","610","2","legacy","1024","2","48000","-16","task","5220796","even","NA","47570","57255","49571","283023","2582","27118","18723","283526","196810","283022","283527","282933","57254","284139","42534","282432","2579","277110","Lexical Decision Task","49","117469","76","yes","1024"
"2.807758206","6.25","4","hurl","word","64.93506493506493","64.93506493506493","1539.6493506493507","1539.6493506493507","black","no","legacy","legacy","legacy","0","uniform","1","undefined","undefined","undefined","1","j","0","0","0","0","76","0","0","0","76","0","72","76","72","0","72","3","76","0","76","Wed Feb 17 11:49:42 2021","The main experiment item","yes","Lexical_Decision_Task.osexp","C:/Users/Andrea/Downloads","no","Andale Mono","no","18","no","white","no","yes","576","legacy","72","72","3","C:/Users/Andrea/Downloads/subject-5220796.csv","legacy","Lentiform Loewenfeld","3.3.7","yes","yes","600bd7cfb6416f0113b04181","602110864497cf011d9c0822","0","j","NA","space","space","space","space","j","1084","NA","7682","16139","8395","13725","1084","2","legacy","1024","2","48000","-16","task","5220796","even","NA","47570","57255","49571","284769","2582","27118","18723","285273","196810","284767","285273","284671","57254","286358","42534","284171","2579","277110","Lexical Decision Task","50","118553","77","yes","1024"
"2.884795364","0","6","flob","non-word","64.1025641025641","64.1025641025641","1529.3974358974358","1529.3974358974358","black","no","legacy","legacy","legacy","0","uniform","0","undefined","undefined","undefined","0","f","0","0","0","0","77","0","0","0","77","0","73","77","73","0","73","3","77","0","77","Wed Feb 17 11:49:42 2021","The main experiment item","yes","Lexical_Decision_Task.osexp","C:/Users/Andrea/Downloads","no","Andale Mono","no","18","no","white","no","yes","576","legacy","73","73","3","C:/Users/Andrea/Downloads/subject-5220796.csv","legacy","Lentiform Loewenfeld","3.3.7","yes","yes","600bd7cfb6416f0113b04181","602110864497cf011d9c0822","0","j","NA","space","space","space","space","j","740","NA","7682","16139","8395","13725","740","2","legacy","1024","2","48000","-16","task","5220796","even","NA","47570","57255","49571","286940","2582","27118","18723","287441","196810","286939","287441","286881","57254","288182","42534","286381","2579","277110","Lexical Decision Task","50","119293","78","yes","1024"
"2.706148589","0","4","hube","non-word","64.55696202531645","64.55696202531645","1522.873417721519","1522.873417721519","black","no","legacy","legacy","legacy","0","uniform","1","undefined","undefined","undefined","1","f","0","0","0","0","78","0","0","0","78","0","74","78","74","0","74","3","78","0","78","Wed Feb 17 11:49:42 2021","The main experiment item","yes","Lexical_Decision_Task.osexp","C:/Users/Andrea/Downloads","no","Andale Mono","no","18","no","white","no","yes","576","legacy","74","74","3","C:/Users/Andrea/Downloads/subject-5220796.csv","legacy","Lentiform Loewenfeld","3.3.7","yes","yes","600bd7cfb6416f0113b04181","602110864497cf011d9c0822","0","f","NA","space","space","space","space","f","1014","NA","7682","16139","8395","13725","1014","2","legacy","1024","2","48000","-16","task","5220796","even","NA","47570","57255","49571","289884","2582","27118","18723","290388","196810","289883","290388","289796","57254","291403","42534","286381","2579","288295","Lexical Decision Task","51","120307","79","yes","1024"
"2.713490543","0","3","feps","non-word","65","65","1518.95","1518.95","black","no","legacy","legacy","legacy","0","uniform","1","undefined","undefined","undefined","1","f","0","0","0","0","79","0","0","0","79","0","75","79","75","0","75","3","79","0","79","Wed Feb 17 11:49:42 2021","The main experiment item","yes","Lexical_Decision_Task.osexp","C:/Users/Andrea/Downloads","no","Andale Mono","no","18","no","white","no","yes","576","legacy","75","75","3","C:/Users/Andrea/Downloads/subject-5220796.csv","legacy","Lentiform Loewenfeld","3.3.7","yes","yes","600bd7cfb6416f0113b04181","602110864497cf011d9c0822","0","f","NA","space","space","space","space","f","1209","NA","7682","16139","8395","13725","1209","2","legacy","1024","2","48000","-16","task","5220796","even","NA","47570","57255","49571","292025","2582","27118","18723","292526","196810","292024","292526","291928","57254","293736","42534","291428","2579","288295","Lexical Decision Task","52","121516","80","yes","1024"
"2.784379519","0","2","snaf","non-word","64.19753086419753","64.19753086419753","1514.9506172839506","1514.9506172839506","black","no","legacy","legacy","legacy","0","uniform","0","undefined","undefined","undefined","0","f","0","0","0","0","80","0","0","0","80","0","76","80","76","0","76","3","80","0","80","Wed Feb 17 11:49:42 2021","The main experiment item","yes","Lexical_Decision_Task.osexp","C:/Users/Andrea/Downloads","no","Andale Mono","no","18","no","white","no","yes","576","legacy","76","76","3","C:/Users/Andrea/Downloads/subject-5220796.csv","legacy","Lentiform Loewenfeld","3.3.7","yes","yes","600bd7cfb6416f0113b04181","602110864497cf011d9c0822","0","j","NA","space","space","space","space","j","1195","NA","7682","16139","8395","13725","1195","2","legacy","1024","2","48000","-16","task","5220796","even","NA","47570","57255","49571","294450","2582","27118","18723","294952","196810","294446","294952","294361","57254","296149","42534","293860","2579","288295","Lexical Decision Task","52","122711","81","yes","1024"
"3.218535505","7.85","7","goat","word","64.63414634146342","64.63414634146342","1508.3902439024391","1508.3902439024391","black","no","legacy","legacy","legacy","0","uniform","1","undefined","undefined","undefined","1","j","0","0","0","0","81","0","0","0","81","0","77","81","77","0","77","3","81","0","81","Wed Feb 17 11:49:42 2021","The main experiment item","yes","Lexical_Decision_Task.osexp","C:/Users/Andrea/Downloads","no","Andale Mono","no","18","no","white","no","yes","576","legacy","77","77","3","C:/Users/Andrea/Downloads/subject-5220796.csv","legacy","Lentiform Loewenfeld","3.3.7","yes","yes","600bd7cfb6416f0113b04181","602110864497cf011d9c0822","0","j","NA","space","space","space","space","j","977","NA","7682","16139","8395","13725","977","2","legacy","1024","2","48000","-16","task","5220796","even","NA","47570","57255","49571","297767","2582","27118","18723","298269","196810","297765","298269","297679","57254","299248","42534","293860","2579","296179","Lexical Decision Task","53","123688","82","yes","1024"
"3.531734309","0","6","lerd","non-word","65.06024096385542","65.06024096385542","1506.0602409638554","1506.0602409638554","black","no","legacy","legacy","legacy","0","uniform","1","undefined","undefined","undefined","1","f","0","0","0","0","82","0","0","0","82","0","78","82","78","0","78","3","82","0","82","Wed Feb 17 11:49:42 2021","The main experiment item","yes","Lexical_Decision_Task.osexp","C:/Users/Andrea/Downloads","no","Andale Mono","no","18","no","white","no","yes","576","legacy","78","78","3","C:/Users/Andrea/Downloads/subject-5220796.csv","legacy","Lentiform Loewenfeld","3.3.7","yes","yes","600bd7cfb6416f0113b04181","602110864497cf011d9c0822","0","f","NA","space","space","space","space","f","1315","NA","7682","16139","8395","13725","1315","2","legacy","1024","2","48000","-16","task","5220796","even","NA","47570","57255","49571","299959","2582","27118","18723","300461","196810","299955","300461","299870","57254","301778","42534","299370","2579","296179","Lexical Decision Task","54","125003","83","yes","1024"
"3.488597715","0","9","nain","non-word","65.47619047619048","65.47619047619048","1510.9761904761904","1510.9761904761904","black","no","legacy","legacy","legacy","0","uniform","1","undefined","undefined","undefined","1","f","0","0","0","0","83","0","0","0","83","0","79","83","79","0","79","3","83","0","83","Wed Feb 17 11:49:42 2021","The main experiment item","yes","Lexical_Decision_Task.osexp","C:/Users/Andrea/Downloads","no","Andale Mono","no","18","no","white","no","yes","576","legacy","79","79","3","C:/Users/Andrea/Downloads/subject-5220796.csv","legacy","Lentiform Loewenfeld","3.3.7","yes","yes","600bd7cfb6416f0113b04181","602110864497cf011d9c0822","0","f","NA","space","space","space","space","f","1919","NA","7682","16139","8395","13725","1919","2","legacy","1024","2","48000","-16","task","5220796","even","NA","47570","57255","49571","302418","2582","27118","18723","302921","196810","302416","302921","302310","57254","304841","42534","301810","2579","296179","Lexical Decision Task","55","126922","84","yes","1024"
"2.897810299","0","5","glur","non-word","65.88235294117646","65.88235294117646","1513.6705882352942","1513.6705882352942","black","no","legacy","legacy","legacy","0","uniform","1","undefined","undefined","undefined","1","f","0","0","0","0","84","0","0","0","84","0","80","84","80","0","80","3","84","0","84","Wed Feb 17 11:49:42 2021","The main experiment item","yes","Lexical_Decision_Task.osexp","C:/Users/Andrea/Downloads","no","Andale Mono","no","18","no","white","no","yes","576","legacy","80","80","3","C:/Users/Andrea/Downloads/subject-5220796.csv","legacy","Lentiform Loewenfeld","3.3.7","yes","yes","600bd7cfb6416f0113b04181","602110864497cf011d9c0822","0","f","NA","space","space","space","space","f","1740","NA","7682","16139","8395","13725","1740","2","legacy","1024","2","48000","-16","task","5220796","even","NA","47570","57255","49571","305540","2582","27118","18723","306041","196810","305538","306041","305455","57254","307782","42534","304954","2579","296179","Lexical Decision Task","56","128662","85","yes","1024"
"3.257359335","8","6","brew","word","66.27906976744185","66.27906976744185","1527.8372093023256","1527.8372093023256","black","no","legacy","legacy","legacy","0","uniform","1","undefined","undefined","undefined","1","j","0","0","0","0","85","0","0","0","85","0","81","85","81","0","81","3","85","0","85","Wed Feb 17 11:49:42 2021","The main experiment item","yes","Lexical_Decision_Task.osexp","C:/Users/Andrea/Downloads","no","Andale Mono","no","18","no","white","no","yes","576","legacy","81","81","3","C:/Users/Andrea/Downloads/subject-5220796.csv","legacy","Lentiform Loewenfeld","3.3.7","yes","yes","600bd7cfb6416f0113b04181","602110864497cf011d9c0822","0","j","NA","space","space","space","space","j","2732","NA","7682","16139","8395","13725","2732","2","legacy","1024","2","48000","-16","task","5220796","even","NA","47570","57255","49571","308483","2582","27118","18723","308984","196810","308481","308984","308402","57254","311717","42534","307902","2579","296179","Lexical Decision Task","57","131394","86","yes","1024"
"3.259832699","0","9","flar","non-word","65.51724137931035","65.51724137931035","1519.8505747126437","1519.8505747126437","black","no","legacy","legacy","legacy","0","uniform","0","undefined","undefined","undefined","0","f","0","0","0","0","86","0","0","0","86","0","82","86","82","0","82","3","86","0","86","Wed Feb 17 11:49:42 2021","The main experiment item","yes","Lexical_Decision_Task.osexp","C:/Users/Andrea/Downloads","no","Andale Mono","no","18","no","white","no","yes","576","legacy","82","82","3","C:/Users/Andrea/Downloads/subject-5220796.csv","legacy","Lentiform Loewenfeld","3.3.7","yes","yes","600bd7cfb6416f0113b04181","602110864497cf011d9c0822","0","j","NA","space","space","space","space","j","833","NA","7682","16139","8395","13725","833","2","legacy","1024","2","48000","-16","task","5220796","even","NA","47570","57255","49571","312420","2582","27118","18723","312923","196810","312418","312923","312330","57254","313758","42534","311830","2579","296179","Lexical Decision Task","57","132227","87","yes","1024"
"3.134602053","0","8","jart","non-word","65.9090909090909","65.9090909090909","1517.5113636363637","1517.5113636363637","black","no","legacy","legacy","legacy","0","uniform","1","undefined","undefined","undefined","1","f","0","0","0","0","87","0","0","0","87","0","83","87","83","0","83","3","87","0","87","Wed Feb 17 11:49:42 2021","The main experiment item","yes","Lexical_Decision_Task.osexp","C:/Users/Andrea/Downloads","no","Andale Mono","no","18","no","white","no","yes","576","legacy","83","83","3","C:/Users/Andrea/Downloads/subject-5220796.csv","legacy","Lentiform Loewenfeld","3.3.7","yes","yes","600bd7cfb6416f0113b04181","602110864497cf011d9c0822","0","f","NA","space","space","space","space","f","1314","NA","7682","16139","8395","13725","1314","2","legacy","1024","2","48000","-16","task","5220796","even","NA","47570","57255","49571","315453","2582","27118","18723","315954","196810","315451","315954","315363","57254","317272","42534","311830","2579","313863","Lexical Decision Task","58","133541","88","yes","1024"
"2.979548375","8.71","4","soup","word","66.29213483146067","66.29213483146067","1509.8426966292134","1509.8426966292134","black","no","legacy","legacy","legacy","0","uniform","1","undefined","undefined","undefined","1","j","0","0","0","0","88","0","0","0","88","0","84","88","84","0","84","3","88","0","88","Wed Feb 17 11:49:42 2021","The main experiment item","yes","Lexical_Decision_Task.osexp","C:/Users/Andrea/Downloads","no","Andale Mono","no","18","no","white","no","yes","576","legacy","84","84","3","C:/Users/Andrea/Downloads/subject-5220796.csv","legacy","Lentiform Loewenfeld","3.3.7","yes","yes","600bd7cfb6416f0113b04181","602110864497cf011d9c0822","0","j","NA","space","space","space","space","j","835","NA","7682","16139","8395","13725","835","2","legacy","1024","2","48000","-16","task","5220796","even","NA","47570","57255","49571","317902","2582","27118","18723","318405","196810","317900","318405","317805","57254","319242","42534","317305","2579","313863","Lexical Decision Task","59","134376","89","yes","1024"
"3.263399331","0","8","cour","non-word","66.66666666666667","66.66666666666667","1503.6666666666667","1503.6666666666667","black","no","legacy","legacy","legacy","0","uniform","1","undefined","undefined","undefined","1","f","0","0","0","0","89","0","0","0","89","0","85","89","85","0","85","3","89","0","89","Wed Feb 17 11:49:42 2021","The main experiment item","yes","Lexical_Decision_Task.osexp","C:/Users/Andrea/Downloads","no","Andale Mono","no","18","no","white","no","yes","576","legacy","85","85","3","C:/Users/Andrea/Downloads/subject-5220796.csv","legacy","Lentiform Loewenfeld","3.3.7","yes","yes","600bd7cfb6416f0113b04181","602110864497cf011d9c0822","0","f","NA","space","space","space","space","f","954","NA","7682","16139","8395","13725","954","2","legacy","1024","2","48000","-16","task","5220796","even","NA","47570","57255","49571","319912","2582","27118","18723","320413","196810","319910","320413","319792","57254","321368","42534","319292","2579","313863","Lexical Decision Task","60","135330","90","yes","1024"
"2.82129731","6.72","5","plum","word","67.03296703296704","67.03296703296704","1497.3846153846155","1497.3846153846155","black","no","legacy","legacy","legacy","0","uniform","1","undefined","undefined","undefined","1","j","0","0","0","0","90","0","0","0","90","0","86","90","86","0","86","3","90","0","90","Wed Feb 17 11:49:42 2021","The main experiment item","yes","Lexical_Decision_Task.osexp","C:/Users/Andrea/Downloads","no","Andale Mono","no","18","no","white","no","yes","576","legacy","86","86","3","C:/Users/Andrea/Downloads/subject-5220796.csv","legacy","Lentiform Loewenfeld","3.3.7","yes","yes","600bd7cfb6416f0113b04181","602110864497cf011d9c0822","0","j","NA","space","space","space","space","j","932","NA","7682","16139","8395","13725","932","2","legacy","1024","2","48000","-16","task","5220796","even","NA","47570","57255","49571","321965","2582","27118","18723","322467","196810","321964","322467","321896","57254","323400","42534","321396","2579","313863","Lexical Decision Task","61","136262","91","yes","1024"
"3.043885998","0","9","gome","non-word","67.3913043478261","67.3913043478261","1499.945652173913","1499.945652173913","black","no","legacy","legacy","legacy","0","uniform","1","undefined","undefined","undefined","1","f","0","0","0","0","91","0","0","0","91","0","87","91","87","0","87","3","91","0","91","Wed Feb 17 11:49:42 2021","The main experiment item","yes","Lexical_Decision_Task.osexp","C:/Users/Andrea/Downloads","no","Andale Mono","no","18","no","white","no","yes","576","legacy","87","87","3","C:/Users/Andrea/Downloads/subject-5220796.csv","legacy","Lentiform Loewenfeld","3.3.7","yes","yes","600bd7cfb6416f0113b04181","602110864497cf011d9c0822","0","f","NA","space","space","space","space","f","1733","NA","7682","16139","8395","13725","1733","2","legacy","1024","2","48000","-16","task","5220796","even","NA","47570","57255","49571","324032","2582","27118","18723","324533","196810","324031","324533","323930","57254","326268","42534","323430","2579","313863","Lexical Decision Task","62","137995","92","yes","1024"
"2.899092422","7.27","6","snag","word","67.74193548387096","67.74193548387096","1498.8279569892472","1498.8279569892472","black","no","legacy","legacy","legacy","0","uniform","1","undefined","undefined","undefined","1","j","0","0","0","0","92","0","0","0","92","0","88","92","88","0","88","3","92","0","92","Wed Feb 17 11:49:42 2021","The main experiment item","yes","Lexical_Decision_Task.osexp","C:/Users/Andrea/Downloads","no","Andale Mono","no","18","no","white","no","yes","576","legacy","88","88","3","C:/Users/Andrea/Downloads/subject-5220796.csv","legacy","Lentiform Loewenfeld","3.3.7","yes","yes","600bd7cfb6416f0113b04181","602110864497cf011d9c0822","0","j","NA","space","space","space","space","j","1396","NA","7682","16139","8395","13725","1396","2","legacy","1024","2","48000","-16","task","5220796","even","NA","47570","57255","49571","327005","2582","27118","18723","327507","196810","327004","327507","326921","57254","328905","42534","326421","2579","313863","Lexical Decision Task","63","139391","93","yes","1024"
"3.372543801","9.24","8","coat","word","68.08510638297872","68.08510638297872","1496.3936170212767","1496.3936170212767","black","no","legacy","legacy","legacy","0","uniform","1","undefined","undefined","undefined","1","j","0","0","0","0","93","0","0","0","93","0","89","93","89","0","89","3","93","0","93","Wed Feb 17 11:49:42 2021","The main experiment item","yes","Lexical_Decision_Task.osexp","C:/Users/Andrea/Downloads","no","Andale Mono","no","18","no","white","no","yes","576","legacy","89","89","3","C:/Users/Andrea/Downloads/subject-5220796.csv","legacy","Lentiform Loewenfeld","3.3.7","yes","yes","600bd7cfb6416f0113b04181","602110864497cf011d9c0822","0","j","NA","space","space","space","space","j","1270","NA","7682","16139","8395","13725","1270","2","legacy","1024","2","48000","-16","task","5220796","even","NA","47570","57255","49571","329619","2582","27118","18723","330121","196810","329618","330121","329530","57254","331393","42534","329030","2579","313863","Lexical Decision Task","64","140661","94","yes","1024"
"3.010582609","0","2","drod","non-word","68.42105263157895","68.42105263157895","1497.5157894736842","1497.5157894736842","black","no","legacy","legacy","legacy","0","uniform","1","undefined","undefined","undefined","1","f","0","0","0","0","94","0","0","0","94","0","90","94","90","0","90","3","94","0","94","Wed Feb 17 11:49:42 2021","The main experiment item","yes","Lexical_Decision_Task.osexp","C:/Users/Andrea/Downloads","no","Andale Mono","no","18","no","white","no","yes","576","legacy","90","90","3","C:/Users/Andrea/Downloads/subject-5220796.csv","legacy","Lentiform Loewenfeld","3.3.7","yes","yes","600bd7cfb6416f0113b04181","602110864497cf011d9c0822","0","f","NA","space","space","space","space","f","1603","NA","7682","16139","8395","13725","1603","2","legacy","1024","2","48000","-16","task","5220796","even","NA","47570","57255","49571","332099","2582","27118","18723","332601","196810","332097","332602","332013","57254","334206","42534","331512","2579","313863","Lexical Decision Task","65","142264","95","yes","1024"
"3.2757719","0","5","slea","non-word","68.75","68.75","1493.625","1493.625","black","no","legacy","legacy","legacy","0","uniform","1","undefined","undefined","undefined","1","f","0","0","0","0","95","0","0","0","95","0","91","95","91","0","91","3","95","0","95","Wed Feb 17 11:49:42 2021","The main experiment item","yes","Lexical_Decision_Task.osexp","C:/Users/Andrea/Downloads","no","Andale Mono","no","18","no","white","no","yes","576","legacy","91","91","3","C:/Users/Andrea/Downloads/subject-5220796.csv","legacy","Lentiform Loewenfeld","3.3.7","yes","yes","600bd7cfb6416f0113b04181","602110864497cf011d9c0822","0","f","NA","space","space","space","space","f","1124","NA","7682","16139","8395","13725","1124","2","legacy","1024","2","48000","-16","task","5220796","even","NA","47570","57255","49571","334933","2582","27118","18723","335434","196810","334931","335434","334820","57254","336559","42534","334320","2579","313863","Lexical Decision Task","66","143388","96","yes","1024"
"2.880623071","0","9","curp","non-word","69.0721649484536","69.0721649484536","1492.8865979381444","1492.8865979381444","black","no","legacy","legacy","legacy","0","uniform","1","undefined","undefined","undefined","1","f","0","0","0","0","96","0","0","0","96","0","92","96","92","0","92","3","96","0","96","Wed Feb 17 11:49:42 2021","The main experiment item","yes","Lexical_Decision_Task.osexp","C:/Users/Andrea/Downloads","no","Andale Mono","no","18","no","white","no","yes","576","legacy","92","92","3","C:/Users/Andrea/Downloads/subject-5220796.csv","legacy","Lentiform Loewenfeld","3.3.7","yes","yes","600bd7cfb6416f0113b04181","602110864497cf011d9c0822","0","f","NA","space","space","space","space","f","1422","NA","7682","16139","8395","13725","1422","2","legacy","1024","2","48000","-16","task","5220796","even","NA","47570","57255","49571","337259","2582","27118","18723","337762","196810","337256","337763","337170","57254","339186","42534","336670","2579","313863","Lexical Decision Task","67","144810","97","yes","1024"
"2.895974732","6.65","5","sift","word","68.36734693877551","68.36734693877551","1479.765306122449","1479.765306122449","black","no","legacy","legacy","legacy","0","uniform","0","undefined","undefined","undefined","0","j","0","0","0","0","97","0","0","0","97","0","93","97","93","0","93","3","97","0","97","Wed Feb 17 11:49:42 2021","The main experiment item","yes","Lexical_Decision_Task.osexp","C:/Users/Andrea/Downloads","no","Andale Mono","no","18","no","white","no","yes","576","legacy","93","93","3","C:/Users/Andrea/Downloads/subject-5220796.csv","legacy","Lentiform Loewenfeld","3.3.7","yes","yes","600bd7cfb6416f0113b04181","602110864497cf011d9c0822","0","f","NA","space","space","space","space","f","207","NA","7682","16139","8395","13725","207","2","legacy","1024","2","48000","-16","task","5220796","even","NA","47570","57255","49571","339827","2582","27118","18723","340328","196810","339826","340329","339727","57254","340538","42534","339227","2579","313863","Lexical Decision Task","67","145017","98","yes","1024"
"3.049218023","7.4","9","robe","word","68.68686868686869","68.68686868686869","1482.5252525252524","1482.5252525252524","black","no","legacy","legacy","legacy","0","uniform","1","undefined","undefined","undefined","1","j","0","0","0","0","98","0","0","0","98","0","94","98","94","0","94","3","98","0","98","Wed Feb 17 11:49:42 2021","The main experiment item","yes","Lexical_Decision_Task.osexp","C:/Users/Andrea/Downloads","no","Andale Mono","no","18","no","white","no","yes","576","legacy","94","94","3","C:/Users/Andrea/Downloads/subject-5220796.csv","legacy","Lentiform Loewenfeld","3.3.7","yes","yes","600bd7cfb6416f0113b04181","602110864497cf011d9c0822","0","j","NA","space","space","space","space","j","1753","NA","7682","16139","8395","13725","1753","2","legacy","1024","2","48000","-16","task","5220796","even","NA","47570","57255","49571","342147","2582","27118","18723","342648","196810","342145","342648","342063","57254","344402","42534","339227","2579","340563","Lexical Decision Task","68","146770","99","yes","1024"
"3.481012421","8.34","5","teen","word","69","69","1477.15","1477.15","black","no","legacy","legacy","legacy","0","uniform","1","undefined","undefined","undefined","1","j","0","0","0","0","99","0","0","0","99","0","95","99","95","0","95","3","99","0","99","Wed Feb 17 11:49:42 2021","The main experiment item","yes","Lexical_Decision_Task.osexp","C:/Users/Andrea/Downloads","no","Andale Mono","no","18","no","white","no","yes","576","legacy","95","95","3","C:/Users/Andrea/Downloads/subject-5220796.csv","legacy","Lentiform Loewenfeld","3.3.7","yes","yes","600bd7cfb6416f0113b04181","602110864497cf011d9c0822","0","j","NA","space","space","space","space","j","945","NA","7682","16139","8395","13725","945","2","legacy","1024","2","48000","-16","task","5220796","even","NA","47570","57255","49571","345082","2582","27118","18723","345583","196810","345081","345583","345024","57254","346529","42534","344524","2579","340563","Lexical Decision Task","69","147715","100","yes","1024"
