"Log_BG","Log_Freq_HAL","Ortho_N","Stimulus","Type","acc","accuracy","average_response_time","avg_rt","background","bidi","canvas_backend","clock_backend","color_backend","compensation","coordinates","correct","correct_Experimental_intro","correct_Introduction","correct_Practice_intro","correct_experimenter_kb","correct_response","count_End_Of_Experiment","count_End_Of_Practice","count_Experimental_Loop","count_Experimental_intro","count_Fixation","count_Introduction","count_Practice_Loop","count_Practice_intro","count_Stimulus","count_block_break_feedback","count_experimental_sequence","count_experimenter_kb","count_increment_trial_count","count_init_trial_count","count_logger","count_practice_sequence","count_right","count_task","count_wrong","datetime","description","disable_garbage_collection","experiment_file","experiment_path","font_bold","font_family","font_italic","font_size","font_underline","foreground","form_clicks","fullscreen","height","keyboard_backend","live_row","live_row_Experimental_Loop","live_row_Practice_Loop","logfile","mouse_backend","opensesame_codename","opensesame_version","osf_always_upload_data","osf_always_upload_experiment","osf_datanode_id","osf_id","repeat_cycle","response","response_End_Of_Experiment","response_Experimental_intro","response_Introduction","response_Practice_intro","response_block_break_feedback","response_experimenter_kb","response_time","response_time_End_Of_Experiment","response_time_Experimental_intro","response_time_Introduction","response_time_Practice_intro","response_time_block_break_feedback","response_time_experimenter_kb","round_decimals","sampler_backend","sound_buf_size","sound_channels","sound_freq","sound_sample_size","start","subject_nr","subject_parity","time_End_Of_Experiment","time_End_Of_Practice","time_Experimental_Loop","time_Experimental_intro","time_Fixation","time_Introduction","time_Practice_Loop","time_Practice_intro","time_Stimulus","time_block_break_feedback","time_experimental_sequence","time_experimenter_kb","time_increment_trial_count","time_init_trial_count","time_logger","time_practice_sequence","time_right","time_task","time_wrong","title","total_correct","total_response_time","total_responses","uniform_coordinates","width"
"2.898725182","0","7","turl","non-word","100","100","938","938","black","no","legacy","legacy","legacy","0","uniform","1","undefined","undefined","undefined","1","f","0","0","0","0","4","0","0","0","4","NA","0","4","0","0","0","3","4","0","4","Wed Feb 24 18:46:53 2021","The main experiment item","yes","Lexical_Decision_Task.osexp","C:/Users/kiera","no","Andale Mono","no","18","no","white","no","yes","576","legacy","0","0","3","C:/Users/kiera/subject-5215489.csv","legacy","Lentiform Loewenfeld","3.3.8","yes","yes","600bd7cfb6416f0113b04181","602110864497cf011d9c0822","0","F","NA","space","space","space","NA","F","962","NA","4071","59410","7219","NA","962","2","legacy","1024","2","48000","-16","task","5215489","odd","NA","81732","87807","83735","87889","6513","73152","65932","88391","NA","87887","88392","NA","87807","89355","79915","81167","6486","NA","Lexical Decision Task","5","4690","5","yes","1024"
"3.209246849","0","7","slem","non-word","100","100","903.1666666666666","903.1666666666666","black","no","legacy","legacy","legacy","0","uniform","1","undefined","undefined","undefined","1","f","0","0","0","0","5","0","0","0","5","NA","1","5","1","0","1","3","5","0","5","Wed Feb 24 18:46:53 2021","The main experiment item","yes","Lexical_Decision_Task.osexp","C:/Users/kiera","no","Andale Mono","no","18","no","white","no","yes","576","legacy","1","1","3","C:/Users/kiera/subject-5215489.csv","legacy","Lentiform Loewenfeld","3.3.8","yes","yes","600bd7cfb6416f0113b04181","602110864497cf011d9c0822","0","F","NA","space","space","space","NA","F","729","NA","4071","59410","7219","NA","729","2","legacy","1024","2","48000","-16","task","5215489","odd","NA","81732","87807","83735","90005","6513","73152","65932","90507","NA","90002","90507","89869","87807","91237","79915","89369","6486","NA","Lexical Decision Task","6","5419","6","yes","1024"
"3.031812271","6.52","3","gulp","word","85.71428571428571","85.71428571428571","856.5714285714286","856.5714285714286","black","no","legacy","legacy","legacy","0","uniform","0","undefined","undefined","undefined","0","j","0","0","0","0","6","0","0","0","6","NA","2","6","2","0","2","3","6","0","6","Wed Feb 24 18:46:53 2021","The main experiment item","yes","Lexical_Decision_Task.osexp","C:/Users/kiera","no","Andale Mono","no","18","no","white","no","yes","576","legacy","2","2","3","C:/Users/kiera/subject-5215489.csv","legacy","Lentiform Loewenfeld","3.3.8","yes","yes","600bd7cfb6416f0113b04181","602110864497cf011d9c0822","0","F","NA","space","space","space","NA","F","577","NA","4071","59410","7219","NA","577","2","legacy","1024","2","48000","-16","task","5215489","odd","NA","81732","87807","83735","91889","6513","73152","65932","92391","NA","91887","92391","91748","87807","92970","79915","91248","6486","NA","Lexical Decision Task","6","5996","7","yes","1024"
"3.382617311","0","4","pret","non-word","87.5","87.5","860.5","860.5","black","no","legacy","legacy","legacy","0","uniform","1","undefined","undefined","undefined","1","f","0","0","0","0","7","0","0","0","7","NA","3","7","3","0","3","3","7","0","7","Wed Feb 24 18:46:53 2021","The main experiment item","yes","Lexical_Decision_Task.osexp","C:/Users/kiera","no","Andale Mono","no","18","no","white","no","yes","576","legacy","3","3","3","C:/Users/kiera/subject-5215489.csv","legacy","Lentiform Loewenfeld","3.3.8","yes","yes","600bd7cfb6416f0113b04181","602110864497cf011d9c0822","0","F","NA","space","space","space","NA","F","888","NA","4071","59410","7219","NA","888","2","legacy","1024","2","48000","-16","task","5215489","odd","NA","81732","87807","83735","94613","6513","73152","65932","95115","NA","94610","95115","94481","87807","96004","79915","91248","6486","92981","Lexical Decision Task","7","6884","8","yes","1024"
"2.990042563","6.64","9","plow","word","77.77777777777777","77.77777777777777","873.5555555555555","873.5555555555555","black","no","legacy","legacy","legacy","0","uniform","0","undefined","undefined","undefined","0","j","0","0","0","0","8","0","0","0","8","NA","4","8","4","0","4","3","8","0","8","Wed Feb 24 18:46:53 2021","The main experiment item","yes","Lexical_Decision_Task.osexp","C:/Users/kiera","no","Andale Mono","no","18","no","white","no","yes","576","legacy","4","4","3","C:/Users/kiera/subject-5215489.csv","legacy","Lentiform Loewenfeld","3.3.8","yes","yes","600bd7cfb6416f0113b04181","602110864497cf011d9c0822","0","F","NA","space","space","space","NA","F","978","NA","4071","59410","7219","NA","978","2","legacy","1024","2","48000","-16","task","5215489","odd","NA","81732","87807","83735","96655","6513","73152","65932","97157","NA","96653","97158","96514","87807","98137","79915","96014","6486","92981","Lexical Decision Task","7","7862","9","yes","1024"
"3.132473155","0","4","glim","non-word","80","80","909.2","909.2","black","no","legacy","legacy","legacy","0","uniform","1","undefined","undefined","undefined","1","f","0","0","0","0","9","0","0","0","9","NA","5","9","5","0","5","3","9","0","9","Wed Feb 24 18:46:53 2021","The main experiment item","yes","Lexical_Decision_Task.osexp","C:/Users/kiera","no","Andale Mono","no","18","no","white","no","yes","576","legacy","5","5","3","C:/Users/kiera/subject-5215489.csv","legacy","Lentiform Loewenfeld","3.3.8","yes","yes","600bd7cfb6416f0113b04181","602110864497cf011d9c0822","0","F","NA","space","space","space","NA","F","1230","NA","4071","59410","7219","NA","1230","2","legacy","1024","2","48000","-16","task","5215489","odd","NA","81732","87807","83735","99770","6513","73152","65932","100272","NA","99767","100272","99647","87807","101503","79915","96014","6486","98147","Lexical Decision Task","8","9092","10","yes","1024"
"3.037294994","8.64","7","roof","word","81.81818181818181","81.81818181818181","891.2727272727273","891.2727272727273","black","no","legacy","legacy","legacy","0","uniform","1","undefined","undefined","undefined","1","j","0","0","0","0","10","0","0","0","10","NA","6","10","6","0","6","3","10","0","10","Wed Feb 24 18:46:53 2021","The main experiment item","yes","Lexical_Decision_Task.osexp","C:/Users/kiera","no","Andale Mono","no","18","no","white","no","yes","576","legacy","6","6","3","C:/Users/kiera/subject-5215489.csv","legacy","Lentiform Loewenfeld","3.3.8","yes","yes","600bd7cfb6416f0113b04181","602110864497cf011d9c0822","0","J","NA","space","space","space","NA","J","712","NA","4071","59410","7219","NA","712","2","legacy","1024","2","48000","-16","task","5215489","odd","NA","81732","87807","83735","102128","6513","73152","65932","102630","NA","102126","102631","102007","87807","103344","79915","101507","6486","98147","Lexical Decision Task","9","9804","11","yes","1024"
"3.197740804","6.74","3","ache","word","83.33333333333333","83.33333333333333","881","881","black","no","legacy","legacy","legacy","0","uniform","1","undefined","undefined","undefined","1","j","0","0","0","0","11","0","0","0","11","NA","7","11","7","0","7","3","11","0","11","Wed Feb 24 18:46:53 2021","The main experiment item","yes","Lexical_Decision_Task.osexp","C:/Users/kiera","no","Andale Mono","no","18","no","white","no","yes","576","legacy","7","7","3","C:/Users/kiera/subject-5215489.csv","legacy","Lentiform Loewenfeld","3.3.8","yes","yes","600bd7cfb6416f0113b04181","602110864497cf011d9c0822","0","J","NA","space","space","space","NA","J","768","NA","4071","59410","7219","NA","768","2","legacy","1024","2","48000","-16","task","5215489","odd","NA","81732","87807","83735","103995","6513","73152","65932","104497","NA","103993","104497","103853","87807","105266","79915","103353","6486","98147","Lexical Decision Task","10","10572","12","yes","1024"
"2.952953801","0","8","clax","non-word","84.61538461538461","84.61538461538461","891.8461538461538","891.8461538461538","black","no","legacy","legacy","legacy","0","uniform","1","undefined","undefined","undefined","1","f","0","0","0","0","12","0","0","0","12","NA","8","12","8","0","8","3","12","0","12","Wed Feb 24 18:46:53 2021","The main experiment item","yes","Lexical_Decision_Task.osexp","C:/Users/kiera","no","Andale Mono","no","18","no","white","no","yes","576","legacy","8","8","3","C:/Users/kiera/subject-5215489.csv","legacy","Lentiform Loewenfeld","3.3.8","yes","yes","600bd7cfb6416f0113b04181","602110864497cf011d9c0822","0","F","NA","space","space","space","NA","F","1022","NA","4071","59410","7219","NA","1022","2","legacy","1024","2","48000","-16","task","5215489","odd","NA","81732","87807","83735","105920","6513","73152","65932","106422","NA","105916","106422","105775","87807","107445","79915","105275","6486","98147","Lexical Decision Task","11","11594","13","yes","1024"
"2.755364069","7.72","2","hoax","word","85.71428571428571","85.71428571428571","888.5","888.5","black","no","legacy","legacy","legacy","0","uniform","1","undefined","undefined","undefined","1","j","0","0","0","0","13","0","0","0","13","NA","9","13","9","0","9","3","13","0","13","Wed Feb 24 18:46:53 2021","The main experiment item","yes","Lexical_Decision_Task.osexp","C:/Users/kiera","no","Andale Mono","no","18","no","white","no","yes","576","legacy","9","9","3","C:/Users/kiera/subject-5215489.csv","legacy","Lentiform Loewenfeld","3.3.8","yes","yes","600bd7cfb6416f0113b04181","602110864497cf011d9c0822","0","J","NA","space","space","space","NA","J","845","NA","4071","59410","7219","NA","845","2","legacy","1024","2","48000","-16","task","5215489","odd","NA","81732","87807","83735","108081","6513","73152","65932","108583","NA","108079","108583","107954","87807","109430","79915","107454","6486","98147","Lexical Decision Task","12","12439","14","yes","1024"
"3.20996159","0","4","clee","non-word","86.66666666666667","86.66666666666667","897.6","897.6","black","no","legacy","legacy","legacy","0","uniform","1","undefined","undefined","undefined","1","f","0","0","0","0","14","0","0","0","14","NA","10","14","10","0","10","3","14","0","14","Wed Feb 24 18:46:53 2021","The main experiment item","yes","Lexical_Decision_Task.osexp","C:/Users/kiera","no","Andale Mono","no","18","no","white","no","yes","576","legacy","10","10","3","C:/Users/kiera/subject-5215489.csv","legacy","Lentiform Loewenfeld","3.3.8","yes","yes","600bd7cfb6416f0113b04181","602110864497cf011d9c0822","0","F","NA","space","space","space","NA","F","1025","NA","4071","59410","7219","NA","1025","2","legacy","1024","2","48000","-16","task","5215489","odd","NA","81732","87807","83735","110061","6513","73152","65932","110563","NA","110058","110564","109941","87807","111590","79915","109441","6486","98147","Lexical Decision Task","13","13464","15","yes","1024"
"2.980306438","0","7","slun","non-word","87.5","87.5","898.8125","898.8125","black","no","legacy","legacy","legacy","0","uniform","1","undefined","undefined","undefined","1","f","0","0","0","0","15","0","0","0","15","NA","11","15","11","0","11","3","15","0","15","Wed Feb 24 18:46:53 2021","The main experiment item","yes","Lexical_Decision_Task.osexp","C:/Users/kiera","no","Andale Mono","no","18","no","white","no","yes","576","legacy","11","11","3","C:/Users/kiera/subject-5215489.csv","legacy","Lentiform Loewenfeld","3.3.8","yes","yes","600bd7cfb6416f0113b04181","602110864497cf011d9c0822","0","F","NA","space","space","space","NA","F","917","NA","4071","59410","7219","NA","917","2","legacy","1024","2","48000","-16","task","5215489","odd","NA","81732","87807","83735","112257","6513","73152","65932","112759","NA","112254","112760","112100","87807","113678","79915","111600","6486","98147","Lexical Decision Task","14","14381","16","yes","1024"
"3.121778632","0","9","sark","non-word","88.23529411764706","88.23529411764706","904.7058823529412","904.7058823529412","black","no","legacy","legacy","legacy","0","uniform","1","undefined","undefined","undefined","1","f","0","0","0","0","16","0","0","0","16","NA","12","16","12","0","12","3","16","0","16","Wed Feb 24 18:46:53 2021","The main experiment item","yes","Lexical_Decision_Task.osexp","C:/Users/kiera","no","Andale Mono","no","18","no","white","no","yes","576","legacy","12","12","3","C:/Users/kiera/subject-5215489.csv","legacy","Lentiform Loewenfeld","3.3.8","yes","yes","600bd7cfb6416f0113b04181","602110864497cf011d9c0822","0","F","NA","space","space","space","NA","F","999","NA","4071","59410","7219","NA","999","2","legacy","1024","2","48000","-16","task","5215489","odd","NA","81732","87807","83735","114307","6513","73152","65932","114809","NA","114305","114809","114187","87807","115809","79915","113687","6486","98147","Lexical Decision Task","15","15380","17","yes","1024"
"2.744553742","0","2","nawk","non-word","88.88888888888889","88.88888888888889","918.2222222222222","918.2222222222222","black","no","legacy","legacy","legacy","0","uniform","1","undefined","undefined","undefined","1","f","0","0","0","0","17","0","0","0","17","NA","13","17","13","0","13","3","17","0","17","Wed Feb 24 18:46:53 2021","The main experiment item","yes","Lexical_Decision_Task.osexp","C:/Users/kiera","no","Andale Mono","no","18","no","white","no","yes","576","legacy","13","13","3","C:/Users/kiera/subject-5215489.csv","legacy","Lentiform Loewenfeld","3.3.8","yes","yes","600bd7cfb6416f0113b04181","602110864497cf011d9c0822","0","F","NA","space","space","space","NA","F","1148","NA","4071","59410","7219","NA","1148","2","legacy","1024","2","48000","-16","task","5215489","odd","NA","81732","87807","83735","116450","6513","73152","65932","116952","NA","116447","116953","116318","87807","118103","79915","115818","6486","98147","Lexical Decision Task","16","16528","18","yes","1024"
"2.68604012","0","4","pumb","non-word","89.47368421052632","89.47368421052632","923.1578947368421","923.1578947368421","black","no","legacy","legacy","legacy","0","uniform","1","undefined","undefined","undefined","1","f","0","0","0","0","18","0","0","0","18","NA","14","18","14","0","14","3","18","0","18","Wed Feb 24 18:46:53 2021","The main experiment item","yes","Lexical_Decision_Task.osexp","C:/Users/kiera","no","Andale Mono","no","18","no","white","no","yes","576","legacy","14","14","3","C:/Users/kiera/subject-5215489.csv","legacy","Lentiform Loewenfeld","3.3.8","yes","yes","600bd7cfb6416f0113b04181","602110864497cf011d9c0822","0","F","NA","space","space","space","NA","F","1012","NA","4071","59410","7219","NA","1012","2","legacy","1024","2","48000","-16","task","5215489","odd","NA","81732","87807","83735","118750","6513","73152","65932","119252","NA","118746","119252","118612","87807","120265","79915","118112","6486","98147","Lexical Decision Task","17","17540","19","yes","1024"
"3.274543461","7.46","7","scar","word","90","90","913.35","913.35","black","no","legacy","legacy","legacy","0","uniform","1","undefined","undefined","undefined","1","j","0","0","0","0","19","0","0","0","19","NA","15","19","15","0","15","3","19","0","19","Wed Feb 24 18:46:53 2021","The main experiment item","yes","Lexical_Decision_Task.osexp","C:/Users/kiera","no","Andale Mono","no","18","no","white","no","yes","576","legacy","15","15","3","C:/Users/kiera/subject-5215489.csv","legacy","Lentiform Loewenfeld","3.3.8","yes","yes","600bd7cfb6416f0113b04181","602110864497cf011d9c0822","0","J","NA","space","space","space","NA","J","727","NA","4071","59410","7219","NA","727","2","legacy","1024","2","48000","-16","task","5215489","odd","NA","81732","87807","83735","120895","6513","73152","65932","121398","NA","120893","121398","120774","87807","122127","79915","120274","6486","98147","Lexical Decision Task","18","18267","20","yes","1024"
"2.980911938","7.15","7","hoop","word","90.47619047619048","90.47619047619048","901.6190476190476","901.6190476190476","black","no","legacy","legacy","legacy","0","uniform","1","undefined","undefined","undefined","1","j","0","0","0","0","20","0","0","0","20","NA","16","20","16","0","16","3","20","0","20","Wed Feb 24 18:46:53 2021","The main experiment item","yes","Lexical_Decision_Task.osexp","C:/Users/kiera","no","Andale Mono","no","18","no","white","no","yes","576","legacy","16","16","3","C:/Users/kiera/subject-5215489.csv","legacy","Lentiform Loewenfeld","3.3.8","yes","yes","600bd7cfb6416f0113b04181","602110864497cf011d9c0822","0","J","NA","space","space","space","NA","J","667","NA","4071","59410","7219","NA","667","2","legacy","1024","2","48000","-16","task","5215489","odd","NA","81732","87807","83735","122784","6513","73152","65932","123286","NA","122780","123286","122637","87807","123955","79915","122137","6486","98147","Lexical Decision Task","19","18934","21","yes","1024"
"2.698100546","0","9","mulk","non-word","90.9090909090909","90.9090909090909","890.3181818181819","890.3181818181819","black","no","legacy","legacy","legacy","0","uniform","1","undefined","undefined","undefined","1","f","0","0","0","0","21","0","0","0","21","NA","17","21","17","0","17","3","21","0","21","Wed Feb 24 18:46:53 2021","The main experiment item","yes","Lexical_Decision_Task.osexp","C:/Users/kiera","no","Andale Mono","no","18","no","white","no","yes","576","legacy","17","17","3","C:/Users/kiera/subject-5215489.csv","legacy","Lentiform Loewenfeld","3.3.8","yes","yes","600bd7cfb6416f0113b04181","602110864497cf011d9c0822","0","F","NA","space","space","space","NA","F","653","NA","4071","59410","7219","NA","653","2","legacy","1024","2","48000","-16","task","5215489","odd","NA","81732","87807","83735","124620","6513","73152","65932","125122","NA","124617","125123","124464","87807","125777","79915","123964","6486","98147","Lexical Decision Task","20","19587","22","yes","1024"
"2.698387659","6.66","7","skid","word","91.30434782608695","91.30434782608695","882","882","black","no","legacy","legacy","legacy","0","uniform","1","undefined","undefined","undefined","1","j","0","0","0","0","22","0","0","0","22","NA","18","22","18","0","18","3","22","0","22","Wed Feb 24 18:46:53 2021","The main experiment item","yes","Lexical_Decision_Task.osexp","C:/Users/kiera","no","Andale Mono","no","18","no","white","no","yes","576","legacy","18","18","3","C:/Users/kiera/subject-5215489.csv","legacy","Lentiform Loewenfeld","3.3.8","yes","yes","600bd7cfb6416f0113b04181","602110864497cf011d9c0822","0","J","NA","space","space","space","NA","J","699","NA","4071","59410","7219","NA","699","2","legacy","1024","2","48000","-16","task","5215489","odd","NA","81732","87807","83735","126416","6513","73152","65932","126918","NA","126412","126918","126285","87807","127619","79915","125785","6486","98147","Lexical Decision Task","21","20286","23","yes","1024"
"3.120135028","0","3","vals","non-word","91.66666666666667","91.66666666666667","872.7916666666666","872.7916666666666","black","no","legacy","legacy","legacy","0","uniform","1","undefined","undefined","undefined","1","f","0","0","0","0","23","0","0","0","23","NA","19","23","19","0","19","3","23","0","23","Wed Feb 24 18:46:53 2021","The main experiment item","yes","Lexical_Decision_Task.osexp","C:/Users/kiera","no","Andale Mono","no","18","no","white","no","yes","576","legacy","19","19","3","C:/Users/kiera/subject-5215489.csv","legacy","Lentiform Loewenfeld","3.3.8","yes","yes","600bd7cfb6416f0113b04181","602110864497cf011d9c0822","0","F","NA","space","space","space","NA","F","661","NA","4071","59410","7219","NA","661","2","legacy","1024","2","48000","-16","task","5215489","odd","NA","81732","87807","83735","128269","6513","73152","65932","128771","NA","128267","128771","128132","87807","129434","79915","127628","6486","98147","Lexical Decision Task","22","20947","24","yes","1024"
"3.153001286","8.7","5","palm","word","92","92","891.48","891.48","black","no","legacy","legacy","legacy","0","uniform","1","undefined","undefined","undefined","1","j","0","0","0","0","24","0","0","0","24","NA","20","24","20","0","20","3","24","0","24","Wed Feb 24 18:46:53 2021","The main experiment item","yes","Lexical_Decision_Task.osexp","C:/Users/kiera","no","Andale Mono","no","18","no","white","no","yes","576","legacy","20","20","3","C:/Users/kiera/subject-5215489.csv","legacy","Lentiform Loewenfeld","3.3.8","yes","yes","600bd7cfb6416f0113b04181","602110864497cf011d9c0822","0","J","NA","space","space","space","NA","J","1340","NA","4071","59410","7219","NA","1340","2","legacy","1024","2","48000","-16","task","5215489","odd","NA","81732","87807","83735","130072","6513","73152","65932","130574","NA","130069","130575","129943","87807","131917","79915","129443","6486","98147","Lexical Decision Task","23","22287","25","yes","1024"
"2.839268497","0","8","maft","non-word","92.3076923076923","92.3076923076923","887.7307692307693","887.7307692307693","black","no","legacy","legacy","legacy","0","uniform","1","undefined","undefined","undefined","1","f","0","0","0","0","25","0","0","0","25","NA","21","25","21","0","21","3","25","0","25","Wed Feb 24 18:46:53 2021","The main experiment item","yes","Lexical_Decision_Task.osexp","C:/Users/kiera","no","Andale Mono","no","18","no","white","no","yes","576","legacy","21","21","3","C:/Users/kiera/subject-5215489.csv","legacy","Lentiform Loewenfeld","3.3.8","yes","yes","600bd7cfb6416f0113b04181","602110864497cf011d9c0822","0","F","NA","space","space","space","NA","F","794","NA","4071","59410","7219","NA","794","2","legacy","1024","2","48000","-16","task","5215489","odd","NA","81732","87807","83735","132554","6513","73152","65932","133056","NA","132552","133056","132428","87807","133851","79915","131927","6486","98147","Lexical Decision Task","24","23081","26","yes","1024"
"2.693726949","5.08","3","swig","word","88.88888888888889","88.88888888888889","920.4814814814815","920.4814814814815","black","no","legacy","legacy","legacy","0","uniform","0","undefined","undefined","undefined","0","j","0","0","0","0","26","0","0","0","26","NA","22","26","22","0","22","3","26","0","26","Wed Feb 24 18:46:53 2021","The main experiment item","yes","Lexical_Decision_Task.osexp","C:/Users/kiera","no","Andale Mono","no","18","no","white","no","yes","576","legacy","22","22","3","C:/Users/kiera/subject-5215489.csv","legacy","Lentiform Loewenfeld","3.3.8","yes","yes","600bd7cfb6416f0113b04181","602110864497cf011d9c0822","0","F","NA","space","space","space","NA","F","1772","NA","4071","59410","7219","NA","1772","2","legacy","1024","2","48000","-16","task","5215489","odd","NA","81732","87807","83735","134507","6513","73152","65932","135009","NA","134505","135009","134362","87807","136782","79915","133862","6486","98147","Lexical Decision Task","24","24853","27","yes","1024"
"2.892836167","10.01","5","soft","word","85.71428571428571","85.71428571428571","917.75","917.75","black","no","legacy","legacy","legacy","0","uniform","0","undefined","undefined","undefined","0","j","0","0","0","0","27","0","0","0","27","NA","23","27","23","0","23","3","27","0","27","Wed Feb 24 18:46:53 2021","The main experiment item","yes","Lexical_Decision_Task.osexp","C:/Users/kiera","no","Andale Mono","no","18","no","white","no","yes","576","legacy","23","23","3","C:/Users/kiera/subject-5215489.csv","legacy","Lentiform Loewenfeld","3.3.8","yes","yes","600bd7cfb6416f0113b04181","602110864497cf011d9c0822","0","F","NA","space","space","space","NA","F","844","NA","4071","59410","7219","NA","844","2","legacy","1024","2","48000","-16","task","5215489","odd","NA","81732","87807","83735","138421","6513","73152","65932","138923","NA","138419","138923","138293","87807","139768","79915","133862","6486","136793","Lexical Decision Task","24","25697","28","yes","1024"
"3.378276681","6.39","8","bran","word","82.75862068965517","82.75862068965517","916.1724137931035","916.1724137931035","black","no","legacy","legacy","legacy","0","uniform","0","undefined","undefined","undefined","0","j","0","0","0","0","28","0","0","0","28","NA","24","28","24","0","24","3","28","0","28","Wed Feb 24 18:46:53 2021","The main experiment item","yes","Lexical_Decision_Task.osexp","C:/Users/kiera","no","Andale Mono","no","18","no","white","no","yes","576","legacy","24","24","3","C:/Users/kiera/subject-5215489.csv","legacy","Lentiform Loewenfeld","3.3.8","yes","yes","600bd7cfb6416f0113b04181","602110864497cf011d9c0822","0","F","NA","space","space","space","NA","F","872","NA","4071","59410","7219","NA","872","2","legacy","1024","2","48000","-16","task","5215489","odd","NA","81732","87807","83735","141409","6513","73152","65932","141912","NA","141407","141912","141279","87807","142786","79915","133862","6486","139779","Lexical Decision Task","24","26569","29","yes","1024"
"2.696356389","0","1","pizz","non-word","83.33333333333333","83.33333333333333","915.3333333333334","915.3333333333334","black","no","legacy","legacy","legacy","0","uniform","1","undefined","undefined","undefined","1","f","0","0","0","0","29","0","0","0","29","NA","25","29","25","0","25","3","29","0","29","Wed Feb 24 18:46:53 2021","The main experiment item","yes","Lexical_Decision_Task.osexp","C:/Users/kiera","no","Andale Mono","no","18","no","white","no","yes","576","legacy","25","25","3","C:/Users/kiera/subject-5215489.csv","legacy","Lentiform Loewenfeld","3.3.8","yes","yes","600bd7cfb6416f0113b04181","602110864497cf011d9c0822","0","F","NA","space","space","space","NA","F","891","NA","4071","59410","7219","NA","891","2","legacy","1024","2","48000","-16","task","5215489","odd","NA","81732","87807","83735","144454","6513","73152","65932","144956","NA","144451","144956","144297","87807","145848","79915","133862","6486","142796","Lexical Decision Task","25","27460","30","yes","1024"
"2.6599162","0","2","saff","non-word","83.87096774193549","83.87096774193549","910.741935483871","910.741935483871","black","no","legacy","legacy","legacy","0","uniform","1","undefined","undefined","undefined","1","f","0","0","0","0","30","0","0","0","30","NA","26","30","26","0","26","3","30","0","30","Wed Feb 24 18:46:53 2021","The main experiment item","yes","Lexical_Decision_Task.osexp","C:/Users/kiera","no","Andale Mono","no","18","no","white","no","yes","576","legacy","26","26","3","C:/Users/kiera/subject-5215489.csv","legacy","Lentiform Loewenfeld","3.3.8","yes","yes","600bd7cfb6416f0113b04181","602110864497cf011d9c0822","0","F","NA","space","space","space","NA","F","773","NA","4071","59410","7219","NA","773","2","legacy","1024","2","48000","-16","task","5215489","odd","NA","81732","87807","83735","146507","6513","73152","65932","147009","NA","146505","147009","146359","87807","147783","79915","145859","6486","142796","Lexical Decision Task","26","28233","31","yes","1024"
"3.094121596","0","8","fode","non-word","84.375","84.375","906.03125","906.03125","black","no","legacy","legacy","legacy","0","uniform","1","undefined","undefined","undefined","1","f","0","0","0","0","31","0","0","0","31","NA","27","31","27","0","27","3","31","0","31","Wed Feb 24 18:46:53 2021","The main experiment item","yes","Lexical_Decision_Task.osexp","C:/Users/kiera","no","Andale Mono","no","18","no","white","no","yes","576","legacy","27","27","3","C:/Users/kiera/subject-5215489.csv","legacy","Lentiform Loewenfeld","3.3.8","yes","yes","600bd7cfb6416f0113b04181","602110864497cf011d9c0822","0","F","NA","space","space","space","NA","F","760","NA","4071","59410","7219","NA","760","2","legacy","1024","2","48000","-16","task","5215489","odd","NA","81732","87807","83735","148415","6513","73152","65932","148917","NA","148413","148917","148294","87807","149678","79915","147793","6486","142796","Lexical Decision Task","27","28993","32","yes","1024"
"3.460446784","0","5","dess","non-word","84.84848484848484","84.84848484848484","897.4242424242424","897.4242424242424","black","no","legacy","legacy","legacy","0","uniform","1","undefined","undefined","undefined","1","f","0","0","0","0","32","0","0","0","32","NA","28","32","28","0","28","3","32","0","32","Wed Feb 24 18:46:53 2021","The main experiment item","yes","Lexical_Decision_Task.osexp","C:/Users/kiera","no","Andale Mono","no","18","no","white","no","yes","576","legacy","28","28","3","C:/Users/kiera/subject-5215489.csv","legacy","Lentiform Loewenfeld","3.3.8","yes","yes","600bd7cfb6416f0113b04181","602110864497cf011d9c0822","0","F","NA","space","space","space","NA","F","622","NA","4071","59410","7219","NA","622","2","legacy","1024","2","48000","-16","task","5215489","odd","NA","81732","87807","83735","150334","6513","73152","65932","150836","NA","150331","150836","150188","87807","151459","79915","149687","6486","142796","Lexical Decision Task","28","29615","33","yes","1024"
"3.269668578","0","7","trag","non-word","85.29411764705883","85.29411764705883","890","890","black","no","legacy","legacy","legacy","0","uniform","1","undefined","undefined","undefined","1","f","0","0","0","0","33","0","0","0","33","NA","29","33","29","0","29","3","33","0","33","Wed Feb 24 18:46:53 2021","The main experiment item","yes","Lexical_Decision_Task.osexp","C:/Users/kiera","no","Andale Mono","no","18","no","white","no","yes","576","legacy","29","29","3","C:/Users/kiera/subject-5215489.csv","legacy","Lentiform Loewenfeld","3.3.8","yes","yes","600bd7cfb6416f0113b04181","602110864497cf011d9c0822","0","F","NA","space","space","space","NA","F","645","NA","4071","59410","7219","NA","645","2","legacy","1024","2","48000","-16","task","5215489","odd","NA","81732","87807","83735","152090","6513","73152","65932","152592","NA","152088","152592","151968","87807","153240","79915","151468","6486","142796","Lexical Decision Task","29","30260","34","yes","1024"
"3.16326079","0","5","parg","non-word","85.71428571428571","85.71428571428571","881.4285714285714","881.4285714285714","black","no","legacy","legacy","legacy","0","uniform","1","undefined","undefined","undefined","1","f","0","0","0","0","34","0","0","0","34","NA","30","34","30","0","30","3","34","0","34","Wed Feb 24 18:46:53 2021","The main experiment item","yes","Lexical_Decision_Task.osexp","C:/Users/kiera","no","Andale Mono","no","18","no","white","no","yes","576","legacy","30","30","3","C:/Users/kiera/subject-5215489.csv","legacy","Lentiform Loewenfeld","3.3.8","yes","yes","600bd7cfb6416f0113b04181","602110864497cf011d9c0822","0","F","NA","space","space","space","NA","F","590","NA","4071","59410","7219","NA","590","2","legacy","1024","2","48000","-16","task","5215489","odd","NA","81732","87807","83735","153892","6513","73152","65932","154395","NA","153889","154396","153751","87807","154988","79915","153251","6486","142796","Lexical Decision Task","30","30850","35","yes","1024"
"3.105055783","0","2","norp","non-word","86.11111111111111","86.11111111111111","880.0277777777778","880.0277777777778","black","no","legacy","legacy","legacy","0","uniform","1","undefined","undefined","undefined","1","f","0","0","0","0","35","0","0","0","35","NA","31","35","31","0","31","3","35","0","35","Wed Feb 24 18:46:53 2021","The main experiment item","yes","Lexical_Decision_Task.osexp","C:/Users/kiera","no","Andale Mono","no","18","no","white","no","yes","576","legacy","31","31","3","C:/Users/kiera/subject-5215489.csv","legacy","Lentiform Loewenfeld","3.3.8","yes","yes","600bd7cfb6416f0113b04181","602110864497cf011d9c0822","0","F","NA","space","space","space","NA","F","831","NA","4071","59410","7219","NA","831","2","legacy","1024","2","48000","-16","task","5215489","odd","NA","81732","87807","83735","155627","6513","73152","65932","156129","NA","155624","156130","155497","87807","156964","79915","154997","6486","142796","Lexical Decision Task","31","31681","36","yes","1024"
"3.174641193","0","3","ramb","non-word","86.48648648648648","86.48648648648648","892.3783783783783","892.3783783783783","black","no","legacy","legacy","legacy","0","uniform","1","undefined","undefined","undefined","1","f","0","0","0","0","36","0","0","0","36","NA","32","36","32","0","32","3","36","0","36","Wed Feb 24 18:46:53 2021","The main experiment item","yes","Lexical_Decision_Task.osexp","C:/Users/kiera","no","Andale Mono","no","18","no","white","no","yes","576","legacy","32","32","3","C:/Users/kiera/subject-5215489.csv","legacy","Lentiform Loewenfeld","3.3.8","yes","yes","600bd7cfb6416f0113b04181","602110864497cf011d9c0822","0","F","NA","space","space","space","NA","F","1337","NA","4071","59410","7219","NA","1337","2","legacy","1024","2","48000","-16","task","5215489","odd","NA","81732","87807","83735","157627","6513","73152","65932","158129","NA","157624","158129","157475","87807","159468","79915","156975","6486","142796","Lexical Decision Task","32","33018","37","yes","1024"
"3.316948329","0","1","besc","non-word","86.84210526315789","86.84210526315789","886.5263157894736","886.5263157894736","black","no","legacy","legacy","legacy","0","uniform","1","undefined","undefined","undefined","1","f","0","0","0","0","37","0","0","0","37","NA","33","37","33","0","33","3","37","0","37","Wed Feb 24 18:46:53 2021","The main experiment item","yes","Lexical_Decision_Task.osexp","C:/Users/kiera","no","Andale Mono","no","18","no","white","no","yes","576","legacy","33","33","3","C:/Users/kiera/subject-5215489.csv","legacy","Lentiform Loewenfeld","3.3.8","yes","yes","600bd7cfb6416f0113b04181","602110864497cf011d9c0822","0","F","NA","space","space","space","NA","F","670","NA","4071","59410","7219","NA","670","2","legacy","1024","2","48000","-16","task","5215489","odd","NA","81732","87807","83735","160094","6513","73152","65932","160596","NA","160092","160597","159977","87807","161271","79915","159477","6486","142796","Lexical Decision Task","33","33688","38","yes","1024"
"2.67699827","0","6","hulf","non-word","87.17948717948718","87.17948717948718","884.2051282051282","884.2051282051282","black","no","legacy","legacy","legacy","0","uniform","1","undefined","undefined","undefined","1","f","0","0","0","0","38","0","0","0","38","NA","34","38","34","0","34","3","38","0","38","Wed Feb 24 18:46:53 2021","The main experiment item","yes","Lexical_Decision_Task.osexp","C:/Users/kiera","no","Andale Mono","no","18","no","white","no","yes","576","legacy","34","34","3","C:/Users/kiera/subject-5215489.csv","legacy","Lentiform Loewenfeld","3.3.8","yes","yes","600bd7cfb6416f0113b04181","602110864497cf011d9c0822","0","F","NA","space","space","space","NA","F","796","NA","4071","59410","7219","NA","796","2","legacy","1024","2","48000","-16","task","5215489","odd","NA","81732","87807","83735","161906","6513","73152","65932","162408","NA","161904","162408","161779","87807","163206","79915","161279","6486","142796","Lexical Decision Task","34","34484","39","yes","1024"
"2.80048796","0","8","pife","non-word","87.5","87.5","878.025","878.025","black","no","legacy","legacy","legacy","0","uniform","1","undefined","undefined","undefined","1","f","0","0","0","0","39","0","0","0","39","NA","35","39","35","0","35","3","39","0","39","Wed Feb 24 18:46:53 2021","The main experiment item","yes","Lexical_Decision_Task.osexp","C:/Users/kiera","no","Andale Mono","no","18","no","white","no","yes","576","legacy","35","35","3","C:/Users/kiera/subject-5215489.csv","legacy","Lentiform Loewenfeld","3.3.8","yes","yes","600bd7cfb6416f0113b04181","602110864497cf011d9c0822","0","F","NA","space","space","space","NA","F","637","NA","4071","59410","7219","NA","637","2","legacy","1024","2","48000","-16","task","5215489","odd","NA","81732","87807","83735","163833","6513","73152","65932","164335","NA","163831","164335","163715","87807","164974","79915","163215","6486","142796","Lexical Decision Task","35","35121","40","yes","1024"
"2.616654026","9.37","5","gift","word","87.8048780487805","87.8048780487805","873.8780487804878","873.8780487804878","black","no","legacy","legacy","legacy","0","uniform","1","undefined","undefined","undefined","1","j","0","0","0","0","40","0","0","0","40","NA","36","40","36","0","36","3","40","0","40","Wed Feb 24 18:46:53 2021","The main experiment item","yes","Lexical_Decision_Task.osexp","C:/Users/kiera","no","Andale Mono","no","18","no","white","no","yes","576","legacy","36","36","3","C:/Users/kiera/subject-5215489.csv","legacy","Lentiform Loewenfeld","3.3.8","yes","yes","600bd7cfb6416f0113b04181","602110864497cf011d9c0822","0","J","NA","space","space","space","NA","J","708","NA","4071","59410","7219","NA","708","2","legacy","1024","2","48000","-16","task","5215489","odd","NA","81732","87807","83735","165607","6513","73152","65932","166109","NA","165605","166109","165486","87807","166819","79915","164986","6486","142796","Lexical Decision Task","36","35829","41","yes","1024"
"3.261341392","5.08","8","reek","word","88.0952380952381","88.0952380952381","874.0238095238095","874.0238095238095","black","no","legacy","legacy","legacy","0","uniform","1","undefined","undefined","undefined","1","j","0","0","0","0","41","0","0","0","41","NA","37","41","37","0","37","3","41","0","41","Wed Feb 24 18:46:53 2021","The main experiment item","yes","Lexical_Decision_Task.osexp","C:/Users/kiera","no","Andale Mono","no","18","no","white","no","yes","576","legacy","37","37","3","C:/Users/kiera/subject-5215489.csv","legacy","Lentiform Loewenfeld","3.3.8","yes","yes","600bd7cfb6416f0113b04181","602110864497cf011d9c0822","0","J","NA","space","space","space","NA","J","880","NA","4071","59410","7219","NA","880","2","legacy","1024","2","48000","-16","task","5215489","odd","NA","81732","87807","83735","167449","6513","73152","65932","167952","NA","167447","167952","167328","87807","168834","79915","166828","6486","142796","Lexical Decision Task","37","36709","42","yes","1024"
"2.594027722","9.08","8","skip","word","88.37209302325581","88.37209302325581","867.4418604651163","867.4418604651163","black","no","legacy","legacy","legacy","0","uniform","1","undefined","undefined","undefined","1","j","0","0","0","0","42","0","0","0","42","NA","38","42","38","0","38","3","42","0","42","Wed Feb 24 18:46:53 2021","The main experiment item","yes","Lexical_Decision_Task.osexp","C:/Users/kiera","no","Andale Mono","no","18","no","white","no","yes","576","legacy","38","38","3","C:/Users/kiera/subject-5215489.csv","legacy","Lentiform Loewenfeld","3.3.8","yes","yes","600bd7cfb6416f0113b04181","602110864497cf011d9c0822","0","J","NA","space","space","space","NA","J","591","NA","4071","59410","7219","NA","591","2","legacy","1024","2","48000","-16","task","5215489","odd","NA","81732","87807","83735","169472","6513","73152","65932","169974","NA","169470","169974","169342","87807","170567","79915","168842","6486","142796","Lexical Decision Task","38","37300","43","yes","1024"
"3.133964479","0","8","graw","non-word","88.63636363636364","88.63636363636364","866.25","866.25","black","no","legacy","legacy","legacy","0","uniform","1","undefined","undefined","undefined","1","f","0","0","0","0","43","0","0","0","43","NA","39","43","39","0","39","3","43","0","43","Wed Feb 24 18:46:53 2021","The main experiment item","yes","Lexical_Decision_Task.osexp","C:/Users/kiera","no","Andale Mono","no","18","no","white","no","yes","576","legacy","39","39","3","C:/Users/kiera/subject-5215489.csv","legacy","Lentiform Loewenfeld","3.3.8","yes","yes","600bd7cfb6416f0113b04181","602110864497cf011d9c0822","0","F","NA","space","space","space","NA","F","815","NA","4071","59410","7219","NA","815","2","legacy","1024","2","48000","-16","task","5215489","odd","NA","81732","87807","83735","171215","6513","73152","65932","171717","NA","171213","171717","171075","87807","172534","79915","170575","6486","142796","Lexical Decision Task","39","38115","44","yes","1024"
"2.983324025","9.56","2","debt","word","88.88888888888889","88.88888888888889","870.6666666666666","870.6666666666666","black","no","legacy","legacy","legacy","0","uniform","1","undefined","undefined","undefined","1","j","0","0","0","0","44","0","0","0","44","NA","40","44","40","0","40","3","44","0","44","Wed Feb 24 18:46:53 2021","The main experiment item","yes","Lexical_Decision_Task.osexp","C:/Users/kiera","no","Andale Mono","no","18","no","white","no","yes","576","legacy","40","40","3","C:/Users/kiera/subject-5215489.csv","legacy","Lentiform Loewenfeld","3.3.8","yes","yes","600bd7cfb6416f0113b04181","602110864497cf011d9c0822","0","J","NA","space","space","space","NA","J","1065","NA","4071","59410","7219","NA","1065","2","legacy","1024","2","48000","-16","task","5215489","odd","NA","81732","87807","83735","173175","6513","73152","65932","173678","NA","173171","173678","173044","87807","174744","79915","172544","6486","142796","Lexical Decision Task","40","39180","45","yes","1024"
"2.920123326","7.43","4","duel","word","89.1304347826087","89.1304347826087","869.695652173913","869.695652173913","black","no","legacy","legacy","legacy","0","uniform","1","undefined","undefined","undefined","1","j","0","0","0","0","45","0","0","0","45","NA","41","45","41","0","41","3","45","0","45","Wed Feb 24 18:46:53 2021","The main experiment item","yes","Lexical_Decision_Task.osexp","C:/Users/kiera","no","Andale Mono","no","18","no","white","no","yes","576","legacy","41","41","3","C:/Users/kiera/subject-5215489.csv","legacy","Lentiform Loewenfeld","3.3.8","yes","yes","600bd7cfb6416f0113b04181","602110864497cf011d9c0822","0","J","NA","space","space","space","NA","J","826","NA","4071","59410","7219","NA","826","2","legacy","1024","2","48000","-16","task","5215489","odd","NA","81732","87807","83735","175373","6513","73152","65932","175875","NA","175371","175876","175253","87807","176705","79915","174753","6486","142796","Lexical Decision Task","41","40006","46","yes","1024"
"3.134602053","0","8","jart","non-word","89.36170212765957","89.36170212765957","867.2127659574468","867.2127659574468","black","no","legacy","legacy","legacy","0","uniform","1","undefined","undefined","undefined","1","f","0","0","0","0","46","0","0","0","46","NA","42","46","42","0","42","3","46","0","46","Wed Feb 24 18:46:53 2021","The main experiment item","yes","Lexical_Decision_Task.osexp","C:/Users/kiera","no","Andale Mono","no","18","no","white","no","yes","576","legacy","42","42","3","C:/Users/kiera/subject-5215489.csv","legacy","Lentiform Loewenfeld","3.3.8","yes","yes","600bd7cfb6416f0113b04181","602110864497cf011d9c0822","0","F","NA","space","space","space","NA","F","753","NA","4071","59410","7219","NA","753","2","legacy","1024","2","48000","-16","task","5215489","odd","NA","81732","87807","83735","177338","6513","73152","65932","177840","NA","177336","177840","177217","87807","178595","79915","176716","6486","142796","Lexical Decision Task","42","40759","47","yes","1024"
"2.996511672","0","7","hoil","non-word","89.58333333333333","89.58333333333333","868.5416666666666","868.5416666666666","black","no","legacy","legacy","legacy","0","uniform","1","undefined","undefined","undefined","1","f","0","0","0","0","47","0","0","0","47","NA","43","47","43","0","43","3","47","0","47","Wed Feb 24 18:46:53 2021","The main experiment item","yes","Lexical_Decision_Task.osexp","C:/Users/kiera","no","Andale Mono","no","18","no","white","no","yes","576","legacy","43","43","3","C:/Users/kiera/subject-5215489.csv","legacy","Lentiform Loewenfeld","3.3.8","yes","yes","600bd7cfb6416f0113b04181","602110864497cf011d9c0822","0","F","NA","space","space","space","NA","F","931","NA","4071","59410","7219","NA","931","2","legacy","1024","2","48000","-16","task","5215489","odd","NA","81732","87807","83735","179225","6513","73152","65932","179728","NA","179223","179728","179105","87807","180661","79915","178605","6486","142796","Lexical Decision Task","43","41690","48","yes","1024"
"2.972357144","0","5","dasp","non-word","89.79591836734694","89.79591836734694","863.5714285714286","863.5714285714286","black","no","legacy","legacy","legacy","0","uniform","1","undefined","undefined","undefined","1","f","0","0","0","0","48","0","0","0","48","NA","44","48","44","0","44","3","48","0","48","Wed Feb 24 18:46:53 2021","The main experiment item","yes","Lexical_Decision_Task.osexp","C:/Users/kiera","no","Andale Mono","no","18","no","white","no","yes","576","legacy","44","44","3","C:/Users/kiera/subject-5215489.csv","legacy","Lentiform Loewenfeld","3.3.8","yes","yes","600bd7cfb6416f0113b04181","602110864497cf011d9c0822","0","F","NA","space","space","space","NA","F","625","NA","4071","59410","7219","NA","625","2","legacy","1024","2","48000","-16","task","5215489","odd","NA","81732","87807","83735","181294","6513","73152","65932","181796","NA","181292","181796","181171","87807","182423","79915","180671","6486","142796","Lexical Decision Task","44","42315","49","yes","1024"
"3.062080345","0","6","tomp","non-word","90","90","857.52","857.52","black","no","legacy","legacy","legacy","0","uniform","1","undefined","undefined","undefined","1","f","0","0","0","0","49","0","0","0","49","NA","45","49","45","0","45","3","49","0","49","Wed Feb 24 18:46:53 2021","The main experiment item","yes","Lexical_Decision_Task.osexp","C:/Users/kiera","no","Andale Mono","no","18","no","white","no","yes","576","legacy","45","45","3","C:/Users/kiera/subject-5215489.csv","legacy","Lentiform Loewenfeld","3.3.8","yes","yes","600bd7cfb6416f0113b04181","602110864497cf011d9c0822","0","F","NA","space","space","space","NA","F","561","NA","4071","59410","7219","NA","561","2","legacy","1024","2","48000","-16","task","5215489","odd","NA","81732","87807","83735","183044","6513","73152","65932","183546","NA","183042","183547","182927","87807","184111","79915","182427","6486","142796","Lexical Decision Task","45","42876","50","yes","1024"
"3.216517684","10.87","3","film","word","90.19607843137256","90.19607843137256","854.1960784313726","854.1960784313726","black","no","legacy","legacy","legacy","0","uniform","1","undefined","undefined","undefined","1","j","0","0","0","0","50","0","0","0","50","NA","46","50","46","0","46","3","50","0","50","Wed Feb 24 18:46:53 2021","The main experiment item","yes","Lexical_Decision_Task.osexp","C:/Users/kiera","no","Andale Mono","no","18","no","white","no","yes","576","legacy","46","46","3","C:/Users/kiera/subject-5215489.csv","legacy","Lentiform Loewenfeld","3.3.8","yes","yes","600bd7cfb6416f0113b04181","602110864497cf011d9c0822","0","J","NA","space","space","space","NA","J","688","NA","4071","59410","7219","NA","688","2","legacy","1024","2","48000","-16","task","5215489","odd","NA","81732","87807","83735","184749","6513","73152","65932","185251","NA","184745","185252","184621","87807","185942","79915","184121","6486","142796","Lexical Decision Task","46","43564","51","yes","1024"
"3.208978517","10.33","4","fish","word","90.38461538461539","90.38461538461539","848.5192307692307","848.5192307692307","black","no","legacy","legacy","legacy","0","uniform","1","undefined","undefined","undefined","1","j","0","0","0","0","51","0","0","0","51","NA","47","51","47","0","47","3","51","0","51","Wed Feb 24 18:46:53 2021","The main experiment item","yes","Lexical_Decision_Task.osexp","C:/Users/kiera","no","Andale Mono","no","18","no","white","no","yes","576","legacy","47","47","3","C:/Users/kiera/subject-5215489.csv","legacy","Lentiform Loewenfeld","3.3.8","yes","yes","600bd7cfb6416f0113b04181","602110864497cf011d9c0822","0","J","NA","space","space","space","NA","J","559","NA","4071","59410","7219","NA","559","2","legacy","1024","2","48000","-16","task","5215489","odd","NA","81732","87807","83735","186580","6513","73152","65932","187082","NA","186578","187082","186446","87807","187642","79915","185946","6486","142796","Lexical Decision Task","47","44123","52","yes","1024"
"3.374137706","10.21","4","tree","word","90.56603773584905","90.56603773584905","845.4150943396227","845.4150943396227","black","no","legacy","legacy","legacy","0","uniform","1","undefined","undefined","undefined","1","j","0","0","0","0","52","0","0","0","52","NA","48","52","48","0","48","3","52","0","52","Wed Feb 24 18:46:53 2021","The main experiment item","yes","Lexical_Decision_Task.osexp","C:/Users/kiera","no","Andale Mono","no","18","no","white","no","yes","576","legacy","48","48","3","C:/Users/kiera/subject-5215489.csv","legacy","Lentiform Loewenfeld","3.3.8","yes","yes","600bd7cfb6416f0113b04181","602110864497cf011d9c0822","0","J","NA","space","space","space","NA","J","684","NA","4071","59410","7219","NA","684","2","legacy","1024","2","48000","-16","task","5215489","odd","NA","81732","87807","83735","188275","6513","73152","65932","188777","NA","188273","188777","188151","87807","189463","79915","187651","6486","142796","Lexical Decision Task","48","44807","53","yes","1024"
"2.875447132","0","9","jelt","non-word","90.74074074074075","90.74074074074075","842.8518518518518","842.8518518518518","black","no","legacy","legacy","legacy","0","uniform","1","undefined","undefined","undefined","1","f","0","0","0","0","53","0","0","0","53","NA","49","53","49","0","49","3","53","0","53","Wed Feb 24 18:46:53 2021","The main experiment item","yes","Lexical_Decision_Task.osexp","C:/Users/kiera","no","Andale Mono","no","18","no","white","no","yes","576","legacy","49","49","3","C:/Users/kiera/subject-5215489.csv","legacy","Lentiform Loewenfeld","3.3.8","yes","yes","600bd7cfb6416f0113b04181","602110864497cf011d9c0822","0","F","NA","space","space","space","NA","F","707","NA","4071","59410","7219","NA","707","2","legacy","1024","2","48000","-16","task","5215489","odd","NA","81732","87807","83735","190094","6513","73152","65932","190596","NA","190091","190597","189974","87807","191306","79915","189474","6486","142796","Lexical Decision Task","49","45514","54","yes","1024"
"3.010582609","0","2","drod","non-word","90.9090909090909","90.9090909090909","840.2545454545455","840.2545454545455","black","no","legacy","legacy","legacy","0","uniform","1","undefined","undefined","undefined","1","f","0","0","0","0","54","0","0","0","54","0","50","54","50","0","50","3","54","0","54","Wed Feb 24 18:46:53 2021","The main experiment item","yes","Lexical_Decision_Task.osexp","C:/Users/kiera","no","Andale Mono","no","18","no","white","no","yes","576","legacy","50","50","3","C:/Users/kiera/subject-5215489.csv","legacy","Lentiform Loewenfeld","3.3.8","yes","yes","600bd7cfb6416f0113b04181","602110864497cf011d9c0822","0","F","NA","space","space","space","space","F","700","NA","4071","59410","7219","5819","700","2","legacy","1024","2","48000","-16","task","5215489","odd","NA","81732","87807","83735","197846","6513","73152","65932","198349","191905","197844","198350","191818","87807","199053","79915","191318","6486","142796","Lexical Decision Task","50","46214","55","yes","1024"
"3.067070856","9.39","3","loud","word","91.07142857142857","91.07142857142857","846.7678571428571","846.7678571428571","black","no","legacy","legacy","legacy","0","uniform","1","undefined","undefined","undefined","1","j","0","0","0","0","55","0","0","0","55","0","51","55","51","0","51","3","55","0","55","Wed Feb 24 18:46:53 2021","The main experiment item","yes","Lexical_Decision_Task.osexp","C:/Users/kiera","no","Andale Mono","no","18","no","white","no","yes","576","legacy","51","51","3","C:/Users/kiera/subject-5215489.csv","legacy","Lentiform Loewenfeld","3.3.8","yes","yes","600bd7cfb6416f0113b04181","602110864497cf011d9c0822","0","J","NA","space","space","space","space","J","1205","NA","4071","59410","7219","5819","1205","2","legacy","1024","2","48000","-16","task","5215489","odd","NA","81732","87807","83735","199697","6513","73152","65932","200199","191905","199694","200199","199563","87807","201406","79915","199063","6486","142796","Lexical Decision Task","51","47419","56","yes","1024"
"2.695770526","7.34","6","pawn","word","91.2280701754386","91.2280701754386","846.280701754386","846.280701754386","black","no","legacy","legacy","legacy","0","uniform","1","undefined","undefined","undefined","1","j","0","0","0","0","56","0","0","0","56","0","52","56","52","0","52","3","56","0","56","Wed Feb 24 18:46:53 2021","The main experiment item","yes","Lexical_Decision_Task.osexp","C:/Users/kiera","no","Andale Mono","no","18","no","white","no","yes","576","legacy","52","52","3","C:/Users/kiera/subject-5215489.csv","legacy","Lentiform Loewenfeld","3.3.8","yes","yes","600bd7cfb6416f0113b04181","602110864497cf011d9c0822","0","J","NA","space","space","space","space","J","819","NA","4071","59410","7219","5819","819","2","legacy","1024","2","48000","-16","task","5215489","odd","NA","81732","87807","83735","202032","6513","73152","65932","202534","191905","202030","202534","201914","87807","203354","79915","201414","6486","142796","Lexical Decision Task","52","48238","57","yes","1024"
"3.1430148","7.92","8","bald","word","91.37931034482759","91.37931034482759","841.6896551724138","841.6896551724138","black","no","legacy","legacy","legacy","0","uniform","1","undefined","undefined","undefined","1","j","0","0","0","0","57","0","0","0","57","0","53","57","53","0","53","3","57","0","57","Wed Feb 24 18:46:53 2021","The main experiment item","yes","Lexical_Decision_Task.osexp","C:/Users/kiera","no","Andale Mono","no","18","no","white","no","yes","576","legacy","53","53","3","C:/Users/kiera/subject-5215489.csv","legacy","Lentiform Loewenfeld","3.3.8","yes","yes","600bd7cfb6416f0113b04181","602110864497cf011d9c0822","0","J","NA","space","space","space","space","J","580","NA","4071","59410","7219","5819","580","2","legacy","1024","2","48000","-16","task","5215489","odd","NA","81732","87807","83735","203993","6513","73152","65932","204496","191905","203991","204497","203859","87807","205080","79915","203358","6486","142796","Lexical Decision Task","53","48818","58","yes","1024"
"2.6599162","0","6","flug","non-word","91.52542372881356","91.52542372881356","840.0508474576271","840.0508474576271","black","no","legacy","legacy","legacy","0","uniform","1","undefined","undefined","undefined","1","f","0","0","0","0","58","0","0","0","58","0","54","58","54","0","54","3","58","0","58","Wed Feb 24 18:46:53 2021","The main experiment item","yes","Lexical_Decision_Task.osexp","C:/Users/kiera","no","Andale Mono","no","18","no","white","no","yes","576","legacy","54","54","3","C:/Users/kiera/subject-5215489.csv","legacy","Lentiform Loewenfeld","3.3.8","yes","yes","600bd7cfb6416f0113b04181","602110864497cf011d9c0822","0","F","NA","space","space","space","space","F","745","NA","4071","59410","7219","5819","745","2","legacy","1024","2","48000","-16","task","5215489","odd","NA","81732","87807","83735","205719","6513","73152","65932","206221","191905","205717","206221","205591","87807","206968","79915","205091","6486","142796","Lexical Decision Task","54","49563","59","yes","1024"
"3.311895072","0","9","gung","non-word","91.66666666666667","91.66666666666667","838.2666666666667","838.2666666666667","black","no","legacy","legacy","legacy","0","uniform","1","undefined","undefined","undefined","1","f","0","0","0","0","59","0","0","0","59","0","55","59","55","0","55","3","59","0","59","Wed Feb 24 18:46:53 2021","The main experiment item","yes","Lexical_Decision_Task.osexp","C:/Users/kiera","no","Andale Mono","no","18","no","white","no","yes","576","legacy","55","55","3","C:/Users/kiera/subject-5215489.csv","legacy","Lentiform Loewenfeld","3.3.8","yes","yes","600bd7cfb6416f0113b04181","602110864497cf011d9c0822","0","F","NA","space","space","space","space","F","733","NA","4071","59410","7219","5819","733","2","legacy","1024","2","48000","-16","task","5215489","odd","NA","81732","87807","83735","207612","6513","73152","65932","208114","191905","207610","208114","207479","87807","208850","79915","206978","6486","142796","Lexical Decision Task","55","50296","60","yes","1024"
"3.120025233","0","2","nyst","non-word","91.80327868852459","91.80327868852459","839.7213114754098","839.7213114754098","black","no","legacy","legacy","legacy","0","uniform","1","undefined","undefined","undefined","1","f","0","0","0","0","60","0","0","0","60","0","56","60","56","0","56","3","60","0","60","Wed Feb 24 18:46:53 2021","The main experiment item","yes","Lexical_Decision_Task.osexp","C:/Users/kiera","no","Andale Mono","no","18","no","white","no","yes","576","legacy","56","56","3","C:/Users/kiera/subject-5215489.csv","legacy","Lentiform Loewenfeld","3.3.8","yes","yes","600bd7cfb6416f0113b04181","602110864497cf011d9c0822","0","F","NA","space","space","space","space","F","927","NA","4071","59410","7219","5819","927","2","legacy","1024","2","48000","-16","task","5215489","odd","NA","81732","87807","83735","209504","6513","73152","65932","210006","191905","209502","210006","209360","87807","210935","79915","208860","6486","142796","Lexical Decision Task","56","51223","61","yes","1024"
"2.895974732","6.65","5","sift","word","91.93548387096774","91.93548387096774","842.5967741935484","842.5967741935484","black","no","legacy","legacy","legacy","0","uniform","1","undefined","undefined","undefined","1","j","0","0","0","0","61","0","0","0","61","0","57","61","57","0","57","3","61","0","61","Wed Feb 24 18:46:53 2021","The main experiment item","yes","Lexical_Decision_Task.osexp","C:/Users/kiera","no","Andale Mono","no","18","no","white","no","yes","576","legacy","57","57","3","C:/Users/kiera/subject-5215489.csv","legacy","Lentiform Loewenfeld","3.3.8","yes","yes","600bd7cfb6416f0113b04181","602110864497cf011d9c0822","0","J","NA","space","space","space","space","J","1018","NA","4071","59410","7219","5819","1018","2","legacy","1024","2","48000","-16","task","5215489","odd","NA","81732","87807","83735","211567","6513","73152","65932","212069","191905","211565","212069","211445","87807","213090","79915","210945","6486","142796","Lexical Decision Task","57","52241","62","yes","1024"
"3.431095062","5.74","9","perk","word","92.06349206349206","92.06349206349206","840.5714285714286","840.5714285714286","black","no","legacy","legacy","legacy","0","uniform","1","undefined","undefined","undefined","1","j","0","0","0","0","62","0","0","0","62","0","58","62","58","0","58","3","62","0","62","Wed Feb 24 18:46:53 2021","The main experiment item","yes","Lexical_Decision_Task.osexp","C:/Users/kiera","no","Andale Mono","no","18","no","white","no","yes","576","legacy","58","58","3","C:/Users/kiera/subject-5215489.csv","legacy","Lentiform Loewenfeld","3.3.8","yes","yes","600bd7cfb6416f0113b04181","602110864497cf011d9c0822","0","J","NA","space","space","space","space","J","715","NA","4071","59410","7219","5819","715","2","legacy","1024","2","48000","-16","task","5215489","odd","NA","81732","87807","83735","213721","6513","73152","65932","214223","191905","213718","214223","213601","87807","214940","79915","213101","6486","142796","Lexical Decision Task","58","52956","63","yes","1024"
"3.263399331","0","8","cour","non-word","92.1875","92.1875","839.5625","839.5625","black","no","legacy","legacy","legacy","0","uniform","1","undefined","undefined","undefined","1","f","0","0","0","0","63","0","0","0","63","0","59","63","59","0","59","3","63","0","63","Wed Feb 24 18:46:53 2021","The main experiment item","yes","Lexical_Decision_Task.osexp","C:/Users/kiera","no","Andale Mono","no","18","no","white","no","yes","576","legacy","59","59","3","C:/Users/kiera/subject-5215489.csv","legacy","Lentiform Loewenfeld","3.3.8","yes","yes","600bd7cfb6416f0113b04181","602110864497cf011d9c0822","0","F","NA","space","space","space","space","F","776","NA","4071","59410","7219","5819","776","2","legacy","1024","2","48000","-16","task","5215489","odd","NA","81732","87807","83735","215590","6513","73152","65932","216092","191905","215588","216092","215449","87807","216871","79915","214949","6486","142796","Lexical Decision Task","59","53732","64","yes","1024"
"3.474361976","5.24","6","veer","word","92.3076923076923","92.3076923076923","843.2307692307693","843.2307692307693","black","no","legacy","legacy","legacy","0","uniform","1","undefined","undefined","undefined","1","j","0","0","0","0","64","0","0","0","64","0","60","64","60","0","60","3","64","0","64","Wed Feb 24 18:46:53 2021","The main experiment item","yes","Lexical_Decision_Task.osexp","C:/Users/kiera","no","Andale Mono","no","18","no","white","no","yes","576","legacy","60","60","3","C:/Users/kiera/subject-5215489.csv","legacy","Lentiform Loewenfeld","3.3.8","yes","yes","600bd7cfb6416f0113b04181","602110864497cf011d9c0822","0","J","NA","space","space","space","space","J","1078","NA","4071","59410","7219","5819","1078","2","legacy","1024","2","48000","-16","task","5215489","odd","NA","81732","87807","83735","217506","6513","73152","65932","218009","191905","217504","218009","217382","87807","219088","79915","216882","6486","142796","Lexical Decision Task","60","54810","65","yes","1024"
"2.794720352","0","9","koot","non-word","92.42424242424242","92.42424242424242","845.1212121212121","845.1212121212121","black","no","legacy","legacy","legacy","0","uniform","1","undefined","undefined","undefined","1","f","0","0","0","0","65","0","0","0","65","0","61","65","61","0","61","3","65","0","65","Wed Feb 24 18:46:53 2021","The main experiment item","yes","Lexical_Decision_Task.osexp","C:/Users/kiera","no","Andale Mono","no","18","no","white","no","yes","576","legacy","61","61","3","C:/Users/kiera/subject-5215489.csv","legacy","Lentiform Loewenfeld","3.3.8","yes","yes","600bd7cfb6416f0113b04181","602110864497cf011d9c0822","0","F","NA","space","space","space","space","F","968","NA","4071","59410","7219","5819","968","2","legacy","1024","2","48000","-16","task","5215489","odd","NA","81732","87807","83735","219742","6513","73152","65932","220244","191905","219739","220244","219598","87807","221214","79915","219098","6486","142796","Lexical Decision Task","61","55778","66","yes","1024"
"2.9737419","7.69","7","claw","word","92.53731343283582","92.53731343283582","844.776119402985","844.776119402985","black","no","legacy","legacy","legacy","0","uniform","1","undefined","undefined","undefined","1","j","0","0","0","0","66","0","0","0","66","0","62","66","62","0","62","3","66","0","66","Wed Feb 24 18:46:53 2021","The main experiment item","yes","Lexical_Decision_Task.osexp","C:/Users/kiera","no","Andale Mono","no","18","no","white","no","yes","576","legacy","62","62","3","C:/Users/kiera/subject-5215489.csv","legacy","Lentiform Loewenfeld","3.3.8","yes","yes","600bd7cfb6416f0113b04181","602110864497cf011d9c0822","0","J","NA","space","space","space","space","J","822","NA","4071","59410","7219","5819","822","2","legacy","1024","2","48000","-16","task","5215489","odd","NA","81732","87807","83735","221860","6513","73152","65932","222362","191905","221858","222362","221723","87807","223187","79915","221223","6486","142796","Lexical Decision Task","62","56600","67","yes","1024"
"3.165936429","0","7","leps","non-word","92.6470588235294","92.6470588235294","844.0588235294117","844.0588235294117","black","no","legacy","legacy","legacy","0","uniform","1","undefined","undefined","undefined","1","f","0","0","0","0","67","0","0","0","67","0","63","67","63","0","63","3","67","0","67","Wed Feb 24 18:46:53 2021","The main experiment item","yes","Lexical_Decision_Task.osexp","C:/Users/kiera","no","Andale Mono","no","18","no","white","no","yes","576","legacy","63","63","3","C:/Users/kiera/subject-5215489.csv","legacy","Lentiform Loewenfeld","3.3.8","yes","yes","600bd7cfb6416f0113b04181","602110864497cf011d9c0822","0","F","NA","space","space","space","space","F","796","NA","4071","59410","7219","5819","796","2","legacy","1024","2","48000","-16","task","5215489","odd","NA","81732","87807","83735","223812","6513","73152","65932","224314","191905","223809","224314","223695","87807","225112","79915","223195","6486","142796","Lexical Decision Task","63","57396","68","yes","1024"
"3.149629599","0","2","cleb","non-word","92.7536231884058","92.7536231884058","849.6666666666666","849.6666666666666","black","no","legacy","legacy","legacy","0","uniform","1","undefined","undefined","undefined","1","f","0","0","0","0","68","0","0","0","68","0","64","68","64","0","64","3","68","0","68","Wed Feb 24 18:46:53 2021","The main experiment item","yes","Lexical_Decision_Task.osexp","C:/Users/kiera","no","Andale Mono","no","18","no","white","no","yes","576","legacy","64","64","3","C:/Users/kiera/subject-5215489.csv","legacy","Lentiform Loewenfeld","3.3.8","yes","yes","600bd7cfb6416f0113b04181","602110864497cf011d9c0822","0","F","NA","space","space","space","space","F","1231","NA","4071","59410","7219","5819","1231","2","legacy","1024","2","48000","-16","task","5215489","odd","NA","81732","87807","83735","225752","6513","73152","65932","226254","191905","225748","226255","225620","87807","227488","79915","225120","6486","142796","Lexical Decision Task","64","58627","69","yes","1024"
"2.75025376","10.2","6","jump","word","92.85714285714286","92.85714285714286","847.7142857142857","847.7142857142857","black","no","legacy","legacy","legacy","0","uniform","1","undefined","undefined","undefined","1","j","0","0","0","0","69","0","0","0","69","0","65","69","65","0","65","3","69","0","69","Wed Feb 24 18:46:53 2021","The main experiment item","yes","Lexical_Decision_Task.osexp","C:/Users/kiera","no","Andale Mono","no","18","no","white","no","yes","576","legacy","65","65","3","C:/Users/kiera/subject-5215489.csv","legacy","Lentiform Loewenfeld","3.3.8","yes","yes","600bd7cfb6416f0113b04181","602110864497cf011d9c0822","0","J","NA","space","space","space","space","J","713","NA","4071","59410","7219","5819","713","2","legacy","1024","2","48000","-16","task","5215489","odd","NA","81732","87807","83735","228120","6513","73152","65932","228622","191905","228117","228623","228000","87807","229338","79915","227500","6486","142796","Lexical Decision Task","65","59340","70","yes","1024"
"3.145920145","8.51","8","flew","word","92.95774647887323","92.95774647887323","844.1830985915493","844.1830985915493","black","no","legacy","legacy","legacy","0","uniform","1","undefined","undefined","undefined","1","j","0","0","0","0","70","0","0","0","70","0","66","70","66","0","66","3","70","0","70","Wed Feb 24 18:46:53 2021","The main experiment item","yes","Lexical_Decision_Task.osexp","C:/Users/kiera","no","Andale Mono","no","18","no","white","no","yes","576","legacy","66","66","3","C:/Users/kiera/subject-5215489.csv","legacy","Lentiform Loewenfeld","3.3.8","yes","yes","600bd7cfb6416f0113b04181","602110864497cf011d9c0822","0","J","NA","space","space","space","space","J","597","NA","4071","59410","7219","5819","597","2","legacy","1024","2","48000","-16","task","5215489","odd","NA","81732","87807","83735","229962","6513","73152","65932","230464","191905","229960","230464","229843","87807","231064","79915","229343","6486","142796","Lexical Decision Task","66","59937","71","yes","1024"
"3.14849993","10.75","7","hour","word","93.05555555555556","93.05555555555556","839.2638888888889","839.2638888888889","black","no","legacy","legacy","legacy","0","uniform","1","undefined","undefined","undefined","1","j","0","0","0","0","71","0","0","0","71","0","67","71","67","0","67","3","71","0","71","Wed Feb 24 18:46:53 2021","The main experiment item","yes","Lexical_Decision_Task.osexp","C:/Users/kiera","no","Andale Mono","no","18","no","white","no","yes","576","legacy","67","67","3","C:/Users/kiera/subject-5215489.csv","legacy","Lentiform Loewenfeld","3.3.8","yes","yes","600bd7cfb6416f0113b04181","602110864497cf011d9c0822","0","J","NA","space","space","space","space","J","490","NA","4071","59410","7219","5819","490","2","legacy","1024","2","48000","-16","task","5215489","odd","NA","81732","87807","83735","231728","6513","73152","65932","232230","191905","231725","232230","231575","87807","232723","79915","231075","6486","142796","Lexical Decision Task","67","60427","72","yes","1024"
"3.076883066","0","8","mout","non-word","91.78082191780823","91.78082191780823","835.8767123287671","835.8767123287671","black","no","legacy","legacy","legacy","0","uniform","0","undefined","undefined","undefined","0","f","0","0","0","0","72","0","0","0","72","0","68","72","68","0","68","3","72","0","72","Wed Feb 24 18:46:53 2021","The main experiment item","yes","Lexical_Decision_Task.osexp","C:/Users/kiera","no","Andale Mono","no","18","no","white","no","yes","576","legacy","68","68","3","C:/Users/kiera/subject-5215489.csv","legacy","Lentiform Loewenfeld","3.3.8","yes","yes","600bd7cfb6416f0113b04181","602110864497cf011d9c0822","0","J","NA","space","space","space","space","J","592","NA","4071","59410","7219","5819","592","2","legacy","1024","2","48000","-16","task","5215489","odd","NA","81732","87807","83735","233355","6513","73152","65932","233857","191905","233353","233858","233236","87807","234452","79915","232736","6486","142796","Lexical Decision Task","67","61019","73","yes","1024"
"3.366547468","0","6","plat","non-word","91.89189189189189","91.89189189189189","836.2972972972973","836.2972972972973","black","no","legacy","legacy","legacy","0","uniform","1","undefined","undefined","undefined","1","f","0","0","0","0","73","0","0","0","73","0","69","73","69","0","69","3","73","0","73","Wed Feb 24 18:46:53 2021","The main experiment item","yes","Lexical_Decision_Task.osexp","C:/Users/kiera","no","Andale Mono","no","18","no","white","no","yes","576","legacy","69","69","3","C:/Users/kiera/subject-5215489.csv","legacy","Lentiform Loewenfeld","3.3.8","yes","yes","600bd7cfb6416f0113b04181","602110864497cf011d9c0822","0","F","NA","space","space","space","space","F","867","NA","4071","59410","7219","5819","867","2","legacy","1024","2","48000","-16","task","5215489","odd","NA","81732","87807","83735","236084","6513","73152","65932","236587","191905","236082","236587","235960","87807","237456","79915","232736","6486","234460","Lexical Decision Task","68","61886","74","yes","1024"
"3.049218023","7.4","9","robe","word","92","92","838.1866666666666","838.1866666666666","black","no","legacy","legacy","legacy","0","uniform","1","undefined","undefined","undefined","1","j","0","0","0","0","74","0","0","0","74","0","70","74","70","0","70","3","74","0","74","Wed Feb 24 18:46:53 2021","The main experiment item","yes","Lexical_Decision_Task.osexp","C:/Users/kiera","no","Andale Mono","no","18","no","white","no","yes","576","legacy","70","70","3","C:/Users/kiera/subject-5215489.csv","legacy","Lentiform Loewenfeld","3.3.8","yes","yes","600bd7cfb6416f0113b04181","602110864497cf011d9c0822","0","J","NA","space","space","space","space","J","978","NA","4071","59410","7219","5819","978","2","legacy","1024","2","48000","-16","task","5215489","odd","NA","81732","87807","83735","238092","6513","73152","65932","238594","191905","238089","238595","237965","87807","239575","79915","237465","6486","234460","Lexical Decision Task","69","62864","75","yes","1024"
"3.100255637","0","6","brax","non-word","92.10526315789474","92.10526315789474","837.4078947368421","837.4078947368421","black","no","legacy","legacy","legacy","0","uniform","1","undefined","undefined","undefined","1","f","0","0","0","0","75","0","0","0","75","0","71","75","71","0","71","3","75","0","75","Wed Feb 24 18:46:53 2021","The main experiment item","yes","Lexical_Decision_Task.osexp","C:/Users/kiera","no","Andale Mono","no","18","no","white","no","yes","576","legacy","71","71","3","C:/Users/kiera/subject-5215489.csv","legacy","Lentiform Loewenfeld","3.3.8","yes","yes","600bd7cfb6416f0113b04181","602110864497cf011d9c0822","0","F","NA","space","space","space","space","F","779","NA","4071","59410","7219","5819","779","2","legacy","1024","2","48000","-16","task","5215489","odd","NA","81732","87807","83735","240228","6513","73152","65932","240730","191905","240225","240730","240084","87807","241511","79915","239584","6486","234460","Lexical Decision Task","70","63643","76","yes","1024"
"3.153104174","10.89","6","door","word","92.20779220779221","92.20779220779221","835.6753246753246","835.6753246753246","black","no","legacy","legacy","legacy","0","uniform","1","undefined","undefined","undefined","1","j","0","0","0","0","76","0","0","0","76","0","72","76","72","0","72","3","76","0","76","Wed Feb 24 18:46:53 2021","The main experiment item","yes","Lexical_Decision_Task.osexp","C:/Users/kiera","no","Andale Mono","no","18","no","white","no","yes","576","legacy","72","72","3","C:/Users/kiera/subject-5215489.csv","legacy","Lentiform Loewenfeld","3.3.8","yes","yes","600bd7cfb6416f0113b04181","602110864497cf011d9c0822","0","J","NA","space","space","space","space","J","704","NA","4071","59410","7219","5819","704","2","legacy","1024","2","48000","-16","task","5215489","odd","NA","81732","87807","83735","242164","6513","73152","65932","242666","191905","242161","242666","242021","87807","243373","79915","241520","6486","234460","Lexical Decision Task","71","64347","77","yes","1024"
"3.252447662","9.67","9","boat","word","92.3076923076923","92.3076923076923","833.7692307692307","833.7692307692307","black","no","legacy","legacy","legacy","0","uniform","1","undefined","undefined","undefined","1","j","0","0","0","0","77","0","0","0","77","0","73","77","73","0","73","3","77","0","77","Wed Feb 24 18:46:53 2021","The main experiment item","yes","Lexical_Decision_Task.osexp","C:/Users/kiera","no","Andale Mono","no","18","no","white","no","yes","576","legacy","73","73","3","C:/Users/kiera/subject-5215489.csv","legacy","Lentiform Loewenfeld","3.3.8","yes","yes","600bd7cfb6416f0113b04181","602110864497cf011d9c0822","0","J","NA","space","space","space","space","J","687","NA","4071","59410","7219","5819","687","2","legacy","1024","2","48000","-16","task","5215489","odd","NA","81732","87807","83735","244005","6513","73152","65932","244507","191905","244003","244507","243883","87807","245196","79915","243383","6486","234460","Lexical Decision Task","72","65034","78","yes","1024"
"2.778633532","0","3","jurp","non-word","92.40506329113924","92.40506329113924","834.2405063291139","834.2405063291139","black","no","legacy","legacy","legacy","0","uniform","1","undefined","undefined","undefined","1","f","0","0","0","0","78","0","0","0","78","0","74","78","74","0","74","3","78","0","78","Wed Feb 24 18:46:53 2021","The main experiment item","yes","Lexical_Decision_Task.osexp","C:/Users/kiera","no","Andale Mono","no","18","no","white","no","yes","576","legacy","74","74","3","C:/Users/kiera/subject-5215489.csv","legacy","Lentiform Loewenfeld","3.3.8","yes","yes","600bd7cfb6416f0113b04181","602110864497cf011d9c0822","0","F","NA","space","space","space","space","F","871","NA","4071","59410","7219","5819","871","2","legacy","1024","2","48000","-16","task","5215489","odd","NA","81732","87807","83735","245827","6513","73152","65932","246330","191905","245825","246330","245706","87807","247203","79915","245206","6486","234460","Lexical Decision Task","73","65905","79","yes","1024"
"3.259832699","0","9","flar","non-word","92.5","92.5","834.1875","834.1875","black","no","legacy","legacy","legacy","0","uniform","1","undefined","undefined","undefined","1","f","0","0","0","0","79","0","0","0","79","0","75","79","75","0","75","3","79","0","79","Wed Feb 24 18:46:53 2021","The main experiment item","yes","Lexical_Decision_Task.osexp","C:/Users/kiera","no","Andale Mono","no","18","no","white","no","yes","576","legacy","75","75","3","C:/Users/kiera/subject-5215489.csv","legacy","Lentiform Loewenfeld","3.3.8","yes","yes","600bd7cfb6416f0113b04181","602110864497cf011d9c0822","0","F","NA","space","space","space","space","F","830","NA","4071","59410","7219","5819","830","2","legacy","1024","2","48000","-16","task","5215489","odd","NA","81732","87807","83735","247835","6513","73152","65932","248338","191905","247833","248338","247713","87807","249170","79915","247213","6486","234460","Lexical Decision Task","74","66735","80","yes","1024"
"3.257359335","8","6","brew","word","92.5925925925926","92.5925925925926","833.8024691358024","833.8024691358024","black","no","legacy","legacy","legacy","0","uniform","1","undefined","undefined","undefined","1","j","0","0","0","0","80","0","0","0","80","0","76","80","76","0","76","3","80","0","80","Wed Feb 24 18:46:53 2021","The main experiment item","yes","Lexical_Decision_Task.osexp","C:/Users/kiera","no","Andale Mono","no","18","no","white","no","yes","576","legacy","76","76","3","C:/Users/kiera/subject-5215489.csv","legacy","Lentiform Loewenfeld","3.3.8","yes","yes","600bd7cfb6416f0113b04181","602110864497cf011d9c0822","0","J","NA","space","space","space","space","J","803","NA","4071","59410","7219","5819","803","2","legacy","1024","2","48000","-16","task","5215489","odd","NA","81732","87807","83735","249824","6513","73152","65932","250326","191905","249821","250326","249679","87807","251132","79915","249179","6486","234460","Lexical Decision Task","75","67538","81","yes","1024"
"2.986323777","10.85","8","ship","word","92.6829268292683","92.6829268292683","838.170731707317","838.170731707317","black","no","legacy","legacy","legacy","0","uniform","1","undefined","undefined","undefined","1","j","0","0","0","0","81","0","0","0","81","0","77","81","77","0","77","3","81","0","81","Wed Feb 24 18:46:53 2021","The main experiment item","yes","Lexical_Decision_Task.osexp","C:/Users/kiera","no","Andale Mono","no","18","no","white","no","yes","576","legacy","77","77","3","C:/Users/kiera/subject-5215489.csv","legacy","Lentiform Loewenfeld","3.3.8","yes","yes","600bd7cfb6416f0113b04181","602110864497cf011d9c0822","0","J","NA","space","space","space","space","J","1192","NA","4071","59410","7219","5819","1192","2","legacy","1024","2","48000","-16","task","5215489","odd","NA","81732","87807","83735","251800","6513","73152","65932","252302","191905","251798","252303","251642","87807","253498","79915","251142","6486","234460","Lexical Decision Task","76","68730","82","yes","1024"
"3.159867847","5.98","5","brim","word","92.7710843373494","92.7710843373494","839.9277108433735","839.9277108433735","black","no","legacy","legacy","legacy","0","uniform","1","undefined","undefined","undefined","1","j","0","0","0","0","82","0","0","0","82","0","78","82","78","0","78","3","82","0","82","Wed Feb 24 18:46:53 2021","The main experiment item","yes","Lexical_Decision_Task.osexp","C:/Users/kiera","no","Andale Mono","no","18","no","white","no","yes","576","legacy","78","78","3","C:/Users/kiera/subject-5215489.csv","legacy","Lentiform Loewenfeld","3.3.8","yes","yes","600bd7cfb6416f0113b04181","602110864497cf011d9c0822","0","J","NA","space","space","space","space","J","984","NA","4071","59410","7219","5819","984","2","legacy","1024","2","48000","-16","task","5215489","odd","NA","81732","87807","83735","254165","6513","73152","65932","254667","191905","254162","254667","254008","87807","255653","79915","253508","6486","234460","Lexical Decision Task","77","69714","83","yes","1024"
"3.29439347","8.6","9","wand","word","92.85714285714286","92.85714285714286","838.3452380952381","838.3452380952381","black","no","legacy","legacy","legacy","0","uniform","1","undefined","undefined","undefined","1","j","0","0","0","0","83","0","0","0","83","0","79","83","79","0","79","3","83","0","83","Wed Feb 24 18:46:53 2021","The main experiment item","yes","Lexical_Decision_Task.osexp","C:/Users/kiera","no","Andale Mono","no","18","no","white","no","yes","576","legacy","79","79","3","C:/Users/kiera/subject-5215489.csv","legacy","Lentiform Loewenfeld","3.3.8","yes","yes","600bd7cfb6416f0113b04181","602110864497cf011d9c0822","0","J","NA","space","space","space","space","J","707","NA","4071","59410","7219","5819","707","2","legacy","1024","2","48000","-16","task","5215489","odd","NA","81732","87807","83735","256282","6513","73152","65932","256784","191905","256280","256784","256157","87807","257495","79915","255657","6486","234460","Lexical Decision Task","78","70421","84","yes","1024"
"2.7084209","0","8","vump","non-word","92.94117647058823","92.94117647058823","841.2235294117647","841.2235294117647","black","no","legacy","legacy","legacy","0","uniform","1","undefined","undefined","undefined","1","f","0","0","0","0","84","0","0","0","84","0","80","84","80","0","80","3","84","0","84","Wed Feb 24 18:46:53 2021","The main experiment item","yes","Lexical_Decision_Task.osexp","C:/Users/kiera","no","Andale Mono","no","18","no","white","no","yes","576","legacy","80","80","3","C:/Users/kiera/subject-5215489.csv","legacy","Lentiform Loewenfeld","3.3.8","yes","yes","600bd7cfb6416f0113b04181","602110864497cf011d9c0822","0","F","NA","space","space","space","space","F","1083","NA","4071","59410","7219","5819","1083","2","legacy","1024","2","48000","-16","task","5215489","odd","NA","81732","87807","83735","258129","6513","73152","65932","258631","191905","258127","258631","258006","87807","259717","79915","257506","6486","234460","Lexical Decision Task","79","71504","85","yes","1024"
"2.664328519","0","4","plux","non-word","93.02325581395348","93.02325581395348","840.5116279069767","840.5116279069767","black","no","legacy","legacy","legacy","0","uniform","1","undefined","undefined","undefined","1","f","0","0","0","0","85","0","0","0","85","0","81","85","81","0","81","3","85","0","85","Wed Feb 24 18:46:53 2021","The main experiment item","yes","Lexical_Decision_Task.osexp","C:/Users/kiera","no","Andale Mono","no","18","no","white","no","yes","576","legacy","81","81","3","C:/Users/kiera/subject-5215489.csv","legacy","Lentiform Loewenfeld","3.3.8","yes","yes","600bd7cfb6416f0113b04181","602110864497cf011d9c0822","0","F","NA","space","space","space","space","F","780","NA","4071","59410","7219","5819","780","2","legacy","1024","2","48000","-16","task","5215489","odd","NA","81732","87807","83735","260350","6513","73152","65932","260852","191905","260348","260852","260230","87807","261635","79915","259729","6486","234460","Lexical Decision Task","80","72284","86","yes","1024"
"2.814027728","8.2","4","foam","word","93.10344827586206","93.10344827586206","841.3333333333334","841.3333333333334","black","no","legacy","legacy","legacy","0","uniform","1","undefined","undefined","undefined","1","j","0","0","0","0","86","0","0","0","86","0","82","86","82","0","82","3","86","0","86","Wed Feb 24 18:46:53 2021","The main experiment item","yes","Lexical_Decision_Task.osexp","C:/Users/kiera","no","Andale Mono","no","18","no","white","no","yes","576","legacy","82","82","3","C:/Users/kiera/subject-5215489.csv","legacy","Lentiform Loewenfeld","3.3.8","yes","yes","600bd7cfb6416f0113b04181","602110864497cf011d9c0822","0","J","NA","space","space","space","space","J","912","NA","4071","59410","7219","5819","912","2","legacy","1024","2","48000","-16","task","5215489","odd","NA","81732","87807","83735","262269","6513","73152","65932","262771","191905","262267","262771","262146","87807","263686","79915","261646","6486","234460","Lexical Decision Task","81","73196","87","yes","1024"
"3.003891166","8.05","2","frog","word","93.18181818181819","93.18181818181819","841.3295454545455","841.3295454545455","black","no","legacy","legacy","legacy","0","uniform","1","undefined","undefined","undefined","1","j","0","0","0","0","87","0","0","0","87","0","83","87","83","0","83","3","87","0","87","Wed Feb 24 18:46:53 2021","The main experiment item","yes","Lexical_Decision_Task.osexp","C:/Users/kiera","no","Andale Mono","no","18","no","white","no","yes","576","legacy","83","83","3","C:/Users/kiera/subject-5215489.csv","legacy","Lentiform Loewenfeld","3.3.8","yes","yes","600bd7cfb6416f0113b04181","602110864497cf011d9c0822","0","J","NA","space","space","space","space","J","841","NA","4071","59410","7219","5819","841","2","legacy","1024","2","48000","-16","task","5215489","odd","NA","81732","87807","83735","264314","6513","73152","65932","264816","191905","264312","264816","264192","87807","265659","79915","263692","6486","234460","Lexical Decision Task","82","74037","88","yes","1024"
"3.208172527","10.27","7","deck","word","93.25842696629213","93.25842696629213","839.5056179775281","839.5056179775281","black","no","legacy","legacy","legacy","0","uniform","1","undefined","undefined","undefined","1","j","0","0","0","0","88","0","0","0","88","0","84","88","84","0","84","3","88","0","88","Wed Feb 24 18:46:53 2021","The main experiment item","yes","Lexical_Decision_Task.osexp","C:/Users/kiera","no","Andale Mono","no","18","no","white","no","yes","576","legacy","84","84","3","C:/Users/kiera/subject-5215489.csv","legacy","Lentiform Loewenfeld","3.3.8","yes","yes","600bd7cfb6416f0113b04181","602110864497cf011d9c0822","0","J","NA","space","space","space","space","J","679","NA","4071","59410","7219","5819","679","2","legacy","1024","2","48000","-16","task","5215489","odd","NA","81732","87807","83735","266306","6513","73152","65932","266808","191905","266304","266809","266168","87807","267490","79915","265668","6486","234460","Lexical Decision Task","83","74716","89","yes","1024"
"3.088136089","8.32","9","worm","word","93.33333333333333","93.33333333333333","837.8777777777777","837.8777777777777","black","no","legacy","legacy","legacy","0","uniform","1","undefined","undefined","undefined","1","j","0","0","0","0","89","0","0","0","89","0","85","89","85","0","85","3","89","0","89","Wed Feb 24 18:46:53 2021","The main experiment item","yes","Lexical_Decision_Task.osexp","C:/Users/kiera","no","Andale Mono","no","18","no","white","no","yes","576","legacy","85","85","3","C:/Users/kiera/subject-5215489.csv","legacy","Lentiform Loewenfeld","3.3.8","yes","yes","600bd7cfb6416f0113b04181","602110864497cf011d9c0822","0","J","NA","space","space","space","space","J","693","NA","4071","59410","7219","5819","693","2","legacy","1024","2","48000","-16","task","5215489","odd","NA","81732","87807","83735","268123","6513","73152","65932","268625","191905","268120","268625","267999","87807","269320","79915","267499","6486","234460","Lexical Decision Task","84","75409","90","yes","1024"
"3.091901331","0","9","nipe","non-word","93.4065934065934","93.4065934065934","838.8131868131868","838.8131868131868","black","no","legacy","legacy","legacy","0","uniform","1","undefined","undefined","undefined","1","f","0","0","0","0","90","0","0","0","90","0","86","90","86","0","86","3","90","0","90","Wed Feb 24 18:46:53 2021","The main experiment item","yes","Lexical_Decision_Task.osexp","C:/Users/kiera","no","Andale Mono","no","18","no","white","no","yes","576","legacy","86","86","3","C:/Users/kiera/subject-5215489.csv","legacy","Lentiform Loewenfeld","3.3.8","yes","yes","600bd7cfb6416f0113b04181","602110864497cf011d9c0822","0","F","NA","space","space","space","space","F","923","NA","4071","59410","7219","5819","923","2","legacy","1024","2","48000","-16","task","5215489","odd","NA","81732","87807","83735","269965","6513","73152","65932","270468","191905","269962","270468","269829","87807","271394","79915","269329","6486","234460","Lexical Decision Task","85","76332","91","yes","1024"
"3.090140555","5.81","8","pout","word","93.47826086956522","93.47826086956522","838.3478260869565","838.3478260869565","black","no","legacy","legacy","legacy","0","uniform","1","undefined","undefined","undefined","1","j","0","0","0","0","91","0","0","0","91","0","87","91","87","0","87","3","91","0","91","Wed Feb 24 18:46:53 2021","The main experiment item","yes","Lexical_Decision_Task.osexp","C:/Users/kiera","no","Andale Mono","no","18","no","white","no","yes","576","legacy","87","87","3","C:/Users/kiera/subject-5215489.csv","legacy","Lentiform Loewenfeld","3.3.8","yes","yes","600bd7cfb6416f0113b04181","602110864497cf011d9c0822","0","J","NA","space","space","space","space","J","796","NA","4071","59410","7219","5819","796","2","legacy","1024","2","48000","-16","task","5215489","odd","NA","81732","87807","83735","272030","6513","73152","65932","272532","191905","272027","272532","271902","87807","273332","79915","271402","6486","234460","Lexical Decision Task","86","77128","92","yes","1024"
"3.102203805","7.21","3","drip","word","93.54838709677419","93.54838709677419","836.2795698924731","836.2795698924731","black","no","legacy","legacy","legacy","0","uniform","1","undefined","undefined","undefined","1","j","0","0","0","0","92","0","0","0","92","0","88","92","88","0","88","3","92","0","92","Wed Feb 24 18:46:53 2021","The main experiment item","yes","Lexical_Decision_Task.osexp","C:/Users/kiera","no","Andale Mono","no","18","no","white","no","yes","576","legacy","88","88","3","C:/Users/kiera/subject-5215489.csv","legacy","Lentiform Loewenfeld","3.3.8","yes","yes","600bd7cfb6416f0113b04181","602110864497cf011d9c0822","0","J","NA","space","space","space","space","J","646","NA","4071","59410","7219","5819","646","2","legacy","1024","2","48000","-16","task","5215489","odd","NA","81732","87807","83735","273993","6513","73152","65932","274496","191905","273991","274496","273842","87807","275144","79915","273342","6486","234460","Lexical Decision Task","87","77774","93","yes","1024"
"3.140404328","10.66","9","deep","word","93.61702127659575","93.61702127659575","833.8404255319149","833.8404255319149","black","no","legacy","legacy","legacy","0","uniform","1","undefined","undefined","undefined","1","j","0","0","0","0","93","0","0","0","93","0","89","93","89","0","89","3","93","0","93","Wed Feb 24 18:46:53 2021","The main experiment item","yes","Lexical_Decision_Task.osexp","C:/Users/kiera","no","Andale Mono","no","18","no","white","no","yes","576","legacy","89","89","3","C:/Users/kiera/subject-5215489.csv","legacy","Lentiform Loewenfeld","3.3.8","yes","yes","600bd7cfb6416f0113b04181","602110864497cf011d9c0822","0","J","NA","space","space","space","space","J","607","NA","4071","59410","7219","5819","607","2","legacy","1024","2","48000","-16","task","5215489","odd","NA","81732","87807","83735","275784","6513","73152","65932","276286","191905","275782","276286","275654","87807","276895","79915","275154","6486","234460","Lexical Decision Task","88","78381","94","yes","1024"
"3.168890155","0","6","thet","non-word","93.6842105263158","93.6842105263158","833.421052631579","833.421052631579","black","no","legacy","legacy","legacy","0","uniform","1","undefined","undefined","undefined","1","f","0","0","0","0","94","0","0","0","94","0","90","94","90","0","90","3","94","0","94","Wed Feb 24 18:46:53 2021","The main experiment item","yes","Lexical_Decision_Task.osexp","C:/Users/kiera","no","Andale Mono","no","18","no","white","no","yes","576","legacy","90","90","3","C:/Users/kiera/subject-5215489.csv","legacy","Lentiform Loewenfeld","3.3.8","yes","yes","600bd7cfb6416f0113b04181","602110864497cf011d9c0822","0","F","NA","space","space","space","space","F","794","NA","4071","59410","7219","5819","794","2","legacy","1024","2","48000","-16","task","5215489","odd","NA","81732","87807","83735","277539","6513","73152","65932","278041","191905","277536","278042","277405","87807","278839","79915","276905","6486","234460","Lexical Decision Task","89","79175","95","yes","1024"
"3.031408464","0","7","drow","non-word","93.75","93.75","835.7291666666666","835.7291666666666","black","no","legacy","legacy","legacy","0","uniform","1","undefined","undefined","undefined","1","f","0","0","0","0","95","0","0","0","95","0","91","95","91","0","91","3","95","0","95","Wed Feb 24 18:46:53 2021","The main experiment item","yes","Lexical_Decision_Task.osexp","C:/Users/kiera","no","Andale Mono","no","18","no","white","no","yes","576","legacy","91","91","3","C:/Users/kiera/subject-5215489.csv","legacy","Lentiform Loewenfeld","3.3.8","yes","yes","600bd7cfb6416f0113b04181","602110864497cf011d9c0822","0","F","NA","space","space","space","space","F","1055","NA","4071","59410","7219","5819","1055","2","legacy","1024","2","48000","-16","task","5215489","odd","NA","81732","87807","83735","279468","6513","73152","65932","279971","191905","279466","279972","279348","87807","281029","79915","278848","6486","234460","Lexical Decision Task","90","80230","96","yes","1024"
"3.481012421","8.34","5","teen","word","93.81443298969072","93.81443298969072","833.7010309278351","833.7010309278351","black","no","legacy","legacy","legacy","0","uniform","1","undefined","undefined","undefined","1","j","0","0","0","0","96","0","0","0","96","0","92","96","92","0","92","3","96","0","96","Wed Feb 24 18:46:53 2021","The main experiment item","yes","Lexical_Decision_Task.osexp","C:/Users/kiera","no","Andale Mono","no","18","no","white","no","yes","576","legacy","92","92","3","C:/Users/kiera/subject-5215489.csv","legacy","Lentiform Loewenfeld","3.3.8","yes","yes","600bd7cfb6416f0113b04181","602110864497cf011d9c0822","0","J","NA","space","space","space","space","J","639","NA","4071","59410","7219","5819","639","2","legacy","1024","2","48000","-16","task","5215489","odd","NA","81732","87807","83735","281667","6513","73152","65932","282169","191905","281665","282169","281539","87807","282812","79915","281039","6486","234460","Lexical Decision Task","91","80869","97","yes","1024"
"3.137775856","7.39","5","comb","word","93.87755102040816","93.87755102040816","838.1428571428571","838.1428571428571","black","no","legacy","legacy","legacy","0","uniform","1","undefined","undefined","undefined","1","j","0","0","0","0","97","0","0","0","97","0","93","97","93","0","93","3","97","0","97","Wed Feb 24 18:46:53 2021","The main experiment item","yes","Lexical_Decision_Task.osexp","C:/Users/kiera","no","Andale Mono","no","18","no","white","no","yes","576","legacy","93","93","3","C:/Users/kiera/subject-5215489.csv","legacy","Lentiform Loewenfeld","3.3.8","yes","yes","600bd7cfb6416f0113b04181","602110864497cf011d9c0822","0","J","NA","space","space","space","space","J","1269","NA","4071","59410","7219","5819","1269","2","legacy","1024","2","48000","-16","task","5215489","odd","NA","81732","87807","83735","283441","6513","73152","65932","283944","191905","283439","283944","283323","87807","285217","79915","282823","6486","234460","Lexical Decision Task","92","82138","98","yes","1024"
"3.195807436","0","6","stup","non-word","92.92929292929293","92.92929292929293","835.9090909090909","835.9090909090909","black","no","legacy","legacy","legacy","0","uniform","0","undefined","undefined","undefined","0","f","0","0","0","0","98","0","0","0","98","0","94","98","94","0","94","3","98","0","98","Wed Feb 24 18:46:53 2021","The main experiment item","yes","Lexical_Decision_Task.osexp","C:/Users/kiera","no","Andale Mono","no","18","no","white","no","yes","576","legacy","94","94","3","C:/Users/kiera/subject-5215489.csv","legacy","Lentiform Loewenfeld","3.3.8","yes","yes","600bd7cfb6416f0113b04181","602110864497cf011d9c0822","0","J","NA","space","space","space","space","J","617","NA","4071","59410","7219","5819","617","2","legacy","1024","2","48000","-16","task","5215489","odd","NA","81732","87807","83735","285850","6513","73152","65932","286352","191905","285848","286352","285727","87807","286973","79915","285227","6486","234460","Lexical Decision Task","92","82755","99","yes","1024"
"2.706148589","0","4","hube","non-word","93","93","835.31","835.31","black","no","legacy","legacy","legacy","0","uniform","1","undefined","undefined","undefined","1","f","0","0","0","0","99","0","0","0","99","0","95","99","95","0","95","3","99","0","99","Wed Feb 24 18:46:53 2021","The main experiment item","yes","Lexical_Decision_Task.osexp","C:/Users/kiera","no","Andale Mono","no","18","no","white","no","yes","576","legacy","95","95","3","C:/Users/kiera/subject-5215489.csv","legacy","Lentiform Loewenfeld","3.3.8","yes","yes","600bd7cfb6416f0113b04181","602110864497cf011d9c0822","0","F","NA","space","space","space","space","F","776","NA","4071","59410","7219","5819","776","2","legacy","1024","2","48000","-16","task","5215489","odd","NA","81732","87807","83735","288606","6513","73152","65932","289108","191905","288603","289108","288483","87807","289887","79915","285227","6486","286983","Lexical Decision Task","93","83531","100","yes","1024"
"3.156347201","0","8","lasp","non-word","93.06930693069307","93.06930693069307","833.6732673267327","833.6732673267327","black","no","legacy","legacy","legacy","0","uniform","1","undefined","undefined","undefined","1","f","0","0","0","0","100","0","0","0","100","0","96","100","96","0","96","3","100","0","100","Wed Feb 24 18:46:53 2021","The main experiment item","yes","Lexical_Decision_Task.osexp","C:/Users/kiera","no","Andale Mono","no","18","no","white","no","yes","576","legacy","96","96","3","C:/Users/kiera/subject-5215489.csv","legacy","Lentiform Loewenfeld","3.3.8","yes","yes","600bd7cfb6416f0113b04181","602110864497cf011d9c0822","0","F","NA","space","space","space","space","F","670","NA","4071","59410","7219","5819","670","2","legacy","1024","2","48000","-16","task","5215489","odd","NA","81732","87807","83735","290520","6513","73152","65932","291023","191905","290518","291023","290396","87807","291696","79915","289896","6486","286983","Lexical Decision Task","94","84201","101","yes","1024"
"2.981215883","10.66","5","hair","word","93.13725490196079","93.13725490196079","831.5392156862745","831.5392156862745","black","no","legacy","legacy","legacy","0","uniform","1","undefined","undefined","undefined","1","j","0","0","0","0","101","0","0","0","101","0","97","101","97","0","97","3","101","0","101","Wed Feb 24 18:46:53 2021","The main experiment item","yes","Lexical_Decision_Task.osexp","C:/Users/kiera","no","Andale Mono","no","18","no","white","no","yes","576","legacy","97","97","3","C:/Users/kiera/subject-5215489.csv","legacy","Lentiform Loewenfeld","3.3.8","yes","yes","600bd7cfb6416f0113b04181","602110864497cf011d9c0822","0","J","NA","space","space","space","space","J","616","NA","4071","59410","7219","5819","616","2","legacy","1024","2","48000","-16","task","5215489","odd","NA","81732","87807","83735","292339","6513","73152","65932","292842","191905","292337","292842","292205","87807","293462","79915","291705","6486","286983","Lexical Decision Task","95","84817","102","yes","1024"
