"Log_BG","Log_Freq_HAL","Ortho_N","Stimulus","Type","acc","accuracy","average_response_time","avg_rt","background","bidi","canvas_backend","clock_backend","color_backend","compensation","coordinates","correct","correct_Experimental_intro","correct_Introduction","correct_Practice_intro","correct_experimenter_kb","correct_response","count_End_Of_Experiment","count_End_Of_Practice","count_Experimental_Loop","count_Experimental_intro","count_Fixation","count_Introduction","count_Practice_Loop","count_Practice_intro","count_Stimulus","count_block_break_feedback","count_experimental_sequence","count_experimenter_kb","count_increment_trial_count","count_init_trial_count","count_logger","count_practice_sequence","count_right","count_task","count_wrong","datetime","description","disable_garbage_collection","experiment_file","experiment_path","font_bold","font_family","font_italic","font_size","font_underline","foreground","form_clicks","fullscreen","height","keyboard_backend","live_row","live_row_Experimental_Loop","live_row_Practice_Loop","logfile","mouse_backend","opensesame_codename","opensesame_version","osf_always_upload_data","osf_always_upload_experiment","osf_datanode_id","osf_id","repeat_cycle","response","response_End_Of_Experiment","response_Experimental_intro","response_Introduction","response_Practice_intro","response_block_break_feedback","response_experimenter_kb","response_time","response_time_End_Of_Experiment","response_time_Experimental_intro","response_time_Introduction","response_time_Practice_intro","response_time_block_break_feedback","response_time_experimenter_kb","round_decimals","sampler_backend","sound_buf_size","sound_channels","sound_freq","sound_sample_size","start","subject_nr","subject_parity","time_End_Of_Experiment","time_End_Of_Practice","time_Experimental_Loop","time_Experimental_intro","time_Fixation","time_Introduction","time_Practice_Loop","time_Practice_intro","time_Stimulus","time_block_break_feedback","time_experimental_sequence","time_experimenter_kb","time_increment_trial_count","time_init_trial_count","time_logger","time_practice_sequence","time_right","time_task","time_wrong","title","total_correct","total_response_time","total_responses","uniform_coordinates","width"
"3.269668578","0","7","trag","non-word","100","100","1211.6","1211.6","black","no","legacy","legacy","legacy","0","uniform","1","undefined","undefined","undefined","1","f","0","0","0","0","4","0","0","0","4","NA","0","4","0","0","0","3","4","0","4","Sun 21 Feb 2021 09:10:15 PM GMT","The main experiment item","yes","Lexical_Decision_Task.osexp","/home/claudiacastello18","no","Andale Mono","no","18","no","white","no","no","576","legacy","0","0","3","/home/claudiacastello18/subject-5214234.csv","legacy","Lentiform Loewenfeld","3.3.8a1","yes","yes","600bd7cfb6416f0113b04181","602110864497cf011d9c0822","0","f","NA","space","space","space","NA","f","839","NA","2469","1344","15387","NA","839","2","legacy","1024","2","48000","-16","task","5214234","even","NA","28631","33108","30638","33198","1774","18510","3122","33702","NA","33195","33703","NA","33108","34543","26710","28034","1769","NA","Lexical Decision Task","5","6058","5","yes","1024"
"3.353210739","0","9","reet","non-word","100","100","1167.5","1167.5","black","no","legacy","legacy","legacy","0","uniform","1","undefined","undefined","undefined","1","f","0","0","0","0","5","0","0","0","5","NA","1","5","1","0","1","3","5","0","5","Sun 21 Feb 2021 09:10:15 PM GMT","The main experiment item","yes","Lexical_Decision_Task.osexp","/home/claudiacastello18","no","Andale Mono","no","18","no","white","no","no","576","legacy","1","1","3","/home/claudiacastello18/subject-5214234.csv","legacy","Lentiform Loewenfeld","3.3.8a1","yes","yes","600bd7cfb6416f0113b04181","602110864497cf011d9c0822","0","f","NA","space","space","space","NA","f","947","NA","2469","1344","15387","NA","947","2","legacy","1024","2","48000","-16","task","5214234","even","NA","28631","33108","30638","35291","1774","18510","3122","35795","NA","35287","35796","35075","33108","36744","26710","34575","1769","NA","Lexical Decision Task","6","7005","6","yes","1024"
"2.972357144","0","5","dasp","non-word","100","100","1101","1101","black","no","legacy","legacy","legacy","0","uniform","1","undefined","undefined","undefined","1","f","0","0","0","0","6","0","0","0","6","NA","2","6","2","0","2","3","6","0","6","Sun 21 Feb 2021 09:10:15 PM GMT","The main experiment item","yes","Lexical_Decision_Task.osexp","/home/claudiacastello18","no","Andale Mono","no","18","no","white","no","no","576","legacy","2","2","3","/home/claudiacastello18/subject-5214234.csv","legacy","Lentiform Loewenfeld","3.3.8a1","yes","yes","600bd7cfb6416f0113b04181","602110864497cf011d9c0822","0","f","NA","space","space","space","NA","f","702","NA","2469","1344","15387","NA","702","2","legacy","1024","2","48000","-16","task","5214234","even","NA","28631","33108","30638","37579","1774","18510","3122","38086","NA","37576","38087","37271","33108","38790","26710","36770","1769","NA","Lexical Decision Task","7","7707","7","yes","1024"
"3.378276681","6.39","8","bran","word","87.5","87.5","1036.875","1036.875","black","no","legacy","legacy","legacy","0","uniform","0","undefined","undefined","undefined","0","j","0","0","0","0","7","0","0","0","7","NA","3","7","3","0","3","3","7","0","7","Sun 21 Feb 2021 09:10:15 PM GMT","The main experiment item","yes","Lexical_Decision_Task.osexp","/home/claudiacastello18","no","Andale Mono","no","18","no","white","no","no","576","legacy","3","3","3","/home/claudiacastello18/subject-5214234.csv","legacy","Lentiform Loewenfeld","3.3.8a1","yes","yes","600bd7cfb6416f0113b04181","602110864497cf011d9c0822","0","f","NA","space","space","space","NA","f","588","NA","2469","1344","15387","NA","588","2","legacy","1024","2","48000","-16","task","5214234","even","NA","28631","33108","30638","39491","1774","18510","3122","39997","NA","39488","39998","39308","33108","40587","26710","38808","1769","NA","Lexical Decision Task","7","8295","8","yes","1024"
"3.031812271","6.52","3","gulp","word","88.88888888888889","88.88888888888889","1014.6666666666666","1014.6666666666666","black","no","legacy","legacy","legacy","0","uniform","1","undefined","undefined","undefined","1","j","0","0","0","0","8","0","0","0","8","NA","4","8","4","0","4","3","8","0","8","Sun 21 Feb 2021 09:10:15 PM GMT","The main experiment item","yes","Lexical_Decision_Task.osexp","/home/claudiacastello18","no","Andale Mono","no","18","no","white","no","no","576","legacy","4","4","3","/home/claudiacastello18/subject-5214234.csv","legacy","Lentiform Loewenfeld","3.3.8a1","yes","yes","600bd7cfb6416f0113b04181","602110864497cf011d9c0822","0","j","NA","space","space","space","NA","j","837","NA","2469","1344","15387","NA","837","2","legacy","1024","2","48000","-16","task","5214234","even","NA","28631","33108","30638","42287","1774","18510","3122","42801","NA","42284","42802","42105","33108","43639","26710","38808","1769","40605","Lexical Decision Task","8","9132","9","yes","1024"
"2.778633532","0","3","jurp","non-word","90","90","1011.6","1011.6","black","no","legacy","legacy","legacy","0","uniform","1","undefined","undefined","undefined","1","f","0","0","0","0","9","0","0","0","9","NA","5","9","5","0","5","3","9","0","9","Sun 21 Feb 2021 09:10:15 PM GMT","The main experiment item","yes","Lexical_Decision_Task.osexp","/home/claudiacastello18","no","Andale Mono","no","18","no","white","no","no","576","legacy","5","5","3","/home/claudiacastello18/subject-5214234.csv","legacy","Lentiform Loewenfeld","3.3.8a1","yes","yes","600bd7cfb6416f0113b04181","602110864497cf011d9c0822","0","f","NA","space","space","space","NA","f","984","NA","2469","1344","15387","NA","984","2","legacy","1024","2","48000","-16","task","5214234","even","NA","28631","33108","30638","44333","1774","18510","3122","44838","NA","44329","44838","44157","33108","45823","26710","43656","1769","40605","Lexical Decision Task","9","10116","10","yes","1024"
"3.22685757","9.99","7","roll","word","90.9090909090909","90.9090909090909","978.9090909090909","978.9090909090909","black","no","legacy","legacy","legacy","0","uniform","1","undefined","undefined","undefined","1","j","0","0","0","0","10","0","0","0","10","NA","6","10","6","0","6","3","10","0","10","Sun 21 Feb 2021 09:10:15 PM GMT","The main experiment item","yes","Lexical_Decision_Task.osexp","/home/claudiacastello18","no","Andale Mono","no","18","no","white","no","no","576","legacy","6","6","3","/home/claudiacastello18/subject-5214234.csv","legacy","Lentiform Loewenfeld","3.3.8a1","yes","yes","600bd7cfb6416f0113b04181","602110864497cf011d9c0822","0","j","NA","space","space","space","NA","j","652","NA","2469","1344","15387","NA","652","2","legacy","1024","2","48000","-16","task","5214234","even","NA","28631","33108","30638","46512","1774","18510","3122","47017","NA","46509","47018","46343","33108","47671","26710","45842","1769","40605","Lexical Decision Task","10","10768","11","yes","1024"
"3.261341392","5.08","8","reek","word","91.66666666666667","91.66666666666667","980.1666666666666","980.1666666666666","black","no","legacy","legacy","legacy","0","uniform","1","undefined","undefined","undefined","1","j","0","0","0","0","11","0","0","0","11","NA","7","11","7","0","7","3","11","0","11","Sun 21 Feb 2021 09:10:15 PM GMT","The main experiment item","yes","Lexical_Decision_Task.osexp","/home/claudiacastello18","no","Andale Mono","no","18","no","white","no","no","576","legacy","7","7","3","/home/claudiacastello18/subject-5214234.csv","legacy","Lentiform Loewenfeld","3.3.8a1","yes","yes","600bd7cfb6416f0113b04181","602110864497cf011d9c0822","0","j","NA","space","space","space","NA","j","994","NA","2469","1344","15387","NA","994","2","legacy","1024","2","48000","-16","task","5214234","even","NA","28631","33108","30638","48366","1774","18510","3122","48872","NA","48363","48873","48189","33108","49868","26710","47688","1769","40605","Lexical Decision Task","11","11762","12","yes","1024"
"3.531734309","0","6","lerd","non-word","92.3076923076923","92.3076923076923","969.7692307692307","969.7692307692307","black","no","legacy","legacy","legacy","0","uniform","1","undefined","undefined","undefined","1","f","0","0","0","0","12","0","0","0","12","NA","8","12","8","0","8","3","12","0","12","Sun 21 Feb 2021 09:10:15 PM GMT","The main experiment item","yes","Lexical_Decision_Task.osexp","/home/claudiacastello18","no","Andale Mono","no","18","no","white","no","no","576","legacy","8","8","3","/home/claudiacastello18/subject-5214234.csv","legacy","Lentiform Loewenfeld","3.3.8a1","yes","yes","600bd7cfb6416f0113b04181","602110864497cf011d9c0822","0","f","NA","space","space","space","NA","f","845","NA","2469","1344","15387","NA","845","2","legacy","1024","2","48000","-16","task","5214234","even","NA","28631","33108","30638","50566","1774","18510","3122","51071","NA","50564","51071","50386","33108","51917","26710","49885","1769","40605","Lexical Decision Task","12","12607","13","yes","1024"
"2.980911938","7.15","7","hoop","word","92.85714285714286","92.85714285714286","969.9285714285714","969.9285714285714","black","no","legacy","legacy","legacy","0","uniform","1","undefined","undefined","undefined","1","j","0","0","0","0","13","0","0","0","13","NA","9","13","9","0","9","3","13","0","13","Sun 21 Feb 2021 09:10:15 PM GMT","The main experiment item","yes","Lexical_Decision_Task.osexp","/home/claudiacastello18","no","Andale Mono","no","18","no","white","no","no","576","legacy","9","9","3","/home/claudiacastello18/subject-5214234.csv","legacy","Lentiform Loewenfeld","3.3.8a1","yes","yes","600bd7cfb6416f0113b04181","602110864497cf011d9c0822","0","j","NA","space","space","space","NA","j","972","NA","2469","1344","15387","NA","972","2","legacy","1024","2","48000","-16","task","5214234","even","NA","28631","33108","30638","52606","1774","18510","3122","53110","NA","52602","53110","52434","33108","54083","26710","51934","1769","40605","Lexical Decision Task","13","13579","14","yes","1024"
"3.131833513","7.66","4","limb","word","93.33333333333333","93.33333333333333","957.9333333333333","957.9333333333333","black","no","legacy","legacy","legacy","0","uniform","1","undefined","undefined","undefined","1","j","0","0","0","0","14","0","0","0","14","NA","10","14","10","0","10","3","14","0","14","Sun 21 Feb 2021 09:10:15 PM GMT","The main experiment item","yes","Lexical_Decision_Task.osexp","/home/claudiacastello18","no","Andale Mono","no","18","no","white","no","no","576","legacy","10","10","3","/home/claudiacastello18/subject-5214234.csv","legacy","Lentiform Loewenfeld","3.3.8a1","yes","yes","600bd7cfb6416f0113b04181","602110864497cf011d9c0822","0","j","NA","space","space","space","NA","j","790","NA","2469","1344","15387","NA","790","2","legacy","1024","2","48000","-16","task","5214234","even","NA","28631","33108","30638","54777","1774","18510","3122","55281","NA","54774","55282","54602","33108","56073","26710","54101","1769","40605","Lexical Decision Task","14","14369","15","yes","1024"
"2.986323777","10.85","8","ship","word","93.75","93.75","1057.875","1057.875","black","no","legacy","legacy","legacy","0","uniform","1","undefined","undefined","undefined","1","j","0","0","0","0","15","0","0","0","15","NA","11","15","11","0","11","3","15","0","15","Sun 21 Feb 2021 09:10:15 PM GMT","The main experiment item","yes","Lexical_Decision_Task.osexp","/home/claudiacastello18","no","Andale Mono","no","18","no","white","no","no","576","legacy","11","11","3","/home/claudiacastello18/subject-5214234.csv","legacy","Lentiform Loewenfeld","3.3.8a1","yes","yes","600bd7cfb6416f0113b04181","602110864497cf011d9c0822","0","j","NA","space","space","space","NA","j","2557","NA","2469","1344","15387","NA","2557","2","legacy","1024","2","48000","-16","task","5214234","even","NA","28631","33108","30638","56775","1774","18510","3122","57278","NA","56772","57279","56602","33108","59837","26710","56102","1769","40605","Lexical Decision Task","15","16926","16","yes","1024"
"2.80048796","0","8","pife","non-word","94.11764705882354","94.11764705882354","1037.2941176470588","1037.2941176470588","black","no","legacy","legacy","legacy","0","uniform","1","undefined","undefined","undefined","1","f","0","0","0","0","16","0","0","0","16","NA","12","16","12","0","12","3","16","0","16","Sun 21 Feb 2021 09:10:15 PM GMT","The main experiment item","yes","Lexical_Decision_Task.osexp","/home/claudiacastello18","no","Andale Mono","no","18","no","white","no","no","576","legacy","12","12","3","/home/claudiacastello18/subject-5214234.csv","legacy","Lentiform Loewenfeld","3.3.8a1","yes","yes","600bd7cfb6416f0113b04181","602110864497cf011d9c0822","0","f","NA","space","space","space","NA","f","708","NA","2469","1344","15387","NA","708","2","legacy","1024","2","48000","-16","task","5214234","even","NA","28631","33108","30638","60603","1774","18510","3122","61108","NA","60601","61108","60354","33108","61817","26710","59854","1769","40605","Lexical Decision Task","16","17634","17","yes","1024"
"3.492014979","0","9","yine","non-word","94.44444444444444","94.44444444444444","1064.388888888889","1064.388888888889","black","no","legacy","legacy","legacy","0","uniform","1","undefined","undefined","undefined","1","f","0","0","0","0","17","0","0","0","17","NA","13","17","13","0","13","3","17","0","17","Sun 21 Feb 2021 09:10:15 PM GMT","The main experiment item","yes","Lexical_Decision_Task.osexp","/home/claudiacastello18","no","Andale Mono","no","18","no","white","no","no","576","legacy","13","13","3","/home/claudiacastello18/subject-5214234.csv","legacy","Lentiform Loewenfeld","3.3.8a1","yes","yes","600bd7cfb6416f0113b04181","602110864497cf011d9c0822","0","f","NA","space","space","space","NA","f","1525","NA","2469","1344","15387","NA","1525","2","legacy","1024","2","48000","-16","task","5214234","even","NA","28631","33108","30638","62508","1774","18510","3122","63012","NA","62505","63012","62334","33108","64538","26710","61834","1769","40605","Lexical Decision Task","17","19159","18","yes","1024"
"3.481012421","8.34","5","teen","word","94.73684210526316","94.73684210526316","1135.157894736842","1135.157894736842","black","no","legacy","legacy","legacy","0","uniform","1","undefined","undefined","undefined","1","j","0","0","0","0","18","0","0","0","18","NA","14","18","14","0","14","3","18","0","18","Sun 21 Feb 2021 09:10:15 PM GMT","The main experiment item","yes","Lexical_Decision_Task.osexp","/home/claudiacastello18","no","Andale Mono","no","18","no","white","no","no","576","legacy","14","14","3","/home/claudiacastello18/subject-5214234.csv","legacy","Lentiform Loewenfeld","3.3.8a1","yes","yes","600bd7cfb6416f0113b04181","602110864497cf011d9c0822","0","j","NA","space","space","space","NA","j","2409","NA","2469","1344","15387","NA","2409","2","legacy","1024","2","48000","-16","task","5214234","even","NA","28631","33108","30638","65266","1774","18510","3122","65770","NA","65262","65770","65056","33108","68180","26710","64556","1769","40605","Lexical Decision Task","18","21568","19","yes","1024"
"3.067070856","9.39","3","loud","word","95","95","1110.2","1110.2","black","no","legacy","legacy","legacy","0","uniform","1","undefined","undefined","undefined","1","j","0","0","0","0","19","0","0","0","19","NA","15","19","15","0","15","3","19","0","19","Sun 21 Feb 2021 09:10:15 PM GMT","The main experiment item","yes","Lexical_Decision_Task.osexp","/home/claudiacastello18","no","Andale Mono","no","18","no","white","no","no","576","legacy","15","15","3","/home/claudiacastello18/subject-5214234.csv","legacy","Lentiform Loewenfeld","3.3.8a1","yes","yes","600bd7cfb6416f0113b04181","602110864497cf011d9c0822","0","j","NA","space","space","space","NA","j","636","NA","2469","1344","15387","NA","636","2","legacy","1024","2","48000","-16","task","5214234","even","NA","28631","33108","30638","68876","1774","18510","3122","69386","NA","68873","69386","68699","33108","70023","26710","68199","1769","40605","Lexical Decision Task","19","22204","20","yes","1024"
"3.081107167","0","6","chot","non-word","95.23809523809524","95.23809523809524","1087.1904761904761","1087.1904761904761","black","no","legacy","legacy","legacy","0","uniform","1","undefined","undefined","undefined","1","f","0","0","0","0","20","0","0","0","20","NA","16","20","16","0","16","3","20","0","20","Sun 21 Feb 2021 09:10:15 PM GMT","The main experiment item","yes","Lexical_Decision_Task.osexp","/home/claudiacastello18","no","Andale Mono","no","18","no","white","no","no","576","legacy","16","16","3","/home/claudiacastello18/subject-5214234.csv","legacy","Lentiform Loewenfeld","3.3.8a1","yes","yes","600bd7cfb6416f0113b04181","602110864497cf011d9c0822","0","f","NA","space","space","space","NA","f","627","NA","2469","1344","15387","NA","627","2","legacy","1024","2","48000","-16","task","5214234","even","NA","28631","33108","30638","70719","1774","18510","3122","71226","NA","70717","71226","70543","33108","71854","26710","70043","1769","40605","Lexical Decision Task","20","22831","21","yes","1024"
"3.062080345","0","6","tomp","non-word","95.45454545454545","95.45454545454545","1072.7727272727273","1072.7727272727273","black","no","legacy","legacy","legacy","0","uniform","1","undefined","undefined","undefined","1","f","0","0","0","0","21","0","0","0","21","NA","17","21","17","0","17","3","21","0","21","Sun 21 Feb 2021 09:10:15 PM GMT","The main experiment item","yes","Lexical_Decision_Task.osexp","/home/claudiacastello18","no","Andale Mono","no","18","no","white","no","no","576","legacy","17","17","3","/home/claudiacastello18/subject-5214234.csv","legacy","Lentiform Loewenfeld","3.3.8a1","yes","yes","600bd7cfb6416f0113b04181","602110864497cf011d9c0822","0","f","NA","space","space","space","NA","f","770","NA","2469","1344","15387","NA","770","2","legacy","1024","2","48000","-16","task","5214234","even","NA","28631","33108","30638","72566","1774","18510","3122","73070","NA","72563","73071","72371","33108","73842","26710","71871","1769","40605","Lexical Decision Task","21","23601","22","yes","1024"
"3.068433376","8.09","2","bulb","word","95.65217391304348","95.65217391304348","1069.2608695652175","1069.2608695652175","black","no","legacy","legacy","legacy","0","uniform","1","undefined","undefined","undefined","1","j","0","0","0","0","22","0","0","0","22","NA","18","22","18","0","18","3","22","0","22","Sun 21 Feb 2021 09:10:15 PM GMT","The main experiment item","yes","Lexical_Decision_Task.osexp","/home/claudiacastello18","no","Andale Mono","no","18","no","white","no","no","576","legacy","18","18","3","/home/claudiacastello18/subject-5214234.csv","legacy","Lentiform Loewenfeld","3.3.8a1","yes","yes","600bd7cfb6416f0113b04181","602110864497cf011d9c0822","0","j","NA","space","space","space","NA","j","992","NA","2469","1344","15387","NA","992","2","legacy","1024","2","48000","-16","task","5214234","even","NA","28631","33108","30638","74579","1774","18510","3122","75084","NA","74576","75084","74360","33108","76078","26710","73859","1769","40605","Lexical Decision Task","22","24593","23","yes","1024"
"3.168890155","0","6","thet","non-word","95.83333333333333","95.83333333333333","1053.3333333333333","1053.3333333333333","black","no","legacy","legacy","legacy","0","uniform","1","undefined","undefined","undefined","1","f","0","0","0","0","23","0","0","0","23","NA","19","23","19","0","19","3","23","0","23","Sun 21 Feb 2021 09:10:15 PM GMT","The main experiment item","yes","Lexical_Decision_Task.osexp","/home/claudiacastello18","no","Andale Mono","no","18","no","white","no","no","576","legacy","19","19","3","/home/claudiacastello18/subject-5214234.csv","legacy","Lentiform Loewenfeld","3.3.8a1","yes","yes","600bd7cfb6416f0113b04181","602110864497cf011d9c0822","0","f","NA","space","space","space","NA","f","687","NA","2469","1344","15387","NA","687","2","legacy","1024","2","48000","-16","task","5214234","even","NA","28631","33108","30638","76782","1774","18510","3122","77286","NA","76779","77287","76601","33108","77975","26710","76101","1769","40605","Lexical Decision Task","23","25280","24","yes","1024"
"2.839898939","8.99","6","soap","word","96","96","1030.2","1030.2","black","no","legacy","legacy","legacy","0","uniform","1","undefined","undefined","undefined","1","j","0","0","0","0","24","0","0","0","24","NA","20","24","20","0","20","3","24","0","24","Sun 21 Feb 2021 09:10:15 PM GMT","The main experiment item","yes","Lexical_Decision_Task.osexp","/home/claudiacastello18","no","Andale Mono","no","18","no","white","no","no","576","legacy","20","20","3","/home/claudiacastello18/subject-5214234.csv","legacy","Lentiform Loewenfeld","3.3.8a1","yes","yes","600bd7cfb6416f0113b04181","602110864497cf011d9c0822","0","j","NA","space","space","space","NA","j","475","NA","2469","1344","15387","NA","475","2","legacy","1024","2","48000","-16","task","5214234","even","NA","28631","33108","30638","78676","1774","18510","3122","79188","NA","78673","79189","78493","33108","79666","26710","77992","1769","40605","Lexical Decision Task","24","25755","25","yes","1024"
"2.693726949","5.08","3","swig","word","96.15384615384616","96.15384615384616","1010.7692307692307","1010.7692307692307","black","no","legacy","legacy","legacy","0","uniform","1","undefined","undefined","undefined","1","j","0","0","0","0","25","0","0","0","25","NA","21","25","21","0","21","3","25","0","25","Sun 21 Feb 2021 09:10:15 PM GMT","The main experiment item","yes","Lexical_Decision_Task.osexp","/home/claudiacastello18","no","Andale Mono","no","18","no","white","no","no","576","legacy","21","21","3","/home/claudiacastello18/subject-5214234.csv","legacy","Lentiform Loewenfeld","3.3.8a1","yes","yes","600bd7cfb6416f0113b04181","602110864497cf011d9c0822","0","j","NA","space","space","space","NA","j","525","NA","2469","1344","15387","NA","525","2","legacy","1024","2","48000","-16","task","5214234","even","NA","28631","33108","30638","80402","1774","18510","3122","80907","NA","80398","80908","80183","33108","81434","26710","79683","1769","40605","Lexical Decision Task","25","26280","26","yes","1024"
"3.043885998","0","9","gome","non-word","96.29629629629629","96.29629629629629","1004.1481481481482","1004.1481481481482","black","no","legacy","legacy","legacy","0","uniform","1","undefined","undefined","undefined","1","f","0","0","0","0","26","0","0","0","26","NA","22","26","22","0","22","3","26","0","26","Sun 21 Feb 2021 09:10:15 PM GMT","The main experiment item","yes","Lexical_Decision_Task.osexp","/home/claudiacastello18","no","Andale Mono","no","18","no","white","no","no","576","legacy","22","22","3","/home/claudiacastello18/subject-5214234.csv","legacy","Lentiform Loewenfeld","3.3.8a1","yes","yes","600bd7cfb6416f0113b04181","602110864497cf011d9c0822","0","f","NA","space","space","space","NA","f","832","NA","2469","1344","15387","NA","832","2","legacy","1024","2","48000","-16","task","5214234","even","NA","28631","33108","30638","82161","1774","18510","3122","82669","NA","82158","82669","81977","33108","83503","26710","81477","1769","40605","Lexical Decision Task","26","27112","27","yes","1024"
"2.983324025","9.56","2","debt","word","96.42857142857143","96.42857142857143","994.4285714285714","994.4285714285714","black","no","legacy","legacy","legacy","0","uniform","1","undefined","undefined","undefined","1","j","0","0","0","0","27","0","0","0","27","NA","23","27","23","0","23","3","27","0","27","Sun 21 Feb 2021 09:10:15 PM GMT","The main experiment item","yes","Lexical_Decision_Task.osexp","/home/claudiacastello18","no","Andale Mono","no","18","no","white","no","no","576","legacy","23","23","3","/home/claudiacastello18/subject-5214234.csv","legacy","Lentiform Loewenfeld","3.3.8a1","yes","yes","600bd7cfb6416f0113b04181","602110864497cf011d9c0822","0","j","NA","space","space","space","NA","j","732","NA","2469","1344","15387","NA","732","2","legacy","1024","2","48000","-16","task","5214234","even","NA","28631","33108","30638","84204","1774","18510","3122","84706","NA","84201","84707","84026","33108","85440","26710","83526","1769","40605","Lexical Decision Task","27","27844","28","yes","1024"
"3.366547468","0","6","plat","non-word","96.55172413793103","96.55172413793103","985.1724137931035","985.1724137931035","black","no","legacy","legacy","legacy","0","uniform","1","undefined","undefined","undefined","1","f","0","0","0","0","28","0","0","0","28","NA","24","28","24","0","24","3","28","0","28","Sun 21 Feb 2021 09:10:15 PM GMT","The main experiment item","yes","Lexical_Decision_Task.osexp","/home/claudiacastello18","no","Andale Mono","no","18","no","white","no","no","576","legacy","24","24","3","/home/claudiacastello18/subject-5214234.csv","legacy","Lentiform Loewenfeld","3.3.8a1","yes","yes","600bd7cfb6416f0113b04181","602110864497cf011d9c0822","0","f","NA","space","space","space","NA","f","726","NA","2469","1344","15387","NA","726","2","legacy","1024","2","48000","-16","task","5214234","even","NA","28631","33108","30638","86142","1774","18510","3122","86645","NA","86139","86646","85956","33108","87373","26710","85456","1769","40605","Lexical Decision Task","28","28570","29","yes","1024"
"2.996511672","0","7","hoil","non-word","96.66666666666667","96.66666666666667","988.5666666666667","988.5666666666667","black","no","legacy","legacy","legacy","0","uniform","1","undefined","undefined","undefined","1","f","0","0","0","0","29","0","0","0","29","NA","25","29","25","0","25","3","29","0","29","Sun 21 Feb 2021 09:10:15 PM GMT","The main experiment item","yes","Lexical_Decision_Task.osexp","/home/claudiacastello18","no","Andale Mono","no","18","no","white","no","no","576","legacy","25","25","3","/home/claudiacastello18/subject-5214234.csv","legacy","Lentiform Loewenfeld","3.3.8a1","yes","yes","600bd7cfb6416f0113b04181","602110864497cf011d9c0822","0","f","NA","space","space","space","NA","f","1087","NA","2469","1344","15387","NA","1087","2","legacy","1024","2","48000","-16","task","5214234","even","NA","28631","33108","30638","88069","1774","18510","3122","88575","NA","88066","88575","87892","33108","89663","26710","87392","1769","40605","Lexical Decision Task","29","29657","30","yes","1024"
"2.771097306","0","9","jold","non-word","96.7741935483871","96.7741935483871","981.516129032258","981.516129032258","black","no","legacy","legacy","legacy","0","uniform","1","undefined","undefined","undefined","1","f","0","0","0","0","30","0","0","0","30","NA","26","30","26","0","26","3","30","0","30","Sun 21 Feb 2021 09:10:15 PM GMT","The main experiment item","yes","Lexical_Decision_Task.osexp","/home/claudiacastello18","no","Andale Mono","no","18","no","white","no","no","576","legacy","26","26","3","/home/claudiacastello18/subject-5214234.csv","legacy","Lentiform Loewenfeld","3.3.8a1","yes","yes","600bd7cfb6416f0113b04181","602110864497cf011d9c0822","0","f","NA","space","space","space","NA","f","770","NA","2469","1344","15387","NA","770","2","legacy","1024","2","48000","-16","task","5214234","even","NA","28631","33108","30638","90371","1774","18510","3122","90875","NA","90368","90875","90181","33108","91646","26710","89680","1769","40605","Lexical Decision Task","30","30427","31","yes","1024"
"3.028977705","0","7","frow","non-word","96.875","96.875","991.8125","991.8125","black","no","legacy","legacy","legacy","0","uniform","1","undefined","undefined","undefined","1","f","0","0","0","0","31","0","0","0","31","NA","27","31","27","0","27","3","31","0","31","Sun 21 Feb 2021 09:10:15 PM GMT","The main experiment item","yes","Lexical_Decision_Task.osexp","/home/claudiacastello18","no","Andale Mono","no","18","no","white","no","no","576","legacy","27","27","3","/home/claudiacastello18/subject-5214234.csv","legacy","Lentiform Loewenfeld","3.3.8a1","yes","yes","600bd7cfb6416f0113b04181","602110864497cf011d9c0822","0","f","NA","space","space","space","NA","f","1311","NA","2469","1344","15387","NA","1311","2","legacy","1024","2","48000","-16","task","5214234","even","NA","28631","33108","30638","92433","1774","18510","3122","92937","NA","92428","92937","92164","33108","94249","26710","91664","1769","40605","Lexical Decision Task","31","31738","32","yes","1024"
"3.299579929","0","2","flis","non-word","96.96969696969697","96.96969696969697","984.4545454545455","984.4545454545455","black","no","legacy","legacy","legacy","0","uniform","1","undefined","undefined","undefined","1","f","0","0","0","0","32","0","0","0","32","NA","28","32","28","0","28","3","32","0","32","Sun 21 Feb 2021 09:10:15 PM GMT","The main experiment item","yes","Lexical_Decision_Task.osexp","/home/claudiacastello18","no","Andale Mono","no","18","no","white","no","no","576","legacy","28","28","3","/home/claudiacastello18/subject-5214234.csv","legacy","Lentiform Loewenfeld","3.3.8a1","yes","yes","600bd7cfb6416f0113b04181","602110864497cf011d9c0822","0","f","NA","space","space","space","NA","f","749","NA","2469","1344","15387","NA","749","2","legacy","1024","2","48000","-16","task","5214234","even","NA","28631","33108","30638","94956","1774","18510","3122","95464","NA","94953","95466","94768","33108","96216","26710","94268","1769","40605","Lexical Decision Task","32","32487","33","yes","1024"
"2.82129731","6.72","5","plum","word","97.05882352941177","97.05882352941177","973.0882352941177","973.0882352941177","black","no","legacy","legacy","legacy","0","uniform","1","undefined","undefined","undefined","1","j","0","0","0","0","33","0","0","0","33","NA","29","33","29","0","29","3","33","0","33","Sun 21 Feb 2021 09:10:15 PM GMT","The main experiment item","yes","Lexical_Decision_Task.osexp","/home/claudiacastello18","no","Andale Mono","no","18","no","white","no","no","576","legacy","29","29","3","/home/claudiacastello18/subject-5214234.csv","legacy","Lentiform Loewenfeld","3.3.8a1","yes","yes","600bd7cfb6416f0113b04181","602110864497cf011d9c0822","0","j","NA","space","space","space","NA","j","598","NA","2469","1344","15387","NA","598","2","legacy","1024","2","48000","-16","task","5214234","even","NA","28631","33108","30638","96980","1774","18510","3122","97485","NA","96977","97486","96738","33108","98085","26710","96232","1769","40605","Lexical Decision Task","33","33085","34","yes","1024"
"3.067193647","6.73","6","raft","word","97.14285714285714","97.14285714285714","963.1428571428571","963.1428571428571","black","no","legacy","legacy","legacy","0","uniform","1","undefined","undefined","undefined","1","j","0","0","0","0","34","0","0","0","34","NA","30","34","30","0","30","3","34","0","34","Sun 21 Feb 2021 09:10:15 PM GMT","The main experiment item","yes","Lexical_Decision_Task.osexp","/home/claudiacastello18","no","Andale Mono","no","18","no","white","no","no","576","legacy","30","30","3","/home/claudiacastello18/subject-5214234.csv","legacy","Lentiform Loewenfeld","3.3.8a1","yes","yes","600bd7cfb6416f0113b04181","602110864497cf011d9c0822","0","j","NA","space","space","space","NA","j","625","NA","2469","1344","15387","NA","625","2","legacy","1024","2","48000","-16","task","5214234","even","NA","28631","33108","30638","98790","1774","18510","3122","99294","NA","98787","99295","98606","33108","99922","26710","98106","1769","40605","Lexical Decision Task","34","33710","35","yes","1024"
"2.897810299","0","5","glur","non-word","97.22222222222223","97.22222222222223","953.0833333333334","953.0833333333334","black","no","legacy","legacy","legacy","0","uniform","1","undefined","undefined","undefined","1","f","0","0","0","0","35","0","0","0","35","NA","31","35","31","0","31","3","35","0","35","Sun 21 Feb 2021 09:10:15 PM GMT","The main experiment item","yes","Lexical_Decision_Task.osexp","/home/claudiacastello18","no","Andale Mono","no","18","no","white","no","no","576","legacy","31","31","3","/home/claudiacastello18/subject-5214234.csv","legacy","Lentiform Loewenfeld","3.3.8a1","yes","yes","600bd7cfb6416f0113b04181","602110864497cf011d9c0822","0","f","NA","space","space","space","NA","f","601","NA","2469","1344","15387","NA","601","2","legacy","1024","2","48000","-16","task","5214234","even","NA","28631","33108","30638","100617","1774","18510","3122","101122","NA","100613","101123","100442","33108","101725","26710","99942","1769","40605","Lexical Decision Task","35","34311","36","yes","1024"
"2.675164031","8.57","6","glue","word","97.29729729729729","97.29729729729729","941.6756756756756","941.6756756756756","black","no","legacy","legacy","legacy","0","uniform","1","undefined","undefined","undefined","1","j","0","0","0","0","36","0","0","0","36","NA","32","36","32","0","32","3","36","0","36","Sun 21 Feb 2021 09:10:15 PM GMT","The main experiment item","yes","Lexical_Decision_Task.osexp","/home/claudiacastello18","no","Andale Mono","no","18","no","white","no","no","576","legacy","32","32","3","/home/claudiacastello18/subject-5214234.csv","legacy","Lentiform Loewenfeld","3.3.8a1","yes","yes","600bd7cfb6416f0113b04181","602110864497cf011d9c0822","0","j","NA","space","space","space","NA","j","531","NA","2469","1344","15387","NA","531","2","legacy","1024","2","48000","-16","task","5214234","even","NA","28631","33108","30638","102557","1774","18510","3122","103063","NA","102552","103065","102247","33108","103606","26710","101747","1769","40605","Lexical Decision Task","36","34842","37","yes","1024"
"2.6599162","0","2","saff","non-word","97.36842105263158","97.36842105263158","945.3157894736842","945.3157894736842","black","no","legacy","legacy","legacy","0","uniform","1","undefined","undefined","undefined","1","f","0","0","0","0","37","0","0","0","37","NA","33","37","33","0","33","3","37","0","37","Sun 21 Feb 2021 09:10:15 PM GMT","The main experiment item","yes","Lexical_Decision_Task.osexp","/home/claudiacastello18","no","Andale Mono","no","18","no","white","no","no","576","legacy","33","33","3","/home/claudiacastello18/subject-5214234.csv","legacy","Lentiform Loewenfeld","3.3.8a1","yes","yes","600bd7cfb6416f0113b04181","602110864497cf011d9c0822","0","f","NA","space","space","space","NA","f","1080","NA","2469","1344","15387","NA","1080","2","legacy","1024","2","48000","-16","task","5214234","even","NA","28631","33108","30638","104323","1774","18510","3122","104828","NA","104320","104828","104148","33108","105910","26710","103647","1769","40605","Lexical Decision Task","37","35922","38","yes","1024"
"3.474361976","5.24","6","veer","word","94.87179487179488","94.87179487179488","936.0512820512821","936.0512820512821","black","no","legacy","legacy","legacy","0","uniform","0","undefined","undefined","undefined","0","j","0","0","0","0","38","0","0","0","38","NA","34","38","34","0","34","3","38","0","38","Sun 21 Feb 2021 09:10:15 PM GMT","The main experiment item","yes","Lexical_Decision_Task.osexp","/home/claudiacastello18","no","Andale Mono","no","18","no","white","no","no","576","legacy","34","34","3","/home/claudiacastello18/subject-5214234.csv","legacy","Lentiform Loewenfeld","3.3.8a1","yes","yes","600bd7cfb6416f0113b04181","602110864497cf011d9c0822","0","f","NA","space","space","space","NA","f","584","NA","2469","1344","15387","NA","584","2","legacy","1024","2","48000","-16","task","5214234","even","NA","28631","33108","30638","106650","1774","18510","3122","107153","NA","106647","107153","106470","33108","107739","26710","105969","1769","40605","Lexical Decision Task","37","36506","39","yes","1024"
"2.842815106","7.86","8","lump","word","95","95","926.525","926.525","black","no","legacy","legacy","legacy","0","uniform","1","undefined","undefined","undefined","1","j","0","0","0","0","39","0","0","0","39","NA","35","39","35","0","35","3","39","0","39","Sun 21 Feb 2021 09:10:15 PM GMT","The main experiment item","yes","Lexical_Decision_Task.osexp","/home/claudiacastello18","no","Andale Mono","no","18","no","white","no","no","576","legacy","35","35","3","/home/claudiacastello18/subject-5214234.csv","legacy","Lentiform Loewenfeld","3.3.8a1","yes","yes","600bd7cfb6416f0113b04181","602110864497cf011d9c0822","0","j","NA","space","space","space","NA","j","555","NA","2469","1344","15387","NA","555","2","legacy","1024","2","48000","-16","task","5214234","even","NA","28631","33108","30638","109436","1774","18510","3122","109941","NA","109433","109941","109257","33108","110498","26710","105969","1769","107757","Lexical Decision Task","38","37061","40","yes","1024"
"3.20871002","7.15","8","cram","word","95.1219512195122","95.1219512195122","923.829268292683","923.829268292683","black","no","legacy","legacy","legacy","0","uniform","1","undefined","undefined","undefined","1","j","0","0","0","0","40","0","0","0","40","NA","36","40","36","0","36","3","40","0","40","Sun 21 Feb 2021 09:10:15 PM GMT","The main experiment item","yes","Lexical_Decision_Task.osexp","/home/claudiacastello18","no","Andale Mono","no","18","no","white","no","no","576","legacy","36","36","3","/home/claudiacastello18/subject-5214234.csv","legacy","Lentiform Loewenfeld","3.3.8a1","yes","yes","600bd7cfb6416f0113b04181","602110864497cf011d9c0822","0","j","NA","space","space","space","NA","j","816","NA","2469","1344","15387","NA","816","2","legacy","1024","2","48000","-16","task","5214234","even","NA","28631","33108","30638","111265","1774","18510","3122","111770","NA","111260","111771","111014","33108","112588","26710","110514","1769","107757","Lexical Decision Task","39","37877","41","yes","1024"
"3.134602053","0","8","jart","non-word","95.23809523809524","95.23809523809524","919.1428571428571","919.1428571428571","black","no","legacy","legacy","legacy","0","uniform","1","undefined","undefined","undefined","1","f","0","0","0","0","41","0","0","0","41","NA","37","41","37","0","37","3","41","0","41","Sun 21 Feb 2021 09:10:15 PM GMT","The main experiment item","yes","Lexical_Decision_Task.osexp","/home/claudiacastello18","no","Andale Mono","no","18","no","white","no","no","576","legacy","37","37","3","/home/claudiacastello18/subject-5214234.csv","legacy","Lentiform Loewenfeld","3.3.8a1","yes","yes","600bd7cfb6416f0113b04181","602110864497cf011d9c0822","0","f","NA","space","space","space","NA","f","727","NA","2469","1344","15387","NA","727","2","legacy","1024","2","48000","-16","task","5214234","even","NA","28631","33108","30638","113329","1774","18510","3122","113834","NA","113326","113834","113147","33108","114562","26710","112646","1769","107757","Lexical Decision Task","40","38604","42","yes","1024"
"3.153104174","10.89","6","door","word","95.34883720930233","95.34883720930233","910.9069767441861","910.9069767441861","black","no","legacy","legacy","legacy","0","uniform","1","undefined","undefined","undefined","1","j","0","0","0","0","42","0","0","0","42","NA","38","42","38","0","38","3","42","0","42","Sun 21 Feb 2021 09:10:15 PM GMT","The main experiment item","yes","Lexical_Decision_Task.osexp","/home/claudiacastello18","no","Andale Mono","no","18","no","white","no","no","576","legacy","38","38","3","/home/claudiacastello18/subject-5214234.csv","legacy","Lentiform Loewenfeld","3.3.8a1","yes","yes","600bd7cfb6416f0113b04181","602110864497cf011d9c0822","0","j","NA","space","space","space","NA","j","565","NA","2469","1344","15387","NA","565","2","legacy","1024","2","48000","-16","task","5214234","even","NA","28631","33108","30638","115286","1774","18510","3122","115792","NA","115283","115792","115087","33108","116358","26710","114586","1769","107757","Lexical Decision Task","41","39169","43","yes","1024"
"2.952953801","0","8","clax","non-word","95.45454545454545","95.45454545454545","909","909","black","no","legacy","legacy","legacy","0","uniform","1","undefined","undefined","undefined","1","f","0","0","0","0","43","0","0","0","43","NA","39","43","39","0","39","3","43","0","43","Sun 21 Feb 2021 09:10:15 PM GMT","The main experiment item","yes","Lexical_Decision_Task.osexp","/home/claudiacastello18","no","Andale Mono","no","18","no","white","no","no","576","legacy","39","39","3","/home/claudiacastello18/subject-5214234.csv","legacy","Lentiform Loewenfeld","3.3.8a1","yes","yes","600bd7cfb6416f0113b04181","602110864497cf011d9c0822","0","f","NA","space","space","space","NA","f","827","NA","2469","1344","15387","NA","827","2","legacy","1024","2","48000","-16","task","5214234","even","NA","28631","33108","30638","117058","1774","18510","3122","117562","NA","117055","117562","116876","33108","118391","26710","116376","1769","107757","Lexical Decision Task","42","39996","44","yes","1024"
"2.899638141","0","3","hapt","non-word","95.55555555555556","95.55555555555556","903.3555555555556","903.3555555555556","black","no","legacy","legacy","legacy","0","uniform","1","undefined","undefined","undefined","1","f","0","0","0","0","44","0","0","0","44","NA","40","44","40","0","40","3","44","0","44","Sun 21 Feb 2021 09:10:15 PM GMT","The main experiment item","yes","Lexical_Decision_Task.osexp","/home/claudiacastello18","no","Andale Mono","no","18","no","white","no","no","576","legacy","40","40","3","/home/claudiacastello18/subject-5214234.csv","legacy","Lentiform Loewenfeld","3.3.8a1","yes","yes","600bd7cfb6416f0113b04181","602110864497cf011d9c0822","0","f","NA","space","space","space","NA","f","655","NA","2469","1344","15387","NA","655","2","legacy","1024","2","48000","-16","task","5214234","even","NA","28631","33108","30638","119113","1774","18510","3122","119617","NA","119109","119618","118928","33108","120274","26710","118427","1769","107757","Lexical Decision Task","43","40651","45","yes","1024"
"3.195807436","0","6","stup","non-word","95.65217391304348","95.65217391304348","902.4347826086956","902.4347826086956","black","no","legacy","legacy","legacy","0","uniform","1","undefined","undefined","undefined","1","f","0","0","0","0","45","0","0","0","45","NA","41","45","41","0","41","3","45","0","45","Sun 21 Feb 2021 09:10:15 PM GMT","The main experiment item","yes","Lexical_Decision_Task.osexp","/home/claudiacastello18","no","Andale Mono","no","18","no","white","no","no","576","legacy","41","41","3","/home/claudiacastello18/subject-5214234.csv","legacy","Lentiform Loewenfeld","3.3.8a1","yes","yes","600bd7cfb6416f0113b04181","602110864497cf011d9c0822","0","f","NA","space","space","space","NA","f","861","NA","2469","1344","15387","NA","861","2","legacy","1024","2","48000","-16","task","5214234","even","NA","28631","33108","30638","120990","1774","18510","3122","121494","NA","120982","121494","120791","33108","122357","26710","120290","1769","107757","Lexical Decision Task","44","41512","46","yes","1024"
"3.159867847","5.98","5","brim","word","95.74468085106383","95.74468085106383","920.5744680851063","920.5744680851063","black","no","legacy","legacy","legacy","0","uniform","1","undefined","undefined","undefined","1","j","0","0","0","0","46","0","0","0","46","NA","42","46","42","0","42","3","46","0","46","Sun 21 Feb 2021 09:10:15 PM GMT","The main experiment item","yes","Lexical_Decision_Task.osexp","/home/claudiacastello18","no","Andale Mono","no","18","no","white","no","no","576","legacy","42","42","3","/home/claudiacastello18/subject-5214234.csv","legacy","Lentiform Loewenfeld","3.3.8a1","yes","yes","600bd7cfb6416f0113b04181","602110864497cf011d9c0822","0","j","NA","space","space","space","NA","j","1755","NA","2469","1344","15387","NA","1755","2","legacy","1024","2","48000","-16","task","5214234","even","NA","28631","33108","30638","123062","1774","18510","3122","123566","NA","123059","123567","122876","33108","125323","26710","122376","1769","107757","Lexical Decision Task","45","43267","47","yes","1024"
"2.64476673","0","5","moft","non-word","95.83333333333333","95.83333333333333","914.7291666666666","914.7291666666666","black","no","legacy","legacy","legacy","0","uniform","1","undefined","undefined","undefined","1","f","0","0","0","0","47","0","0","0","47","NA","43","47","43","0","43","3","47","0","47","Sun 21 Feb 2021 09:10:15 PM GMT","The main experiment item","yes","Lexical_Decision_Task.osexp","/home/claudiacastello18","no","Andale Mono","no","18","no","white","no","no","576","legacy","43","43","3","/home/claudiacastello18/subject-5214234.csv","legacy","Lentiform Loewenfeld","3.3.8a1","yes","yes","600bd7cfb6416f0113b04181","602110864497cf011d9c0822","0","f","NA","space","space","space","NA","f","640","NA","2469","1344","15387","NA","640","2","legacy","1024","2","48000","-16","task","5214234","even","NA","28631","33108","30638","126031","1774","18510","3122","126535","NA","126028","126536","125857","33108","127177","26710","125357","1769","107757","Lexical Decision Task","46","43907","48","yes","1024"
"2.895974732","6.65","5","sift","word","95.91836734693878","95.91836734693878","919.8775510204082","919.8775510204082","black","no","legacy","legacy","legacy","0","uniform","1","undefined","undefined","undefined","1","j","0","0","0","0","48","0","0","0","48","NA","44","48","44","0","44","3","48","0","48","Sun 21 Feb 2021 09:10:15 PM GMT","The main experiment item","yes","Lexical_Decision_Task.osexp","/home/claudiacastello18","no","Andale Mono","no","18","no","white","no","no","576","legacy","44","44","3","/home/claudiacastello18/subject-5214234.csv","legacy","Lentiform Loewenfeld","3.3.8a1","yes","yes","600bd7cfb6416f0113b04181","602110864497cf011d9c0822","0","j","NA","space","space","space","NA","j","1167","NA","2469","1344","15387","NA","1167","2","legacy","1024","2","48000","-16","task","5214234","even","NA","28631","33108","30638","127919","1774","18510","3122","128424","NA","127916","128424","127736","33108","129593","26710","127234","1769","107757","Lexical Decision Task","47","45074","49","yes","1024"
"2.799799878","0","4","ciff","non-word","96","96","920.1","920.1","black","no","legacy","legacy","legacy","0","uniform","1","undefined","undefined","undefined","1","f","0","0","0","0","49","0","0","0","49","NA","45","49","45","0","45","3","49","0","49","Sun 21 Feb 2021 09:10:15 PM GMT","The main experiment item","yes","Lexical_Decision_Task.osexp","/home/claudiacastello18","no","Andale Mono","no","18","no","white","no","no","576","legacy","45","45","3","/home/claudiacastello18/subject-5214234.csv","legacy","Lentiform Loewenfeld","3.3.8a1","yes","yes","600bd7cfb6416f0113b04181","602110864497cf011d9c0822","0","f","NA","space","space","space","NA","f","931","NA","2469","1344","15387","NA","931","2","legacy","1024","2","48000","-16","task","5214234","even","NA","28631","33108","30638","130303","1774","18510","3122","130809","NA","130301","130810","130125","33108","131742","26710","129624","1769","107757","Lexical Decision Task","48","46005","50","yes","1024"
"3.374137706","10.21","4","tree","word","96.07843137254902","96.07843137254902","913.9803921568628","913.9803921568628","black","no","legacy","legacy","legacy","0","uniform","1","undefined","undefined","undefined","1","j","0","0","0","0","50","0","0","0","50","NA","46","50","46","0","46","3","50","0","50","Sun 21 Feb 2021 09:10:15 PM GMT","The main experiment item","yes","Lexical_Decision_Task.osexp","/home/claudiacastello18","no","Andale Mono","no","18","no","white","no","no","576","legacy","46","46","3","/home/claudiacastello18/subject-5214234.csv","legacy","Lentiform Loewenfeld","3.3.8a1","yes","yes","600bd7cfb6416f0113b04181","602110864497cf011d9c0822","0","j","NA","space","space","space","NA","j","608","NA","2469","1344","15387","NA","608","2","legacy","1024","2","48000","-16","task","5214234","even","NA","28631","33108","30638","132466","1774","18510","3122","132973","NA","132463","132973","132287","33108","133583","26710","131787","1769","107757","Lexical Decision Task","49","46613","51","yes","1024"
"3.208172527","10.27","7","deck","word","96.15384615384616","96.15384615384616","920.1538461538462","920.1538461538462","black","no","legacy","legacy","legacy","0","uniform","1","undefined","undefined","undefined","1","j","0","0","0","0","51","0","0","0","51","NA","47","51","47","0","47","3","51","0","51","Sun 21 Feb 2021 09:10:15 PM GMT","The main experiment item","yes","Lexical_Decision_Task.osexp","/home/claudiacastello18","no","Andale Mono","no","18","no","white","no","no","576","legacy","47","47","3","/home/claudiacastello18/subject-5214234.csv","legacy","Lentiform Loewenfeld","3.3.8a1","yes","yes","600bd7cfb6416f0113b04181","602110864497cf011d9c0822","0","j","NA","space","space","space","NA","j","1235","NA","2469","1344","15387","NA","1235","2","legacy","1024","2","48000","-16","task","5214234","even","NA","28631","33108","30638","134268","1774","18510","3122","134774","NA","134265","134774","134101","33108","136010","26710","133601","1769","107757","Lexical Decision Task","50","47848","52","yes","1024"
"3.194328374","9.42","6","harm","word","96.22641509433963","96.22641509433963","926.5849056603773","926.5849056603773","black","no","legacy","legacy","legacy","0","uniform","1","undefined","undefined","undefined","1","j","0","0","0","0","52","0","0","0","52","NA","48","52","48","0","48","3","52","0","52","Sun 21 Feb 2021 09:10:15 PM GMT","The main experiment item","yes","Lexical_Decision_Task.osexp","/home/claudiacastello18","no","Andale Mono","no","18","no","white","no","no","576","legacy","48","48","3","/home/claudiacastello18/subject-5214234.csv","legacy","Lentiform Loewenfeld","3.3.8a1","yes","yes","600bd7cfb6416f0113b04181","602110864497cf011d9c0822","0","j","NA","space","space","space","NA","j","1261","NA","2469","1344","15387","NA","1261","2","legacy","1024","2","48000","-16","task","5214234","even","NA","28631","33108","30638","136757","1774","18510","3122","137261","NA","136753","137261","136574","33108","138524","26710","136074","1769","107757","Lexical Decision Task","51","49109","53","yes","1024"
"3.102203805","7.21","3","drip","word","96.29629629629629","96.29629629629629","922.1481481481482","922.1481481481482","black","no","legacy","legacy","legacy","0","uniform","1","undefined","undefined","undefined","1","j","0","0","0","0","53","0","0","0","53","NA","49","53","49","0","49","3","53","0","53","Sun 21 Feb 2021 09:10:15 PM GMT","The main experiment item","yes","Lexical_Decision_Task.osexp","/home/claudiacastello18","no","Andale Mono","no","18","no","white","no","no","576","legacy","49","49","3","/home/claudiacastello18/subject-5214234.csv","legacy","Lentiform Loewenfeld","3.3.8a1","yes","yes","600bd7cfb6416f0113b04181","602110864497cf011d9c0822","0","j","NA","space","space","space","NA","j","687","NA","2469","1344","15387","NA","687","2","legacy","1024","2","48000","-16","task","5214234","even","NA","28631","33108","30638","139245","1774","18510","3122","139750","NA","139242","139753","139042","33108","140442","26710","138541","1769","107757","Lexical Decision Task","52","49796","54","yes","1024"
"3.156347201","0","8","lasp","non-word","96.36363636363636","96.36363636363636","919.8909090909091","919.8909090909091","black","no","legacy","legacy","legacy","0","uniform","1","undefined","undefined","undefined","1","f","0","0","0","0","54","0","0","0","54","0","50","54","50","0","50","3","54","0","54","Sun 21 Feb 2021 09:10:15 PM GMT","The main experiment item","yes","Lexical_Decision_Task.osexp","/home/claudiacastello18","no","Andale Mono","no","18","no","white","no","no","576","legacy","50","50","3","/home/claudiacastello18/subject-5214234.csv","legacy","Lentiform Loewenfeld","3.3.8a1","yes","yes","600bd7cfb6416f0113b04181","602110864497cf011d9c0822","0","f","NA","space","space","space","space","f","798","NA","2469","1344","15387","4069","798","2","legacy","1024","2","48000","-16","task","5214234","even","NA","28631","33108","30638","145319","1774","18510","3122","145823","141069","145316","145823","141003","33108","146622","26710","140503","1769","107757","Lexical Decision Task","53","50594","55","yes","1024"
"3.363486562","6.93","9","lush","word","96.42857142857143","96.42857142857143","911.6785714285714","911.6785714285714","black","no","legacy","legacy","legacy","0","uniform","1","undefined","undefined","undefined","1","j","0","0","0","0","55","0","0","0","55","0","51","55","51","0","51","3","55","0","55","Sun 21 Feb 2021 09:10:15 PM GMT","The main experiment item","yes","Lexical_Decision_Task.osexp","/home/claudiacastello18","no","Andale Mono","no","18","no","white","no","no","576","legacy","51","51","3","/home/claudiacastello18/subject-5214234.csv","legacy","Lentiform Loewenfeld","3.3.8a1","yes","yes","600bd7cfb6416f0113b04181","602110864497cf011d9c0822","0","j","NA","space","space","space","space","j","460","NA","2469","1344","15387","4069","460","2","legacy","1024","2","48000","-16","task","5214234","even","NA","28631","33108","30638","147399","1774","18510","3122","147903","141069","147395","147904","147139","33108","148366","26710","146639","1769","107757","Lexical Decision Task","54","51054","56","yes","1024"
"3.064581521","5.51","6","cask","word","94.73684210526316","94.73684210526316","909.9473684210526","909.9473684210526","black","no","legacy","legacy","legacy","0","uniform","0","undefined","undefined","undefined","0","j","0","0","0","0","56","0","0","0","56","0","52","56","52","0","52","3","56","0","56","Sun 21 Feb 2021 09:10:15 PM GMT","The main experiment item","yes","Lexical_Decision_Task.osexp","/home/claudiacastello18","no","Andale Mono","no","18","no","white","no","no","576","legacy","52","52","3","/home/claudiacastello18/subject-5214234.csv","legacy","Lentiform Loewenfeld","3.3.8a1","yes","yes","600bd7cfb6416f0113b04181","602110864497cf011d9c0822","0","f","NA","space","space","space","space","f","813","NA","2469","1344","15387","4069","813","2","legacy","1024","2","48000","-16","task","5214234","even","NA","28631","33108","30638","149094","1774","18510","3122","149597","141069","149091","149598","148911","33108","150413","26710","148409","1769","107757","Lexical Decision Task","54","51867","57","yes","1024"
"3.037294994","8.64","7","roof","word","94.82758620689656","94.82758620689656","906.2758620689655","906.2758620689655","black","no","legacy","legacy","legacy","0","uniform","1","undefined","undefined","undefined","1","j","0","0","0","0","57","0","0","0","57","0","53","57","53","0","53","3","57","0","57","Sun 21 Feb 2021 09:10:15 PM GMT","The main experiment item","yes","Lexical_Decision_Task.osexp","/home/claudiacastello18","no","Andale Mono","no","18","no","white","no","no","576","legacy","53","53","3","/home/claudiacastello18/subject-5214234.csv","legacy","Lentiform Loewenfeld","3.3.8a1","yes","yes","600bd7cfb6416f0113b04181","602110864497cf011d9c0822","0","j","NA","space","space","space","space","j","697","NA","2469","1344","15387","4069","697","2","legacy","1024","2","48000","-16","task","5214234","even","NA","28631","33108","30638","152139","1774","18510","3122","152648","141069","152134","152648","151955","33108","153346","26710","148409","1769","150455","Lexical Decision Task","55","52564","58","yes","1024"
"3.443783828","7.65","3","verb","word","94.91525423728814","94.91525423728814","900.2881355932203","900.2881355932203","black","no","legacy","legacy","legacy","0","uniform","1","undefined","undefined","undefined","1","j","0","0","0","0","58","0","0","0","58","0","54","58","54","0","54","3","58","0","58","Sun 21 Feb 2021 09:10:15 PM GMT","The main experiment item","yes","Lexical_Decision_Task.osexp","/home/claudiacastello18","no","Andale Mono","no","18","no","white","no","no","576","legacy","54","54","3","/home/claudiacastello18/subject-5214234.csv","legacy","Lentiform Loewenfeld","3.3.8a1","yes","yes","600bd7cfb6416f0113b04181","602110864497cf011d9c0822","0","j","NA","space","space","space","space","j","553","NA","2469","1344","15387","4069","553","2","legacy","1024","2","48000","-16","task","5214234","even","NA","28631","33108","30638","154042","1774","18510","3122","154547","141069","154039","154548","153865","33108","155103","26710","153364","1769","150455","Lexical Decision Task","56","53117","59","yes","1024"
"2.953276337","6.32","4","thaw","word","93.33333333333333","93.33333333333333","896.6166666666667","896.6166666666667","black","no","legacy","legacy","legacy","0","uniform","0","undefined","undefined","undefined","0","j","0","0","0","0","59","0","0","0","59","0","55","59","55","0","55","3","59","0","59","Sun 21 Feb 2021 09:10:15 PM GMT","The main experiment item","yes","Lexical_Decision_Task.osexp","/home/claudiacastello18","no","Andale Mono","no","18","no","white","no","no","576","legacy","55","55","3","/home/claudiacastello18/subject-5214234.csv","legacy","Lentiform Loewenfeld","3.3.8a1","yes","yes","600bd7cfb6416f0113b04181","602110864497cf011d9c0822","0","f","NA","space","space","space","space","f","680","NA","2469","1344","15387","4069","680","2","legacy","1024","2","48000","-16","task","5214234","even","NA","28631","33108","30638","155830","1774","18510","3122","156335","141069","155827","156335","155659","33108","157017","26710","155159","1769","150455","Lexical Decision Task","56","53797","60","yes","1024"
"3.303771854","0","9","dath","non-word","93.44262295081967","93.44262295081967","895.8032786885246","895.8032786885246","black","no","legacy","legacy","legacy","0","uniform","1","undefined","undefined","undefined","1","f","0","0","0","0","60","0","0","0","60","0","56","60","56","0","56","3","60","0","60","Sun 21 Feb 2021 09:10:15 PM GMT","The main experiment item","yes","Lexical_Decision_Task.osexp","/home/claudiacastello18","no","Andale Mono","no","18","no","white","no","no","576","legacy","56","56","3","/home/claudiacastello18/subject-5214234.csv","legacy","Lentiform Loewenfeld","3.3.8a1","yes","yes","600bd7cfb6416f0113b04181","602110864497cf011d9c0822","0","f","NA","space","space","space","space","f","847","NA","2469","1344","15387","4069","847","2","legacy","1024","2","48000","-16","task","5214234","even","NA","28631","33108","30638","158761","1774","18510","3122","159266","141069","158758","159269","158582","33108","160117","26710","155159","1769","157082","Lexical Decision Task","57","54644","61","yes","1024"
"2.813801082","5.47","7","nook","word","93.54838709677419","93.54838709677419","893.3870967741935","893.3870967741935","black","no","legacy","legacy","legacy","0","uniform","1","undefined","undefined","undefined","1","j","0","0","0","0","61","0","0","0","61","0","57","61","57","0","57","3","61","0","61","Sun 21 Feb 2021 09:10:15 PM GMT","The main experiment item","yes","Lexical_Decision_Task.osexp","/home/claudiacastello18","no","Andale Mono","no","18","no","white","no","no","576","legacy","57","57","3","/home/claudiacastello18/subject-5214234.csv","legacy","Lentiform Loewenfeld","3.3.8a1","yes","yes","600bd7cfb6416f0113b04181","602110864497cf011d9c0822","0","j","NA","space","space","space","space","j","746","NA","2469","1344","15387","4069","746","2","legacy","1024","2","48000","-16","task","5214234","even","NA","28631","33108","30638","160810","1774","18510","3122","161313","141069","160807","161313","160636","33108","162061","26710","160135","1769","157082","Lexical Decision Task","58","55390","62","yes","1024"
"2.708989954","9.28","9","bowl","word","93.65079365079364","93.65079365079364","889.6190476190476","889.6190476190476","black","no","legacy","legacy","legacy","0","uniform","1","undefined","undefined","undefined","1","j","0","0","0","0","62","0","0","0","62","0","58","62","58","0","58","3","62","0","62","Sun 21 Feb 2021 09:10:15 PM GMT","The main experiment item","yes","Lexical_Decision_Task.osexp","/home/claudiacastello18","no","Andale Mono","no","18","no","white","no","no","576","legacy","58","58","3","/home/claudiacastello18/subject-5214234.csv","legacy","Lentiform Loewenfeld","3.3.8a1","yes","yes","600bd7cfb6416f0113b04181","602110864497cf011d9c0822","0","j","NA","space","space","space","space","j","656","NA","2469","1344","15387","4069","656","2","legacy","1024","2","48000","-16","task","5214234","even","NA","28631","33108","30638","162799","1774","18510","3122","163302","141069","162795","163302","162621","33108","163960","26710","162121","1769","157082","Lexical Decision Task","59","56046","63","yes","1024"
"3.302475237","0","7","leel","non-word","93.75","93.75","887.703125","887.703125","black","no","legacy","legacy","legacy","0","uniform","1","undefined","undefined","undefined","1","f","0","0","0","0","63","0","0","0","63","0","59","63","59","0","59","3","63","0","63","Sun 21 Feb 2021 09:10:15 PM GMT","The main experiment item","yes","Lexical_Decision_Task.osexp","/home/claudiacastello18","no","Andale Mono","no","18","no","white","no","no","576","legacy","59","59","3","/home/claudiacastello18/subject-5214234.csv","legacy","Lentiform Loewenfeld","3.3.8a1","yes","yes","600bd7cfb6416f0113b04181","602110864497cf011d9c0822","0","f","NA","space","space","space","space","f","767","NA","2469","1344","15387","4069","767","2","legacy","1024","2","48000","-16","task","5214234","even","NA","28631","33108","30638","164782","1774","18510","3122","165286","141069","164779","165287","164482","33108","166056","26710","163981","1769","157082","Lexical Decision Task","60","56813","64","yes","1024"
"3.529815197","0","3","lerm","non-word","93.84615384615384","93.84615384615384","884.7538461538461","884.7538461538461","black","no","legacy","legacy","legacy","0","uniform","1","undefined","undefined","undefined","1","f","0","0","0","0","64","0","0","0","64","0","60","64","60","0","60","3","64","0","64","Sun 21 Feb 2021 09:10:15 PM GMT","The main experiment item","yes","Lexical_Decision_Task.osexp","/home/claudiacastello18","no","Andale Mono","no","18","no","white","no","no","576","legacy","60","60","3","/home/claudiacastello18/subject-5214234.csv","legacy","Lentiform Loewenfeld","3.3.8a1","yes","yes","600bd7cfb6416f0113b04181","602110864497cf011d9c0822","0","f","NA","space","space","space","space","f","696","NA","2469","1344","15387","4069","696","2","legacy","1024","2","48000","-16","task","5214234","even","NA","28631","33108","30638","166752","1774","18510","3122","167255","141069","166749","167256","166572","33108","167954","26710","166072","1769","157082","Lexical Decision Task","61","57509","65","yes","1024"
"2.7084209","0","8","vump","non-word","93.93939393939394","93.93939393939394","889.060606060606","889.060606060606","black","no","legacy","legacy","legacy","0","uniform","1","undefined","undefined","undefined","1","f","0","0","0","0","65","0","0","0","65","0","61","65","61","0","61","3","65","0","65","Sun 21 Feb 2021 09:10:15 PM GMT","The main experiment item","yes","Lexical_Decision_Task.osexp","/home/claudiacastello18","no","Andale Mono","no","18","no","white","no","no","576","legacy","61","61","3","/home/claudiacastello18/subject-5214234.csv","legacy","Lentiform Loewenfeld","3.3.8a1","yes","yes","600bd7cfb6416f0113b04181","602110864497cf011d9c0822","0","f","NA","space","space","space","space","f","1169","NA","2469","1344","15387","4069","1169","2","legacy","1024","2","48000","-16","task","5214234","even","NA","28631","33108","30638","168663","1774","18510","3122","169165","141069","168657","169166","168481","33108","170337","26710","167981","1769","157082","Lexical Decision Task","62","58678","66","yes","1024"
"2.884795364","0","6","flob","non-word","94.02985074626865","94.02985074626865","894.0895522388059","894.0895522388059","black","no","legacy","legacy","legacy","0","uniform","1","undefined","undefined","undefined","1","f","0","0","0","0","66","0","0","0","66","0","62","66","62","0","62","3","66","0","66","Sun 21 Feb 2021 09:10:15 PM GMT","The main experiment item","yes","Lexical_Decision_Task.osexp","/home/claudiacastello18","no","Andale Mono","no","18","no","white","no","no","576","legacy","62","62","3","/home/claudiacastello18/subject-5214234.csv","legacy","Lentiform Loewenfeld","3.3.8a1","yes","yes","600bd7cfb6416f0113b04181","602110864497cf011d9c0822","0","f","NA","space","space","space","space","f","1226","NA","2469","1344","15387","4069","1226","2","legacy","1024","2","48000","-16","task","5214234","even","NA","28631","33108","30638","171059","1774","18510","3122","171562","141069","171056","171563","170881","33108","172790","26710","170381","1769","157082","Lexical Decision Task","63","59904","67","yes","1024"
"2.664011697","8.19","4","hawk","word","94.11764705882354","94.11764705882354","890.6764705882352","890.6764705882352","black","no","legacy","legacy","legacy","0","uniform","1","undefined","undefined","undefined","1","j","0","0","0","0","67","0","0","0","67","0","63","67","63","0","63","3","67","0","67","Sun 21 Feb 2021 09:10:15 PM GMT","The main experiment item","yes","Lexical_Decision_Task.osexp","/home/claudiacastello18","no","Andale Mono","no","18","no","white","no","no","576","legacy","63","63","3","/home/claudiacastello18/subject-5214234.csv","legacy","Lentiform Loewenfeld","3.3.8a1","yes","yes","600bd7cfb6416f0113b04181","602110864497cf011d9c0822","0","j","NA","space","space","space","space","j","662","NA","2469","1344","15387","4069","662","2","legacy","1024","2","48000","-16","task","5214234","even","NA","28631","33108","30638","173512","1774","18510","3122","174016","141069","173502","174016","173308","33108","174680","26710","172808","1769","157082","Lexical Decision Task","64","60566","68","yes","1024"
"3.149629599","0","2","cleb","non-word","94.20289855072464","94.20289855072464","888.2028985507246","888.2028985507246","black","no","legacy","legacy","legacy","0","uniform","1","undefined","undefined","undefined","1","f","0","0","0","0","68","0","0","0","68","0","64","68","64","0","64","3","68","0","68","Sun 21 Feb 2021 09:10:15 PM GMT","The main experiment item","yes","Lexical_Decision_Task.osexp","/home/claudiacastello18","no","Andale Mono","no","18","no","white","no","no","576","legacy","64","64","3","/home/claudiacastello18/subject-5214234.csv","legacy","Lentiform Loewenfeld","3.3.8a1","yes","yes","600bd7cfb6416f0113b04181","602110864497cf011d9c0822","0","f","NA","space","space","space","space","f","720","NA","2469","1344","15387","4069","720","2","legacy","1024","2","48000","-16","task","5214234","even","NA","28631","33108","30638","175408","1774","18510","3122","175912","141069","175405","175912","175232","33108","176634","26710","174731","1769","157082","Lexical Decision Task","65","61286","69","yes","1024"
"3.374198258","0","8","vist","non-word","94.28571428571429","94.28571428571429","885.3428571428572","885.3428571428572","black","no","legacy","legacy","legacy","0","uniform","1","undefined","undefined","undefined","1","f","0","0","0","0","69","0","0","0","69","0","65","69","65","0","65","3","69","0","69","Sun 21 Feb 2021 09:10:15 PM GMT","The main experiment item","yes","Lexical_Decision_Task.osexp","/home/claudiacastello18","no","Andale Mono","no","18","no","white","no","no","576","legacy","65","65","3","/home/claudiacastello18/subject-5214234.csv","legacy","Lentiform Loewenfeld","3.3.8a1","yes","yes","600bd7cfb6416f0113b04181","602110864497cf011d9c0822","0","f","NA","space","space","space","space","f","688","NA","2469","1344","15387","4069","688","2","legacy","1024","2","48000","-16","task","5214234","even","NA","28631","33108","30638","177326","1774","18510","3122","177840","141069","177323","177841","177152","33108","178531","26710","176651","1769","157082","Lexical Decision Task","66","61974","70","yes","1024"
"2.86332286","6.71","2","feud","word","94.36619718309859","94.36619718309859","884.2676056338029","884.2676056338029","black","no","legacy","legacy","legacy","0","uniform","1","undefined","undefined","undefined","1","j","0","0","0","0","70","0","0","0","70","0","66","70","66","0","66","3","70","0","70","Sun 21 Feb 2021 09:10:15 PM GMT","The main experiment item","yes","Lexical_Decision_Task.osexp","/home/claudiacastello18","no","Andale Mono","no","18","no","white","no","no","576","legacy","66","66","3","/home/claudiacastello18/subject-5214234.csv","legacy","Lentiform Loewenfeld","3.3.8a1","yes","yes","600bd7cfb6416f0113b04181","602110864497cf011d9c0822","0","j","NA","space","space","space","space","j","809","NA","2469","1344","15387","4069","809","2","legacy","1024","2","48000","-16","task","5214234","even","NA","28631","33108","30638","179327","1774","18510","3122","179831","141069","179324","179831","179050","33108","180642","26710","178550","1769","157082","Lexical Decision Task","67","62783","71","yes","1024"
"3.257359335","8","6","brew","word","94.44444444444444","94.44444444444444","882.4166666666666","882.4166666666666","black","no","legacy","legacy","legacy","0","uniform","1","undefined","undefined","undefined","1","j","0","0","0","0","71","0","0","0","71","0","67","71","67","0","67","3","71","0","71","Sun 21 Feb 2021 09:10:15 PM GMT","The main experiment item","yes","Lexical_Decision_Task.osexp","/home/claudiacastello18","no","Andale Mono","no","18","no","white","no","no","576","legacy","67","67","3","/home/claudiacastello18/subject-5214234.csv","legacy","Lentiform Loewenfeld","3.3.8a1","yes","yes","600bd7cfb6416f0113b04181","602110864497cf011d9c0822","0","j","NA","space","space","space","space","j","751","NA","2469","1344","15387","4069","751","2","legacy","1024","2","48000","-16","task","5214234","even","NA","28631","33108","30638","181372","1774","18510","3122","181879","141069","181369","181880","181200","33108","182633","26710","180700","1769","157082","Lexical Decision Task","68","63534","72","yes","1024"
"3.066077331","0","7","vorn","non-word","94.52054794520548","94.52054794520548","890.8082191780821","890.8082191780821","black","no","legacy","legacy","legacy","0","uniform","1","undefined","undefined","undefined","1","f","0","0","0","0","72","0","0","0","72","0","68","72","68","0","68","3","72","0","72","Sun 21 Feb 2021 09:10:15 PM GMT","The main experiment item","yes","Lexical_Decision_Task.osexp","/home/claudiacastello18","no","Andale Mono","no","18","no","white","no","no","576","legacy","68","68","3","/home/claudiacastello18/subject-5214234.csv","legacy","Lentiform Loewenfeld","3.3.8a1","yes","yes","600bd7cfb6416f0113b04181","602110864497cf011d9c0822","0","f","NA","space","space","space","space","f","1495","NA","2469","1344","15387","4069","1495","2","legacy","1024","2","48000","-16","task","5214234","even","NA","28631","33108","30638","183340","1774","18510","3122","183842","141069","183337","183844","183163","33108","185341","26710","182663","1769","157082","Lexical Decision Task","69","65029","73","yes","1024"
"2.812467698","0","7","hafe","non-word","94.5945945945946","94.5945945945946","894.6891891891892","894.6891891891892","black","no","legacy","legacy","legacy","0","uniform","1","undefined","undefined","undefined","1","f","0","0","0","0","73","0","0","0","73","0","69","73","69","0","69","3","73","0","73","Sun 21 Feb 2021 09:10:15 PM GMT","The main experiment item","yes","Lexical_Decision_Task.osexp","/home/claudiacastello18","no","Andale Mono","no","18","no","white","no","no","576","legacy","69","69","3","/home/claudiacastello18/subject-5214234.csv","legacy","Lentiform Loewenfeld","3.3.8a1","yes","yes","600bd7cfb6416f0113b04181","602110864497cf011d9c0822","0","f","NA","space","space","space","space","f","1178","NA","2469","1344","15387","4069","1178","2","legacy","1024","2","48000","-16","task","5214234","even","NA","28631","33108","30638","186157","1774","18510","3122","186662","141069","186154","186663","185858","33108","187842","26710","185358","1769","157082","Lexical Decision Task","70","66207","74","yes","1024"
"2.664328519","0","4","plux","non-word","94.66666666666667","94.66666666666667","899.3066666666666","899.3066666666666","black","no","legacy","legacy","legacy","0","uniform","1","undefined","undefined","undefined","1","f","0","0","0","0","74","0","0","0","74","0","70","74","70","0","70","3","74","0","74","Sun 21 Feb 2021 09:10:15 PM GMT","The main experiment item","yes","Lexical_Decision_Task.osexp","/home/claudiacastello18","no","Andale Mono","no","18","no","white","no","no","576","legacy","70","70","3","/home/claudiacastello18/subject-5214234.csv","legacy","Lentiform Loewenfeld","3.3.8a1","yes","yes","600bd7cfb6416f0113b04181","602110864497cf011d9c0822","0","f","NA","space","space","space","space","f","1241","NA","2469","1344","15387","4069","1241","2","legacy","1024","2","48000","-16","task","5214234","even","NA","28631","33108","30638","188574","1774","18510","3122","189083","141069","188571","189084","188404","33108","190328","26710","187904","1769","157082","Lexical Decision Task","71","67448","75","yes","1024"
"3.282244367","0","6","fute","non-word","94.73684210526316","94.73684210526316","896.6184210526316","896.6184210526316","black","no","legacy","legacy","legacy","0","uniform","1","undefined","undefined","undefined","1","f","0","0","0","0","75","0","0","0","75","0","71","75","71","0","71","3","75","0","75","Sun 21 Feb 2021 09:10:15 PM GMT","The main experiment item","yes","Lexical_Decision_Task.osexp","/home/claudiacastello18","no","Andale Mono","no","18","no","white","no","no","576","legacy","71","71","3","/home/claudiacastello18/subject-5214234.csv","legacy","Lentiform Loewenfeld","3.3.8a1","yes","yes","600bd7cfb6416f0113b04181","602110864497cf011d9c0822","0","f","NA","space","space","space","space","f","695","NA","2469","1344","15387","4069","695","2","legacy","1024","2","48000","-16","task","5214234","even","NA","28631","33108","30638","191022","1774","18510","3122","191530","141069","191019","191530","190845","33108","192227","26710","190345","1769","157082","Lexical Decision Task","72","68143","76","yes","1024"
"2.576725172","0","8","gowl","non-word","94.8051948051948","94.8051948051948","894.987012987013","894.987012987013","black","no","legacy","legacy","legacy","0","uniform","1","undefined","undefined","undefined","1","f","0","0","0","0","76","0","0","0","76","0","72","76","72","0","72","3","76","0","76","Sun 21 Feb 2021 09:10:15 PM GMT","The main experiment item","yes","Lexical_Decision_Task.osexp","/home/claudiacastello18","no","Andale Mono","no","18","no","white","no","no","576","legacy","72","72","3","/home/claudiacastello18/subject-5214234.csv","legacy","Lentiform Loewenfeld","3.3.8a1","yes","yes","600bd7cfb6416f0113b04181","602110864497cf011d9c0822","0","f","NA","space","space","space","space","f","771","NA","2469","1344","15387","4069","771","2","legacy","1024","2","48000","-16","task","5214234","even","NA","28631","33108","30638","192925","1774","18510","3122","193431","141069","192922","193431","192753","33108","194204","26710","192253","1769","157082","Lexical Decision Task","73","68914","77","yes","1024"
"3.1430148","7.92","8","bald","word","94.87179487179488","94.87179487179488","890.525641025641","890.525641025641","black","no","legacy","legacy","legacy","0","uniform","1","undefined","undefined","undefined","1","j","0","0","0","0","77","0","0","0","77","0","73","77","73","0","73","3","77","0","77","Sun 21 Feb 2021 09:10:15 PM GMT","The main experiment item","yes","Lexical_Decision_Task.osexp","/home/claudiacastello18","no","Andale Mono","no","18","no","white","no","no","576","legacy","73","73","3","/home/claudiacastello18/subject-5214234.csv","legacy","Lentiform Loewenfeld","3.3.8a1","yes","yes","600bd7cfb6416f0113b04181","602110864497cf011d9c0822","0","j","NA","space","space","space","space","j","547","NA","2469","1344","15387","4069","547","2","legacy","1024","2","48000","-16","task","5214234","even","NA","28631","33108","30638","194963","1774","18510","3122","195467","141069","194960","195467","194722","33108","196016","26710","194221","1769","157082","Lexical Decision Task","74","69461","78","yes","1024"
"3.010582609","0","2","drod","non-word","94.9367088607595","94.9367088607595","887.5316455696203","887.5316455696203","black","no","legacy","legacy","legacy","0","uniform","1","undefined","undefined","undefined","1","f","0","0","0","0","78","0","0","0","78","0","74","78","74","0","74","3","78","0","78","Sun 21 Feb 2021 09:10:15 PM GMT","The main experiment item","yes","Lexical_Decision_Task.osexp","/home/claudiacastello18","no","Andale Mono","no","18","no","white","no","no","576","legacy","74","74","3","/home/claudiacastello18/subject-5214234.csv","legacy","Lentiform Loewenfeld","3.3.8a1","yes","yes","600bd7cfb6416f0113b04181","602110864497cf011d9c0822","0","f","NA","space","space","space","space","f","654","NA","2469","1344","15387","4069","654","2","legacy","1024","2","48000","-16","task","5214234","even","NA","28631","33108","30638","196756","1774","18510","3122","197261","141069","196753","197262","196577","33108","197918","26710","196077","1769","157082","Lexical Decision Task","75","70115","79","yes","1024"
"3.368162872","0","4","ferk","non-word","95","95","885.7875","885.7875","black","no","legacy","legacy","legacy","0","uniform","1","undefined","undefined","undefined","1","f","0","0","0","0","79","0","0","0","79","0","75","79","75","0","75","3","79","0","79","Sun 21 Feb 2021 09:10:15 PM GMT","The main experiment item","yes","Lexical_Decision_Task.osexp","/home/claudiacastello18","no","Andale Mono","no","18","no","white","no","no","576","legacy","75","75","3","/home/claudiacastello18/subject-5214234.csv","legacy","Lentiform Loewenfeld","3.3.8a1","yes","yes","600bd7cfb6416f0113b04181","602110864497cf011d9c0822","0","f","NA","space","space","space","space","f","748","NA","2469","1344","15387","4069","748","2","legacy","1024","2","48000","-16","task","5214234","even","NA","28631","33108","30638","198615","1774","18510","3122","199118","141069","198612","199119","198439","33108","199869","26710","197938","1769","157082","Lexical Decision Task","76","70863","80","yes","1024"
"2.845304797","0","6","buct","non-word","95.06172839506173","95.06172839506173","884.0864197530864","884.0864197530864","black","no","legacy","legacy","legacy","0","uniform","1","undefined","undefined","undefined","1","f","0","0","0","0","80","0","0","0","80","0","76","80","76","0","76","3","80","0","80","Sun 21 Feb 2021 09:10:15 PM GMT","The main experiment item","yes","Lexical_Decision_Task.osexp","/home/claudiacastello18","no","Andale Mono","no","18","no","white","no","no","576","legacy","76","76","3","/home/claudiacastello18/subject-5214234.csv","legacy","Lentiform Loewenfeld","3.3.8a1","yes","yes","600bd7cfb6416f0113b04181","602110864497cf011d9c0822","0","f","NA","space","space","space","space","f","748","NA","2469","1344","15387","4069","748","2","legacy","1024","2","48000","-16","task","5214234","even","NA","28631","33108","30638","200625","1774","18510","3122","201128","141069","200620","201128","200432","33108","201878","26710","199931","1769","157082","Lexical Decision Task","77","71611","81","yes","1024"
"2.755364069","7.72","2","hoax","word","95.1219512195122","95.1219512195122","881.5853658536586","881.5853658536586","black","no","legacy","legacy","legacy","0","uniform","1","undefined","undefined","undefined","1","j","0","0","0","0","81","0","0","0","81","0","77","81","77","0","77","3","81","0","81","Sun 21 Feb 2021 09:10:15 PM GMT","The main experiment item","yes","Lexical_Decision_Task.osexp","/home/claudiacastello18","no","Andale Mono","no","18","no","white","no","no","576","legacy","77","77","3","/home/claudiacastello18/subject-5214234.csv","legacy","Lentiform Loewenfeld","3.3.8a1","yes","yes","600bd7cfb6416f0113b04181","602110864497cf011d9c0822","0","j","NA","space","space","space","space","j","679","NA","2469","1344","15387","4069","679","2","legacy","1024","2","48000","-16","task","5214234","even","NA","28631","33108","30638","202631","1774","18510","3122","203133","141069","202628","203134","202396","33108","203815","26710","201895","1769","157082","Lexical Decision Task","78","72290","82","yes","1024"
"3.218535505","7.85","7","goat","word","95.18072289156626","95.18072289156626","886.6626506024096","886.6626506024096","black","no","legacy","legacy","legacy","0","uniform","1","undefined","undefined","undefined","1","j","0","0","0","0","82","0","0","0","82","0","78","82","78","0","78","3","82","0","82","Sun 21 Feb 2021 09:10:15 PM GMT","The main experiment item","yes","Lexical_Decision_Task.osexp","/home/claudiacastello18","no","Andale Mono","no","18","no","white","no","no","576","legacy","78","78","3","/home/claudiacastello18/subject-5214234.csv","legacy","Lentiform Loewenfeld","3.3.8a1","yes","yes","600bd7cfb6416f0113b04181","602110864497cf011d9c0822","0","j","NA","space","space","space","space","j","1303","NA","2469","1344","15387","4069","1303","2","legacy","1024","2","48000","-16","task","5214234","even","NA","28631","33108","30638","204513","1774","18510","3122","205019","141069","204509","205020","204333","33108","206325","26710","203833","1769","157082","Lexical Decision Task","79","73593","83","yes","1024"
"2.858136002","0","4","phip","non-word","95.23809523809524","95.23809523809524","884.0238095238095","884.0238095238095","black","no","legacy","legacy","legacy","0","uniform","1","undefined","undefined","undefined","1","f","0","0","0","0","83","0","0","0","83","0","79","83","79","0","79","3","83","0","83","Sun 21 Feb 2021 09:10:15 PM GMT","The main experiment item","yes","Lexical_Decision_Task.osexp","/home/claudiacastello18","no","Andale Mono","no","18","no","white","no","no","576","legacy","79","79","3","/home/claudiacastello18/subject-5214234.csv","legacy","Lentiform Loewenfeld","3.3.8a1","yes","yes","600bd7cfb6416f0113b04181","602110864497cf011d9c0822","0","f","NA","space","space","space","space","f","665","NA","2469","1344","15387","4069","665","2","legacy","1024","2","48000","-16","task","5214234","even","NA","28631","33108","30638","207117","1774","18510","3122","207621","141069","207114","207621","206879","33108","208288","26710","206379","1769","157082","Lexical Decision Task","80","74258","84","yes","1024"
"2.719886232","7.98","2","quiz","word","95.29411764705883","95.29411764705883","881.7294117647059","881.7294117647059","black","no","legacy","legacy","legacy","0","uniform","1","undefined","undefined","undefined","1","j","0","0","0","0","84","0","0","0","84","0","80","84","80","0","80","3","84","0","84","Sun 21 Feb 2021 09:10:15 PM GMT","The main experiment item","yes","Lexical_Decision_Task.osexp","/home/claudiacastello18","no","Andale Mono","no","18","no","white","no","no","576","legacy","80","80","3","/home/claudiacastello18/subject-5214234.csv","legacy","Lentiform Loewenfeld","3.3.8a1","yes","yes","600bd7cfb6416f0113b04181","602110864497cf011d9c0822","0","j","NA","space","space","space","space","j","689","NA","2469","1344","15387","4069","689","2","legacy","1024","2","48000","-16","task","5214234","even","NA","28631","33108","30638","209015","1774","18510","3122","209525","141069","209013","209525","208806","33108","210216","26710","208306","1769","157082","Lexical Decision Task","81","74947","85","yes","1024"
"3.132473155","0","4","glim","non-word","94.18604651162791","94.18604651162791","880.0581395348837","880.0581395348837","black","no","legacy","legacy","legacy","0","uniform","0","undefined","undefined","undefined","0","f","0","0","0","0","85","0","0","0","85","0","81","85","81","0","81","3","85","0","85","Sun 21 Feb 2021 09:10:15 PM GMT","The main experiment item","yes","Lexical_Decision_Task.osexp","/home/claudiacastello18","no","Andale Mono","no","18","no","white","no","no","576","legacy","81","81","3","/home/claudiacastello18/subject-5214234.csv","legacy","Lentiform Loewenfeld","3.3.8a1","yes","yes","600bd7cfb6416f0113b04181","602110864497cf011d9c0822","0","j","NA","space","space","space","space","j","738","NA","2469","1344","15387","4069","738","2","legacy","1024","2","48000","-16","task","5214234","even","NA","28631","33108","30638","210936","1774","18510","3122","211440","141069","210934","211440","210734","33108","212180","26710","210234","1769","157082","Lexical Decision Task","81","75685","86","yes","1024"
"3.440331212","7.35","6","stew","word","94.25287356321839","94.25287356321839","876.6896551724138","876.6896551724138","black","no","legacy","legacy","legacy","0","uniform","1","undefined","undefined","undefined","1","j","0","0","0","0","86","0","0","0","86","0","82","86","82","0","82","3","86","0","86","Sun 21 Feb 2021 09:10:15 PM GMT","The main experiment item","yes","Lexical_Decision_Task.osexp","/home/claudiacastello18","no","Andale Mono","no","18","no","white","no","no","576","legacy","82","82","3","/home/claudiacastello18/subject-5214234.csv","legacy","Lentiform Loewenfeld","3.3.8a1","yes","yes","600bd7cfb6416f0113b04181","602110864497cf011d9c0822","0","j","NA","space","space","space","space","j","587","NA","2469","1344","15387","4069","587","2","legacy","1024","2","48000","-16","task","5214234","even","NA","28631","33108","30638","213891","1774","18510","3122","214406","141069","213887","214406","213699","33108","214995","26710","210234","1769","212199","Lexical Decision Task","82","76272","87","yes","1024"
"2.966923697","5.4","2","fume","word","94.31818181818181","94.31818181818181","874.9090909090909","874.9090909090909","black","no","legacy","legacy","legacy","0","uniform","1","undefined","undefined","undefined","1","j","0","0","0","0","87","0","0","0","87","0","83","87","83","0","83","3","87","0","87","Sun 21 Feb 2021 09:10:15 PM GMT","The main experiment item","yes","Lexical_Decision_Task.osexp","/home/claudiacastello18","no","Andale Mono","no","18","no","white","no","no","576","legacy","83","83","3","/home/claudiacastello18/subject-5214234.csv","legacy","Lentiform Loewenfeld","3.3.8a1","yes","yes","600bd7cfb6416f0113b04181","602110864497cf011d9c0822","0","j","NA","space","space","space","space","j","720","NA","2469","1344","15387","4069","720","2","legacy","1024","2","48000","-16","task","5214234","even","NA","28631","33108","30638","215691","1774","18510","3122","216195","141069","215687","216196","215512","33108","216918","26710","215011","1769","212199","Lexical Decision Task","83","76992","88","yes","1024"
"3.252447662","9.67","9","boat","word","94.38202247191012","94.38202247191012","870.0337078651686","870.0337078651686","black","no","legacy","legacy","legacy","0","uniform","1","undefined","undefined","undefined","1","j","0","0","0","0","88","0","0","0","88","0","84","88","84","0","84","3","88","0","88","Sun 21 Feb 2021 09:10:15 PM GMT","The main experiment item","yes","Lexical_Decision_Task.osexp","/home/claudiacastello18","no","Andale Mono","no","18","no","white","no","no","576","legacy","84","84","3","/home/claudiacastello18/subject-5214234.csv","legacy","Lentiform Loewenfeld","3.3.8a1","yes","yes","600bd7cfb6416f0113b04181","602110864497cf011d9c0822","0","j","NA","space","space","space","space","j","441","NA","2469","1344","15387","4069","441","2","legacy","1024","2","48000","-16","task","5214234","even","NA","28631","33108","30638","217611","1774","18510","3122","218115","141069","217608","218115","217444","33108","218558","26710","216944","1769","212199","Lexical Decision Task","84","77433","89","yes","1024"
"2.821076612","0","4","lult","non-word","94.44444444444444","94.44444444444444","867.7888888888889","867.7888888888889","black","no","legacy","legacy","legacy","0","uniform","1","undefined","undefined","undefined","1","f","0","0","0","0","89","0","0","0","89","0","85","89","85","0","85","3","89","0","89","Sun 21 Feb 2021 09:10:15 PM GMT","The main experiment item","yes","Lexical_Decision_Task.osexp","/home/claudiacastello18","no","Andale Mono","no","18","no","white","no","no","576","legacy","85","85","3","/home/claudiacastello18/subject-5214234.csv","legacy","Lentiform Loewenfeld","3.3.8a1","yes","yes","600bd7cfb6416f0113b04181","602110864497cf011d9c0822","0","f","NA","space","space","space","space","f","668","NA","2469","1344","15387","4069","668","2","legacy","1024","2","48000","-16","task","5214234","even","NA","28631","33108","30638","219273","1774","18510","3122","219778","141069","219270","219778","219077","33108","220448","26710","218577","1769","212199","Lexical Decision Task","85","78101","90","yes","1024"
"3.137775856","7.39","5","comb","word","94.50549450549451","94.50549450549451","866.9120879120879","866.9120879120879","black","no","legacy","legacy","legacy","0","uniform","1","undefined","undefined","undefined","1","j","0","0","0","0","90","0","0","0","90","0","86","90","86","0","86","3","90","0","90","Sun 21 Feb 2021 09:10:15 PM GMT","The main experiment item","yes","Lexical_Decision_Task.osexp","/home/claudiacastello18","no","Andale Mono","no","18","no","white","no","no","576","legacy","86","86","3","/home/claudiacastello18/subject-5214234.csv","legacy","Lentiform Loewenfeld","3.3.8a1","yes","yes","600bd7cfb6416f0113b04181","602110864497cf011d9c0822","0","j","NA","space","space","space","space","j","788","NA","2469","1344","15387","4069","788","2","legacy","1024","2","48000","-16","task","5214234","even","NA","28631","33108","30638","221148","1774","18510","3122","221651","141069","221144","221651","220967","33108","222441","26710","220466","1769","212199","Lexical Decision Task","86","78889","91","yes","1024"
"2.95456409","0","4","taud","non-word","94.56521739130434","94.56521739130434","869.8478260869565","869.8478260869565","black","no","legacy","legacy","legacy","0","uniform","1","undefined","undefined","undefined","1","f","0","0","0","0","91","0","0","0","91","0","87","91","87","0","87","3","91","0","91","Sun 21 Feb 2021 09:10:15 PM GMT","The main experiment item","yes","Lexical_Decision_Task.osexp","/home/claudiacastello18","no","Andale Mono","no","18","no","white","no","no","576","legacy","87","87","3","/home/claudiacastello18/subject-5214234.csv","legacy","Lentiform Loewenfeld","3.3.8a1","yes","yes","600bd7cfb6416f0113b04181","602110864497cf011d9c0822","0","f","NA","space","space","space","space","f","1137","NA","2469","1344","15387","4069","1137","2","legacy","1024","2","48000","-16","task","5214234","even","NA","28631","33108","30638","223130","1774","18510","3122","223643","141069","223127","223644","222959","33108","224783","26710","222459","1769","212199","Lexical Decision Task","87","80026","92","yes","1024"
"3.316948329","0","1","besc","non-word","94.6236559139785","94.6236559139785","868.4086021505376","868.4086021505376","black","no","legacy","legacy","legacy","0","uniform","1","undefined","undefined","undefined","1","f","0","0","0","0","92","0","0","0","92","0","88","92","88","0","88","3","92","0","92","Sun 21 Feb 2021 09:10:15 PM GMT","The main experiment item","yes","Lexical_Decision_Task.osexp","/home/claudiacastello18","no","Andale Mono","no","18","no","white","no","no","576","legacy","88","88","3","/home/claudiacastello18/subject-5214234.csv","legacy","Lentiform Loewenfeld","3.3.8a1","yes","yes","600bd7cfb6416f0113b04181","602110864497cf011d9c0822","0","f","NA","space","space","space","space","f","736","NA","2469","1344","15387","4069","736","2","legacy","1024","2","48000","-16","task","5214234","even","NA","28631","33108","30638","225502","1774","18510","3122","226009","141069","225500","226010","225328","33108","226748","26710","224827","1769","212199","Lexical Decision Task","88","80762","93","yes","1024"
"3.209246849","0","7","slem","non-word","94.68085106382979","94.68085106382979","883.9042553191489","883.9042553191489","black","no","legacy","legacy","legacy","0","uniform","1","undefined","undefined","undefined","1","f","0","0","0","0","93","0","0","0","93","0","89","93","89","0","89","3","93","0","93","Sun 21 Feb 2021 09:10:15 PM GMT","The main experiment item","yes","Lexical_Decision_Task.osexp","/home/claudiacastello18","no","Andale Mono","no","18","no","white","no","no","576","legacy","89","89","3","/home/claudiacastello18/subject-5214234.csv","legacy","Lentiform Loewenfeld","3.3.8a1","yes","yes","600bd7cfb6416f0113b04181","602110864497cf011d9c0822","0","f","NA","space","space","space","space","f","2325","NA","2469","1344","15387","4069","2325","2","legacy","1024","2","48000","-16","task","5214234","even","NA","28631","33108","30638","227453","1774","18510","3122","227972","141069","227449","227974","227267","33108","230301","26710","226767","1769","212199","Lexical Decision Task","89","83087","94","yes","1024"
"2.819763221","0","2","durp","non-word","94.73684210526316","94.73684210526316","883.4421052631579","883.4421052631579","black","no","legacy","legacy","legacy","0","uniform","1","undefined","undefined","undefined","1","f","0","0","0","0","94","0","0","0","94","0","90","94","90","0","90","3","94","0","94","Sun 21 Feb 2021 09:10:15 PM GMT","The main experiment item","yes","Lexical_Decision_Task.osexp","/home/claudiacastello18","no","Andale Mono","no","18","no","white","no","no","576","legacy","90","90","3","/home/claudiacastello18/subject-5214234.csv","legacy","Lentiform Loewenfeld","3.3.8a1","yes","yes","600bd7cfb6416f0113b04181","602110864497cf011d9c0822","0","f","NA","space","space","space","space","f","840","NA","2469","1344","15387","4069","840","2","legacy","1024","2","48000","-16","task","5214234","even","NA","28631","33108","30638","230995","1774","18510","3122","231508","141069","230992","231508","230820","33108","232349","26710","230320","1769","212199","Lexical Decision Task","90","83927","95","yes","1024"
"3.372543801","9.24","8","coat","word","94.79166666666667","94.79166666666667","894.28125","894.28125","black","no","legacy","legacy","legacy","0","uniform","1","undefined","undefined","undefined","1","j","0","0","0","0","95","0","0","0","95","0","91","95","91","0","91","3","95","0","95","Sun 21 Feb 2021 09:10:15 PM GMT","The main experiment item","yes","Lexical_Decision_Task.osexp","/home/claudiacastello18","no","Andale Mono","no","18","no","white","no","no","576","legacy","91","91","3","/home/claudiacastello18/subject-5214234.csv","legacy","Lentiform Loewenfeld","3.3.8a1","yes","yes","600bd7cfb6416f0113b04181","602110864497cf011d9c0822","0","j","NA","space","space","space","space","j","1924","NA","2469","1344","15387","4069","1924","2","legacy","1024","2","48000","-16","task","5214234","even","NA","28631","33108","30638","233039","1774","18510","3122","233543","141069","233036","233543","232867","33108","235471","26710","232367","1769","212199","Lexical Decision Task","91","85851","96","yes","1024"
"2.594027722","9.08","8","skip","word","94.84536082474227","94.84536082474227","891.2577319587629","891.2577319587629","black","no","legacy","legacy","legacy","0","uniform","1","undefined","undefined","undefined","1","j","0","0","0","0","96","0","0","0","96","0","92","96","92","0","92","3","96","0","96","Sun 21 Feb 2021 09:10:15 PM GMT","The main experiment item","yes","Lexical_Decision_Task.osexp","/home/claudiacastello18","no","Andale Mono","no","18","no","white","no","no","576","legacy","92","92","3","/home/claudiacastello18/subject-5214234.csv","legacy","Lentiform Loewenfeld","3.3.8a1","yes","yes","600bd7cfb6416f0113b04181","602110864497cf011d9c0822","0","j","NA","space","space","space","space","j","601","NA","2469","1344","15387","4069","601","2","legacy","1024","2","48000","-16","task","5214234","even","NA","28631","33108","30638","236599","1774","18510","3122","237113","141069","236596","237114","236407","33108","237716","26710","235906","1769","212199","Lexical Decision Task","92","86452","97","yes","1024"
"2.705007959","6.01","4","wept","word","93.87755102040816","93.87755102040816","888.1122448979592","888.1122448979592","black","no","legacy","legacy","legacy","0","uniform","0","undefined","undefined","undefined","0","j","0","0","0","0","97","0","0","0","97","0","93","97","93","0","93","3","97","0","97","Sun 21 Feb 2021 09:10:15 PM GMT","The main experiment item","yes","Lexical_Decision_Task.osexp","/home/claudiacastello18","no","Andale Mono","no","18","no","white","no","no","576","legacy","93","93","3","/home/claudiacastello18/subject-5214234.csv","legacy","Lentiform Loewenfeld","3.3.8a1","yes","yes","600bd7cfb6416f0113b04181","602110864497cf011d9c0822","0","f","NA","space","space","space","space","f","583","NA","2469","1344","15387","4069","583","2","legacy","1024","2","48000","-16","task","5214234","even","NA","28631","33108","30638","238406","1774","18510","3122","238911","141069","238403","238911","238235","33108","239496","26710","237734","1769","212199","Lexical Decision Task","92","87035","98","yes","1024"
"2.782472624","10.55","2","huge","word","93.93939393939394","93.93939393939394","886.4848484848485","886.4848484848485","black","no","legacy","legacy","legacy","0","uniform","1","undefined","undefined","undefined","1","j","0","0","0","0","98","0","0","0","98","0","94","98","94","0","94","3","98","0","98","Sun 21 Feb 2021 09:10:15 PM GMT","The main experiment item","yes","Lexical_Decision_Task.osexp","/home/claudiacastello18","no","Andale Mono","no","18","no","white","no","no","576","legacy","94","94","3","/home/claudiacastello18/subject-5214234.csv","legacy","Lentiform Loewenfeld","3.3.8a1","yes","yes","600bd7cfb6416f0113b04181","602110864497cf011d9c0822","0","j","NA","space","space","space","space","j","727","NA","2469","1344","15387","4069","727","2","legacy","1024","2","48000","-16","task","5214234","even","NA","28631","33108","30638","241200","1774","18510","3122","241705","141069","241193","241705","241013","33108","242434","26710","237734","1769","239513","Lexical Decision Task","93","87762","99","yes","1024"
"2.794720352","0","9","koot","non-word","94","94","886.09","886.09","black","no","legacy","legacy","legacy","0","uniform","1","undefined","undefined","undefined","1","f","0","0","0","0","99","0","0","0","99","0","95","99","95","0","95","3","99","0","99","Sun 21 Feb 2021 09:10:15 PM GMT","The main experiment item","yes","Lexical_Decision_Task.osexp","/home/claudiacastello18","no","Andale Mono","no","18","no","white","no","no","576","legacy","95","95","3","/home/claudiacastello18/subject-5214234.csv","legacy","Lentiform Loewenfeld","3.3.8a1","yes","yes","600bd7cfb6416f0113b04181","602110864497cf011d9c0822","0","f","NA","space","space","space","space","f","847","NA","2469","1344","15387","4069","847","2","legacy","1024","2","48000","-16","task","5214234","even","NA","28631","33108","30638","243141","1774","18510","3122","243644","141069","243138","243645","242965","33108","244494","26710","242464","1769","239513","Lexical Decision Task","94","88609","100","yes","1024"
