"Log_BG","Log_Freq_HAL","Ortho_N","Stimulus","Type","acc","accuracy","average_response_time","avg_rt","background","bidi","canvas_backend","clock_backend","color_backend","compensation","coordinates","correct","correct_Experimental_intro","correct_Introduction","correct_Practice_intro","correct_experimenter_kb","correct_response","count_End_Of_Experiment","count_End_Of_Practice","count_Experimental_Loop","count_Experimental_intro","count_Fixation","count_Introduction","count_Practice_Loop","count_Practice_intro","count_Stimulus","count_block_break_feedback","count_experimental_sequence","count_experimenter_kb","count_increment_trial_count","count_init_trial_count","count_logger","count_practice_sequence","count_right","count_task","count_wrong","datetime","description","disable_garbage_collection","experiment_file","experiment_path","font_bold","font_family","font_italic","font_size","font_underline","foreground","form_clicks","fullscreen","height","keyboard_backend","live_row","live_row_Experimental_Loop","live_row_Practice_Loop","logfile","mouse_backend","opensesame_codename","opensesame_version","osf_always_upload_data","osf_always_upload_experiment","osf_datanode_id","osf_id","repeat_cycle","response","response_End_Of_Experiment","response_Experimental_intro","response_Introduction","response_Practice_intro","response_block_break_feedback","response_experimenter_kb","response_time","response_time_End_Of_Experiment","response_time_Experimental_intro","response_time_Introduction","response_time_Practice_intro","response_time_block_break_feedback","response_time_experimenter_kb","round_decimals","sampler_backend","sound_buf_size","sound_channels","sound_freq","sound_sample_size","start","subject_nr","subject_parity","time_End_Of_Experiment","time_End_Of_Practice","time_Experimental_Loop","time_Experimental_intro","time_Fixation","time_Introduction","time_Practice_Loop","time_Practice_intro","time_Stimulus","time_block_break_feedback","time_experimental_sequence","time_experimenter_kb","time_increment_trial_count","time_init_trial_count","time_logger","time_practice_sequence","time_right","time_task","time_wrong","title","total_correct","total_response_time","total_responses","uniform_coordinates","width"
"3.14849993","10.75","7","hour","word","20","20","2774.4","2774.4","black","no","legacy","legacy","legacy","0","uniform","1","undefined","undefined","undefined","1","j","0","0","0","0","4","0","0","0","4","NA","0","4","0","0","0","3","4","0","4","Thu Feb 18 11:17:08 2021","The main experiment item","yes","Lexical_Decision_Task.osexp","/Users/jessicacruz/Desktop","no","Andale Mono","no","18","no","white","no","yes","576","legacy","0","0","3","/Users/jessicacruz/Desktop/subject-5206107.csv","legacy","Lentiform Loewenfeld","3.3.7","yes","yes","600bd7cfb6416f0113b04181","602110864497cf011d9c0822","0","j","NA","space","space","space","NA","j","1872","NA","54194","19805","8226","NA","1872","2","legacy","1024","2","48000","-16","task","5206107","odd","NA","54084","110296","56101","110320","5648","33696","25466","110825","NA","110318","110826","NA","110296","112699","48999","NA","5610","52525","Lexical Decision Task","1","13872","5","yes","1024"
"3.16326079","0","5","parg","non-word","33.333333333333336","33.333333333333336","2605.6666666666665","2605.6666666666665","black","no","legacy","legacy","legacy","0","uniform","1","undefined","undefined","undefined","1","f","0","0","0","0","5","0","0","0","5","NA","1","5","1","0","1","3","5","0","5","Thu Feb 18 11:17:08 2021","The main experiment item","yes","Lexical_Decision_Task.osexp","/Users/jessicacruz/Desktop","no","Andale Mono","no","18","no","white","no","yes","576","legacy","1","1","3","/Users/jessicacruz/Desktop/subject-5206107.csv","legacy","Lentiform Loewenfeld","3.3.7","yes","yes","600bd7cfb6416f0113b04181","602110864497cf011d9c0822","0","f","NA","space","space","space","NA","f","1762","NA","54194","19805","8226","NA","1762","2","legacy","1024","2","48000","-16","task","5206107","odd","NA","54084","110296","56101","113279","5648","33696","25466","113783","NA","113277","113783","113205","110296","115546","48999","112704","5610","52525","Lexical Decision Task","2","15634","6","yes","1024"
"3.531734309","0","6","lerd","non-word","42.857142857142854","42.857142857142854","2361.4285714285716","2361.4285714285716","black","no","legacy","legacy","legacy","0","uniform","1","undefined","undefined","undefined","1","f","0","0","0","0","6","0","0","0","6","NA","2","6","2","0","2","3","6","0","6","Thu Feb 18 11:17:08 2021","The main experiment item","yes","Lexical_Decision_Task.osexp","/Users/jessicacruz/Desktop","no","Andale Mono","no","18","no","white","no","yes","576","legacy","2","2","3","/Users/jessicacruz/Desktop/subject-5206107.csv","legacy","Lentiform Loewenfeld","3.3.7","yes","yes","600bd7cfb6416f0113b04181","602110864497cf011d9c0822","0","f","NA","space","space","space","NA","f","896","NA","54194","19805","8226","NA","896","2","legacy","1024","2","48000","-16","task","5206107","odd","NA","54084","110296","56101","116116","5648","33696","25466","116620","NA","116113","116621","116049","110296","117517","48999","115549","5610","52525","Lexical Decision Task","3","16530","7","yes","1024"
"2.880623071","0","9","curp","non-word","37.5","37.5","2280.375","2280.375","black","no","legacy","legacy","legacy","0","uniform","0","undefined","undefined","undefined","0","f","0","0","0","0","7","0","0","0","7","NA","3","7","3","0","3","3","7","0","7","Thu Feb 18 11:17:08 2021","The main experiment item","yes","Lexical_Decision_Task.osexp","/Users/jessicacruz/Desktop","no","Andale Mono","no","18","no","white","no","yes","576","legacy","3","3","3","/Users/jessicacruz/Desktop/subject-5206107.csv","legacy","Lentiform Loewenfeld","3.3.7","yes","yes","600bd7cfb6416f0113b04181","602110864497cf011d9c0822","0","j","NA","space","space","space","NA","j","1713","NA","54194","19805","8226","NA","1713","2","legacy","1024","2","48000","-16","task","5206107","odd","NA","54084","110296","56101","118089","5648","33696","25466","118592","NA","118087","118593","118021","110296","120306","48999","117521","5610","52525","Lexical Decision Task","3","18243","8","yes","1024"
"2.782472624","10.55","2","huge","word","44.44444444444444","44.44444444444444","2141.777777777778","2141.777777777778","black","no","legacy","legacy","legacy","0","uniform","1","undefined","undefined","undefined","1","j","0","0","0","0","8","0","0","0","8","NA","4","8","4","0","4","3","8","0","8","Thu Feb 18 11:17:08 2021","The main experiment item","yes","Lexical_Decision_Task.osexp","/Users/jessicacruz/Desktop","no","Andale Mono","no","18","no","white","no","yes","576","legacy","4","4","3","/Users/jessicacruz/Desktop/subject-5206107.csv","legacy","Lentiform Loewenfeld","3.3.7","yes","yes","600bd7cfb6416f0113b04181","602110864497cf011d9c0822","0","j","NA","space","space","space","NA","j","1033","NA","54194","19805","8226","NA","1033","2","legacy","1024","2","48000","-16","task","5206107","odd","NA","54084","110296","56101","121881","5648","33696","25466","122385","NA","121878","122385","121809","110296","123419","48999","117521","5610","120309","Lexical Decision Task","4","19276","9","yes","1024"
"2.6599162","0","6","flug","non-word","40","40","2021.8","2021.8","black","no","legacy","legacy","legacy","0","uniform","0","undefined","undefined","undefined","0","f","0","0","0","0","9","0","0","0","9","NA","5","9","5","0","5","3","9","0","9","Thu Feb 18 11:17:08 2021","The main experiment item","yes","Lexical_Decision_Task.osexp","/Users/jessicacruz/Desktop","no","Andale Mono","no","18","no","white","no","yes","576","legacy","5","5","3","/Users/jessicacruz/Desktop/subject-5206107.csv","legacy","Lentiform Loewenfeld","3.3.7","yes","yes","600bd7cfb6416f0113b04181","602110864497cf011d9c0822","0","j","NA","space","space","space","NA","j","942","NA","54194","19805","8226","NA","942","2","legacy","1024","2","48000","-16","task","5206107","odd","NA","54084","110296","56101","123990","5648","33696","25466","124493","NA","123988","124494","123922","110296","125437","48999","123422","5610","120309","Lexical Decision Task","4","20218","10","yes","1024"
"3.374137706","10.21","4","tree","word","45.45454545454545","45.45454545454545","1928.1818181818182","1928.1818181818182","black","no","legacy","legacy","legacy","0","uniform","1","undefined","undefined","undefined","1","j","0","0","0","0","10","0","0","0","10","NA","6","10","6","0","6","3","10","0","10","Thu Feb 18 11:17:08 2021","The main experiment item","yes","Lexical_Decision_Task.osexp","/Users/jessicacruz/Desktop","no","Andale Mono","no","18","no","white","no","yes","576","legacy","6","6","3","/Users/jessicacruz/Desktop/subject-5206107.csv","legacy","Lentiform Loewenfeld","3.3.7","yes","yes","600bd7cfb6416f0113b04181","602110864497cf011d9c0822","0","j","NA","space","space","space","NA","j","992","NA","54194","19805","8226","NA","992","2","legacy","1024","2","48000","-16","task","5206107","odd","NA","54084","110296","56101","127009","5648","33696","25466","127513","NA","127007","127513","126940","110296","128505","48999","123422","5610","125439","Lexical Decision Task","5","21210","11","yes","1024"
"2.807758206","6.25","4","hurl","word","50","50","1864.3333333333333","1864.3333333333333","black","no","legacy","legacy","legacy","0","uniform","1","undefined","undefined","undefined","1","j","0","0","0","0","11","0","0","0","11","NA","7","11","7","0","7","3","11","0","11","Thu Feb 18 11:17:08 2021","The main experiment item","yes","Lexical_Decision_Task.osexp","/Users/jessicacruz/Desktop","no","Andale Mono","no","18","no","white","no","yes","576","legacy","7","7","3","/Users/jessicacruz/Desktop/subject-5206107.csv","legacy","Lentiform Loewenfeld","3.3.7","yes","yes","600bd7cfb6416f0113b04181","602110864497cf011d9c0822","0","j","NA","space","space","space","NA","j","1162","NA","54194","19805","8226","NA","1162","2","legacy","1024","2","48000","-16","task","5206107","odd","NA","54084","110296","56101","129074","5648","33696","25466","129578","NA","129072","129579","129008","110296","130741","48999","128508","5610","125439","Lexical Decision Task","6","22372","12","yes","1024"
"2.845304797","0","6","buct","non-word","53.84615384615385","53.84615384615385","1782.3846153846155","1782.3846153846155","black","no","legacy","legacy","legacy","0","uniform","1","undefined","undefined","undefined","1","f","0","0","0","0","12","0","0","0","12","NA","8","12","8","0","8","3","12","0","12","Thu Feb 18 11:17:08 2021","The main experiment item","yes","Lexical_Decision_Task.osexp","/Users/jessicacruz/Desktop","no","Andale Mono","no","18","no","white","no","yes","576","legacy","8","8","3","/Users/jessicacruz/Desktop/subject-5206107.csv","legacy","Lentiform Loewenfeld","3.3.7","yes","yes","600bd7cfb6416f0113b04181","602110864497cf011d9c0822","0","f","NA","space","space","space","NA","f","799","NA","54194","19805","8226","NA","799","2","legacy","1024","2","48000","-16","task","5206107","odd","NA","54084","110296","56101","131313","5648","33696","25466","131817","NA","131310","131817","131244","110296","132617","48999","130744","5610","125439","Lexical Decision Task","7","23171","13","yes","1024"
"3.368162872","0","4","ferk","non-word","57.142857142857146","57.142857142857146","1708.2857142857142","1708.2857142857142","black","no","legacy","legacy","legacy","0","uniform","1","undefined","undefined","undefined","1","f","0","0","0","0","13","0","0","0","13","NA","9","13","9","0","9","3","13","0","13","Thu Feb 18 11:17:08 2021","The main experiment item","yes","Lexical_Decision_Task.osexp","/Users/jessicacruz/Desktop","no","Andale Mono","no","18","no","white","no","yes","576","legacy","9","9","3","/Users/jessicacruz/Desktop/subject-5206107.csv","legacy","Lentiform Loewenfeld","3.3.7","yes","yes","600bd7cfb6416f0113b04181","602110864497cf011d9c0822","0","f","NA","space","space","space","NA","f","745","NA","54194","19805","8226","NA","745","2","legacy","1024","2","48000","-16","task","5206107","odd","NA","54084","110296","56101","133189","5648","33696","25466","133693","NA","133186","133693","133120","110296","134439","48999","132620","5610","125439","Lexical Decision Task","8","23916","14","yes","1024"
"3.20996159","0","4","clee","non-word","60","60","1659","1659","black","no","legacy","legacy","legacy","0","uniform","1","undefined","undefined","undefined","1","f","0","0","0","0","14","0","0","0","14","NA","10","14","10","0","10","3","14","0","14","Thu Feb 18 11:17:08 2021","The main experiment item","yes","Lexical_Decision_Task.osexp","/Users/jessicacruz/Desktop","no","Andale Mono","no","18","no","white","no","yes","576","legacy","10","10","3","/Users/jessicacruz/Desktop/subject-5206107.csv","legacy","Lentiform Loewenfeld","3.3.7","yes","yes","600bd7cfb6416f0113b04181","602110864497cf011d9c0822","0","f","NA","space","space","space","NA","f","969","NA","54194","19805","8226","NA","969","2","legacy","1024","2","48000","-16","task","5206107","odd","NA","54084","110296","56101","135010","5648","33696","25466","135513","NA","135007","135514","134942","110296","136484","48999","134442","5610","125439","Lexical Decision Task","9","24885","15","yes","1024"
"2.895974732","6.65","5","sift","word","56.25","56.25","1611.3125","1611.3125","black","no","legacy","legacy","legacy","0","uniform","0","undefined","undefined","undefined","0","j","0","0","0","0","15","0","0","0","15","NA","11","15","11","0","11","3","15","0","15","Thu Feb 18 11:17:08 2021","The main experiment item","yes","Lexical_Decision_Task.osexp","/Users/jessicacruz/Desktop","no","Andale Mono","no","18","no","white","no","yes","576","legacy","11","11","3","/Users/jessicacruz/Desktop/subject-5206107.csv","legacy","Lentiform Loewenfeld","3.3.7","yes","yes","600bd7cfb6416f0113b04181","602110864497cf011d9c0822","0","f","NA","space","space","space","NA","f","896","NA","54194","19805","8226","NA","896","2","legacy","1024","2","48000","-16","task","5206107","odd","NA","54084","110296","56101","137054","5648","33696","25466","137557","NA","137052","137558","136987","110296","138455","48999","136487","5610","125439","Lexical Decision Task","9","25781","16","yes","1024"
"2.898725182","0","7","turl","non-word","52.94117647058823","52.94117647058823","1693","1693","black","no","legacy","legacy","legacy","0","uniform","0","undefined","undefined","undefined","0","f","0","0","0","0","16","0","0","0","16","NA","12","16","12","0","12","3","16","0","16","Thu Feb 18 11:17:08 2021","The main experiment item","yes","Lexical_Decision_Task.osexp","/Users/jessicacruz/Desktop","no","Andale Mono","no","18","no","white","no","yes","576","legacy","12","12","3","/Users/jessicacruz/Desktop/subject-5206107.csv","legacy","Lentiform Loewenfeld","3.3.7","yes","yes","600bd7cfb6416f0113b04181","602110864497cf011d9c0822","0","None","NA","space","space","space","NA","None","3000","NA","54194","19805","8226","NA","3000","2","legacy","1024","2","48000","-16","task","5206107","odd","NA","54084","110296","56101","140030","5648","33696","25466","140533","NA","140027","140533","139958","110296","143533","48999","136487","5610","138458","Lexical Decision Task","9","28781","17","yes","1024"
"2.812467698","0","7","hafe","non-word","55.55555555555556","55.55555555555556","1642.2777777777778","1642.2777777777778","black","no","legacy","legacy","legacy","0","uniform","1","undefined","undefined","undefined","1","f","0","0","0","0","17","0","0","0","17","NA","13","17","13","0","13","3","17","0","17","Thu Feb 18 11:17:08 2021","The main experiment item","yes","Lexical_Decision_Task.osexp","/Users/jessicacruz/Desktop","no","Andale Mono","no","18","no","white","no","yes","576","legacy","13","13","3","/Users/jessicacruz/Desktop/subject-5206107.csv","legacy","Lentiform Loewenfeld","3.3.7","yes","yes","600bd7cfb6416f0113b04181","602110864497cf011d9c0822","0","f","NA","space","space","space","NA","f","780","NA","54194","19805","8226","NA","780","2","legacy","1024","2","48000","-16","task","5206107","odd","NA","54084","110296","56101","145107","5648","33696","25466","145610","NA","145104","145611","145036","110296","146392","48999","136487","5610","143536","Lexical Decision Task","10","29561","18","yes","1024"
"3.384413096","10.15","3","glad","word","52.63157894736842","52.63157894736842","1647.0526315789473","1647.0526315789473","black","no","legacy","legacy","legacy","0","uniform","0","undefined","undefined","undefined","0","j","0","0","0","0","18","0","0","0","18","NA","14","18","14","0","14","3","18","0","18","Thu Feb 18 11:17:08 2021","The main experiment item","yes","Lexical_Decision_Task.osexp","/Users/jessicacruz/Desktop","no","Andale Mono","no","18","no","white","no","yes","576","legacy","14","14","3","/Users/jessicacruz/Desktop/subject-5206107.csv","legacy","Lentiform Loewenfeld","3.3.7","yes","yes","600bd7cfb6416f0113b04181","602110864497cf011d9c0822","0","f","NA","space","space","space","NA","f","1733","NA","54194","19805","8226","NA","1733","2","legacy","1024","2","48000","-16","task","5206107","odd","NA","54084","110296","56101","146964","5648","33696","25466","147467","NA","146962","147467","146895","110296","149201","48999","146395","5610","143536","Lexical Decision Task","10","31294","19","yes","1024"
"2.696644658","5.78","2","yolk","word","55","55","1610.65","1610.65","black","no","legacy","legacy","legacy","0","uniform","1","undefined","undefined","undefined","1","j","0","0","0","0","19","0","0","0","19","NA","15","19","15","0","15","3","19","0","19","Thu Feb 18 11:17:08 2021","The main experiment item","yes","Lexical_Decision_Task.osexp","/Users/jessicacruz/Desktop","no","Andale Mono","no","18","no","white","no","yes","576","legacy","15","15","3","/Users/jessicacruz/Desktop/subject-5206107.csv","legacy","Lentiform Loewenfeld","3.3.7","yes","yes","600bd7cfb6416f0113b04181","602110864497cf011d9c0822","0","j","NA","space","space","space","NA","j","919","NA","54194","19805","8226","NA","919","2","legacy","1024","2","48000","-16","task","5206107","odd","NA","54084","110296","56101","150778","5648","33696","25466","151281","NA","150774","151282","150704","110296","152201","48999","146395","5610","149204","Lexical Decision Task","11","32213","20","yes","1024"
"3.29439347","8.6","9","wand","word","57.142857142857146","57.142857142857146","1570","1570","black","no","legacy","legacy","legacy","0","uniform","1","undefined","undefined","undefined","1","j","0","0","0","0","20","0","0","0","20","NA","16","20","16","0","16","3","20","0","20","Thu Feb 18 11:17:08 2021","The main experiment item","yes","Lexical_Decision_Task.osexp","/Users/jessicacruz/Desktop","no","Andale Mono","no","18","no","white","no","yes","576","legacy","16","16","3","/Users/jessicacruz/Desktop/subject-5206107.csv","legacy","Lentiform Loewenfeld","3.3.7","yes","yes","600bd7cfb6416f0113b04181","602110864497cf011d9c0822","0","j","NA","space","space","space","NA","j","757","NA","54194","19805","8226","NA","757","2","legacy","1024","2","48000","-16","task","5206107","odd","NA","54084","110296","56101","152772","5648","33696","25466","153276","NA","152769","153276","152704","110296","154034","48999","152204","5610","149204","Lexical Decision Task","12","32970","21","yes","1024"
"2.821076612","0","4","lult","non-word","59.09090909090909","59.09090909090909","1531.8636363636363","1531.8636363636363","black","no","legacy","legacy","legacy","0","uniform","1","undefined","undefined","undefined","1","f","0","0","0","0","21","0","0","0","21","NA","17","21","17","0","17","3","21","0","21","Thu Feb 18 11:17:08 2021","The main experiment item","yes","Lexical_Decision_Task.osexp","/Users/jessicacruz/Desktop","no","Andale Mono","no","18","no","white","no","yes","576","legacy","17","17","3","/Users/jessicacruz/Desktop/subject-5206107.csv","legacy","Lentiform Loewenfeld","3.3.7","yes","yes","600bd7cfb6416f0113b04181","602110864497cf011d9c0822","0","f","NA","space","space","space","NA","f","731","NA","54194","19805","8226","NA","731","2","legacy","1024","2","48000","-16","task","5206107","odd","NA","54084","110296","56101","154606","5648","33696","25466","155109","NA","154603","155110","154537","110296","155842","48999","154037","5610","149204","Lexical Decision Task","13","33701","22","yes","1024"
"2.68604012","0","3","mulb","non-word","60.869565217391305","60.869565217391305","1516.1304347826087","1516.1304347826087","black","no","legacy","legacy","legacy","0","uniform","1","undefined","undefined","undefined","1","f","0","0","0","0","22","0","0","0","22","NA","18","22","18","0","18","3","22","0","22","Thu Feb 18 11:17:08 2021","The main experiment item","yes","Lexical_Decision_Task.osexp","/Users/jessicacruz/Desktop","no","Andale Mono","no","18","no","white","no","yes","576","legacy","18","18","3","/Users/jessicacruz/Desktop/subject-5206107.csv","legacy","Lentiform Loewenfeld","3.3.7","yes","yes","600bd7cfb6416f0113b04181","602110864497cf011d9c0822","0","f","NA","space","space","space","NA","f","1170","NA","54194","19805","8226","NA","1170","2","legacy","1024","2","48000","-16","task","5206107","odd","NA","54084","110296","56101","156413","5648","33696","25466","156916","NA","156410","156917","156345","110296","158088","48999","155845","5610","149204","Lexical Decision Task","14","34871","23","yes","1024"
"3.248054965","7.86","5","glow","word","62.5","62.5","1479.5833333333333","1479.5833333333333","black","no","legacy","legacy","legacy","0","uniform","1","undefined","undefined","undefined","1","j","0","0","0","0","23","0","0","0","23","NA","19","23","19","0","19","3","23","0","23","Thu Feb 18 11:17:08 2021","The main experiment item","yes","Lexical_Decision_Task.osexp","/Users/jessicacruz/Desktop","no","Andale Mono","no","18","no","white","no","yes","576","legacy","19","19","3","/Users/jessicacruz/Desktop/subject-5206107.csv","legacy","Lentiform Loewenfeld","3.3.7","yes","yes","600bd7cfb6416f0113b04181","602110864497cf011d9c0822","0","j","NA","space","space","space","NA","j","639","NA","54194","19805","8226","NA","639","2","legacy","1024","2","48000","-16","task","5206107","odd","NA","54084","110296","56101","158660","5648","33696","25466","159163","NA","158657","159164","158591","110296","159803","48999","158091","5610","149204","Lexical Decision Task","15","35510","24","yes","1024"
"3.15462682","0","6","noal","non-word","64","64","1445.8","1445.8","black","no","legacy","legacy","legacy","0","uniform","1","undefined","undefined","undefined","1","f","0","0","0","0","24","0","0","0","24","NA","20","24","20","0","20","3","24","0","24","Thu Feb 18 11:17:08 2021","The main experiment item","yes","Lexical_Decision_Task.osexp","/Users/jessicacruz/Desktop","no","Andale Mono","no","18","no","white","no","yes","576","legacy","20","20","3","/Users/jessicacruz/Desktop/subject-5206107.csv","legacy","Lentiform Loewenfeld","3.3.7","yes","yes","600bd7cfb6416f0113b04181","602110864497cf011d9c0822","0","f","NA","space","space","space","NA","f","635","NA","54194","19805","8226","NA","635","2","legacy","1024","2","48000","-16","task","5206107","odd","NA","54084","110296","56101","160372","5648","33696","25466","160877","NA","160370","160877","160307","110296","161512","48999","159807","5610","149204","Lexical Decision Task","16","36145","25","yes","1024"
"3.1430148","7.92","8","bald","word","65.38461538461539","65.38461538461539","1421","1421","black","no","legacy","legacy","legacy","0","uniform","1","undefined","undefined","undefined","1","j","0","0","0","0","25","0","0","0","25","NA","21","25","21","0","21","3","25","0","25","Thu Feb 18 11:17:08 2021","The main experiment item","yes","Lexical_Decision_Task.osexp","/Users/jessicacruz/Desktop","no","Andale Mono","no","18","no","white","no","yes","576","legacy","21","21","3","/Users/jessicacruz/Desktop/subject-5206107.csv","legacy","Lentiform Loewenfeld","3.3.7","yes","yes","600bd7cfb6416f0113b04181","602110864497cf011d9c0822","0","j","NA","space","space","space","NA","j","801","NA","54194","19805","8226","NA","801","2","legacy","1024","2","48000","-16","task","5206107","odd","NA","54084","110296","56101","162085","5648","33696","25466","162588","NA","162082","162589","162016","110296","163390","48999","161515","5610","149204","Lexical Decision Task","17","36946","26","yes","1024"
"2.6599162","0","2","saff","non-word","62.96296296296296","62.96296296296296","1404.5185185185185","1404.5185185185185","black","no","legacy","legacy","legacy","0","uniform","0","undefined","undefined","undefined","0","f","0","0","0","0","26","0","0","0","26","NA","22","26","22","0","22","3","26","0","26","Thu Feb 18 11:17:08 2021","The main experiment item","yes","Lexical_Decision_Task.osexp","/Users/jessicacruz/Desktop","no","Andale Mono","no","18","no","white","no","yes","576","legacy","22","22","3","/Users/jessicacruz/Desktop/subject-5206107.csv","legacy","Lentiform Loewenfeld","3.3.7","yes","yes","600bd7cfb6416f0113b04181","602110864497cf011d9c0822","0","j","NA","space","space","space","NA","j","976","NA","54194","19805","8226","NA","976","2","legacy","1024","2","48000","-16","task","5206107","odd","NA","54084","110296","56101","163962","5648","33696","25466","164465","NA","163959","164465","163894","110296","165442","48999","163394","5610","149204","Lexical Decision Task","17","37922","27","yes","1024"
"2.714888338","0","3","brug","non-word","64.28571428571429","64.28571428571429","1382.2142857142858","1382.2142857142858","black","no","legacy","legacy","legacy","0","uniform","1","undefined","undefined","undefined","1","f","0","0","0","0","27","0","0","0","27","NA","23","27","23","0","23","3","27","0","27","Thu Feb 18 11:17:08 2021","The main experiment item","yes","Lexical_Decision_Task.osexp","/Users/jessicacruz/Desktop","no","Andale Mono","no","18","no","white","no","yes","576","legacy","23","23","3","/Users/jessicacruz/Desktop/subject-5206107.csv","legacy","Lentiform Loewenfeld","3.3.7","yes","yes","600bd7cfb6416f0113b04181","602110864497cf011d9c0822","0","f","NA","space","space","space","NA","f","780","NA","54194","19805","8226","NA","780","2","legacy","1024","2","48000","-16","task","5206107","odd","NA","54084","110296","56101","167015","5648","33696","25466","167520","NA","167013","167521","166946","110296","168302","48999","163394","5610","165446","Lexical Decision Task","18","38702","28","yes","1024"
"3.20871002","7.15","8","cram","word","65.51724137931035","65.51724137931035","1357.0689655172414","1357.0689655172414","black","no","legacy","legacy","legacy","0","uniform","1","undefined","undefined","undefined","1","j","0","0","0","0","28","0","0","0","28","NA","24","28","24","0","24","3","28","0","28","Thu Feb 18 11:17:08 2021","The main experiment item","yes","Lexical_Decision_Task.osexp","/Users/jessicacruz/Desktop","no","Andale Mono","no","18","no","white","no","yes","576","legacy","24","24","3","/Users/jessicacruz/Desktop/subject-5206107.csv","legacy","Lentiform Loewenfeld","3.3.7","yes","yes","600bd7cfb6416f0113b04181","602110864497cf011d9c0822","0","j","NA","space","space","space","NA","j","653","NA","54194","19805","8226","NA","653","2","legacy","1024","2","48000","-16","task","5206107","odd","NA","54084","110296","56101","168872","5648","33696","25466","169376","NA","168869","169376","168805","110296","170030","48999","168305","5610","165446","Lexical Decision Task","19","39355","29","yes","1024"
"3.003891166","8.05","2","frog","word","66.66666666666667","66.66666666666667","1332.9666666666667","1332.9666666666667","black","no","legacy","legacy","legacy","0","uniform","1","undefined","undefined","undefined","1","j","0","0","0","0","29","0","0","0","29","NA","25","29","25","0","25","3","29","0","29","Thu Feb 18 11:17:08 2021","The main experiment item","yes","Lexical_Decision_Task.osexp","/Users/jessicacruz/Desktop","no","Andale Mono","no","18","no","white","no","yes","576","legacy","25","25","3","/Users/jessicacruz/Desktop/subject-5206107.csv","legacy","Lentiform Loewenfeld","3.3.7","yes","yes","600bd7cfb6416f0113b04181","602110864497cf011d9c0822","0","j","NA","space","space","space","NA","j","634","NA","54194","19805","8226","NA","634","2","legacy","1024","2","48000","-16","task","5206107","odd","NA","54084","110296","56101","170601","5648","33696","25466","171105","NA","170598","171105","170534","110296","171740","48999","170034","5610","165446","Lexical Decision Task","20","39989","30","yes","1024"
"3.010582609","0","2","drod","non-word","67.74193548387096","67.74193548387096","1313.032258064516","1313.032258064516","black","no","legacy","legacy","legacy","0","uniform","1","undefined","undefined","undefined","1","f","0","0","0","0","30","0","0","0","30","NA","26","30","26","0","26","3","30","0","30","Thu Feb 18 11:17:08 2021","The main experiment item","yes","Lexical_Decision_Task.osexp","/Users/jessicacruz/Desktop","no","Andale Mono","no","18","no","white","no","yes","576","legacy","26","26","3","/Users/jessicacruz/Desktop/subject-5206107.csv","legacy","Lentiform Loewenfeld","3.3.7","yes","yes","600bd7cfb6416f0113b04181","602110864497cf011d9c0822","0","f","NA","space","space","space","NA","f","715","NA","54194","19805","8226","NA","715","2","legacy","1024","2","48000","-16","task","5206107","odd","NA","54084","110296","56101","172309","5648","33696","25466","172812","NA","172306","172812","172243","110296","173528","48999","171743","5610","165446","Lexical Decision Task","21","40704","31","yes","1024"
"2.728085817","10.02","9","bike","word","68.75","68.75","1288.21875","1288.21875","black","no","legacy","legacy","legacy","0","uniform","1","undefined","undefined","undefined","1","j","0","0","0","0","31","0","0","0","31","NA","27","31","27","0","27","3","31","0","31","Thu Feb 18 11:17:08 2021","The main experiment item","yes","Lexical_Decision_Task.osexp","/Users/jessicacruz/Desktop","no","Andale Mono","no","18","no","white","no","yes","576","legacy","27","27","3","/Users/jessicacruz/Desktop/subject-5206107.csv","legacy","Lentiform Loewenfeld","3.3.7","yes","yes","600bd7cfb6416f0113b04181","602110864497cf011d9c0822","0","j","NA","space","space","space","NA","j","519","NA","54194","19805","8226","NA","519","2","legacy","1024","2","48000","-16","task","5206107","odd","NA","54084","110296","56101","174097","5648","33696","25466","174600","NA","174094","174601","174031","110296","175121","48999","173531","5610","165446","Lexical Decision Task","22","41223","32","yes","1024"
"3.276537627","9.15","5","trap","word","69.6969696969697","69.6969696969697","1269.969696969697","1269.969696969697","black","no","legacy","legacy","legacy","0","uniform","1","undefined","undefined","undefined","1","j","0","0","0","0","32","0","0","0","32","NA","28","32","28","0","28","3","32","0","32","Thu Feb 18 11:17:08 2021","The main experiment item","yes","Lexical_Decision_Task.osexp","/Users/jessicacruz/Desktop","no","Andale Mono","no","18","no","white","no","yes","576","legacy","28","28","3","/Users/jessicacruz/Desktop/subject-5206107.csv","legacy","Lentiform Loewenfeld","3.3.7","yes","yes","600bd7cfb6416f0113b04181","602110864497cf011d9c0822","0","j","NA","space","space","space","NA","j","686","NA","54194","19805","8226","NA","686","2","legacy","1024","2","48000","-16","task","5206107","odd","NA","54084","110296","56101","175691","5648","33696","25466","176195","NA","175688","176195","175624","110296","176882","48999","175124","5610","165446","Lexical Decision Task","23","41909","33","yes","1024"
"2.875447132","0","9","jelt","non-word","70.58823529411765","70.58823529411765","1256.4117647058824","1256.4117647058824","black","no","legacy","legacy","legacy","0","uniform","1","undefined","undefined","undefined","1","f","0","0","0","0","33","0","0","0","33","NA","29","33","29","0","29","3","33","0","33","Thu Feb 18 11:17:08 2021","The main experiment item","yes","Lexical_Decision_Task.osexp","/Users/jessicacruz/Desktop","no","Andale Mono","no","18","no","white","no","yes","576","legacy","29","29","3","/Users/jessicacruz/Desktop/subject-5206107.csv","legacy","Lentiform Loewenfeld","3.3.7","yes","yes","600bd7cfb6416f0113b04181","602110864497cf011d9c0822","0","f","NA","space","space","space","NA","f","809","NA","54194","19805","8226","NA","809","2","legacy","1024","2","48000","-16","task","5206107","odd","NA","54084","110296","56101","177451","5648","33696","25466","177954","NA","177448","177955","177385","110296","178765","48999","176885","5610","165446","Lexical Decision Task","24","42718","34","yes","1024"
"3.347850856","10.51","2","rich","word","71.42857142857143","71.42857142857143","1238.1714285714286","1238.1714285714286","black","no","legacy","legacy","legacy","0","uniform","1","undefined","undefined","undefined","1","j","0","0","0","0","34","0","0","0","34","NA","30","34","30","0","30","3","34","0","34","Thu Feb 18 11:17:08 2021","The main experiment item","yes","Lexical_Decision_Task.osexp","/Users/jessicacruz/Desktop","no","Andale Mono","no","18","no","white","no","yes","576","legacy","30","30","3","/Users/jessicacruz/Desktop/subject-5206107.csv","legacy","Lentiform Loewenfeld","3.3.7","yes","yes","600bd7cfb6416f0113b04181","602110864497cf011d9c0822","0","j","NA","space","space","space","NA","j","618","NA","54194","19805","8226","NA","618","2","legacy","1024","2","48000","-16","task","5206107","odd","NA","54084","110296","56101","179335","5648","33696","25466","179838","NA","179331","179839","179268","110296","180458","48999","178768","5610","165446","Lexical Decision Task","25","43336","35","yes","1024"
"3.062080345","0","6","tomp","non-word","72.22222222222223","72.22222222222223","1221.5555555555557","1221.5555555555557","black","no","legacy","legacy","legacy","0","uniform","1","undefined","undefined","undefined","1","f","0","0","0","0","35","0","0","0","35","NA","31","35","31","0","31","3","35","0","35","Thu Feb 18 11:17:08 2021","The main experiment item","yes","Lexical_Decision_Task.osexp","/Users/jessicacruz/Desktop","no","Andale Mono","no","18","no","white","no","yes","576","legacy","31","31","3","/Users/jessicacruz/Desktop/subject-5206107.csv","legacy","Lentiform Loewenfeld","3.3.7","yes","yes","600bd7cfb6416f0113b04181","602110864497cf011d9c0822","0","f","NA","space","space","space","NA","f","640","NA","54194","19805","8226","NA","640","2","legacy","1024","2","48000","-16","task","5206107","odd","NA","54084","110296","56101","181029","5648","33696","25466","181534","NA","181027","181534","180961","110296","182175","48999","180461","5610","165446","Lexical Decision Task","26","43976","36","yes","1024"
"3.134602053","0","8","jart","non-word","70.27027027027027","70.27027027027027","1211.4324324324325","1211.4324324324325","black","no","legacy","legacy","legacy","0","uniform","0","undefined","undefined","undefined","0","f","0","0","0","0","36","0","0","0","36","NA","32","36","32","0","32","3","36","0","36","Thu Feb 18 11:17:08 2021","The main experiment item","yes","Lexical_Decision_Task.osexp","/Users/jessicacruz/Desktop","no","Andale Mono","no","18","no","white","no","yes","576","legacy","32","32","3","/Users/jessicacruz/Desktop/subject-5206107.csv","legacy","Lentiform Loewenfeld","3.3.7","yes","yes","600bd7cfb6416f0113b04181","602110864497cf011d9c0822","0","j","NA","space","space","space","NA","j","847","NA","54194","19805","8226","NA","847","2","legacy","1024","2","48000","-16","task","5206107","odd","NA","54084","110296","56101","182745","5648","33696","25466","183248","NA","182742","183249","182678","110296","184097","48999","182178","5610","165446","Lexical Decision Task","26","44823","37","yes","1024"
"2.675164031","8.57","6","glue","word","71.05263157894737","71.05263157894737","1197.078947368421","1197.078947368421","black","no","legacy","legacy","legacy","0","uniform","1","undefined","undefined","undefined","1","j","0","0","0","0","37","0","0","0","37","NA","33","37","33","0","33","3","37","0","37","Thu Feb 18 11:17:08 2021","The main experiment item","yes","Lexical_Decision_Task.osexp","/Users/jessicacruz/Desktop","no","Andale Mono","no","18","no","white","no","yes","576","legacy","33","33","3","/Users/jessicacruz/Desktop/subject-5206107.csv","legacy","Lentiform Loewenfeld","3.3.7","yes","yes","600bd7cfb6416f0113b04181","602110864497cf011d9c0822","0","j","NA","space","space","space","NA","j","666","NA","54194","19805","8226","NA","666","2","legacy","1024","2","48000","-16","task","5206107","odd","NA","54084","110296","56101","185672","5648","33696","25466","186176","NA","185669","186176","185600","110296","186843","48999","182178","5610","184100","Lexical Decision Task","27","45489","38","yes","1024"
"3.067193647","6.73","6","raft","word","71.7948717948718","71.7948717948718","1183.820512820513","1183.820512820513","black","no","legacy","legacy","legacy","0","uniform","1","undefined","undefined","undefined","1","j","0","0","0","0","38","0","0","0","38","NA","34","38","34","0","34","3","38","0","38","Thu Feb 18 11:17:08 2021","The main experiment item","yes","Lexical_Decision_Task.osexp","/Users/jessicacruz/Desktop","no","Andale Mono","no","18","no","white","no","yes","576","legacy","34","34","3","/Users/jessicacruz/Desktop/subject-5206107.csv","legacy","Lentiform Loewenfeld","3.3.7","yes","yes","600bd7cfb6416f0113b04181","602110864497cf011d9c0822","0","j","NA","space","space","space","NA","j","680","NA","54194","19805","8226","NA","680","2","legacy","1024","2","48000","-16","task","5206107","odd","NA","54084","110296","56101","187413","5648","33696","25466","187918","NA","187411","187918","187346","110296","188599","48999","186846","5610","184100","Lexical Decision Task","28","46169","39","yes","1024"
"3.102203805","7.21","3","drip","word","72.5","72.5","1168.975","1168.975","black","no","legacy","legacy","legacy","0","uniform","1","undefined","undefined","undefined","1","j","0","0","0","0","39","0","0","0","39","NA","35","39","35","0","35","3","39","0","39","Thu Feb 18 11:17:08 2021","The main experiment item","yes","Lexical_Decision_Task.osexp","/Users/jessicacruz/Desktop","no","Andale Mono","no","18","no","white","no","yes","576","legacy","35","35","3","/Users/jessicacruz/Desktop/subject-5206107.csv","legacy","Lentiform Loewenfeld","3.3.7","yes","yes","600bd7cfb6416f0113b04181","602110864497cf011d9c0822","0","j","NA","space","space","space","NA","j","590","NA","54194","19805","8226","NA","590","2","legacy","1024","2","48000","-16","task","5206107","odd","NA","54084","110296","56101","189170","5648","33696","25466","189674","NA","189168","189674","189102","110296","190264","48999","188602","5610","184100","Lexical Decision Task","29","46759","40","yes","1024"
"3.031812271","6.52","3","gulp","word","73.17073170731707","73.17073170731707","1158.2926829268292","1158.2926829268292","black","no","legacy","legacy","legacy","0","uniform","1","undefined","undefined","undefined","1","j","0","0","0","0","40","0","0","0","40","NA","36","40","36","0","36","3","40","0","40","Thu Feb 18 11:17:08 2021","The main experiment item","yes","Lexical_Decision_Task.osexp","/Users/jessicacruz/Desktop","no","Andale Mono","no","18","no","white","no","yes","576","legacy","36","36","3","/Users/jessicacruz/Desktop/subject-5206107.csv","legacy","Lentiform Loewenfeld","3.3.7","yes","yes","600bd7cfb6416f0113b04181","602110864497cf011d9c0822","0","j","NA","space","space","space","NA","j","731","NA","54194","19805","8226","NA","731","2","legacy","1024","2","48000","-16","task","5206107","odd","NA","54084","110296","56101","190835","5648","33696","25466","191338","NA","190832","191339","190768","110296","192070","48999","190267","5610","184100","Lexical Decision Task","30","47490","41","yes","1024"
"3.261341392","5.08","8","reek","word","71.42857142857143","71.42857142857143","1166.0714285714287","1166.0714285714287","black","no","legacy","legacy","legacy","0","uniform","0","undefined","undefined","undefined","0","j","0","0","0","0","41","0","0","0","41","NA","37","41","37","0","37","3","41","0","41","Thu Feb 18 11:17:08 2021","The main experiment item","yes","Lexical_Decision_Task.osexp","/Users/jessicacruz/Desktop","no","Andale Mono","no","18","no","white","no","yes","576","legacy","37","37","3","/Users/jessicacruz/Desktop/subject-5206107.csv","legacy","Lentiform Loewenfeld","3.3.7","yes","yes","600bd7cfb6416f0113b04181","602110864497cf011d9c0822","0","f","NA","space","space","space","NA","f","1485","NA","54194","19805","8226","NA","1485","2","legacy","1024","2","48000","-16","task","5206107","odd","NA","54084","110296","56101","192642","5648","33696","25466","193145","NA","192640","193146","192574","110296","194632","48999","192074","5610","184100","Lexical Decision Task","30","48975","42","yes","1024"
"2.897810299","0","5","glur","non-word","72.09302325581395","72.09302325581395","1161.3488372093022","1161.3488372093022","black","no","legacy","legacy","legacy","0","uniform","1","undefined","undefined","undefined","1","f","0","0","0","0","42","0","0","0","42","NA","38","42","38","0","38","3","42","0","42","Thu Feb 18 11:17:08 2021","The main experiment item","yes","Lexical_Decision_Task.osexp","/Users/jessicacruz/Desktop","no","Andale Mono","no","18","no","white","no","yes","576","legacy","38","38","3","/Users/jessicacruz/Desktop/subject-5206107.csv","legacy","Lentiform Loewenfeld","3.3.7","yes","yes","600bd7cfb6416f0113b04181","602110864497cf011d9c0822","0","f","NA","space","space","space","NA","f","963","NA","54194","19805","8226","NA","963","2","legacy","1024","2","48000","-16","task","5206107","odd","NA","54084","110296","56101","196206","5648","33696","25466","196709","NA","196203","196709","196136","110296","197673","48999","192074","5610","194635","Lexical Decision Task","31","49938","43","yes","1024"
"2.794720352","0","9","koot","non-word","72.72727272727273","72.72727272727273","1149.5227272727273","1149.5227272727273","black","no","legacy","legacy","legacy","0","uniform","1","undefined","undefined","undefined","1","f","0","0","0","0","43","0","0","0","43","NA","39","43","39","0","39","3","43","0","43","Thu Feb 18 11:17:08 2021","The main experiment item","yes","Lexical_Decision_Task.osexp","/Users/jessicacruz/Desktop","no","Andale Mono","no","18","no","white","no","yes","576","legacy","39","39","3","/Users/jessicacruz/Desktop/subject-5206107.csv","legacy","Lentiform Loewenfeld","3.3.7","yes","yes","600bd7cfb6416f0113b04181","602110864497cf011d9c0822","0","f","NA","space","space","space","NA","f","641","NA","54194","19805","8226","NA","641","2","legacy","1024","2","48000","-16","task","5206107","odd","NA","54084","110296","56101","198245","5648","33696","25466","198748","NA","198242","198748","198177","110296","199390","48999","197677","5610","194635","Lexical Decision Task","32","50579","44","yes","1024"
"2.693726949","5.08","3","swig","word","73.33333333333333","73.33333333333333","1142.7333333333333","1142.7333333333333","black","no","legacy","legacy","legacy","0","uniform","1","undefined","undefined","undefined","1","j","0","0","0","0","44","0","0","0","44","NA","40","44","40","0","40","3","44","0","44","Thu Feb 18 11:17:08 2021","The main experiment item","yes","Lexical_Decision_Task.osexp","/Users/jessicacruz/Desktop","no","Andale Mono","no","18","no","white","no","yes","576","legacy","40","40","3","/Users/jessicacruz/Desktop/subject-5206107.csv","legacy","Lentiform Loewenfeld","3.3.7","yes","yes","600bd7cfb6416f0113b04181","602110864497cf011d9c0822","0","j","NA","space","space","space","NA","j","844","NA","54194","19805","8226","NA","844","2","legacy","1024","2","48000","-16","task","5206107","odd","NA","54084","110296","56101","199962","5648","33696","25466","200465","NA","199959","200466","199894","110296","201311","48999","199393","5610","194635","Lexical Decision Task","33","51423","45","yes","1024"
"3.269668578","0","7","trag","non-word","73.91304347826087","73.91304347826087","1134.8695652173913","1134.8695652173913","black","no","legacy","legacy","legacy","0","uniform","1","undefined","undefined","undefined","1","f","0","0","0","0","45","0","0","0","45","NA","41","45","41","0","41","3","45","0","45","Thu Feb 18 11:17:08 2021","The main experiment item","yes","Lexical_Decision_Task.osexp","/Users/jessicacruz/Desktop","no","Andale Mono","no","18","no","white","no","yes","576","legacy","41","41","3","/Users/jessicacruz/Desktop/subject-5206107.csv","legacy","Lentiform Loewenfeld","3.3.7","yes","yes","600bd7cfb6416f0113b04181","602110864497cf011d9c0822","0","f","NA","space","space","space","NA","f","781","NA","54194","19805","8226","NA","781","2","legacy","1024","2","48000","-16","task","5206107","odd","NA","54084","110296","56101","201881","5648","33696","25466","202384","NA","201879","202385","201814","110296","203167","48999","201314","5610","194635","Lexical Decision Task","34","52204","46","yes","1024"
"3.443783828","7.65","3","verb","word","74.46808510638297","74.46808510638297","1129.6382978723404","1129.6382978723404","black","no","legacy","legacy","legacy","0","uniform","1","undefined","undefined","undefined","1","j","0","0","0","0","46","0","0","0","46","NA","42","46","42","0","42","3","46","0","46","Thu Feb 18 11:17:08 2021","The main experiment item","yes","Lexical_Decision_Task.osexp","/Users/jessicacruz/Desktop","no","Andale Mono","no","18","no","white","no","yes","576","legacy","42","42","3","/Users/jessicacruz/Desktop/subject-5206107.csv","legacy","Lentiform Loewenfeld","3.3.7","yes","yes","600bd7cfb6416f0113b04181","602110864497cf011d9c0822","0","j","NA","space","space","space","NA","j","889","NA","54194","19805","8226","NA","889","2","legacy","1024","2","48000","-16","task","5206107","odd","NA","54084","110296","56101","203739","5648","33696","25466","204242","NA","203736","204243","203670","110296","205133","48999","203170","5610","194635","Lexical Decision Task","35","53093","47","yes","1024"
"2.839268497","0","8","maft","non-word","75","75","1120.375","1120.375","black","no","legacy","legacy","legacy","0","uniform","1","undefined","undefined","undefined","1","f","0","0","0","0","47","0","0","0","47","NA","43","47","43","0","43","3","47","0","47","Thu Feb 18 11:17:08 2021","The main experiment item","yes","Lexical_Decision_Task.osexp","/Users/jessicacruz/Desktop","no","Andale Mono","no","18","no","white","no","yes","576","legacy","43","43","3","/Users/jessicacruz/Desktop/subject-5206107.csv","legacy","Lentiform Loewenfeld","3.3.7","yes","yes","600bd7cfb6416f0113b04181","602110864497cf011d9c0822","0","f","NA","space","space","space","NA","f","685","NA","54194","19805","8226","NA","685","2","legacy","1024","2","48000","-16","task","5206107","odd","NA","54084","110296","56101","205705","5648","33696","25466","206209","NA","205703","206210","205636","110296","206896","48999","205136","5610","194635","Lexical Decision Task","36","53778","48","yes","1024"
"3.039414119","0","9","meep","non-word","75.51020408163265","75.51020408163265","1112.3469387755101","1112.3469387755101","black","no","legacy","legacy","legacy","0","uniform","1","undefined","undefined","undefined","1","f","0","0","0","0","48","0","0","0","48","NA","44","48","44","0","44","3","48","0","48","Thu Feb 18 11:17:08 2021","The main experiment item","yes","Lexical_Decision_Task.osexp","/Users/jessicacruz/Desktop","no","Andale Mono","no","18","no","white","no","yes","576","legacy","44","44","3","/Users/jessicacruz/Desktop/subject-5206107.csv","legacy","Lentiform Loewenfeld","3.3.7","yes","yes","600bd7cfb6416f0113b04181","602110864497cf011d9c0822","0","f","NA","space","space","space","NA","f","727","NA","54194","19805","8226","NA","727","2","legacy","1024","2","48000","-16","task","5206107","odd","NA","54084","110296","56101","207467","5648","33696","25466","207972","NA","207465","207972","207399","110296","208700","48999","206899","5610","194635","Lexical Decision Task","37","54505","49","yes","1024"
"3.137775856","7.39","5","comb","word","76","76","1105.5","1105.5","black","no","legacy","legacy","legacy","0","uniform","1","undefined","undefined","undefined","1","j","0","0","0","0","49","0","0","0","49","NA","45","49","45","0","45","3","49","0","49","Thu Feb 18 11:17:08 2021","The main experiment item","yes","Lexical_Decision_Task.osexp","/Users/jessicacruz/Desktop","no","Andale Mono","no","18","no","white","no","yes","576","legacy","45","45","3","/Users/jessicacruz/Desktop/subject-5206107.csv","legacy","Lentiform Loewenfeld","3.3.7","yes","yes","600bd7cfb6416f0113b04181","602110864497cf011d9c0822","0","j","NA","space","space","space","NA","j","770","NA","54194","19805","8226","NA","770","2","legacy","1024","2","48000","-16","task","5206107","odd","NA","54084","110296","56101","209272","5648","33696","25466","209776","NA","209269","209776","209203","110296","210547","48999","208703","5610","194635","Lexical Decision Task","38","55275","50","yes","1024"
"3.149629599","0","2","cleb","non-word","76.47058823529412","76.47058823529412","1102.3333333333333","1102.3333333333333","black","no","legacy","legacy","legacy","0","uniform","1","undefined","undefined","undefined","1","f","0","0","0","0","50","0","0","0","50","NA","46","50","46","0","46","3","50","0","50","Thu Feb 18 11:17:08 2021","The main experiment item","yes","Lexical_Decision_Task.osexp","/Users/jessicacruz/Desktop","no","Andale Mono","no","18","no","white","no","yes","576","legacy","46","46","3","/Users/jessicacruz/Desktop/subject-5206107.csv","legacy","Lentiform Loewenfeld","3.3.7","yes","yes","600bd7cfb6416f0113b04181","602110864497cf011d9c0822","0","f","NA","space","space","space","NA","f","944","NA","54194","19805","8226","NA","944","2","legacy","1024","2","48000","-16","task","5206107","odd","NA","54084","110296","56101","211118","5648","33696","25466","211621","NA","211115","211621","211050","110296","212566","48999","210549","5610","194635","Lexical Decision Task","39","56219","51","yes","1024"
"2.80048796","0","8","pife","non-word","76.92307692307692","76.92307692307692","1092.6153846153845","1092.6153846153845","black","no","legacy","legacy","legacy","0","uniform","1","undefined","undefined","undefined","1","f","0","0","0","0","51","0","0","0","51","NA","47","51","47","0","47","3","51","0","51","Thu Feb 18 11:17:08 2021","The main experiment item","yes","Lexical_Decision_Task.osexp","/Users/jessicacruz/Desktop","no","Andale Mono","no","18","no","white","no","yes","576","legacy","47","47","3","/Users/jessicacruz/Desktop/subject-5206107.csv","legacy","Lentiform Loewenfeld","3.3.7","yes","yes","600bd7cfb6416f0113b04181","602110864497cf011d9c0822","0","f","NA","space","space","space","NA","f","597","NA","54194","19805","8226","NA","597","2","legacy","1024","2","48000","-16","task","5206107","odd","NA","54084","110296","56101","213136","5648","33696","25466","213640","NA","213133","213640","213069","110296","214238","48999","212569","5610","194635","Lexical Decision Task","40","56816","52","yes","1024"
"2.979548375","8.71","4","soup","word","77.35849056603773","77.35849056603773","1083.9433962264152","1083.9433962264152","black","no","legacy","legacy","legacy","0","uniform","1","undefined","undefined","undefined","1","j","0","0","0","0","52","0","0","0","52","NA","48","52","48","0","48","3","52","0","52","Thu Feb 18 11:17:08 2021","The main experiment item","yes","Lexical_Decision_Task.osexp","/Users/jessicacruz/Desktop","no","Andale Mono","no","18","no","white","no","yes","576","legacy","48","48","3","/Users/jessicacruz/Desktop/subject-5206107.csv","legacy","Lentiform Loewenfeld","3.3.7","yes","yes","600bd7cfb6416f0113b04181","602110864497cf011d9c0822","0","j","NA","space","space","space","NA","j","633","NA","54194","19805","8226","NA","633","2","legacy","1024","2","48000","-16","task","5206107","odd","NA","54084","110296","56101","214809","5648","33696","25466","215313","NA","214807","215314","214741","110296","215948","48999","214241","5610","194635","Lexical Decision Task","41","57449","53","yes","1024"
"2.972357144","0","5","dasp","non-word","77.77777777777777","77.77777777777777","1074.148148148148","1074.148148148148","black","no","legacy","legacy","legacy","0","uniform","1","undefined","undefined","undefined","1","f","0","0","0","0","53","0","0","0","53","NA","49","53","49","0","49","3","53","0","53","Thu Feb 18 11:17:08 2021","The main experiment item","yes","Lexical_Decision_Task.osexp","/Users/jessicacruz/Desktop","no","Andale Mono","no","18","no","white","no","yes","576","legacy","49","49","3","/Users/jessicacruz/Desktop/subject-5206107.csv","legacy","Lentiform Loewenfeld","3.3.7","yes","yes","600bd7cfb6416f0113b04181","602110864497cf011d9c0822","0","f","NA","space","space","space","NA","f","555","NA","54194","19805","8226","NA","555","2","legacy","1024","2","48000","-16","task","5206107","odd","NA","54084","110296","56101","216518","5648","33696","25466","217022","NA","216516","217023","216451","110296","217579","48999","215951","5610","194635","Lexical Decision Task","42","58004","54","yes","1024"
"3.302475237","0","7","leel","non-word","78.18181818181819","78.18181818181819","1066.3818181818183","1066.3818181818183","black","no","legacy","legacy","legacy","0","uniform","1","undefined","undefined","undefined","1","f","0","0","0","0","54","0","0","0","54","0","50","54","50","0","50","3","54","0","54","Thu Feb 18 11:17:08 2021","The main experiment item","yes","Lexical_Decision_Task.osexp","/Users/jessicacruz/Desktop","no","Andale Mono","no","18","no","white","no","yes","576","legacy","50","50","3","/Users/jessicacruz/Desktop/subject-5206107.csv","legacy","Lentiform Loewenfeld","3.3.7","yes","yes","600bd7cfb6416f0113b04181","602110864497cf011d9c0822","0","f","NA","space","space","space","space","f","647","NA","54194","19805","8226","4706","647","2","legacy","1024","2","48000","-16","task","5206107","odd","NA","54084","110296","56101","222873","5648","33696","25466","223378","218122","222872","223379","218083","110296","224027","48999","217583","5610","194635","Lexical Decision Task","43","58651","55","yes","1024"
"3.094121596","0","8","fode","non-word","78.57142857142857","78.57142857142857","1058.4464285714287","1058.4464285714287","black","no","legacy","legacy","legacy","0","uniform","1","undefined","undefined","undefined","1","f","0","0","0","0","55","0","0","0","55","0","51","55","51","0","51","3","55","0","55","Thu Feb 18 11:17:08 2021","The main experiment item","yes","Lexical_Decision_Task.osexp","/Users/jessicacruz/Desktop","no","Andale Mono","no","18","no","white","no","yes","576","legacy","51","51","3","/Users/jessicacruz/Desktop/subject-5206107.csv","legacy","Lentiform Loewenfeld","3.3.7","yes","yes","600bd7cfb6416f0113b04181","602110864497cf011d9c0822","0","f","NA","space","space","space","space","f","622","NA","54194","19805","8226","4706","622","2","legacy","1024","2","48000","-16","task","5206107","odd","NA","54084","110296","56101","224599","5648","33696","25466","225103","218122","224596","225103","224531","110296","225726","48999","224030","5610","194635","Lexical Decision Task","44","59273","56","yes","1024"
"3.088136089","8.32","9","worm","word","78.94736842105263","78.94736842105263","1055.7368421052631","1055.7368421052631","black","no","legacy","legacy","legacy","0","uniform","1","undefined","undefined","undefined","1","j","0","0","0","0","56","0","0","0","56","0","52","56","52","0","52","3","56","0","56","Thu Feb 18 11:17:08 2021","The main experiment item","yes","Lexical_Decision_Task.osexp","/Users/jessicacruz/Desktop","no","Andale Mono","no","18","no","white","no","yes","576","legacy","52","52","3","/Users/jessicacruz/Desktop/subject-5206107.csv","legacy","Lentiform Loewenfeld","3.3.7","yes","yes","600bd7cfb6416f0113b04181","602110864497cf011d9c0822","0","j","NA","space","space","space","space","j","904","NA","54194","19805","8226","4706","904","2","legacy","1024","2","48000","-16","task","5206107","odd","NA","54084","110296","56101","226297","5648","33696","25466","226801","218122","226295","226801","226229","110296","227706","48999","225729","5610","194635","Lexical Decision Task","45","60177","57","yes","1024"
"3.121778632","0","9","sark","non-word","79.3103448275862","79.3103448275862","1047.6896551724137","1047.6896551724137","black","no","legacy","legacy","legacy","0","uniform","1","undefined","undefined","undefined","1","f","0","0","0","0","57","0","0","0","57","0","53","57","53","0","53","3","57","0","57","Thu Feb 18 11:17:08 2021","The main experiment item","yes","Lexical_Decision_Task.osexp","/Users/jessicacruz/Desktop","no","Andale Mono","no","18","no","white","no","yes","576","legacy","53","53","3","/Users/jessicacruz/Desktop/subject-5206107.csv","legacy","Lentiform Loewenfeld","3.3.7","yes","yes","600bd7cfb6416f0113b04181","602110864497cf011d9c0822","0","f","NA","space","space","space","space","f","589","NA","54194","19805","8226","4706","589","2","legacy","1024","2","48000","-16","task","5206107","odd","NA","54084","110296","56101","228278","5648","33696","25466","228781","218122","228275","228781","228209","110296","229371","48999","227709","5610","194635","Lexical Decision Task","46","60766","58","yes","1024"
"3.195807436","0","6","stup","non-word","79.66101694915254","79.66101694915254","1041.9830508474577","1041.9830508474577","black","no","legacy","legacy","legacy","0","uniform","1","undefined","undefined","undefined","1","f","0","0","0","0","58","0","0","0","58","0","54","58","54","0","54","3","58","0","58","Thu Feb 18 11:17:08 2021","The main experiment item","yes","Lexical_Decision_Task.osexp","/Users/jessicacruz/Desktop","no","Andale Mono","no","18","no","white","no","yes","576","legacy","54","54","3","/Users/jessicacruz/Desktop/subject-5206107.csv","legacy","Lentiform Loewenfeld","3.3.7","yes","yes","600bd7cfb6416f0113b04181","602110864497cf011d9c0822","0","f","NA","space","space","space","space","f","711","NA","54194","19805","8226","4706","711","2","legacy","1024","2","48000","-16","task","5206107","odd","NA","54084","110296","56101","229943","5648","33696","25466","230446","218122","229941","230447","229874","110296","231159","48999","229374","5610","194635","Lexical Decision Task","47","61477","59","yes","1024"
"2.69019608","9.01","2","myth","word","80","80","1035.0666666666666","1035.0666666666666","black","no","legacy","legacy","legacy","0","uniform","1","undefined","undefined","undefined","1","j","0","0","0","0","59","0","0","0","59","0","55","59","55","0","55","3","59","0","59","Thu Feb 18 11:17:08 2021","The main experiment item","yes","Lexical_Decision_Task.osexp","/Users/jessicacruz/Desktop","no","Andale Mono","no","18","no","white","no","yes","576","legacy","55","55","3","/Users/jessicacruz/Desktop/subject-5206107.csv","legacy","Lentiform Loewenfeld","3.3.7","yes","yes","600bd7cfb6416f0113b04181","602110864497cf011d9c0822","0","j","NA","space","space","space","space","j","627","NA","54194","19805","8226","4706","627","2","legacy","1024","2","48000","-16","task","5206107","odd","NA","54084","110296","56101","231730","5648","33696","25466","232233","218122","231727","232233","231662","110296","232861","48999","231162","5610","194635","Lexical Decision Task","48","62104","60","yes","1024"
"2.920123326","7.43","4","duel","word","80.32786885245902","80.32786885245902","1029.8524590163934","1029.8524590163934","black","no","legacy","legacy","legacy","0","uniform","1","undefined","undefined","undefined","1","j","0","0","0","0","60","0","0","0","60","0","56","60","56","0","56","3","60","0","60","Thu Feb 18 11:17:08 2021","The main experiment item","yes","Lexical_Decision_Task.osexp","/Users/jessicacruz/Desktop","no","Andale Mono","no","18","no","white","no","yes","576","legacy","56","56","3","/Users/jessicacruz/Desktop/subject-5206107.csv","legacy","Lentiform Loewenfeld","3.3.7","yes","yes","600bd7cfb6416f0113b04181","602110864497cf011d9c0822","0","j","NA","space","space","space","space","j","717","NA","54194","19805","8226","4706","717","2","legacy","1024","2","48000","-16","task","5206107","odd","NA","54084","110296","56101","233432","5648","33696","25466","233936","218122","233429","233936","233364","110296","234654","48999","232864","5610","194635","Lexical Decision Task","49","62821","61","yes","1024"
"3.263399331","0","8","cour","non-word","80.64516129032258","80.64516129032258","1024.3548387096773","1024.3548387096773","black","no","legacy","legacy","legacy","0","uniform","1","undefined","undefined","undefined","1","f","0","0","0","0","61","0","0","0","61","0","57","61","57","0","57","3","61","0","61","Thu Feb 18 11:17:08 2021","The main experiment item","yes","Lexical_Decision_Task.osexp","/Users/jessicacruz/Desktop","no","Andale Mono","no","18","no","white","no","yes","576","legacy","57","57","3","/Users/jessicacruz/Desktop/subject-5206107.csv","legacy","Lentiform Loewenfeld","3.3.7","yes","yes","600bd7cfb6416f0113b04181","602110864497cf011d9c0822","0","f","NA","space","space","space","space","f","689","NA","54194","19805","8226","4706","689","2","legacy","1024","2","48000","-16","task","5206107","odd","NA","54084","110296","56101","235226","5648","33696","25466","235730","218122","235224","235730","235158","110296","236420","48999","234658","5610","194635","Lexical Decision Task","50","63510","62","yes","1024"
"3.156347201","0","8","lasp","non-word","79.36507936507937","79.36507936507937","1055.7142857142858","1055.7142857142858","black","no","legacy","legacy","legacy","0","uniform","0","undefined","undefined","undefined","0","f","0","0","0","0","62","0","0","0","62","0","58","62","58","0","58","3","62","0","62","Thu Feb 18 11:17:08 2021","The main experiment item","yes","Lexical_Decision_Task.osexp","/Users/jessicacruz/Desktop","no","Andale Mono","no","18","no","white","no","yes","576","legacy","58","58","3","/Users/jessicacruz/Desktop/subject-5206107.csv","legacy","Lentiform Loewenfeld","3.3.7","yes","yes","600bd7cfb6416f0113b04181","602110864497cf011d9c0822","0","None","NA","space","space","space","space","None","3000","NA","54194","19805","8226","4706","3000","2","legacy","1024","2","48000","-16","task","5206107","odd","NA","54084","110296","56101","236992","5648","33696","25466","237496","218122","236989","237496","236924","110296","240496","48999","236424","5610","194635","Lexical Decision Task","50","66510","63","yes","1024"
"2.708989954","9.28","9","bowl","word","79.6875","79.6875","1051.984375","1051.984375","black","no","legacy","legacy","legacy","0","uniform","1","undefined","undefined","undefined","1","j","0","0","0","0","63","0","0","0","63","0","59","63","59","0","59","3","63","0","63","Thu Feb 18 11:17:08 2021","The main experiment item","yes","Lexical_Decision_Task.osexp","/Users/jessicacruz/Desktop","no","Andale Mono","no","18","no","white","no","yes","576","legacy","59","59","3","/Users/jessicacruz/Desktop/subject-5206107.csv","legacy","Lentiform Loewenfeld","3.3.7","yes","yes","600bd7cfb6416f0113b04181","602110864497cf011d9c0822","0","j","NA","space","space","space","space","j","817","NA","54194","19805","8226","4706","817","2","legacy","1024","2","48000","-16","task","5206107","odd","NA","54084","110296","56101","242070","5648","33696","25466","242573","218122","242067","242574","241999","110296","243392","48999","236424","5610","240499","Lexical Decision Task","51","67327","64","yes","1024"
"3.105055783","0","2","norp","non-word","80","80","1044.9846153846154","1044.9846153846154","black","no","legacy","legacy","legacy","0","uniform","1","undefined","undefined","undefined","1","f","0","0","0","0","64","0","0","0","64","0","60","64","60","0","60","3","64","0","64","Thu Feb 18 11:17:08 2021","The main experiment item","yes","Lexical_Decision_Task.osexp","/Users/jessicacruz/Desktop","no","Andale Mono","no","18","no","white","no","yes","576","legacy","60","60","3","/Users/jessicacruz/Desktop/subject-5206107.csv","legacy","Lentiform Loewenfeld","3.3.7","yes","yes","600bd7cfb6416f0113b04181","602110864497cf011d9c0822","0","f","NA","space","space","space","space","f","597","NA","54194","19805","8226","4706","597","2","legacy","1024","2","48000","-16","task","5206107","odd","NA","54084","110296","56101","243964","5648","33696","25466","244468","218122","243961","244468","243895","110296","245066","48999","243395","5610","240499","Lexical Decision Task","52","67924","65","yes","1024"
"2.980306438","0","7","slun","non-word","80.3030303030303","80.3030303030303","1039.6818181818182","1039.6818181818182","black","no","legacy","legacy","legacy","0","uniform","1","undefined","undefined","undefined","1","f","0","0","0","0","65","0","0","0","65","0","61","65","61","0","61","3","65","0","65","Thu Feb 18 11:17:08 2021","The main experiment item","yes","Lexical_Decision_Task.osexp","/Users/jessicacruz/Desktop","no","Andale Mono","no","18","no","white","no","yes","576","legacy","61","61","3","/Users/jessicacruz/Desktop/subject-5206107.csv","legacy","Lentiform Loewenfeld","3.3.7","yes","yes","600bd7cfb6416f0113b04181","602110864497cf011d9c0822","0","f","NA","space","space","space","space","f","695","NA","54194","19805","8226","4706","695","2","legacy","1024","2","48000","-16","task","5206107","odd","NA","54084","110296","56101","245637","5648","33696","25466","246141","218122","245635","246142","245569","110296","246838","48999","245069","5610","240499","Lexical Decision Task","53","68619","66","yes","1024"
"3.168400243","9.12","6","horn","word","79.1044776119403","79.1044776119403","1068.9402985074628","1068.9402985074628","black","no","legacy","legacy","legacy","0","uniform","0","undefined","undefined","undefined","0","j","0","0","0","0","66","0","0","0","66","0","62","66","62","0","62","3","66","0","66","Thu Feb 18 11:17:08 2021","The main experiment item","yes","Lexical_Decision_Task.osexp","/Users/jessicacruz/Desktop","no","Andale Mono","no","18","no","white","no","yes","576","legacy","62","62","3","/Users/jessicacruz/Desktop/subject-5206107.csv","legacy","Lentiform Loewenfeld","3.3.7","yes","yes","600bd7cfb6416f0113b04181","602110864497cf011d9c0822","0","None","NA","space","space","space","space","None","3000","NA","54194","19805","8226","4706","3000","2","legacy","1024","2","48000","-16","task","5206107","odd","NA","54084","110296","56101","247436","5648","33696","25466","247939","218122","247431","247940","247341","110296","250940","48999","246841","5610","240499","Lexical Decision Task","53","71619","67","yes","1024"
"2.899092422","7.27","6","snag","word","77.94117647058823","77.94117647058823","1097.3382352941176","1097.3382352941176","black","no","legacy","legacy","legacy","0","uniform","0","undefined","undefined","undefined","0","j","0","0","0","0","67","0","0","0","67","0","63","67","63","0","63","3","67","0","67","Thu Feb 18 11:17:08 2021","The main experiment item","yes","Lexical_Decision_Task.osexp","/Users/jessicacruz/Desktop","no","Andale Mono","no","18","no","white","no","yes","576","legacy","63","63","3","/Users/jessicacruz/Desktop/subject-5206107.csv","legacy","Lentiform Loewenfeld","3.3.7","yes","yes","600bd7cfb6416f0113b04181","602110864497cf011d9c0822","0","None","NA","space","space","space","space","None","3000","NA","54194","19805","8226","4706","3000","2","legacy","1024","2","48000","-16","task","5206107","odd","NA","54084","110296","56101","252518","5648","33696","25466","253022","218122","252514","253022","252444","110296","256022","48999","246841","5610","250944","Lexical Decision Task","53","74619","68","yes","1024"
"3.031408464","0","7","drow","non-word","76.81159420289855","76.81159420289855","1124.9130434782608","1124.9130434782608","black","no","legacy","legacy","legacy","0","uniform","0","undefined","undefined","undefined","0","f","0","0","0","0","68","0","0","0","68","0","64","68","64","0","64","3","68","0","68","Thu Feb 18 11:17:08 2021","The main experiment item","yes","Lexical_Decision_Task.osexp","/Users/jessicacruz/Desktop","no","Andale Mono","no","18","no","white","no","yes","576","legacy","64","64","3","/Users/jessicacruz/Desktop/subject-5206107.csv","legacy","Lentiform Loewenfeld","3.3.7","yes","yes","600bd7cfb6416f0113b04181","602110864497cf011d9c0822","0","None","NA","space","space","space","space","None","3000","NA","54194","19805","8226","4706","3000","2","legacy","1024","2","48000","-16","task","5206107","odd","NA","54084","110296","56101","257605","5648","33696","25466","258115","218122","257592","258115","257525","110296","261115","48999","246841","5610","256025","Lexical Decision Task","53","77619","69","yes","1024"
"3.316948329","0","1","besc","non-word","75.71428571428571","75.71428571428571","1151.7142857142858","1151.7142857142858","black","no","legacy","legacy","legacy","0","uniform","0","undefined","undefined","undefined","0","f","0","0","0","0","69","0","0","0","69","0","65","69","65","0","65","3","69","0","69","Thu Feb 18 11:17:08 2021","The main experiment item","yes","Lexical_Decision_Task.osexp","/Users/jessicacruz/Desktop","no","Andale Mono","no","18","no","white","no","yes","576","legacy","65","65","3","/Users/jessicacruz/Desktop/subject-5206107.csv","legacy","Lentiform Loewenfeld","3.3.7","yes","yes","600bd7cfb6416f0113b04181","602110864497cf011d9c0822","0","None","NA","space","space","space","space","None","3001","NA","54194","19805","8226","4706","3001","2","legacy","1024","2","48000","-16","task","5206107","odd","NA","54084","110296","56101","262690","5648","33696","25466","263201","218122","262678","263201","262619","110296","266202","48999","246841","5610","261119","Lexical Decision Task","53","80620","70","yes","1024"
"3.2757719","0","5","slea","non-word","74.64788732394366","74.64788732394366","1177.7464788732395","1177.7464788732395","black","no","legacy","legacy","legacy","0","uniform","0","undefined","undefined","undefined","0","f","0","0","0","0","70","0","0","0","70","0","66","70","66","0","66","3","70","0","70","Thu Feb 18 11:17:08 2021","The main experiment item","yes","Lexical_Decision_Task.osexp","/Users/jessicacruz/Desktop","no","Andale Mono","no","18","no","white","no","yes","576","legacy","66","66","3","/Users/jessicacruz/Desktop/subject-5206107.csv","legacy","Lentiform Loewenfeld","3.3.7","yes","yes","600bd7cfb6416f0113b04181","602110864497cf011d9c0822","0","None","NA","space","space","space","space","None","3000","NA","54194","19805","8226","4706","3000","2","legacy","1024","2","48000","-16","task","5206107","odd","NA","54084","110296","56101","267788","5648","33696","25466","268291","218122","267776","268292","267706","110296","271293","48999","246841","5610","266205","Lexical Decision Task","53","83620","71","yes","1024"
"3.274543461","7.46","7","scar","word","73.61111111111111","73.61111111111111","1203.0555555555557","1203.0555555555557","black","no","legacy","legacy","legacy","0","uniform","0","undefined","undefined","undefined","0","j","0","0","0","0","71","0","0","0","71","0","67","71","67","0","67","3","71","0","71","Thu Feb 18 11:17:08 2021","The main experiment item","yes","Lexical_Decision_Task.osexp","/Users/jessicacruz/Desktop","no","Andale Mono","no","18","no","white","no","yes","576","legacy","67","67","3","/Users/jessicacruz/Desktop/subject-5206107.csv","legacy","Lentiform Loewenfeld","3.3.7","yes","yes","600bd7cfb6416f0113b04181","602110864497cf011d9c0822","0","None","NA","space","space","space","space","None","3000","NA","54194","19805","8226","4706","3000","2","legacy","1024","2","48000","-16","task","5206107","odd","NA","54084","110296","56101","272882","5648","33696","25466","273394","218122","272866","273394","272796","110296","276394","48999","246841","5610","271296","Lexical Decision Task","53","86620","72","yes","1024"
"3.077974404","10.41","8","tool","word","72.6027397260274","72.6027397260274","1227.6849315068494","1227.6849315068494","black","no","legacy","legacy","legacy","0","uniform","0","undefined","undefined","undefined","0","j","0","0","0","0","72","0","0","0","72","0","68","72","68","0","68","3","72","0","72","Thu Feb 18 11:17:08 2021","The main experiment item","yes","Lexical_Decision_Task.osexp","/Users/jessicacruz/Desktop","no","Andale Mono","no","18","no","white","no","yes","576","legacy","68","68","3","/Users/jessicacruz/Desktop/subject-5206107.csv","legacy","Lentiform Loewenfeld","3.3.7","yes","yes","600bd7cfb6416f0113b04181","602110864497cf011d9c0822","0","None","NA","space","space","space","space","None","3001","NA","54194","19805","8226","4706","3001","2","legacy","1024","2","48000","-16","task","5206107","odd","NA","54084","110296","56101","277976","5648","33696","25466","278479","218122","277967","278479","277898","110296","281480","48999","246841","5610","276398","Lexical Decision Task","53","89621","73","yes","1024"
"2.696356389","0","1","pizz","non-word","71.62162162162163","71.62162162162163","1251.6351351351352","1251.6351351351352","black","no","legacy","legacy","legacy","0","uniform","0","undefined","undefined","undefined","0","f","0","0","0","0","73","0","0","0","73","0","69","73","69","0","69","3","73","0","73","Thu Feb 18 11:17:08 2021","The main experiment item","yes","Lexical_Decision_Task.osexp","/Users/jessicacruz/Desktop","no","Andale Mono","no","18","no","white","no","yes","576","legacy","69","69","3","/Users/jessicacruz/Desktop/subject-5206107.csv","legacy","Lentiform Loewenfeld","3.3.7","yes","yes","600bd7cfb6416f0113b04181","602110864497cf011d9c0822","0","None","NA","space","space","space","space","None","3000","NA","54194","19805","8226","4706","3000","2","legacy","1024","2","48000","-16","task","5206107","odd","NA","54084","110296","56101","283058","5648","33696","25466","283562","218122","283054","283563","282984","110296","286563","48999","246841","5610","281483","Lexical Decision Task","53","92621","74","yes","1024"
"3.194328374","9.42","6","harm","word","70.66666666666667","70.66666666666667","1274.9466666666667","1274.9466666666667","black","no","legacy","legacy","legacy","0","uniform","0","undefined","undefined","undefined","0","j","0","0","0","0","74","0","0","0","74","0","70","74","70","0","70","3","74","0","74","Thu Feb 18 11:17:08 2021","The main experiment item","yes","Lexical_Decision_Task.osexp","/Users/jessicacruz/Desktop","no","Andale Mono","no","18","no","white","no","yes","576","legacy","70","70","3","/Users/jessicacruz/Desktop/subject-5206107.csv","legacy","Lentiform Loewenfeld","3.3.7","yes","yes","600bd7cfb6416f0113b04181","602110864497cf011d9c0822","0","None","NA","space","space","space","space","None","3000","NA","54194","19805","8226","4706","3000","2","legacy","1024","2","48000","-16","task","5206107","odd","NA","54084","110296","56101","288152","5648","33696","25466","288664","218122","288142","288664","288067","110296","291664","48999","246841","5610","286567","Lexical Decision Task","53","95621","75","yes","1024"
"3.274157849","0","8","leet","non-word","69.73684210526316","69.73684210526316","1297.657894736842","1297.657894736842","black","no","legacy","legacy","legacy","0","uniform","0","undefined","undefined","undefined","0","f","0","0","0","0","75","0","0","0","75","0","71","75","71","0","71","3","75","0","75","Thu Feb 18 11:17:08 2021","The main experiment item","yes","Lexical_Decision_Task.osexp","/Users/jessicacruz/Desktop","no","Andale Mono","no","18","no","white","no","yes","576","legacy","71","71","3","/Users/jessicacruz/Desktop/subject-5206107.csv","legacy","Lentiform Loewenfeld","3.3.7","yes","yes","600bd7cfb6416f0113b04181","602110864497cf011d9c0822","0","None","NA","space","space","space","space","None","3001","NA","54194","19805","8226","4706","3001","2","legacy","1024","2","48000","-16","task","5206107","odd","NA","54084","110296","56101","293240","5648","33696","25466","293743","218122","293237","293743","293168","110296","296744","48999","246841","5610","291668","Lexical Decision Task","53","98622","76","yes","1024"
"3.492014979","0","9","yine","non-word","68.83116883116882","68.83116883116882","1319.7662337662337","1319.7662337662337","black","no","legacy","legacy","legacy","0","uniform","0","undefined","undefined","undefined","0","f","0","0","0","0","76","0","0","0","76","0","72","76","72","0","72","3","76","0","76","Thu Feb 18 11:17:08 2021","The main experiment item","yes","Lexical_Decision_Task.osexp","/Users/jessicacruz/Desktop","no","Andale Mono","no","18","no","white","no","yes","576","legacy","72","72","3","/Users/jessicacruz/Desktop/subject-5206107.csv","legacy","Lentiform Loewenfeld","3.3.7","yes","yes","600bd7cfb6416f0113b04181","602110864497cf011d9c0822","0","None","NA","space","space","space","space","None","3000","NA","54194","19805","8226","4706","3000","2","legacy","1024","2","48000","-16","task","5206107","odd","NA","54084","110296","56101","298327","5648","33696","25466","298830","218122","298317","298831","298248","110296","301831","48999","246841","5610","296748","Lexical Decision Task","53","101622","77","yes","1024"
"3.431095062","5.74","9","perk","word","67.94871794871794","67.94871794871794","1341.3076923076924","1341.3076923076924","black","no","legacy","legacy","legacy","0","uniform","0","undefined","undefined","undefined","0","j","0","0","0","0","77","0","0","0","77","0","73","77","73","0","73","3","77","0","77","Thu Feb 18 11:17:08 2021","The main experiment item","yes","Lexical_Decision_Task.osexp","/Users/jessicacruz/Desktop","no","Andale Mono","no","18","no","white","no","yes","576","legacy","73","73","3","/Users/jessicacruz/Desktop/subject-5206107.csv","legacy","Lentiform Loewenfeld","3.3.7","yes","yes","600bd7cfb6416f0113b04181","602110864497cf011d9c0822","0","None","NA","space","space","space","space","None","3000","NA","54194","19805","8226","4706","3000","2","legacy","1024","2","48000","-16","task","5206107","odd","NA","54084","110296","56101","303420","5648","33696","25466","303933","218122","303406","303933","303334","110296","306933","48999","246841","5610","301834","Lexical Decision Task","53","104622","78","yes","1024"
"2.813801082","5.47","7","nook","word","67.0886075949367","67.0886075949367","1362.3037974683543","1362.3037974683543","black","no","legacy","legacy","legacy","0","uniform","0","undefined","undefined","undefined","0","j","0","0","0","0","78","0","0","0","78","0","74","78","74","0","74","3","78","0","78","Thu Feb 18 11:17:08 2021","The main experiment item","yes","Lexical_Decision_Task.osexp","/Users/jessicacruz/Desktop","no","Andale Mono","no","18","no","white","no","yes","576","legacy","74","74","3","/Users/jessicacruz/Desktop/subject-5206107.csv","legacy","Lentiform Loewenfeld","3.3.7","yes","yes","600bd7cfb6416f0113b04181","602110864497cf011d9c0822","0","None","NA","space","space","space","space","None","3000","NA","54194","19805","8226","4706","3000","2","legacy","1024","2","48000","-16","task","5206107","odd","NA","54084","110296","56101","308509","5648","33696","25466","309018","218122","308502","309019","308437","110296","312019","48999","246841","5610","306937","Lexical Decision Task","53","107622","79","yes","1024"
"2.809559715","8.44","4","volt","word","66.25","66.25","1353.5125","1353.5125","black","no","legacy","legacy","legacy","0","uniform","0","undefined","undefined","undefined","0","j","0","0","0","0","79","0","0","0","79","0","75","79","75","0","75","3","79","0","79","Thu Feb 18 11:17:08 2021","The main experiment item","yes","Lexical_Decision_Task.osexp","/Users/jessicacruz/Desktop","no","Andale Mono","no","18","no","white","no","yes","576","legacy","75","75","3","/Users/jessicacruz/Desktop/subject-5206107.csv","legacy","Lentiform Loewenfeld","3.3.7","yes","yes","600bd7cfb6416f0113b04181","602110864497cf011d9c0822","0","f","NA","space","space","space","space","f","659","NA","54194","19805","8226","4706","659","2","legacy","1024","2","48000","-16","task","5206107","odd","NA","54084","110296","56101","313595","5648","33696","25466","314102","218122","313592","314102","313523","110296","314762","48999","246841","5610","312022","Lexical Decision Task","53","108281","80","yes","1024"
"2.953276337","6.32","4","thaw","word","65.4320987654321","65.4320987654321","1345.1728395061727","1345.1728395061727","black","no","legacy","legacy","legacy","0","uniform","0","undefined","undefined","undefined","0","j","0","0","0","0","80","0","0","0","80","0","76","80","76","0","76","3","80","0","80","Thu Feb 18 11:17:08 2021","The main experiment item","yes","Lexical_Decision_Task.osexp","/Users/jessicacruz/Desktop","no","Andale Mono","no","18","no","white","no","yes","576","legacy","76","76","3","/Users/jessicacruz/Desktop/subject-5206107.csv","legacy","Lentiform Loewenfeld","3.3.7","yes","yes","600bd7cfb6416f0113b04181","602110864497cf011d9c0822","0","f","NA","space","space","space","space","f","678","NA","54194","19805","8226","4706","678","2","legacy","1024","2","48000","-16","task","5206107","odd","NA","54084","110296","56101","316337","5648","33696","25466","316842","218122","316334","316843","316265","110296","317522","48999","246841","5610","314765","Lexical Decision Task","53","108959","81","yes","1024"
"3.218535505","7.85","7","goat","word","65.85365853658537","65.85365853658537","1337.5365853658536","1337.5365853658536","black","no","legacy","legacy","legacy","0","uniform","1","undefined","undefined","undefined","1","j","0","0","0","0","81","0","0","0","81","0","77","81","77","0","77","3","81","0","81","Thu Feb 18 11:17:08 2021","The main experiment item","yes","Lexical_Decision_Task.osexp","/Users/jessicacruz/Desktop","no","Andale Mono","no","18","no","white","no","yes","576","legacy","77","77","3","/Users/jessicacruz/Desktop/subject-5206107.csv","legacy","Lentiform Loewenfeld","3.3.7","yes","yes","600bd7cfb6416f0113b04181","602110864497cf011d9c0822","0","j","NA","space","space","space","space","j","719","NA","54194","19805","8226","4706","719","2","legacy","1024","2","48000","-16","task","5206107","odd","NA","54084","110296","56101","319096","5648","33696","25466","319600","218122","319093","319601","319025","110296","320321","48999","246841","5610","317525","Lexical Decision Task","54","109678","82","yes","1024"
"3.082307743","9.68","8","camp","word","66.26506024096386","66.26506024096386","1330.2771084337348","1330.2771084337348","black","no","legacy","legacy","legacy","0","uniform","1","undefined","undefined","undefined","1","j","0","0","0","0","82","0","0","0","82","0","78","82","78","0","78","3","82","0","82","Thu Feb 18 11:17:08 2021","The main experiment item","yes","Lexical_Decision_Task.osexp","/Users/jessicacruz/Desktop","no","Andale Mono","no","18","no","white","no","yes","576","legacy","78","78","3","/Users/jessicacruz/Desktop/subject-5206107.csv","legacy","Lentiform Loewenfeld","3.3.7","yes","yes","600bd7cfb6416f0113b04181","602110864497cf011d9c0822","0","j","NA","space","space","space","space","j","735","NA","54194","19805","8226","4706","735","2","legacy","1024","2","48000","-16","task","5206107","odd","NA","54084","110296","56101","320892","5648","33696","25466","321396","218122","320889","321396","320824","110296","322132","48999","320324","5610","317525","Lexical Decision Task","55","110413","83","yes","1024"
"2.799799878","0","4","ciff","non-word","66.66666666666667","66.66666666666667","1321.904761904762","1321.904761904762","black","no","legacy","legacy","legacy","0","uniform","1","undefined","undefined","undefined","1","f","0","0","0","0","83","0","0","0","83","0","79","83","79","0","79","3","83","0","83","Thu Feb 18 11:17:08 2021","The main experiment item","yes","Lexical_Decision_Task.osexp","/Users/jessicacruz/Desktop","no","Andale Mono","no","18","no","white","no","yes","576","legacy","79","79","3","/Users/jessicacruz/Desktop/subject-5206107.csv","legacy","Lentiform Loewenfeld","3.3.7","yes","yes","600bd7cfb6416f0113b04181","602110864497cf011d9c0822","0","f","NA","space","space","space","space","f","627","NA","54194","19805","8226","4706","627","2","legacy","1024","2","48000","-16","task","5206107","odd","NA","54084","110296","56101","322703","5648","33696","25466","323207","218122","322700","323207","322635","110296","323835","48999","322135","5610","317525","Lexical Decision Task","56","111040","84","yes","1024"
"2.981215883","10.66","5","hair","word","67.05882352941177","67.05882352941177","1314.1882352941177","1314.1882352941177","black","no","legacy","legacy","legacy","0","uniform","1","undefined","undefined","undefined","1","j","0","0","0","0","84","0","0","0","84","0","80","84","80","0","80","3","84","0","84","Thu Feb 18 11:17:08 2021","The main experiment item","yes","Lexical_Decision_Task.osexp","/Users/jessicacruz/Desktop","no","Andale Mono","no","18","no","white","no","yes","576","legacy","80","80","3","/Users/jessicacruz/Desktop/subject-5206107.csv","legacy","Lentiform Loewenfeld","3.3.7","yes","yes","600bd7cfb6416f0113b04181","602110864497cf011d9c0822","0","j","NA","space","space","space","space","j","666","NA","54194","19805","8226","4706","666","2","legacy","1024","2","48000","-16","task","5206107","odd","NA","54084","110296","56101","324406","5648","33696","25466","324909","218122","324403","324910","324338","110296","325577","48999","323838","5610","317525","Lexical Decision Task","57","111706","85","yes","1024"
"2.819763221","0","2","durp","non-word","67.44186046511628","67.44186046511628","1307.0116279069769","1307.0116279069769","black","no","legacy","legacy","legacy","0","uniform","1","undefined","undefined","undefined","1","f","0","0","0","0","85","0","0","0","85","0","81","85","81","0","81","3","85","0","85","Thu Feb 18 11:17:08 2021","The main experiment item","yes","Lexical_Decision_Task.osexp","/Users/jessicacruz/Desktop","no","Andale Mono","no","18","no","white","no","yes","576","legacy","81","81","3","/Users/jessicacruz/Desktop/subject-5206107.csv","legacy","Lentiform Loewenfeld","3.3.7","yes","yes","600bd7cfb6416f0113b04181","602110864497cf011d9c0822","0","f","NA","space","space","space","space","f","697","NA","54194","19805","8226","4706","697","2","legacy","1024","2","48000","-16","task","5206107","odd","NA","54084","110296","56101","326148","5648","33696","25466","326652","218122","326146","326652","326080","110296","327349","48999","325580","5610","317525","Lexical Decision Task","58","112403","86","yes","1024"
"3.474361976","5.24","6","veer","word","66.66666666666667","66.66666666666667","1299.8505747126437","1299.8505747126437","black","no","legacy","legacy","legacy","0","uniform","0","undefined","undefined","undefined","0","j","0","0","0","0","86","0","0","0","86","0","82","86","82","0","82","3","86","0","86","Thu Feb 18 11:17:08 2021","The main experiment item","yes","Lexical_Decision_Task.osexp","/Users/jessicacruz/Desktop","no","Andale Mono","no","18","no","white","no","yes","576","legacy","82","82","3","/Users/jessicacruz/Desktop/subject-5206107.csv","legacy","Lentiform Loewenfeld","3.3.7","yes","yes","600bd7cfb6416f0113b04181","602110864497cf011d9c0822","0","f","NA","space","space","space","space","f","684","NA","54194","19805","8226","4706","684","2","legacy","1024","2","48000","-16","task","5206107","odd","NA","54084","110296","56101","327921","5648","33696","25466","328424","218122","327918","328425","327853","110296","329110","48999","327353","5610","317525","Lexical Decision Task","58","113087","87","yes","1024"
"3.307211407","6.07","7","honk","word","67.04545454545455","67.04545454545455","1294.4318181818182","1294.4318181818182","black","no","legacy","legacy","legacy","0","uniform","1","undefined","undefined","undefined","1","j","0","0","0","0","87","0","0","0","87","0","83","87","83","0","83","3","87","0","87","Thu Feb 18 11:17:08 2021","The main experiment item","yes","Lexical_Decision_Task.osexp","/Users/jessicacruz/Desktop","no","Andale Mono","no","18","no","white","no","yes","576","legacy","83","83","3","/Users/jessicacruz/Desktop/subject-5206107.csv","legacy","Lentiform Loewenfeld","3.3.7","yes","yes","600bd7cfb6416f0113b04181","602110864497cf011d9c0822","0","j","NA","space","space","space","space","j","823","NA","54194","19805","8226","4706","823","2","legacy","1024","2","48000","-16","task","5206107","odd","NA","54084","110296","56101","330687","5648","33696","25466","331190","218122","330684","331191","330614","110296","332015","48999","327353","5610","329114","Lexical Decision Task","59","113910","88","yes","1024"
"3.064581521","5.51","6","cask","word","66.29213483146067","66.29213483146067","1287.247191011236","1287.247191011236","black","no","legacy","legacy","legacy","0","uniform","0","undefined","undefined","undefined","0","j","0","0","0","0","88","0","0","0","88","0","84","88","84","0","84","3","88","0","88","Thu Feb 18 11:17:08 2021","The main experiment item","yes","Lexical_Decision_Task.osexp","/Users/jessicacruz/Desktop","no","Andale Mono","no","18","no","white","no","yes","576","legacy","84","84","3","/Users/jessicacruz/Desktop/subject-5206107.csv","legacy","Lentiform Loewenfeld","3.3.7","yes","yes","600bd7cfb6416f0113b04181","602110864497cf011d9c0822","0","f","NA","space","space","space","space","f","655","NA","54194","19805","8226","4706","655","2","legacy","1024","2","48000","-16","task","5206107","odd","NA","54084","110296","56101","332588","5648","33696","25466","333091","218122","332585","333092","332519","110296","333748","48999","332019","5610","329114","Lexical Decision Task","59","114565","89","yes","1024"
"3.225825991","0","7","talm","non-word","66.66666666666667","66.66666666666667","1279.9888888888888","1279.9888888888888","black","no","legacy","legacy","legacy","0","uniform","1","undefined","undefined","undefined","1","f","0","0","0","0","89","0","0","0","89","0","85","89","85","0","85","3","89","0","89","Thu Feb 18 11:17:08 2021","The main experiment item","yes","Lexical_Decision_Task.osexp","/Users/jessicacruz/Desktop","no","Andale Mono","no","18","no","white","no","yes","576","legacy","85","85","3","/Users/jessicacruz/Desktop/subject-5206107.csv","legacy","Lentiform Loewenfeld","3.3.7","yes","yes","600bd7cfb6416f0113b04181","602110864497cf011d9c0822","0","f","NA","space","space","space","space","f","634","NA","54194","19805","8226","4706","634","2","legacy","1024","2","48000","-16","task","5206107","odd","NA","54084","110296","56101","335322","5648","33696","25466","335826","218122","335320","335827","335252","110296","336462","48999","332019","5610","333752","Lexical Decision Task","60","115199","90","yes","1024"
"3.208172527","10.27","7","deck","word","67.03296703296704","67.03296703296704","1272.3076923076924","1272.3076923076924","black","no","legacy","legacy","legacy","0","uniform","1","undefined","undefined","undefined","1","j","0","0","0","0","90","0","0","0","90","0","86","90","86","0","86","3","90","0","90","Thu Feb 18 11:17:08 2021","The main experiment item","yes","Lexical_Decision_Task.osexp","/Users/jessicacruz/Desktop","no","Andale Mono","no","18","no","white","no","yes","576","legacy","86","86","3","/Users/jessicacruz/Desktop/subject-5206107.csv","legacy","Lentiform Loewenfeld","3.3.7","yes","yes","600bd7cfb6416f0113b04181","602110864497cf011d9c0822","0","j","NA","space","space","space","space","j","581","NA","54194","19805","8226","4706","581","2","legacy","1024","2","48000","-16","task","5206107","odd","NA","54084","110296","56101","337033","5648","33696","25466","337537","218122","337030","337537","336966","110296","338119","48999","336466","5610","333752","Lexical Decision Task","61","115780","91","yes","1024"
"3.259832699","0","9","flar","non-word","67.3913043478261","67.3913043478261","1265.7173913043478","1265.7173913043478","black","no","legacy","legacy","legacy","0","uniform","1","undefined","undefined","undefined","1","f","0","0","0","0","91","0","0","0","91","0","87","91","87","0","87","3","91","0","91","Thu Feb 18 11:17:08 2021","The main experiment item","yes","Lexical_Decision_Task.osexp","/Users/jessicacruz/Desktop","no","Andale Mono","no","18","no","white","no","yes","576","legacy","87","87","3","/Users/jessicacruz/Desktop/subject-5206107.csv","legacy","Lentiform Loewenfeld","3.3.7","yes","yes","600bd7cfb6416f0113b04181","602110864497cf011d9c0822","0","f","NA","space","space","space","space","f","666","NA","54194","19805","8226","4706","666","2","legacy","1024","2","48000","-16","task","5206107","odd","NA","54084","110296","56101","338691","5648","33696","25466","339195","218122","338689","339195","338622","110296","339862","48999","338122","5610","333752","Lexical Decision Task","62","116446","92","yes","1024"
"2.924968096","0","4","phim","non-word","67.74193548387096","67.74193548387096","1258.9569892473119","1258.9569892473119","black","no","legacy","legacy","legacy","0","uniform","1","undefined","undefined","undefined","1","f","0","0","0","0","92","0","0","0","92","0","88","92","88","0","88","3","92","0","92","Thu Feb 18 11:17:08 2021","The main experiment item","yes","Lexical_Decision_Task.osexp","/Users/jessicacruz/Desktop","no","Andale Mono","no","18","no","white","no","yes","576","legacy","88","88","3","/Users/jessicacruz/Desktop/subject-5206107.csv","legacy","Lentiform Loewenfeld","3.3.7","yes","yes","600bd7cfb6416f0113b04181","602110864497cf011d9c0822","0","f","NA","space","space","space","space","f","637","NA","54194","19805","8226","4706","637","2","legacy","1024","2","48000","-16","task","5206107","odd","NA","54084","110296","56101","340432","5648","33696","25466","340936","218122","340430","340936","340365","110296","341574","48999","339865","5610","333752","Lexical Decision Task","63","117083","93","yes","1024"
"3.037294994","8.64","7","roof","word","68.08510638297872","68.08510638297872","1252.9148936170213","1252.9148936170213","black","no","legacy","legacy","legacy","0","uniform","1","undefined","undefined","undefined","1","j","0","0","0","0","93","0","0","0","93","0","89","93","89","0","89","3","93","0","93","Thu Feb 18 11:17:08 2021","The main experiment item","yes","Lexical_Decision_Task.osexp","/Users/jessicacruz/Desktop","no","Andale Mono","no","18","no","white","no","yes","576","legacy","89","89","3","/Users/jessicacruz/Desktop/subject-5206107.csv","legacy","Lentiform Loewenfeld","3.3.7","yes","yes","600bd7cfb6416f0113b04181","602110864497cf011d9c0822","0","j","NA","space","space","space","space","j","691","NA","54194","19805","8226","4706","691","2","legacy","1024","2","48000","-16","task","5206107","odd","NA","54084","110296","56101","342146","5648","33696","25466","342649","218122","342143","342650","342078","110296","343342","48999","341578","5610","333752","Lexical Decision Task","64","117774","94","yes","1024"
"2.843025032","0","9","pusk","non-word","68.42105263157895","68.42105263157895","1246.6736842105263","1246.6736842105263","black","no","legacy","legacy","legacy","0","uniform","1","undefined","undefined","undefined","1","f","0","0","0","0","94","0","0","0","94","0","90","94","90","0","90","3","94","0","94","Thu Feb 18 11:17:08 2021","The main experiment item","yes","Lexical_Decision_Task.osexp","/Users/jessicacruz/Desktop","no","Andale Mono","no","18","no","white","no","yes","576","legacy","90","90","3","/Users/jessicacruz/Desktop/subject-5206107.csv","legacy","Lentiform Loewenfeld","3.3.7","yes","yes","600bd7cfb6416f0113b04181","602110864497cf011d9c0822","0","f","NA","space","space","space","space","f","660","NA","54194","19805","8226","4706","660","2","legacy","1024","2","48000","-16","task","5206107","odd","NA","54084","110296","56101","343912","5648","33696","25466","344415","218122","343909","344415","343845","110296","345076","48999","343345","5610","333752","Lexical Decision Task","65","118434","95","yes","1024"
"2.937852093","0","7","bamp","non-word","68.75","68.75","1241.6041666666667","1241.6041666666667","black","no","legacy","legacy","legacy","0","uniform","1","undefined","undefined","undefined","1","f","0","0","0","0","95","0","0","0","95","0","91","95","91","0","91","3","95","0","95","Thu Feb 18 11:17:08 2021","The main experiment item","yes","Lexical_Decision_Task.osexp","/Users/jessicacruz/Desktop","no","Andale Mono","no","18","no","white","no","yes","576","legacy","91","91","3","/Users/jessicacruz/Desktop/subject-5206107.csv","legacy","Lentiform Loewenfeld","3.3.7","yes","yes","600bd7cfb6416f0113b04181","602110864497cf011d9c0822","0","f","NA","space","space","space","space","f","760","NA","54194","19805","8226","4706","760","2","legacy","1024","2","48000","-16","task","5206107","odd","NA","54084","110296","56101","345647","5648","33696","25466","346150","218122","345645","346151","345579","110296","346912","48999","345079","5610","333752","Lexical Decision Task","66","119194","96","yes","1024"
"2.755364069","7.72","2","hoax","word","69.0721649484536","69.0721649484536","1237.7835051546392","1237.7835051546392","black","no","legacy","legacy","legacy","0","uniform","1","undefined","undefined","undefined","1","j","0","0","0","0","96","0","0","0","96","0","92","96","92","0","92","3","96","0","96","Thu Feb 18 11:17:08 2021","The main experiment item","yes","Lexical_Decision_Task.osexp","/Users/jessicacruz/Desktop","no","Andale Mono","no","18","no","white","no","yes","576","legacy","92","92","3","/Users/jessicacruz/Desktop/subject-5206107.csv","legacy","Lentiform Loewenfeld","3.3.7","yes","yes","600bd7cfb6416f0113b04181","602110864497cf011d9c0822","0","j","NA","space","space","space","space","j","871","NA","54194","19805","8226","4706","871","2","legacy","1024","2","48000","-16","task","5206107","odd","NA","54084","110296","56101","347482","5648","33696","25466","347985","218122","347480","347986","347415","110296","348858","48999","346915","5610","333752","Lexical Decision Task","67","120065","97","yes","1024"
"2.983324025","9.56","2","debt","word","69.38775510204081","69.38775510204081","1232.357142857143","1232.357142857143","black","no","legacy","legacy","legacy","0","uniform","1","undefined","undefined","undefined","1","j","0","0","0","0","97","0","0","0","97","0","93","97","93","0","93","3","97","0","97","Thu Feb 18 11:17:08 2021","The main experiment item","yes","Lexical_Decision_Task.osexp","/Users/jessicacruz/Desktop","no","Andale Mono","no","18","no","white","no","yes","576","legacy","93","93","3","/Users/jessicacruz/Desktop/subject-5206107.csv","legacy","Lentiform Loewenfeld","3.3.7","yes","yes","600bd7cfb6416f0113b04181","602110864497cf011d9c0822","0","j","NA","space","space","space","space","j","706","NA","54194","19805","8226","4706","706","2","legacy","1024","2","48000","-16","task","5206107","odd","NA","54084","110296","56101","349430","5648","33696","25466","349934","218122","349427","349934","349361","110296","350641","48999","348861","5610","333752","Lexical Decision Task","68","120771","98","yes","1024"
"3.091901331","0","9","nipe","non-word","69.6969696969697","69.6969696969697","1225.989898989899","1225.989898989899","black","no","legacy","legacy","legacy","0","uniform","1","undefined","undefined","undefined","1","f","0","0","0","0","98","0","0","0","98","0","94","98","94","0","94","3","98","0","98","Thu Feb 18 11:17:08 2021","The main experiment item","yes","Lexical_Decision_Task.osexp","/Users/jessicacruz/Desktop","no","Andale Mono","no","18","no","white","no","yes","576","legacy","94","94","3","/Users/jessicacruz/Desktop/subject-5206107.csv","legacy","Lentiform Loewenfeld","3.3.7","yes","yes","600bd7cfb6416f0113b04181","602110864497cf011d9c0822","0","f","NA","space","space","space","space","f","602","NA","54194","19805","8226","4706","602","2","legacy","1024","2","48000","-16","task","5206107","odd","NA","54084","110296","56101","351213","5648","33696","25466","351716","218122","351211","351717","351144","110296","352321","48999","350644","5610","333752","Lexical Decision Task","69","121373","99","yes","1024"
