"Log_BG","Log_Freq_HAL","Ortho_N","Stimulus","Type","acc","accuracy","average_response_time","avg_rt","background","bidi","canvas_backend","clock_backend","color_backend","compensation","coordinates","correct","correct_Experimental_intro","correct_Introduction","correct_Practice_intro","correct_experimenter_kb","correct_response","count_End_Of_Experiment","count_End_Of_Practice","count_Experimental_Loop","count_Experimental_intro","count_Fixation","count_Introduction","count_Practice_Loop","count_Practice_intro","count_Stimulus","count_block_break_feedback","count_experimental_sequence","count_experimenter_kb","count_increment_trial_count","count_init_trial_count","count_logger","count_practice_sequence","count_right","count_task","count_wrong","datetime","description","disable_garbage_collection","experiment_file","experiment_path","font_bold","font_family","font_italic","font_size","font_underline","foreground","form_clicks","fullscreen","height","keyboard_backend","live_row","live_row_Experimental_Loop","live_row_Practice_Loop","logfile","mouse_backend","opensesame_codename","opensesame_version","osf_always_upload_data","osf_always_upload_experiment","osf_datanode_id","osf_id","repeat_cycle","response","response_End_Of_Experiment","response_Experimental_intro","response_Introduction","response_Practice_intro","response_block_break_feedback","response_experimenter_kb","response_time","response_time_End_Of_Experiment","response_time_Experimental_intro","response_time_Introduction","response_time_Practice_intro","response_time_block_break_feedback","response_time_experimenter_kb","round_decimals","sampler_backend","sound_buf_size","sound_channels","sound_freq","sound_sample_size","start","subject_nr","subject_parity","time_End_Of_Experiment","time_End_Of_Practice","time_Experimental_Loop","time_Experimental_intro","time_Fixation","time_Introduction","time_Practice_Loop","time_Practice_intro","time_Stimulus","time_block_break_feedback","time_experimental_sequence","time_experimenter_kb","time_increment_trial_count","time_init_trial_count","time_logger","time_practice_sequence","time_right","time_task","time_wrong","title","total_correct","total_response_time","total_responses","uniform_coordinates","width"
"2.937852093","0","7","bamp","non-word","100","100","1038.4","1038.4","black","no","legacy","legacy","legacy","0","uniform","1","undefined","undefined","undefined","1","f","0","0","0","0","4","0","0","0","4","NA","0","4","0","0","0","3","4","0","4","Thu Feb 18 13:28:52 2021","The main experiment item","yes","Lexical_Decision_Task.osexp","C:/Users/gemmb","no","Andale Mono","no","18","no","white","no","yes","576","legacy","0","0","3","C:/Users/gemmb/subject-5203611.csv","legacy","Lentiform Loewenfeld","3.3.7","yes","yes","600bd7cfb6416f0113b04181","602110864497cf011d9c0822","0","f","NA","space","space","space","NA","f","1243","NA","3113","10252","5866","NA","1243","2","legacy","1024","2","48000","-16","task","5203611","odd","NA","28511","33627","30513","33674","3816","19939","14072","34176","NA","33673","34176","NA","33627","35419","26531","27972","3797","NA","Lexical Decision Task","5","5192","5","yes","1024"
"3.003891166","8.05","2","frog","word","100","100","969.8333333333334","969.8333333333334","black","no","legacy","legacy","legacy","0","uniform","1","undefined","undefined","undefined","1","j","0","0","0","0","5","0","0","0","5","NA","1","5","1","0","1","3","5","0","5","Thu Feb 18 13:28:52 2021","The main experiment item","yes","Lexical_Decision_Task.osexp","C:/Users/gemmb","no","Andale Mono","no","18","no","white","no","yes","576","legacy","1","1","3","C:/Users/gemmb/subject-5203611.csv","legacy","Lentiform Loewenfeld","3.3.7","yes","yes","600bd7cfb6416f0113b04181","602110864497cf011d9c0822","0","j","NA","space","space","space","NA","j","627","NA","3113","10252","5866","NA","627","2","legacy","1024","2","48000","-16","task","5203611","odd","NA","28511","33627","30513","36146","3816","19939","14072","36648","NA","36143","36648","35968","33627","37276","26531","35468","3797","NA","Lexical Decision Task","6","5819","6","yes","1024"
"2.784379519","0","2","snaf","non-word","100","100","941.4285714285714","941.4285714285714","black","no","legacy","legacy","legacy","0","uniform","1","undefined","undefined","undefined","1","f","0","0","0","0","6","0","0","0","6","NA","2","6","2","0","2","3","6","0","6","Thu Feb 18 13:28:52 2021","The main experiment item","yes","Lexical_Decision_Task.osexp","C:/Users/gemmb","no","Andale Mono","no","18","no","white","no","yes","576","legacy","2","2","3","C:/Users/gemmb/subject-5203611.csv","legacy","Lentiform Loewenfeld","3.3.7","yes","yes","600bd7cfb6416f0113b04181","602110864497cf011d9c0822","0","f","NA","space","space","space","NA","f","771","NA","3113","10252","5866","NA","771","2","legacy","1024","2","48000","-16","task","5203611","odd","NA","28511","33627","30513","37969","3816","19939","14072","38471","NA","37966","38471","37818","33627","39243","26531","37318","3797","NA","Lexical Decision Task","7","6590","7","yes","1024"
"2.80048796","0","8","pife","non-word","100","100","913.5","913.5","black","no","legacy","legacy","legacy","0","uniform","1","undefined","undefined","undefined","1","f","0","0","0","0","7","0","0","0","7","NA","3","7","3","0","3","3","7","0","7","Thu Feb 18 13:28:52 2021","The main experiment item","yes","Lexical_Decision_Task.osexp","C:/Users/gemmb","no","Andale Mono","no","18","no","white","no","yes","576","legacy","3","3","3","C:/Users/gemmb/subject-5203611.csv","legacy","Lentiform Loewenfeld","3.3.7","yes","yes","600bd7cfb6416f0113b04181","602110864497cf011d9c0822","0","f","NA","space","space","space","NA","f","718","NA","3113","10252","5866","NA","718","2","legacy","1024","2","48000","-16","task","5203611","odd","NA","28511","33627","30513","39929","3816","19939","14072","40431","NA","39926","40431","39785","33627","41150","26531","39285","3797","NA","Lexical Decision Task","8","7308","8","yes","1024"
"2.668385917","5.48","4","twig","word","100","100","885.2222222222222","885.2222222222222","black","no","legacy","legacy","legacy","0","uniform","1","undefined","undefined","undefined","1","j","0","0","0","0","8","0","0","0","8","NA","4","8","4","0","4","3","8","0","8","Thu Feb 18 13:28:52 2021","The main experiment item","yes","Lexical_Decision_Task.osexp","C:/Users/gemmb","no","Andale Mono","no","18","no","white","no","yes","576","legacy","4","4","3","C:/Users/gemmb/subject-5203611.csv","legacy","Lentiform Loewenfeld","3.3.7","yes","yes","600bd7cfb6416f0113b04181","602110864497cf011d9c0822","0","j","NA","space","space","space","NA","j","659","NA","3113","10252","5866","NA","659","2","legacy","1024","2","48000","-16","task","5203611","odd","NA","28511","33627","30513","41808","3816","19939","14072","42310","NA","41806","42310","41694","33627","42970","26531","41193","3797","NA","Lexical Decision Task","9","7967","9","yes","1024"
"3.2757719","0","5","slea","non-word","100","100","885.1","885.1","black","no","legacy","legacy","legacy","0","uniform","1","undefined","undefined","undefined","1","f","0","0","0","0","9","0","0","0","9","NA","5","9","5","0","5","3","9","0","9","Thu Feb 18 13:28:52 2021","The main experiment item","yes","Lexical_Decision_Task.osexp","C:/Users/gemmb","no","Andale Mono","no","18","no","white","no","yes","576","legacy","5","5","3","C:/Users/gemmb/subject-5203611.csv","legacy","Lentiform Loewenfeld","3.3.7","yes","yes","600bd7cfb6416f0113b04181","602110864497cf011d9c0822","0","f","NA","space","space","space","NA","f","884","NA","3113","10252","5866","NA","884","2","legacy","1024","2","48000","-16","task","5203611","odd","NA","28511","33627","30513","43655","3816","19939","14072","44158","NA","43652","44158","43514","33627","45043","26531","43013","3797","NA","Lexical Decision Task","10","8851","10","yes","1024"
"3.159867847","5.98","5","brim","word","100","100","894.4545454545455","894.4545454545455","black","no","legacy","legacy","legacy","0","uniform","1","undefined","undefined","undefined","1","j","0","0","0","0","10","0","0","0","10","NA","6","10","6","0","6","3","10","0","10","Thu Feb 18 13:28:52 2021","The main experiment item","yes","Lexical_Decision_Task.osexp","C:/Users/gemmb","no","Andale Mono","no","18","no","white","no","yes","576","legacy","6","6","3","C:/Users/gemmb/subject-5203611.csv","legacy","Lentiform Loewenfeld","3.3.7","yes","yes","600bd7cfb6416f0113b04181","602110864497cf011d9c0822","0","j","NA","space","space","space","NA","j","988","NA","3113","10252","5866","NA","988","2","legacy","1024","2","48000","-16","task","5203611","odd","NA","28511","33627","30513","45725","3816","19939","14072","46227","NA","45722","46228","45584","33627","47217","26531","45084","3797","NA","Lexical Decision Task","11","9839","11","yes","1024"
"2.6599162","0","6","flug","non-word","100","100","892.3333333333334","892.3333333333334","black","no","legacy","legacy","legacy","0","uniform","1","undefined","undefined","undefined","1","f","0","0","0","0","11","0","0","0","11","NA","7","11","7","0","7","3","11","0","11","Thu Feb 18 13:28:52 2021","The main experiment item","yes","Lexical_Decision_Task.osexp","C:/Users/gemmb","no","Andale Mono","no","18","no","white","no","yes","576","legacy","7","7","3","C:/Users/gemmb/subject-5203611.csv","legacy","Lentiform Loewenfeld","3.3.7","yes","yes","600bd7cfb6416f0113b04181","602110864497cf011d9c0822","0","f","NA","space","space","space","NA","f","869","NA","3113","10252","5866","NA","869","2","legacy","1024","2","48000","-16","task","5203611","odd","NA","28511","33627","30513","47859","3816","19939","14072","48361","NA","47857","48361","47761","33627","49230","26531","47261","3797","NA","Lexical Decision Task","12","10708","12","yes","1024"
"2.895974732","6.65","5","sift","word","100","100","899.1538461538462","899.1538461538462","black","no","legacy","legacy","legacy","0","uniform","1","undefined","undefined","undefined","1","j","0","0","0","0","12","0","0","0","12","NA","8","12","8","0","8","3","12","0","12","Thu Feb 18 13:28:52 2021","The main experiment item","yes","Lexical_Decision_Task.osexp","C:/Users/gemmb","no","Andale Mono","no","18","no","white","no","yes","576","legacy","8","8","3","C:/Users/gemmb/subject-5203611.csv","legacy","Lentiform Loewenfeld","3.3.7","yes","yes","600bd7cfb6416f0113b04181","602110864497cf011d9c0822","0","j","NA","space","space","space","NA","j","981","NA","3113","10252","5866","NA","981","2","legacy","1024","2","48000","-16","task","5203611","odd","NA","28511","33627","30513","49865","3816","19939","14072","50367","NA","49862","50367","49768","33627","51348","26531","49267","3797","NA","Lexical Decision Task","13","11689","13","yes","1024"
"2.576725172","0","8","gowl","non-word","100","100","929.7142857142857","929.7142857142857","black","no","legacy","legacy","legacy","0","uniform","1","undefined","undefined","undefined","1","f","0","0","0","0","13","0","0","0","13","NA","9","13","9","0","9","3","13","0","13","Thu Feb 18 13:28:52 2021","The main experiment item","yes","Lexical_Decision_Task.osexp","C:/Users/gemmb","no","Andale Mono","no","18","no","white","no","yes","576","legacy","9","9","3","C:/Users/gemmb/subject-5203611.csv","legacy","Lentiform Loewenfeld","3.3.7","yes","yes","600bd7cfb6416f0113b04181","602110864497cf011d9c0822","0","f","NA","space","space","space","NA","f","1327","NA","3113","10252","5866","NA","1327","2","legacy","1024","2","48000","-16","task","5203611","odd","NA","28511","33627","30513","52043","3816","19939","14072","52545","NA","52040","52545","51894","33627","53872","26531","51394","3797","NA","Lexical Decision Task","14","13016","14","yes","1024"
"3.082307743","9.68","8","camp","word","100","100","915.4","915.4","black","no","legacy","legacy","legacy","0","uniform","1","undefined","undefined","undefined","1","j","0","0","0","0","14","0","0","0","14","NA","10","14","10","0","10","3","14","0","14","Thu Feb 18 13:28:52 2021","The main experiment item","yes","Lexical_Decision_Task.osexp","C:/Users/gemmb","no","Andale Mono","no","18","no","white","no","yes","576","legacy","10","10","3","C:/Users/gemmb/subject-5203611.csv","legacy","Lentiform Loewenfeld","3.3.7","yes","yes","600bd7cfb6416f0113b04181","602110864497cf011d9c0822","0","j","NA","space","space","space","NA","j","715","NA","3113","10252","5866","NA","715","2","legacy","1024","2","48000","-16","task","5203611","odd","NA","28511","33627","30513","54533","3816","19939","14072","55035","NA","54532","55035","54418","33627","55750","26531","53918","3797","NA","Lexical Decision Task","15","13731","15","yes","1024"
"2.819763221","0","2","durp","non-word","100","100","914.75","914.75","black","no","legacy","legacy","legacy","0","uniform","1","undefined","undefined","undefined","1","f","0","0","0","0","15","0","0","0","15","NA","11","15","11","0","11","3","15","0","15","Thu Feb 18 13:28:52 2021","The main experiment item","yes","Lexical_Decision_Task.osexp","C:/Users/gemmb","no","Andale Mono","no","18","no","white","no","yes","576","legacy","11","11","3","C:/Users/gemmb/subject-5203611.csv","legacy","Lentiform Loewenfeld","3.3.7","yes","yes","600bd7cfb6416f0113b04181","602110864497cf011d9c0822","0","f","NA","space","space","space","NA","f","905","NA","3113","10252","5866","NA","905","2","legacy","1024","2","48000","-16","task","5203611","odd","NA","28511","33627","30513","56433","3816","19939","14072","56935","NA","56431","56935","56291","33627","57841","26531","55790","3797","NA","Lexical Decision Task","16","14636","16","yes","1024"
"3.120025233","0","2","nyst","non-word","100","100","899.9411764705883","899.9411764705883","black","no","legacy","legacy","legacy","0","uniform","1","undefined","undefined","undefined","1","f","0","0","0","0","16","0","0","0","16","NA","12","16","12","0","12","3","16","0","16","Thu Feb 18 13:28:52 2021","The main experiment item","yes","Lexical_Decision_Task.osexp","C:/Users/gemmb","no","Andale Mono","no","18","no","white","no","yes","576","legacy","12","12","3","C:/Users/gemmb/subject-5203611.csv","legacy","Lentiform Loewenfeld","3.3.7","yes","yes","600bd7cfb6416f0113b04181","602110864497cf011d9c0822","0","f","NA","space","space","space","NA","f","663","NA","3113","10252","5866","NA","663","2","legacy","1024","2","48000","-16","task","5203611","odd","NA","28511","33627","30513","58516","3816","19939","14072","59019","NA","58513","59019","58382","33627","59682","26531","57882","3797","NA","Lexical Decision Task","17","15299","17","yes","1024"
"3.174641193","0","3","ramb","non-word","100","100","923.1111111111111","923.1111111111111","black","no","legacy","legacy","legacy","0","uniform","1","undefined","undefined","undefined","1","f","0","0","0","0","17","0","0","0","17","NA","13","17","13","0","13","3","17","0","17","Thu Feb 18 13:28:52 2021","The main experiment item","yes","Lexical_Decision_Task.osexp","C:/Users/gemmb","no","Andale Mono","no","18","no","white","no","yes","576","legacy","13","13","3","C:/Users/gemmb/subject-5203611.csv","legacy","Lentiform Loewenfeld","3.3.7","yes","yes","600bd7cfb6416f0113b04181","602110864497cf011d9c0822","0","f","NA","space","space","space","NA","f","1317","NA","3113","10252","5866","NA","1317","2","legacy","1024","2","48000","-16","task","5203611","odd","NA","28511","33627","30513","60313","3816","19939","14072","60815","NA","60311","60815","60228","33627","62132","26531","59728","3797","NA","Lexical Decision Task","18","16616","18","yes","1024"
"2.980911938","7.15","7","hoop","word","100","100","918.2631578947369","918.2631578947369","black","no","legacy","legacy","legacy","0","uniform","1","undefined","undefined","undefined","1","j","0","0","0","0","18","0","0","0","18","NA","14","18","14","0","14","3","18","0","18","Thu Feb 18 13:28:52 2021","The main experiment item","yes","Lexical_Decision_Task.osexp","C:/Users/gemmb","no","Andale Mono","no","18","no","white","no","yes","576","legacy","14","14","3","C:/Users/gemmb/subject-5203611.csv","legacy","Lentiform Loewenfeld","3.3.7","yes","yes","600bd7cfb6416f0113b04181","602110864497cf011d9c0822","0","j","NA","space","space","space","NA","j","831","NA","3113","10252","5866","NA","831","2","legacy","1024","2","48000","-16","task","5203611","odd","NA","28511","33627","30513","62722","3816","19939","14072","63224","NA","62719","63225","62639","33627","64057","26531","62139","3797","NA","Lexical Decision Task","19","17447","19","yes","1024"
"2.990042563","6.64","9","plow","word","100","100","909.5","909.5","black","no","legacy","legacy","legacy","0","uniform","1","undefined","undefined","undefined","1","j","0","0","0","0","19","0","0","0","19","NA","15","19","15","0","15","3","19","0","19","Thu Feb 18 13:28:52 2021","The main experiment item","yes","Lexical_Decision_Task.osexp","C:/Users/gemmb","no","Andale Mono","no","18","no","white","no","yes","576","legacy","15","15","3","C:/Users/gemmb/subject-5203611.csv","legacy","Lentiform Loewenfeld","3.3.7","yes","yes","600bd7cfb6416f0113b04181","602110864497cf011d9c0822","0","j","NA","space","space","space","NA","j","743","NA","3113","10252","5866","NA","743","2","legacy","1024","2","48000","-16","task","5203611","odd","NA","28511","33627","30513","64676","3816","19939","14072","65178","NA","64673","65178","64598","33627","65922","26531","64098","3797","NA","Lexical Decision Task","20","18190","20","yes","1024"
"3.368162872","0","4","ferk","non-word","100","100","910.4761904761905","910.4761904761905","black","no","legacy","legacy","legacy","0","uniform","1","undefined","undefined","undefined","1","f","0","0","0","0","20","0","0","0","20","NA","16","20","16","0","16","3","20","0","20","Thu Feb 18 13:28:52 2021","The main experiment item","yes","Lexical_Decision_Task.osexp","C:/Users/gemmb","no","Andale Mono","no","18","no","white","no","yes","576","legacy","16","16","3","C:/Users/gemmb/subject-5203611.csv","legacy","Lentiform Loewenfeld","3.3.7","yes","yes","600bd7cfb6416f0113b04181","602110864497cf011d9c0822","0","f","NA","space","space","space","NA","f","930","NA","3113","10252","5866","NA","930","2","legacy","1024","2","48000","-16","task","5203611","odd","NA","28511","33627","30513","66548","3816","19939","14072","67050","NA","66547","67051","66464","33627","67982","26531","65964","3797","NA","Lexical Decision Task","21","19120","21","yes","1024"
"3.120135028","0","3","vals","non-word","100","100","911.0909090909091","911.0909090909091","black","no","legacy","legacy","legacy","0","uniform","1","undefined","undefined","undefined","1","f","0","0","0","0","21","0","0","0","21","NA","17","21","17","0","17","3","21","0","21","Thu Feb 18 13:28:52 2021","The main experiment item","yes","Lexical_Decision_Task.osexp","C:/Users/gemmb","no","Andale Mono","no","18","no","white","no","yes","576","legacy","17","17","3","C:/Users/gemmb/subject-5203611.csv","legacy","Lentiform Loewenfeld","3.3.7","yes","yes","600bd7cfb6416f0113b04181","602110864497cf011d9c0822","0","f","NA","space","space","space","NA","f","924","NA","3113","10252","5866","NA","924","2","legacy","1024","2","48000","-16","task","5203611","odd","NA","28511","33627","30513","68655","3816","19939","14072","69157","NA","68652","69157","68528","33627","70081","26531","68027","3797","NA","Lexical Decision Task","22","20044","22","yes","1024"
"3.119255889","6.63","2","itch","word","100","100","903.3913043478261","903.3913043478261","black","no","legacy","legacy","legacy","0","uniform","1","undefined","undefined","undefined","1","j","0","0","0","0","22","0","0","0","22","NA","18","22","18","0","18","3","22","0","22","Thu Feb 18 13:28:52 2021","The main experiment item","yes","Lexical_Decision_Task.osexp","C:/Users/gemmb","no","Andale Mono","no","18","no","white","no","yes","576","legacy","18","18","3","C:/Users/gemmb/subject-5203611.csv","legacy","Lentiform Loewenfeld","3.3.7","yes","yes","600bd7cfb6416f0113b04181","602110864497cf011d9c0822","0","j","NA","space","space","space","NA","j","734","NA","3113","10252","5866","NA","734","2","legacy","1024","2","48000","-16","task","5203611","odd","NA","28511","33627","30513","70743","3816","19939","14072","71245","NA","70740","71245","70621","33627","71980","26531","70121","3797","NA","Lexical Decision Task","23","20778","23","yes","1024"
"2.953276337","6.32","4","thaw","word","100","100","899.5","899.5","black","no","legacy","legacy","legacy","0","uniform","1","undefined","undefined","undefined","1","j","0","0","0","0","23","0","0","0","23","NA","19","23","19","0","19","3","23","0","23","Thu Feb 18 13:28:52 2021","The main experiment item","yes","Lexical_Decision_Task.osexp","C:/Users/gemmb","no","Andale Mono","no","18","no","white","no","yes","576","legacy","19","19","3","C:/Users/gemmb/subject-5203611.csv","legacy","Lentiform Loewenfeld","3.3.7","yes","yes","600bd7cfb6416f0113b04181","602110864497cf011d9c0822","0","j","NA","space","space","space","NA","j","810","NA","3113","10252","5866","NA","810","2","legacy","1024","2","48000","-16","task","5203611","odd","NA","28511","33627","30513","72626","3816","19939","14072","73128","NA","72624","73129","72521","33627","73940","26531","72021","3797","NA","Lexical Decision Task","24","21588","24","yes","1024"
"2.983324025","9.56","2","debt","word","100","100","894.84","894.84","black","no","legacy","legacy","legacy","0","uniform","1","undefined","undefined","undefined","1","j","0","0","0","0","24","0","0","0","24","NA","20","24","20","0","20","3","24","0","24","Thu Feb 18 13:28:52 2021","The main experiment item","yes","Lexical_Decision_Task.osexp","C:/Users/gemmb","no","Andale Mono","no","18","no","white","no","yes","576","legacy","20","20","3","C:/Users/gemmb/subject-5203611.csv","legacy","Lentiform Loewenfeld","3.3.7","yes","yes","600bd7cfb6416f0113b04181","602110864497cf011d9c0822","0","j","NA","space","space","space","NA","j","783","NA","3113","10252","5866","NA","783","2","legacy","1024","2","48000","-16","task","5203611","odd","NA","28511","33627","30513","74575","3816","19939","14072","75077","NA","74571","75077","74482","33627","75861","26531","73982","3797","NA","Lexical Decision Task","25","22371","25","yes","1024"
"2.884795364","0","6","flob","non-word","100","100","900.9615384615385","900.9615384615385","black","no","legacy","legacy","legacy","0","uniform","1","undefined","undefined","undefined","1","f","0","0","0","0","25","0","0","0","25","NA","21","25","21","0","21","3","25","0","25","Thu Feb 18 13:28:52 2021","The main experiment item","yes","Lexical_Decision_Task.osexp","C:/Users/gemmb","no","Andale Mono","no","18","no","white","no","yes","576","legacy","21","21","3","C:/Users/gemmb/subject-5203611.csv","legacy","Lentiform Loewenfeld","3.3.7","yes","yes","600bd7cfb6416f0113b04181","602110864497cf011d9c0822","0","f","NA","space","space","space","NA","f","1054","NA","3113","10252","5866","NA","1054","2","legacy","1024","2","48000","-16","task","5203611","odd","NA","28511","33627","30513","76488","3816","19939","14072","76990","NA","76485","76990","76407","33627","78045","26531","75907","3797","NA","Lexical Decision Task","26","23425","26","yes","1024"
"2.996511672","0","7","hoil","non-word","100","100","893","893","black","no","legacy","legacy","legacy","0","uniform","1","undefined","undefined","undefined","1","f","0","0","0","0","26","0","0","0","26","NA","22","26","22","0","22","3","26","0","26","Thu Feb 18 13:28:52 2021","The main experiment item","yes","Lexical_Decision_Task.osexp","C:/Users/gemmb","no","Andale Mono","no","18","no","white","no","yes","576","legacy","22","22","3","C:/Users/gemmb/subject-5203611.csv","legacy","Lentiform Loewenfeld","3.3.7","yes","yes","600bd7cfb6416f0113b04181","602110864497cf011d9c0822","0","f","NA","space","space","space","NA","f","686","NA","3113","10252","5866","NA","686","2","legacy","1024","2","48000","-16","task","5203611","odd","NA","28511","33627","30513","78700","3816","19939","14072","79202","NA","78698","79202","78558","33627","79888","26531","78058","3797","NA","Lexical Decision Task","27","24111","27","yes","1024"
"3.20871002","7.15","8","cram","word","100","100","886.4642857142857","886.4642857142857","black","no","legacy","legacy","legacy","0","uniform","1","undefined","undefined","undefined","1","j","0","0","0","0","27","0","0","0","27","NA","23","27","23","0","23","3","27","0","27","Thu Feb 18 13:28:52 2021","The main experiment item","yes","Lexical_Decision_Task.osexp","C:/Users/gemmb","no","Andale Mono","no","18","no","white","no","yes","576","legacy","23","23","3","C:/Users/gemmb/subject-5203611.csv","legacy","Lentiform Loewenfeld","3.3.7","yes","yes","600bd7cfb6416f0113b04181","602110864497cf011d9c0822","0","j","NA","space","space","space","NA","j","710","NA","3113","10252","5866","NA","710","2","legacy","1024","2","48000","-16","task","5203611","odd","NA","28511","33627","30513","80529","3816","19939","14072","81031","NA","80526","81031","80434","33627","81741","26531","79934","3797","NA","Lexical Decision Task","28","24821","28","yes","1024"
"3.077974404","10.41","8","tool","word","96.55172413793103","96.55172413793103","873.551724137931","873.551724137931","black","no","legacy","legacy","legacy","0","uniform","0","undefined","undefined","undefined","0","j","0","0","0","0","28","0","0","0","28","NA","24","28","24","0","24","3","28","0","28","Thu Feb 18 13:28:52 2021","The main experiment item","yes","Lexical_Decision_Task.osexp","C:/Users/gemmb","no","Andale Mono","no","18","no","white","no","yes","576","legacy","24","24","3","C:/Users/gemmb/subject-5203611.csv","legacy","Lentiform Loewenfeld","3.3.7","yes","yes","600bd7cfb6416f0113b04181","602110864497cf011d9c0822","0","f","NA","space","space","space","NA","f","512","NA","3113","10252","5866","NA","512","2","legacy","1024","2","48000","-16","task","5203611","odd","NA","28511","33627","30513","82405","3816","19939","14072","82907","NA","82403","82907","82287","33627","83420","26531","81787","3797","NA","Lexical Decision Task","28","25333","29","yes","1024"
"3.16326079","0","5","parg","non-word","96.66666666666667","96.66666666666667","866.0666666666667","866.0666666666667","black","no","legacy","legacy","legacy","0","uniform","1","undefined","undefined","undefined","1","f","0","0","0","0","29","0","0","0","29","NA","25","29","25","0","25","3","29","0","29","Thu Feb 18 13:28:52 2021","The main experiment item","yes","Lexical_Decision_Task.osexp","C:/Users/gemmb","no","Andale Mono","no","18","no","white","no","yes","576","legacy","25","25","3","C:/Users/gemmb/subject-5203611.csv","legacy","Lentiform Loewenfeld","3.3.7","yes","yes","600bd7cfb6416f0113b04181","602110864497cf011d9c0822","0","f","NA","space","space","space","NA","f","649","NA","3113","10252","5866","NA","649","2","legacy","1024","2","48000","-16","task","5203611","odd","NA","28511","33627","30513","85111","3816","19939","14072","85613","NA","85109","85613","84965","33627","86262","26531","81787","3797","83464","Lexical Decision Task","29","25982","30","yes","1024"
"2.839898939","8.99","6","soap","word","96.7741935483871","96.7741935483871","857.1612903225806","857.1612903225806","black","no","legacy","legacy","legacy","0","uniform","1","undefined","undefined","undefined","1","j","0","0","0","0","30","0","0","0","30","NA","26","30","26","0","26","3","30","0","30","Thu Feb 18 13:28:52 2021","The main experiment item","yes","Lexical_Decision_Task.osexp","C:/Users/gemmb","no","Andale Mono","no","18","no","white","no","yes","576","legacy","26","26","3","C:/Users/gemmb/subject-5203611.csv","legacy","Lentiform Loewenfeld","3.3.7","yes","yes","600bd7cfb6416f0113b04181","602110864497cf011d9c0822","0","j","NA","space","space","space","NA","j","590","NA","3113","10252","5866","NA","590","2","legacy","1024","2","48000","-16","task","5203611","odd","NA","28511","33627","30513","86868","3816","19939","14072","87370","NA","86865","87370","86766","33627","87961","26531","86266","3797","83464","Lexical Decision Task","30","26572","31","yes","1024"
"2.695770526","7.34","6","pawn","word","96.875","96.875","860.75","860.75","black","no","legacy","legacy","legacy","0","uniform","1","undefined","undefined","undefined","1","j","0","0","0","0","31","0","0","0","31","NA","27","31","27","0","27","3","31","0","31","Thu Feb 18 13:28:52 2021","The main experiment item","yes","Lexical_Decision_Task.osexp","C:/Users/gemmb","no","Andale Mono","no","18","no","white","no","yes","576","legacy","27","27","3","C:/Users/gemmb/subject-5203611.csv","legacy","Lentiform Loewenfeld","3.3.7","yes","yes","600bd7cfb6416f0113b04181","602110864497cf011d9c0822","0","j","NA","space","space","space","NA","j","972","NA","3113","10252","5866","NA","972","2","legacy","1024","2","48000","-16","task","5203611","odd","NA","28511","33627","30513","88554","3816","19939","14072","89056","NA","88551","89056","88477","33627","90029","26531","87977","3797","83464","Lexical Decision Task","31","27544","32","yes","1024"
"2.86332286","6.71","2","feud","word","96.96969696969697","96.96969696969697","862.8787878787879","862.8787878787879","black","no","legacy","legacy","legacy","0","uniform","1","undefined","undefined","undefined","1","j","0","0","0","0","32","0","0","0","32","NA","28","32","28","0","28","3","32","0","32","Thu Feb 18 13:28:52 2021","The main experiment item","yes","Lexical_Decision_Task.osexp","C:/Users/gemmb","no","Andale Mono","no","18","no","white","no","yes","576","legacy","28","28","3","C:/Users/gemmb/subject-5203611.csv","legacy","Lentiform Loewenfeld","3.3.7","yes","yes","600bd7cfb6416f0113b04181","602110864497cf011d9c0822","0","j","NA","space","space","space","NA","j","931","NA","3113","10252","5866","NA","931","2","legacy","1024","2","48000","-16","task","5203611","odd","NA","28511","33627","30513","90616","3816","19939","14072","91118","NA","90615","91119","90533","33627","92050","26531","90033","3797","83464","Lexical Decision Task","32","28475","33","yes","1024"
"3.153104174","10.89","6","door","word","97.05882352941177","97.05882352941177","850.1470588235294","850.1470588235294","black","no","legacy","legacy","legacy","0","uniform","1","undefined","undefined","undefined","1","j","0","0","0","0","33","0","0","0","33","NA","29","33","29","0","29","3","33","0","33","Thu Feb 18 13:28:52 2021","The main experiment item","yes","Lexical_Decision_Task.osexp","C:/Users/gemmb","no","Andale Mono","no","18","no","white","no","yes","576","legacy","29","29","3","C:/Users/gemmb/subject-5203611.csv","legacy","Lentiform Loewenfeld","3.3.7","yes","yes","600bd7cfb6416f0113b04181","602110864497cf011d9c0822","0","j","NA","space","space","space","NA","j","430","NA","3113","10252","5866","NA","430","2","legacy","1024","2","48000","-16","task","5203611","odd","NA","28511","33627","30513","92680","3816","19939","14072","93182","NA","92678","93182","92594","33627","93614","26531","92094","3797","83464","Lexical Decision Task","33","28905","34","yes","1024"
"2.845304797","0","6","buct","non-word","97.14285714285714","97.14285714285714","841.5142857142857","841.5142857142857","black","no","legacy","legacy","legacy","0","uniform","1","undefined","undefined","undefined","1","f","0","0","0","0","34","0","0","0","34","NA","30","34","30","0","30","3","34","0","34","Thu Feb 18 13:28:52 2021","The main experiment item","yes","Lexical_Decision_Task.osexp","C:/Users/gemmb","no","Andale Mono","no","18","no","white","no","yes","576","legacy","30","30","3","C:/Users/gemmb/subject-5203611.csv","legacy","Lentiform Loewenfeld","3.3.7","yes","yes","600bd7cfb6416f0113b04181","602110864497cf011d9c0822","0","f","NA","space","space","space","NA","f","548","NA","3113","10252","5866","NA","548","2","legacy","1024","2","48000","-16","task","5203611","odd","NA","28511","33627","30513","94245","3816","19939","14072","94747","NA","94242","94747","94162","33627","95296","26531","93662","3797","83464","Lexical Decision Task","34","29453","35","yes","1024"
"3.225825991","0","7","talm","non-word","97.22222222222223","97.22222222222223","844.5833333333334","844.5833333333334","black","no","legacy","legacy","legacy","0","uniform","1","undefined","undefined","undefined","1","f","0","0","0","0","35","0","0","0","35","NA","31","35","31","0","31","3","35","0","35","Thu Feb 18 13:28:52 2021","The main experiment item","yes","Lexical_Decision_Task.osexp","C:/Users/gemmb","no","Andale Mono","no","18","no","white","no","yes","576","legacy","31","31","3","C:/Users/gemmb/subject-5203611.csv","legacy","Lentiform Loewenfeld","3.3.7","yes","yes","600bd7cfb6416f0113b04181","602110864497cf011d9c0822","0","f","NA","space","space","space","NA","f","952","NA","3113","10252","5866","NA","952","2","legacy","1024","2","48000","-16","task","5203611","odd","NA","28511","33627","30513","95924","3816","19939","14072","96427","NA","95923","96427","95841","33627","97380","26531","95341","3797","83464","Lexical Decision Task","35","30405","36","yes","1024"
"3.043885998","0","9","gome","non-word","97.29729729729729","97.29729729729729","847.8648648648649","847.8648648648649","black","no","legacy","legacy","legacy","0","uniform","1","undefined","undefined","undefined","1","f","0","0","0","0","36","0","0","0","36","NA","32","36","32","0","32","3","36","0","36","Thu Feb 18 13:28:52 2021","The main experiment item","yes","Lexical_Decision_Task.osexp","C:/Users/gemmb","no","Andale Mono","no","18","no","white","no","yes","576","legacy","32","32","3","C:/Users/gemmb/subject-5203611.csv","legacy","Lentiform Loewenfeld","3.3.7","yes","yes","600bd7cfb6416f0113b04181","602110864497cf011d9c0822","0","f","NA","space","space","space","NA","f","966","NA","3113","10252","5866","NA","966","2","legacy","1024","2","48000","-16","task","5203611","odd","NA","28511","33627","30513","98032","3816","19939","14072","98534","NA","98031","98534","97923","33627","99501","26531","97423","3797","83464","Lexical Decision Task","36","31371","37","yes","1024"
"3.495914186","0","4","peng","non-word","94.73684210526316","94.73684210526316","842.2894736842105","842.2894736842105","black","no","legacy","legacy","legacy","0","uniform","0","undefined","undefined","undefined","0","f","0","0","0","0","37","0","0","0","37","NA","33","37","33","0","33","3","37","0","37","Thu Feb 18 13:28:52 2021","The main experiment item","yes","Lexical_Decision_Task.osexp","C:/Users/gemmb","no","Andale Mono","no","18","no","white","no","yes","576","legacy","33","33","3","C:/Users/gemmb/subject-5203611.csv","legacy","Lentiform Loewenfeld","3.3.7","yes","yes","600bd7cfb6416f0113b04181","602110864497cf011d9c0822","0","j","NA","space","space","space","NA","j","636","NA","3113","10252","5866","NA","636","2","legacy","1024","2","48000","-16","task","5203611","odd","NA","28511","33627","30513","100176","3816","19939","14072","100678","NA","100174","100678","100048","33627","101315","26531","99547","3797","83464","Lexical Decision Task","36","32007","38","yes","1024"
"3.197740804","6.74","3","ache","word","94.87179487179488","94.87179487179488","845.0512820512821","845.0512820512821","black","no","legacy","legacy","legacy","0","uniform","1","undefined","undefined","undefined","1","j","0","0","0","0","38","0","0","0","38","NA","34","38","34","0","34","3","38","0","38","Thu Feb 18 13:28:52 2021","The main experiment item","yes","Lexical_Decision_Task.osexp","C:/Users/gemmb","no","Andale Mono","no","18","no","white","no","yes","576","legacy","34","34","3","C:/Users/gemmb/subject-5203611.csv","legacy","Lentiform Loewenfeld","3.3.7","yes","yes","600bd7cfb6416f0113b04181","602110864497cf011d9c0822","0","j","NA","space","space","space","NA","j","950","NA","3113","10252","5866","NA","950","2","legacy","1024","2","48000","-16","task","5203611","odd","NA","28511","33627","30513","103006","3816","19939","14072","103508","NA","103003","103508","102856","33627","104459","26531","99547","3797","101356","Lexical Decision Task","37","32957","39","yes","1024"
"3.302475237","0","7","leel","non-word","95","95","843.525","843.525","black","no","legacy","legacy","legacy","0","uniform","1","undefined","undefined","undefined","1","f","0","0","0","0","39","0","0","0","39","NA","35","39","35","0","35","3","39","0","39","Thu Feb 18 13:28:52 2021","The main experiment item","yes","Lexical_Decision_Task.osexp","C:/Users/gemmb","no","Andale Mono","no","18","no","white","no","yes","576","legacy","35","35","3","C:/Users/gemmb/subject-5203611.csv","legacy","Lentiform Loewenfeld","3.3.7","yes","yes","600bd7cfb6416f0113b04181","602110864497cf011d9c0822","0","f","NA","space","space","space","NA","f","784","NA","3113","10252","5866","NA","784","2","legacy","1024","2","48000","-16","task","5203611","odd","NA","28511","33627","30513","105115","3816","19939","14072","105617","NA","105112","105617","105004","33627","106402","26531","104504","3797","101356","Lexical Decision Task","38","33741","40","yes","1024"
"3.492014979","0","9","yine","non-word","95.1219512195122","95.1219512195122","835.9512195121952","835.9512195121952","black","no","legacy","legacy","legacy","0","uniform","1","undefined","undefined","undefined","1","f","0","0","0","0","40","0","0","0","40","NA","36","40","36","0","36","3","40","0","40","Thu Feb 18 13:28:52 2021","The main experiment item","yes","Lexical_Decision_Task.osexp","C:/Users/gemmb","no","Andale Mono","no","18","no","white","no","yes","576","legacy","36","36","3","C:/Users/gemmb/subject-5203611.csv","legacy","Lentiform Loewenfeld","3.3.7","yes","yes","600bd7cfb6416f0113b04181","602110864497cf011d9c0822","0","f","NA","space","space","space","NA","f","533","NA","3113","10252","5866","NA","533","2","legacy","1024","2","48000","-16","task","5203611","odd","NA","28511","33627","30513","107064","3816","19939","14072","107566","NA","107060","107566","106916","33627","108099","26531","106416","3797","101356","Lexical Decision Task","39","34274","41","yes","1024"
"3.14849993","10.75","7","hour","word","95.23809523809524","95.23809523809524","832.4285714285714","832.4285714285714","black","no","legacy","legacy","legacy","0","uniform","1","undefined","undefined","undefined","1","j","0","0","0","0","41","0","0","0","41","NA","37","41","37","0","37","3","41","0","41","Thu Feb 18 13:28:52 2021","The main experiment item","yes","Lexical_Decision_Task.osexp","C:/Users/gemmb","no","Andale Mono","no","18","no","white","no","yes","576","legacy","37","37","3","C:/Users/gemmb/subject-5203611.csv","legacy","Lentiform Loewenfeld","3.3.7","yes","yes","600bd7cfb6416f0113b04181","602110864497cf011d9c0822","0","j","NA","space","space","space","NA","j","688","NA","3113","10252","5866","NA","688","2","legacy","1024","2","48000","-16","task","5203611","odd","NA","28511","33627","30513","108718","3816","19939","14072","109220","NA","108715","109220","108614","33627","109909","26531","108114","3797","101356","Lexical Decision Task","40","34962","42","yes","1024"
"3.209246849","0","7","slem","non-word","95.34883720930233","95.34883720930233","829.9767441860465","829.9767441860465","black","no","legacy","legacy","legacy","0","uniform","1","undefined","undefined","undefined","1","f","0","0","0","0","42","0","0","0","42","NA","38","42","38","0","38","3","42","0","42","Thu Feb 18 13:28:52 2021","The main experiment item","yes","Lexical_Decision_Task.osexp","C:/Users/gemmb","no","Andale Mono","no","18","no","white","no","yes","576","legacy","38","38","3","C:/Users/gemmb/subject-5203611.csv","legacy","Lentiform Loewenfeld","3.3.7","yes","yes","600bd7cfb6416f0113b04181","602110864497cf011d9c0822","0","f","NA","space","space","space","NA","f","727","NA","3113","10252","5866","NA","727","2","legacy","1024","2","48000","-16","task","5203611","odd","NA","28511","33627","30513","110533","3816","19939","14072","111035","NA","110530","111035","110449","33627","111763","26531","109949","3797","101356","Lexical Decision Task","41","35689","43","yes","1024"
"2.782472624","10.55","2","huge","word","95.45454545454545","95.45454545454545","825.75","825.75","black","no","legacy","legacy","legacy","0","uniform","1","undefined","undefined","undefined","1","j","0","0","0","0","43","0","0","0","43","NA","39","43","39","0","39","3","43","0","43","Thu Feb 18 13:28:52 2021","The main experiment item","yes","Lexical_Decision_Task.osexp","C:/Users/gemmb","no","Andale Mono","no","18","no","white","no","yes","576","legacy","39","39","3","C:/Users/gemmb/subject-5203611.csv","legacy","Lentiform Loewenfeld","3.3.7","yes","yes","600bd7cfb6416f0113b04181","602110864497cf011d9c0822","0","j","NA","space","space","space","NA","j","644","NA","3113","10252","5866","NA","644","2","legacy","1024","2","48000","-16","task","5203611","odd","NA","28511","33627","30513","112457","3816","19939","14072","112959","NA","112454","112959","112308","33627","113604","26531","111808","3797","101356","Lexical Decision Task","42","36333","44","yes","1024"
"2.82129731","6.72","5","plum","word","95.55555555555556","95.55555555555556","830.6","830.6","black","no","legacy","legacy","legacy","0","uniform","1","undefined","undefined","undefined","1","j","0","0","0","0","44","0","0","0","44","NA","40","44","40","0","40","3","44","0","44","Thu Feb 18 13:28:52 2021","The main experiment item","yes","Lexical_Decision_Task.osexp","C:/Users/gemmb","no","Andale Mono","no","18","no","white","no","yes","576","legacy","40","40","3","C:/Users/gemmb/subject-5203611.csv","legacy","Lentiform Loewenfeld","3.3.7","yes","yes","600bd7cfb6416f0113b04181","602110864497cf011d9c0822","0","j","NA","space","space","space","NA","j","1044","NA","3113","10252","5866","NA","1044","2","legacy","1024","2","48000","-16","task","5203611","odd","NA","28511","33627","30513","114279","3816","19939","14072","114781","NA","114276","114781","114146","33627","115826","26531","113646","3797","101356","Lexical Decision Task","43","37377","45","yes","1024"
"3.091901331","0","9","nipe","non-word","95.65217391304348","95.65217391304348","828.2391304347826","828.2391304347826","black","no","legacy","legacy","legacy","0","uniform","1","undefined","undefined","undefined","1","f","0","0","0","0","45","0","0","0","45","NA","41","45","41","0","41","3","45","0","45","Thu Feb 18 13:28:52 2021","The main experiment item","yes","Lexical_Decision_Task.osexp","C:/Users/gemmb","no","Andale Mono","no","18","no","white","no","yes","576","legacy","41","41","3","C:/Users/gemmb/subject-5203611.csv","legacy","Lentiform Loewenfeld","3.3.7","yes","yes","600bd7cfb6416f0113b04181","602110864497cf011d9c0822","0","f","NA","space","space","space","NA","f","722","NA","3113","10252","5866","NA","722","2","legacy","1024","2","48000","-16","task","5203611","odd","NA","28511","33627","30513","116467","3816","19939","14072","116968","NA","116464","116968","116370","33627","117691","26531","115870","3797","101356","Lexical Decision Task","44","38099","46","yes","1024"
"3.066077331","0","7","vorn","non-word","95.74468085106383","95.74468085106383","829.5744680851063","829.5744680851063","black","no","legacy","legacy","legacy","0","uniform","1","undefined","undefined","undefined","1","f","0","0","0","0","46","0","0","0","46","NA","42","46","42","0","42","3","46","0","46","Thu Feb 18 13:28:52 2021","The main experiment item","yes","Lexical_Decision_Task.osexp","C:/Users/gemmb","no","Andale Mono","no","18","no","white","no","yes","576","legacy","42","42","3","C:/Users/gemmb/subject-5203611.csv","legacy","Lentiform Loewenfeld","3.3.7","yes","yes","600bd7cfb6416f0113b04181","602110864497cf011d9c0822","0","f","NA","space","space","space","NA","f","891","NA","3113","10252","5866","NA","891","2","legacy","1024","2","48000","-16","task","5203611","odd","NA","28511","33627","30513","118326","3816","19939","14072","118829","NA","118324","118829","118235","33627","119721","26531","117735","3797","101356","Lexical Decision Task","45","38990","47","yes","1024"
"3.261341392","5.08","8","reek","word","95.83333333333333","95.83333333333333","830.25","830.25","black","no","legacy","legacy","legacy","0","uniform","1","undefined","undefined","undefined","1","j","0","0","0","0","47","0","0","0","47","NA","43","47","43","0","43","3","47","0","47","Thu Feb 18 13:28:52 2021","The main experiment item","yes","Lexical_Decision_Task.osexp","C:/Users/gemmb","no","Andale Mono","no","18","no","white","no","yes","576","legacy","43","43","3","C:/Users/gemmb/subject-5203611.csv","legacy","Lentiform Loewenfeld","3.3.7","yes","yes","600bd7cfb6416f0113b04181","602110864497cf011d9c0822","0","j","NA","space","space","space","NA","j","862","NA","3113","10252","5866","NA","862","2","legacy","1024","2","48000","-16","task","5203611","odd","NA","28511","33627","30513","120350","3816","19939","14072","120852","NA","120349","120852","120238","33627","121715","26531","119738","3797","101356","Lexical Decision Task","46","39852","48","yes","1024"
"3.195807436","0","6","stup","non-word","95.91836734693878","95.91836734693878","834.2448979591836","834.2448979591836","black","no","legacy","legacy","legacy","0","uniform","1","undefined","undefined","undefined","1","f","0","0","0","0","48","0","0","0","48","NA","44","48","44","0","44","3","48","0","48","Thu Feb 18 13:28:52 2021","The main experiment item","yes","Lexical_Decision_Task.osexp","C:/Users/gemmb","no","Andale Mono","no","18","no","white","no","yes","576","legacy","44","44","3","C:/Users/gemmb/subject-5203611.csv","legacy","Lentiform Loewenfeld","3.3.7","yes","yes","600bd7cfb6416f0113b04181","602110864497cf011d9c0822","0","f","NA","space","space","space","NA","f","1026","NA","3113","10252","5866","NA","1026","2","legacy","1024","2","48000","-16","task","5203611","odd","NA","28511","33627","30513","122374","3816","19939","14072","122876","NA","122371","122876","122256","33627","123903","26531","121756","3797","101356","Lexical Decision Task","47","40878","49","yes","1024"
"2.971428938","9.86","7","spot","word","96","96","829.52","829.52","black","no","legacy","legacy","legacy","0","uniform","1","undefined","undefined","undefined","1","j","0","0","0","0","49","0","0","0","49","NA","45","49","45","0","45","3","49","0","49","Thu Feb 18 13:28:52 2021","The main experiment item","yes","Lexical_Decision_Task.osexp","C:/Users/gemmb","no","Andale Mono","no","18","no","white","no","yes","576","legacy","45","45","3","C:/Users/gemmb/subject-5203611.csv","legacy","Lentiform Loewenfeld","3.3.7","yes","yes","600bd7cfb6416f0113b04181","602110864497cf011d9c0822","0","j","NA","space","space","space","NA","j","598","NA","3113","10252","5866","NA","598","2","legacy","1024","2","48000","-16","task","5203611","odd","NA","28511","33627","30513","124525","3816","19939","14072","125027","NA","124523","125027","124446","33627","125626","26531","123946","3797","101356","Lexical Decision Task","48","41476","50","yes","1024"
"3.397302518","7.01","2","knit","word","96.07843137254902","96.07843137254902","827.1960784313726","827.1960784313726","black","no","legacy","legacy","legacy","0","uniform","1","undefined","undefined","undefined","1","j","0","0","0","0","50","0","0","0","50","NA","46","50","46","0","46","3","50","0","50","Thu Feb 18 13:28:52 2021","The main experiment item","yes","Lexical_Decision_Task.osexp","C:/Users/gemmb","no","Andale Mono","no","18","no","white","no","yes","576","legacy","46","46","3","C:/Users/gemmb/subject-5203611.csv","legacy","Lentiform Loewenfeld","3.3.7","yes","yes","600bd7cfb6416f0113b04181","602110864497cf011d9c0822","0","j","NA","space","space","space","NA","j","711","NA","3113","10252","5866","NA","711","2","legacy","1024","2","48000","-16","task","5203611","odd","NA","28511","33627","30513","126288","3816","19939","14072","126790","NA","126286","126790","126169","33627","127502","26531","125668","3797","101356","Lexical Decision Task","49","42187","51","yes","1024"
"2.799799878","0","4","ciff","non-word","96.15384615384616","96.15384615384616","827.6730769230769","827.6730769230769","black","no","legacy","legacy","legacy","0","uniform","1","undefined","undefined","undefined","1","f","0","0","0","0","51","0","0","0","51","NA","47","51","47","0","47","3","51","0","51","Thu Feb 18 13:28:52 2021","The main experiment item","yes","Lexical_Decision_Task.osexp","C:/Users/gemmb","no","Andale Mono","no","18","no","white","no","yes","576","legacy","47","47","3","C:/Users/gemmb/subject-5203611.csv","legacy","Lentiform Loewenfeld","3.3.7","yes","yes","600bd7cfb6416f0113b04181","602110864497cf011d9c0822","0","f","NA","space","space","space","NA","f","852","NA","3113","10252","5866","NA","852","2","legacy","1024","2","48000","-16","task","5203611","odd","NA","28511","33627","30513","128148","3816","19939","14072","128650","NA","128146","128650","128044","33627","129504","26531","127544","3797","101356","Lexical Decision Task","50","43039","52","yes","1024"
"3.067070856","9.39","3","loud","word","96.22641509433963","96.22641509433963","830.2641509433962","830.2641509433962","black","no","legacy","legacy","legacy","0","uniform","1","undefined","undefined","undefined","1","j","0","0","0","0","52","0","0","0","52","NA","48","52","48","0","48","3","52","0","52","Thu Feb 18 13:28:52 2021","The main experiment item","yes","Lexical_Decision_Task.osexp","C:/Users/gemmb","no","Andale Mono","no","18","no","white","no","yes","576","legacy","48","48","3","C:/Users/gemmb/subject-5203611.csv","legacy","Lentiform Loewenfeld","3.3.7","yes","yes","600bd7cfb6416f0113b04181","602110864497cf011d9c0822","0","j","NA","space","space","space","NA","j","965","NA","3113","10252","5866","NA","965","2","legacy","1024","2","48000","-16","task","5203611","odd","NA","28511","33627","30513","130144","3816","19939","14072","130646","NA","130142","130646","130049","33627","131613","26531","129549","3797","101356","Lexical Decision Task","51","44004","53","yes","1024"
"3.259832699","0","9","flar","non-word","96.29629629629629","96.29629629629629","826.0370370370371","826.0370370370371","black","no","legacy","legacy","legacy","0","uniform","1","undefined","undefined","undefined","1","f","0","0","0","0","53","0","0","0","53","NA","49","53","49","0","49","3","53","0","53","Thu Feb 18 13:28:52 2021","The main experiment item","yes","Lexical_Decision_Task.osexp","C:/Users/gemmb","no","Andale Mono","no","18","no","white","no","yes","576","legacy","49","49","3","C:/Users/gemmb/subject-5203611.csv","legacy","Lentiform Loewenfeld","3.3.7","yes","yes","600bd7cfb6416f0113b04181","602110864497cf011d9c0822","0","f","NA","space","space","space","NA","f","602","NA","3113","10252","5866","NA","602","2","legacy","1024","2","48000","-16","task","5203611","odd","NA","28511","33627","30513","132263","3816","19939","14072","132765","NA","132260","132766","132117","33627","133370","26531","131617","3797","101356","Lexical Decision Task","52","44606","54","yes","1024"
"2.924968096","0","4","phim","non-word","96.36363636363636","96.36363636363636","821.9090909090909","821.9090909090909","black","no","legacy","legacy","legacy","0","uniform","1","undefined","undefined","undefined","1","f","0","0","0","0","54","0","0","0","54","0","50","54","50","0","50","3","54","0","54","Thu Feb 18 13:28:52 2021","The main experiment item","yes","Lexical_Decision_Task.osexp","C:/Users/gemmb","no","Andale Mono","no","18","no","white","no","yes","576","legacy","50","50","3","C:/Users/gemmb/subject-5203611.csv","legacy","Lentiform Loewenfeld","3.3.7","yes","yes","600bd7cfb6416f0113b04181","602110864497cf011d9c0822","0","f","NA","space","space","space","space","f","599","NA","3113","10252","5866","6493","599","2","legacy","1024","2","48000","-16","task","5203611","odd","NA","28511","33627","30513","140616","3816","19939","14072","141118","134004","140615","141119","133916","33627","141718","26531","133416","3797","101356","Lexical Decision Task","53","45205","55","yes","1024"
"2.880623071","0","9","curp","non-word","96.42857142857143","96.42857142857143","817.1964285714286","817.1964285714286","black","no","legacy","legacy","legacy","0","uniform","1","undefined","undefined","undefined","1","f","0","0","0","0","55","0","0","0","55","0","51","55","51","0","51","3","55","0","55","Thu Feb 18 13:28:52 2021","The main experiment item","yes","Lexical_Decision_Task.osexp","C:/Users/gemmb","no","Andale Mono","no","18","no","white","no","yes","576","legacy","51","51","3","C:/Users/gemmb/subject-5203611.csv","legacy","Lentiform Loewenfeld","3.3.7","yes","yes","600bd7cfb6416f0113b04181","602110864497cf011d9c0822","0","f","NA","space","space","space","space","f","558","NA","3113","10252","5866","6493","558","2","legacy","1024","2","48000","-16","task","5203611","odd","NA","28511","33627","30513","142381","3816","19939","14072","142883","134004","142379","142883","142264","33627","143442","26531","141764","3797","101356","Lexical Decision Task","54","45763","56","yes","1024"
"3.311895072","0","9","gung","non-word","96.49122807017544","96.49122807017544","813.2280701754386","813.2280701754386","black","no","legacy","legacy","legacy","0","uniform","1","undefined","undefined","undefined","1","f","0","0","0","0","56","0","0","0","56","0","52","56","52","0","52","3","56","0","56","Thu Feb 18 13:28:52 2021","The main experiment item","yes","Lexical_Decision_Task.osexp","C:/Users/gemmb","no","Andale Mono","no","18","no","white","no","yes","576","legacy","52","52","3","C:/Users/gemmb/subject-5203611.csv","legacy","Lentiform Loewenfeld","3.3.7","yes","yes","600bd7cfb6416f0113b04181","602110864497cf011d9c0822","0","f","NA","space","space","space","space","f","591","NA","3113","10252","5866","6493","591","2","legacy","1024","2","48000","-16","task","5203611","odd","NA","28511","33627","30513","144108","3816","19939","14072","144610","134004","144105","144610","143988","33627","145202","26531","143487","3797","101356","Lexical Decision Task","55","46354","57","yes","1024"
"2.698387659","6.66","7","skid","word","96.55172413793103","96.55172413793103","815.8103448275862","815.8103448275862","black","no","legacy","legacy","legacy","0","uniform","1","undefined","undefined","undefined","1","j","0","0","0","0","57","0","0","0","57","0","53","57","53","0","53","3","57","0","57","Thu Feb 18 13:28:52 2021","The main experiment item","yes","Lexical_Decision_Task.osexp","C:/Users/gemmb","no","Andale Mono","no","18","no","white","no","yes","576","legacy","53","53","3","C:/Users/gemmb/subject-5203611.csv","legacy","Lentiform Loewenfeld","3.3.7","yes","yes","600bd7cfb6416f0113b04181","602110864497cf011d9c0822","0","j","NA","space","space","space","space","j","963","NA","3113","10252","5866","6493","963","2","legacy","1024","2","48000","-16","task","5203611","odd","NA","28511","33627","30513","145852","3816","19939","14072","146354","134004","145850","146354","145748","33627","147318","26531","145248","3797","101356","Lexical Decision Task","56","47317","58","yes","1024"
"2.675164031","8.57","6","glue","word","96.61016949152543","96.61016949152543","810.9661016949152","810.9661016949152","black","no","legacy","legacy","legacy","0","uniform","1","undefined","undefined","undefined","1","j","0","0","0","0","58","0","0","0","58","0","54","58","54","0","54","3","58","0","58","Thu Feb 18 13:28:52 2021","The main experiment item","yes","Lexical_Decision_Task.osexp","C:/Users/gemmb","no","Andale Mono","no","18","no","white","no","yes","576","legacy","54","54","3","C:/Users/gemmb/subject-5203611.csv","legacy","Lentiform Loewenfeld","3.3.7","yes","yes","600bd7cfb6416f0113b04181","602110864497cf011d9c0822","0","j","NA","space","space","space","space","j","530","NA","3113","10252","5866","6493","530","2","legacy","1024","2","48000","-16","task","5203611","odd","NA","28511","33627","30513","147980","3816","19939","14072","148482","134004","147977","148482","147863","33627","149013","26531","147363","3797","101356","Lexical Decision Task","57","47847","59","yes","1024"
"2.616654026","9.37","5","gift","word","96.66666666666667","96.66666666666667","807.4333333333333","807.4333333333333","black","no","legacy","legacy","legacy","0","uniform","1","undefined","undefined","undefined","1","j","0","0","0","0","59","0","0","0","59","0","55","59","55","0","55","3","59","0","59","Thu Feb 18 13:28:52 2021","The main experiment item","yes","Lexical_Decision_Task.osexp","C:/Users/gemmb","no","Andale Mono","no","18","no","white","no","yes","576","legacy","55","55","3","C:/Users/gemmb/subject-5203611.csv","legacy","Lentiform Loewenfeld","3.3.7","yes","yes","600bd7cfb6416f0113b04181","602110864497cf011d9c0822","0","j","NA","space","space","space","space","j","599","NA","3113","10252","5866","6493","599","2","legacy","1024","2","48000","-16","task","5203611","odd","NA","28511","33627","30513","149647","3816","19939","14072","150149","134004","149644","150149","149556","33627","150749","26531","149055","3797","101356","Lexical Decision Task","58","48446","60","yes","1024"
"3.384413096","10.15","3","glad","word","96.72131147540983","96.72131147540983","804","804","black","no","legacy","legacy","legacy","0","uniform","1","undefined","undefined","undefined","1","j","0","0","0","0","60","0","0","0","60","0","56","60","56","0","56","3","60","0","60","Thu Feb 18 13:28:52 2021","The main experiment item","yes","Lexical_Decision_Task.osexp","C:/Users/gemmb","no","Andale Mono","no","18","no","white","no","yes","576","legacy","56","56","3","C:/Users/gemmb/subject-5203611.csv","legacy","Lentiform Loewenfeld","3.3.7","yes","yes","600bd7cfb6416f0113b04181","602110864497cf011d9c0822","0","j","NA","space","space","space","space","j","598","NA","3113","10252","5866","6493","598","2","legacy","1024","2","48000","-16","task","5203611","odd","NA","28511","33627","30513","151420","3816","19939","14072","151922","134004","151417","151922","151290","33627","152522","26531","150790","3797","101356","Lexical Decision Task","59","49044","61","yes","1024"
"2.980306438","0","7","slun","non-word","96.7741935483871","96.7741935483871","800.258064516129","800.258064516129","black","no","legacy","legacy","legacy","0","uniform","1","undefined","undefined","undefined","1","f","0","0","0","0","61","0","0","0","61","0","57","61","57","0","57","3","61","0","61","Thu Feb 18 13:28:52 2021","The main experiment item","yes","Lexical_Decision_Task.osexp","C:/Users/gemmb","no","Andale Mono","no","18","no","white","no","yes","576","legacy","57","57","3","C:/Users/gemmb/subject-5203611.csv","legacy","Lentiform Loewenfeld","3.3.7","yes","yes","600bd7cfb6416f0113b04181","602110864497cf011d9c0822","0","f","NA","space","space","space","space","f","572","NA","3113","10252","5866","6493","572","2","legacy","1024","2","48000","-16","task","5203611","odd","NA","28511","33627","30513","153169","3816","19939","14072","153671","134004","153168","153671","153056","33627","154246","26531","152556","3797","101356","Lexical Decision Task","60","49616","62","yes","1024"
"3.353210739","0","9","reet","non-word","96.82539682539682","96.82539682539682","798.6190476190476","798.6190476190476","black","no","legacy","legacy","legacy","0","uniform","1","undefined","undefined","undefined","1","f","0","0","0","0","62","0","0","0","62","0","58","62","58","0","58","3","62","0","62","Thu Feb 18 13:28:52 2021","The main experiment item","yes","Lexical_Decision_Task.osexp","C:/Users/gemmb","no","Andale Mono","no","18","no","white","no","yes","576","legacy","58","58","3","C:/Users/gemmb/subject-5203611.csv","legacy","Lentiform Loewenfeld","3.3.7","yes","yes","600bd7cfb6416f0113b04181","602110864497cf011d9c0822","0","f","NA","space","space","space","space","f","697","NA","3113","10252","5866","6493","697","2","legacy","1024","2","48000","-16","task","5203611","odd","NA","28511","33627","30513","154876","3816","19939","14072","155378","134004","154874","155378","154792","33627","156077","26531","154292","3797","101356","Lexical Decision Task","61","50313","63","yes","1024"
"2.981215883","10.66","5","hair","word","96.875","96.875","794.53125","794.53125","black","no","legacy","legacy","legacy","0","uniform","1","undefined","undefined","undefined","1","j","0","0","0","0","63","0","0","0","63","0","59","63","59","0","59","3","63","0","63","Thu Feb 18 13:28:52 2021","The main experiment item","yes","Lexical_Decision_Task.osexp","C:/Users/gemmb","no","Andale Mono","no","18","no","white","no","yes","576","legacy","59","59","3","C:/Users/gemmb/subject-5203611.csv","legacy","Lentiform Loewenfeld","3.3.7","yes","yes","600bd7cfb6416f0113b04181","602110864497cf011d9c0822","0","j","NA","space","space","space","space","j","537","NA","3113","10252","5866","6493","537","2","legacy","1024","2","48000","-16","task","5203611","odd","NA","28511","33627","30513","156759","3816","19939","14072","157261","134004","156757","157261","156624","33627","157800","26531","156124","3797","101356","Lexical Decision Task","62","50850","64","yes","1024"
"2.966923697","5.4","2","fume","word","96.92307692307692","96.92307692307692","791.276923076923","791.276923076923","black","no","legacy","legacy","legacy","0","uniform","1","undefined","undefined","undefined","1","j","0","0","0","0","64","0","0","0","64","0","60","64","60","0","60","3","64","0","64","Thu Feb 18 13:28:52 2021","The main experiment item","yes","Lexical_Decision_Task.osexp","C:/Users/gemmb","no","Andale Mono","no","18","no","white","no","yes","576","legacy","60","60","3","C:/Users/gemmb/subject-5203611.csv","legacy","Lentiform Loewenfeld","3.3.7","yes","yes","600bd7cfb6416f0113b04181","602110864497cf011d9c0822","0","j","NA","space","space","space","space","j","583","NA","3113","10252","5866","6493","583","2","legacy","1024","2","48000","-16","task","5203611","odd","NA","28511","33627","30513","158488","3816","19939","14072","158990","134004","158485","158990","158345","33627","159574","26531","157845","3797","101356","Lexical Decision Task","63","51433","65","yes","1024"
"3.088136089","8.32","9","worm","word","95.45454545454545","95.45454545454545","786.1060606060606","786.1060606060606","black","no","legacy","legacy","legacy","0","uniform","0","undefined","undefined","undefined","0","j","0","0","0","0","65","0","0","0","65","0","61","65","61","0","61","3","65","0","65","Thu Feb 18 13:28:52 2021","The main experiment item","yes","Lexical_Decision_Task.osexp","C:/Users/gemmb","no","Andale Mono","no","18","no","white","no","yes","576","legacy","61","61","3","C:/Users/gemmb/subject-5203611.csv","legacy","Lentiform Loewenfeld","3.3.7","yes","yes","600bd7cfb6416f0113b04181","602110864497cf011d9c0822","0","f","NA","space","space","space","space","f","450","NA","3113","10252","5866","6493","450","2","legacy","1024","2","48000","-16","task","5203611","odd","NA","28511","33627","30513","160208","3816","19939","14072","160710","134004","160206","160710","160118","33627","161161","26531","159618","3797","101356","Lexical Decision Task","63","51883","66","yes","1024"
"2.9737419","7.69","7","claw","word","95.5223880597015","95.5223880597015","784.7910447761194","784.7910447761194","black","no","legacy","legacy","legacy","0","uniform","1","undefined","undefined","undefined","1","j","0","0","0","0","66","0","0","0","66","0","62","66","62","0","62","3","66","0","66","Thu Feb 18 13:28:52 2021","The main experiment item","yes","Lexical_Decision_Task.osexp","C:/Users/gemmb","no","Andale Mono","no","18","no","white","no","yes","576","legacy","62","62","3","C:/Users/gemmb/subject-5203611.csv","legacy","Lentiform Loewenfeld","3.3.7","yes","yes","600bd7cfb6416f0113b04181","602110864497cf011d9c0822","0","j","NA","space","space","space","space","j","698","NA","3113","10252","5866","6493","698","2","legacy","1024","2","48000","-16","task","5203611","odd","NA","28511","33627","30513","162857","3816","19939","14072","163359","134004","162854","163359","162707","33627","164058","26531","159618","3797","161207","Lexical Decision Task","64","52581","67","yes","1024"
"2.893578687","8.69","3","surf","word","95.58823529411765","95.58823529411765","779.8088235294117","779.8088235294117","black","no","legacy","legacy","legacy","0","uniform","1","undefined","undefined","undefined","1","j","0","0","0","0","67","0","0","0","67","0","63","67","63","0","63","3","67","0","67","Thu Feb 18 13:28:52 2021","The main experiment item","yes","Lexical_Decision_Task.osexp","C:/Users/gemmb","no","Andale Mono","no","18","no","white","no","yes","576","legacy","63","63","3","C:/Users/gemmb/subject-5203611.csv","legacy","Lentiform Loewenfeld","3.3.7","yes","yes","600bd7cfb6416f0113b04181","602110864497cf011d9c0822","0","j","NA","space","space","space","space","j","446","NA","3113","10252","5866","6493","446","2","legacy","1024","2","48000","-16","task","5203611","odd","NA","28511","33627","30513","164750","3816","19939","14072","165252","134004","164747","165252","164600","33627","165699","26531","164100","3797","161207","Lexical Decision Task","65","53027","68","yes","1024"
"3.064581521","5.51","6","cask","word","94.20289855072464","94.20289855072464","777.6231884057971","777.6231884057971","black","no","legacy","legacy","legacy","0","uniform","0","undefined","undefined","undefined","0","j","0","0","0","0","68","0","0","0","68","0","64","68","64","0","64","3","68","0","68","Thu Feb 18 13:28:52 2021","The main experiment item","yes","Lexical_Decision_Task.osexp","C:/Users/gemmb","no","Andale Mono","no","18","no","white","no","yes","576","legacy","64","64","3","C:/Users/gemmb/subject-5203611.csv","legacy","Lentiform Loewenfeld","3.3.7","yes","yes","600bd7cfb6416f0113b04181","602110864497cf011d9c0822","0","f","NA","space","space","space","space","f","629","NA","3113","10252","5866","6493","629","2","legacy","1024","2","48000","-16","task","5203611","odd","NA","28511","33627","30513","166313","3816","19939","14072","166815","134004","166311","166815","166203","33627","167445","26531","165703","3797","161207","Lexical Decision Task","65","53656","69","yes","1024"
"3.248054965","7.86","5","glow","word","94.28571428571429","94.28571428571429","772.9285714285714","772.9285714285714","black","no","legacy","legacy","legacy","0","uniform","1","undefined","undefined","undefined","1","j","0","0","0","0","69","0","0","0","69","0","65","69","65","0","65","3","69","0","69","Thu Feb 18 13:28:52 2021","The main experiment item","yes","Lexical_Decision_Task.osexp","C:/Users/gemmb","no","Andale Mono","no","18","no","white","no","yes","576","legacy","65","65","3","C:/Users/gemmb/subject-5203611.csv","legacy","Lentiform Loewenfeld","3.3.7","yes","yes","600bd7cfb6416f0113b04181","602110864497cf011d9c0822","0","j","NA","space","space","space","space","j","449","NA","3113","10252","5866","6493","449","2","legacy","1024","2","48000","-16","task","5203611","odd","NA","28511","33627","30513","169119","3816","19939","14072","169621","134004","169117","169621","168988","33627","170071","26531","165703","3797","167487","Lexical Decision Task","66","54105","70","yes","1024"
"3.303771854","0","9","dath","non-word","94.36619718309859","94.36619718309859","773.3661971830986","773.3661971830986","black","no","legacy","legacy","legacy","0","uniform","1","undefined","undefined","undefined","1","f","0","0","0","0","70","0","0","0","70","0","66","70","66","0","66","3","70","0","70","Thu Feb 18 13:28:52 2021","The main experiment item","yes","Lexical_Decision_Task.osexp","C:/Users/gemmb","no","Andale Mono","no","18","no","white","no","yes","576","legacy","66","66","3","C:/Users/gemmb/subject-5203611.csv","legacy","Lentiform Loewenfeld","3.3.7","yes","yes","600bd7cfb6416f0113b04181","602110864497cf011d9c0822","0","f","NA","space","space","space","space","f","804","NA","3113","10252","5866","6493","804","2","legacy","1024","2","48000","-16","task","5203611","odd","NA","28511","33627","30513","170762","3816","19939","14072","171264","134004","170759","171264","170617","33627","172069","26531","170117","3797","167487","Lexical Decision Task","67","54909","71","yes","1024"
"2.594027722","9.08","8","skip","word","94.44444444444444","94.44444444444444","771.375","771.375","black","no","legacy","legacy","legacy","0","uniform","1","undefined","undefined","undefined","1","j","0","0","0","0","71","0","0","0","71","0","67","71","67","0","67","3","71","0","71","Thu Feb 18 13:28:52 2021","The main experiment item","yes","Lexical_Decision_Task.osexp","C:/Users/gemmb","no","Andale Mono","no","18","no","white","no","yes","576","legacy","67","67","3","C:/Users/gemmb/subject-5203611.csv","legacy","Lentiform Loewenfeld","3.3.7","yes","yes","600bd7cfb6416f0113b04181","602110864497cf011d9c0822","0","j","NA","space","space","space","space","j","630","NA","3113","10252","5866","6493","630","2","legacy","1024","2","48000","-16","task","5203611","odd","NA","28511","33627","30513","172739","3816","19939","14072","173241","134004","172737","173241","172610","33627","173872","26531","172110","3797","167487","Lexical Decision Task","68","55539","72","yes","1024"
"3.529815197","0","3","lerm","non-word","94.52054794520548","94.52054794520548","769.7808219178082","769.7808219178082","black","no","legacy","legacy","legacy","0","uniform","1","undefined","undefined","undefined","1","f","0","0","0","0","72","0","0","0","72","0","68","72","68","0","68","3","72","0","72","Thu Feb 18 13:28:52 2021","The main experiment item","yes","Lexical_Decision_Task.osexp","C:/Users/gemmb","no","Andale Mono","no","18","no","white","no","yes","576","legacy","68","68","3","C:/Users/gemmb/subject-5203611.csv","legacy","Lentiform Loewenfeld","3.3.7","yes","yes","600bd7cfb6416f0113b04181","602110864497cf011d9c0822","0","f","NA","space","space","space","space","f","655","NA","3113","10252","5866","6493","655","2","legacy","1024","2","48000","-16","task","5203611","odd","NA","28511","33627","30513","174530","3816","19939","14072","175032","134004","174528","175032","174415","33627","175688","26531","173915","3797","167487","Lexical Decision Task","69","56194","73","yes","1024"
"3.705778213","0","6","stin","non-word","94.5945945945946","94.5945945945946","768.3918918918919","768.3918918918919","black","no","legacy","legacy","legacy","0","uniform","1","undefined","undefined","undefined","1","f","0","0","0","0","73","0","0","0","73","0","69","73","69","0","69","3","73","0","73","Thu Feb 18 13:28:52 2021","The main experiment item","yes","Lexical_Decision_Task.osexp","C:/Users/gemmb","no","Andale Mono","no","18","no","white","no","yes","576","legacy","69","69","3","C:/Users/gemmb/subject-5203611.csv","legacy","Lentiform Loewenfeld","3.3.7","yes","yes","600bd7cfb6416f0113b04181","602110864497cf011d9c0822","0","f","NA","space","space","space","space","f","667","NA","3113","10252","5866","6493","667","2","legacy","1024","2","48000","-16","task","5203611","odd","NA","28511","33627","30513","176334","3816","19939","14072","176836","134004","176333","176836","176228","33627","177506","26531","175728","3797","167487","Lexical Decision Task","70","56861","74","yes","1024"
"3.067193647","6.73","6","raft","word","94.66666666666667","94.66666666666667","769.32","769.32","black","no","legacy","legacy","legacy","0","uniform","1","undefined","undefined","undefined","1","j","0","0","0","0","74","0","0","0","74","0","70","74","70","0","70","3","74","0","74","Thu Feb 18 13:28:52 2021","The main experiment item","yes","Lexical_Decision_Task.osexp","C:/Users/gemmb","no","Andale Mono","no","18","no","white","no","yes","576","legacy","70","70","3","C:/Users/gemmb/subject-5203611.csv","legacy","Lentiform Loewenfeld","3.3.7","yes","yes","600bd7cfb6416f0113b04181","602110864497cf011d9c0822","0","j","NA","space","space","space","space","j","838","NA","3113","10252","5866","6493","838","2","legacy","1024","2","48000","-16","task","5203611","odd","NA","28511","33627","30513","178144","3816","19939","14072","178646","134004","178142","178647","178049","33627","179487","26531","177549","3797","167487","Lexical Decision Task","71","57699","75","yes","1024"
"3.010582609","0","2","drod","non-word","94.73684210526316","94.73684210526316","768.3947368421053","768.3947368421053","black","no","legacy","legacy","legacy","0","uniform","1","undefined","undefined","undefined","1","f","0","0","0","0","75","0","0","0","75","0","71","75","71","0","71","3","75","0","75","Thu Feb 18 13:28:52 2021","The main experiment item","yes","Lexical_Decision_Task.osexp","C:/Users/gemmb","no","Andale Mono","no","18","no","white","no","yes","576","legacy","71","71","3","C:/Users/gemmb/subject-5203611.csv","legacy","Lentiform Loewenfeld","3.3.7","yes","yes","600bd7cfb6416f0113b04181","602110864497cf011d9c0822","0","f","NA","space","space","space","space","f","699","NA","3113","10252","5866","6493","699","2","legacy","1024","2","48000","-16","task","5203611","odd","NA","28511","33627","30513","180125","3816","19939","14072","180627","134004","180123","180627","180030","33627","181327","26531","179530","3797","167487","Lexical Decision Task","72","58398","76","yes","1024"
"2.7084209","0","8","vump","non-word","94.8051948051948","94.8051948051948","767.2077922077922","767.2077922077922","black","no","legacy","legacy","legacy","0","uniform","1","undefined","undefined","undefined","1","f","0","0","0","0","76","0","0","0","76","0","72","76","72","0","72","3","76","0","76","Thu Feb 18 13:28:52 2021","The main experiment item","yes","Lexical_Decision_Task.osexp","C:/Users/gemmb","no","Andale Mono","no","18","no","white","no","yes","576","legacy","72","72","3","C:/Users/gemmb/subject-5203611.csv","legacy","Lentiform Loewenfeld","3.3.7","yes","yes","600bd7cfb6416f0113b04181","602110864497cf011d9c0822","0","f","NA","space","space","space","space","f","677","NA","3113","10252","5866","6493","677","2","legacy","1024","2","48000","-16","task","5203611","odd","NA","28511","33627","30513","181989","3816","19939","14072","182491","134004","181988","182491","181850","33627","183169","26531","181350","3797","167487","Lexical Decision Task","73","59075","77","yes","1024"
"2.746890964","9.67","3","plug","word","94.87179487179488","94.87179487179488","764.974358974359","764.974358974359","black","no","legacy","legacy","legacy","0","uniform","1","undefined","undefined","undefined","1","j","0","0","0","0","77","0","0","0","77","0","73","77","73","0","73","3","77","0","77","Thu Feb 18 13:28:52 2021","The main experiment item","yes","Lexical_Decision_Task.osexp","C:/Users/gemmb","no","Andale Mono","no","18","no","white","no","yes","576","legacy","73","73","3","C:/Users/gemmb/subject-5203611.csv","legacy","Lentiform Loewenfeld","3.3.7","yes","yes","600bd7cfb6416f0113b04181","602110864497cf011d9c0822","0","j","NA","space","space","space","space","j","593","NA","3113","10252","5866","6493","593","2","legacy","1024","2","48000","-16","task","5203611","odd","NA","28511","33627","30513","183795","3816","19939","14072","184297","134004","183792","184297","183712","33627","184892","26531","183212","3797","167487","Lexical Decision Task","74","59668","78","yes","1024"
"3.149629599","0","2","cleb","non-word","94.9367088607595","94.9367088607595","763.3924050632911","763.3924050632911","black","no","legacy","legacy","legacy","0","uniform","1","undefined","undefined","undefined","1","f","0","0","0","0","78","0","0","0","78","0","74","78","74","0","74","3","78","0","78","Thu Feb 18 13:28:52 2021","The main experiment item","yes","Lexical_Decision_Task.osexp","C:/Users/gemmb","no","Andale Mono","no","18","no","white","no","yes","576","legacy","74","74","3","C:/Users/gemmb/subject-5203611.csv","legacy","Lentiform Loewenfeld","3.3.7","yes","yes","600bd7cfb6416f0113b04181","602110864497cf011d9c0822","0","f","NA","space","space","space","space","f","640","NA","3113","10252","5866","6493","640","2","legacy","1024","2","48000","-16","task","5203611","odd","NA","28511","33627","30513","185545","3816","19939","14072","186047","134004","185543","186047","185437","33627","186688","26531","184937","3797","167487","Lexical Decision Task","75","60308","79","yes","1024"
"3.282244367","0","6","fute","non-word","95","95","763.5375","763.5375","black","no","legacy","legacy","legacy","0","uniform","1","undefined","undefined","undefined","1","f","0","0","0","0","79","0","0","0","79","0","75","79","75","0","75","3","79","0","79","Thu Feb 18 13:28:52 2021","The main experiment item","yes","Lexical_Decision_Task.osexp","C:/Users/gemmb","no","Andale Mono","no","18","no","white","no","yes","576","legacy","75","75","3","C:/Users/gemmb/subject-5203611.csv","legacy","Lentiform Loewenfeld","3.3.7","yes","yes","600bd7cfb6416f0113b04181","602110864497cf011d9c0822","0","f","NA","space","space","space","space","f","775","NA","3113","10252","5866","6493","775","2","legacy","1024","2","48000","-16","task","5203611","odd","NA","28511","33627","30513","187385","3816","19939","14072","187888","134004","187381","187888","187235","33627","188664","26531","186735","3797","167487","Lexical Decision Task","76","61083","80","yes","1024"
"2.714888338","0","3","brug","non-word","95.06172839506173","95.06172839506173","763.0864197530864","763.0864197530864","black","no","legacy","legacy","legacy","0","uniform","1","undefined","undefined","undefined","1","f","0","0","0","0","80","0","0","0","80","0","76","80","76","0","76","3","80","0","80","Thu Feb 18 13:28:52 2021","The main experiment item","yes","Lexical_Decision_Task.osexp","C:/Users/gemmb","no","Andale Mono","no","18","no","white","no","yes","576","legacy","76","76","3","C:/Users/gemmb/subject-5203611.csv","legacy","Lentiform Loewenfeld","3.3.7","yes","yes","600bd7cfb6416f0113b04181","602110864497cf011d9c0822","0","f","NA","space","space","space","space","f","727","NA","3113","10252","5866","6493","727","2","legacy","1024","2","48000","-16","task","5203611","odd","NA","28511","33627","30513","189338","3816","19939","14072","189840","134004","189337","189840","189208","33627","190568","26531","188708","3797","167487","Lexical Decision Task","77","61810","81","yes","1024"
"2.728085817","10.02","9","bike","word","95.1219512195122","95.1219512195122","761.219512195122","761.219512195122","black","no","legacy","legacy","legacy","0","uniform","1","undefined","undefined","undefined","1","j","0","0","0","0","81","0","0","0","81","0","77","81","77","0","77","3","81","0","81","Thu Feb 18 13:28:52 2021","The main experiment item","yes","Lexical_Decision_Task.osexp","C:/Users/gemmb","no","Andale Mono","no","18","no","white","no","yes","576","legacy","77","77","3","C:/Users/gemmb/subject-5203611.csv","legacy","Lentiform Loewenfeld","3.3.7","yes","yes","600bd7cfb6416f0113b04181","602110864497cf011d9c0822","0","j","NA","space","space","space","space","j","610","NA","3113","10252","5866","6493","610","2","legacy","1024","2","48000","-16","task","5203611","odd","NA","28511","33627","30513","191166","3816","19939","14072","191668","134004","191163","191668","191072","33627","192279","26531","190572","3797","167487","Lexical Decision Task","78","62420","82","yes","1024"
"3.076883066","0","8","mout","non-word","95.18072289156626","95.18072289156626","761.3734939759037","761.3734939759037","black","no","legacy","legacy","legacy","0","uniform","1","undefined","undefined","undefined","1","f","0","0","0","0","82","0","0","0","82","0","78","82","78","0","78","3","82","0","82","Thu Feb 18 13:28:52 2021","The main experiment item","yes","Lexical_Decision_Task.osexp","C:/Users/gemmb","no","Andale Mono","no","18","no","white","no","yes","576","legacy","78","78","3","C:/Users/gemmb/subject-5203611.csv","legacy","Lentiform Loewenfeld","3.3.7","yes","yes","600bd7cfb6416f0113b04181","602110864497cf011d9c0822","0","f","NA","space","space","space","space","f","774","NA","3113","10252","5866","6493","774","2","legacy","1024","2","48000","-16","task","5203611","odd","NA","28511","33627","30513","192920","3816","19939","14072","193422","134004","192918","193422","192824","33627","194197","26531","192323","3797","167487","Lexical Decision Task","79","63194","83","yes","1024"
"2.75025376","10.2","6","jump","word","95.23809523809524","95.23809523809524","759.9642857142857","759.9642857142857","black","no","legacy","legacy","legacy","0","uniform","1","undefined","undefined","undefined","1","j","0","0","0","0","83","0","0","0","83","0","79","83","79","0","79","3","83","0","83","Thu Feb 18 13:28:52 2021","The main experiment item","yes","Lexical_Decision_Task.osexp","C:/Users/gemmb","no","Andale Mono","no","18","no","white","no","yes","576","legacy","79","79","3","C:/Users/gemmb/subject-5203611.csv","legacy","Lentiform Loewenfeld","3.3.7","yes","yes","600bd7cfb6416f0113b04181","602110864497cf011d9c0822","0","j","NA","space","space","space","space","j","643","NA","3113","10252","5866","6493","643","2","legacy","1024","2","48000","-16","task","5203611","odd","NA","28511","33627","30513","194830","3816","19939","14072","195333","134004","194827","195333","194740","33627","195977","26531","194240","3797","167487","Lexical Decision Task","80","63837","84","yes","1024"
"3.374198258","0","8","vist","non-word","95.29411764705883","95.29411764705883","760.035294117647","760.035294117647","black","no","legacy","legacy","legacy","0","uniform","1","undefined","undefined","undefined","1","f","0","0","0","0","84","0","0","0","84","0","80","84","80","0","80","3","84","0","84","Thu Feb 18 13:28:52 2021","The main experiment item","yes","Lexical_Decision_Task.osexp","C:/Users/gemmb","no","Andale Mono","no","18","no","white","no","yes","576","legacy","80","80","3","C:/Users/gemmb/subject-5203611.csv","legacy","Lentiform Loewenfeld","3.3.7","yes","yes","600bd7cfb6416f0113b04181","602110864497cf011d9c0822","0","f","NA","space","space","space","space","f","766","NA","3113","10252","5866","6493","766","2","legacy","1024","2","48000","-16","task","5203611","odd","NA","28511","33627","30513","196602","3816","19939","14072","197104","134004","196601","197104","196522","33627","197871","26531","196022","3797","167487","Lexical Decision Task","81","64603","85","yes","1024"
"3.090140555","5.81","8","pout","word","95.34883720930233","95.34883720930233","762.8023255813954","762.8023255813954","black","no","legacy","legacy","legacy","0","uniform","1","undefined","undefined","undefined","1","j","0","0","0","0","85","0","0","0","85","0","81","85","81","0","81","3","85","0","85","Thu Feb 18 13:28:52 2021","The main experiment item","yes","Lexical_Decision_Task.osexp","C:/Users/gemmb","no","Andale Mono","no","18","no","white","no","yes","576","legacy","81","81","3","C:/Users/gemmb/subject-5203611.csv","legacy","Lentiform Loewenfeld","3.3.7","yes","yes","600bd7cfb6416f0113b04181","602110864497cf011d9c0822","0","j","NA","space","space","space","space","j","998","NA","3113","10252","5866","6493","998","2","legacy","1024","2","48000","-16","task","5203611","odd","NA","28511","33627","30513","198548","3816","19939","14072","199050","134004","198545","199050","198416","33627","200049","26531","197916","3797","167487","Lexical Decision Task","82","65601","86","yes","1024"
"2.709837904","6.85","8","skim","word","95.40229885057471","95.40229885057471","763.8850574712644","763.8850574712644","black","no","legacy","legacy","legacy","0","uniform","1","undefined","undefined","undefined","1","j","0","0","0","0","86","0","0","0","86","0","82","86","82","0","82","3","86","0","86","Thu Feb 18 13:28:52 2021","The main experiment item","yes","Lexical_Decision_Task.osexp","C:/Users/gemmb","no","Andale Mono","no","18","no","white","no","yes","576","legacy","82","82","3","C:/Users/gemmb/subject-5203611.csv","legacy","Lentiform Loewenfeld","3.3.7","yes","yes","600bd7cfb6416f0113b04181","602110864497cf011d9c0822","0","j","NA","space","space","space","space","j","857","NA","3113","10252","5866","6493","857","2","legacy","1024","2","48000","-16","task","5203611","odd","NA","28511","33627","30513","200732","3816","19939","14072","201234","134004","200730","201234","200590","33627","202093","26531","200090","3797","167487","Lexical Decision Task","83","66458","87","yes","1024"
"2.839268497","0","8","maft","non-word","95.45454545454545","95.45454545454545","762.9090909090909","762.9090909090909","black","no","legacy","legacy","legacy","0","uniform","1","undefined","undefined","undefined","1","f","0","0","0","0","87","0","0","0","87","0","83","87","83","0","83","3","87","0","87","Thu Feb 18 13:28:52 2021","The main experiment item","yes","Lexical_Decision_Task.osexp","C:/Users/gemmb","no","Andale Mono","no","18","no","white","no","yes","576","legacy","83","83","3","C:/Users/gemmb/subject-5203611.csv","legacy","Lentiform Loewenfeld","3.3.7","yes","yes","600bd7cfb6416f0113b04181","602110864497cf011d9c0822","0","f","NA","space","space","space","space","f","678","NA","3113","10252","5866","6493","678","2","legacy","1024","2","48000","-16","task","5203611","odd","NA","28511","33627","30513","202687","3816","19939","14072","203190","134004","202685","203190","202597","33627","203869","26531","202097","3797","167487","Lexical Decision Task","84","67136","88","yes","1024"
"2.695481676","0","7","goke","non-word","95.50561797752809","95.50561797752809","764.0337078651686","764.0337078651686","black","no","legacy","legacy","legacy","0","uniform","1","undefined","undefined","undefined","1","f","0","0","0","0","88","0","0","0","88","0","84","88","84","0","84","3","88","0","88","Thu Feb 18 13:28:52 2021","The main experiment item","yes","Lexical_Decision_Task.osexp","C:/Users/gemmb","no","Andale Mono","no","18","no","white","no","yes","576","legacy","84","84","3","C:/Users/gemmb/subject-5203611.csv","legacy","Lentiform Loewenfeld","3.3.7","yes","yes","600bd7cfb6416f0113b04181","602110864497cf011d9c0822","0","f","NA","space","space","space","space","f","863","NA","3113","10252","5866","6493","863","2","legacy","1024","2","48000","-16","task","5203611","odd","NA","28511","33627","30513","204559","3816","19939","14072","205061","134004","204556","205061","204409","33627","205926","26531","203909","3797","167487","Lexical Decision Task","85","67999","89","yes","1024"
"3.031812271","6.52","3","gulp","word","95.55555555555556","95.55555555555556","762.7444444444444","762.7444444444444","black","no","legacy","legacy","legacy","0","uniform","1","undefined","undefined","undefined","1","j","0","0","0","0","89","0","0","0","89","0","85","89","85","0","85","3","89","0","89","Thu Feb 18 13:28:52 2021","The main experiment item","yes","Lexical_Decision_Task.osexp","C:/Users/gemmb","no","Andale Mono","no","18","no","white","no","yes","576","legacy","85","85","3","C:/Users/gemmb/subject-5203611.csv","legacy","Lentiform Loewenfeld","3.3.7","yes","yes","600bd7cfb6416f0113b04181","602110864497cf011d9c0822","0","j","NA","space","space","space","space","j","648","NA","3113","10252","5866","6493","648","2","legacy","1024","2","48000","-16","task","5203611","odd","NA","28511","33627","30513","206575","3816","19939","14072","207077","134004","206572","207077","206466","33627","207728","26531","205966","3797","167487","Lexical Decision Task","86","68647","90","yes","1024"
"3.068433376","8.09","2","bulb","word","94.50549450549451","94.50549450549451","760.7692307692307","760.7692307692307","black","no","legacy","legacy","legacy","0","uniform","0","undefined","undefined","undefined","0","j","0","0","0","0","90","0","0","0","90","0","86","90","86","0","86","3","90","0","90","Thu Feb 18 13:28:52 2021","The main experiment item","yes","Lexical_Decision_Task.osexp","C:/Users/gemmb","no","Andale Mono","no","18","no","white","no","yes","576","legacy","86","86","3","C:/Users/gemmb/subject-5203611.csv","legacy","Lentiform Loewenfeld","3.3.7","yes","yes","600bd7cfb6416f0113b04181","602110864497cf011d9c0822","0","f","NA","space","space","space","space","f","583","NA","3113","10252","5866","6493","583","2","legacy","1024","2","48000","-16","task","5203611","odd","NA","28511","33627","30513","208359","3816","19939","14072","208862","134004","208357","208862","208272","33627","209447","26531","207772","3797","167487","Lexical Decision Task","86","69230","91","yes","1024"
"2.693726949","5.08","3","swig","word","94.56521739130434","94.56521739130434","766.4782608695652","766.4782608695652","black","no","legacy","legacy","legacy","0","uniform","1","undefined","undefined","undefined","1","j","0","0","0","0","91","0","0","0","91","0","87","91","87","0","87","3","91","0","91","Thu Feb 18 13:28:52 2021","The main experiment item","yes","Lexical_Decision_Task.osexp","C:/Users/gemmb","no","Andale Mono","no","18","no","white","no","yes","576","legacy","87","87","3","C:/Users/gemmb/subject-5203611.csv","legacy","Lentiform Loewenfeld","3.3.7","yes","yes","600bd7cfb6416f0113b04181","602110864497cf011d9c0822","0","j","NA","space","space","space","space","j","1286","NA","3113","10252","5866","6493","1286","2","legacy","1024","2","48000","-16","task","5203611","odd","NA","28511","33627","30513","211141","3816","19939","14072","211643","134004","211138","211643","210990","33627","212930","26531","207772","3797","209490","Lexical Decision Task","87","70516","92","yes","1024"
"2.706148589","0","4","hube","non-word","94.6236559139785","94.6236559139785","766.010752688172","766.010752688172","black","no","legacy","legacy","legacy","0","uniform","1","undefined","undefined","undefined","1","f","0","0","0","0","92","0","0","0","92","0","88","92","88","0","88","3","92","0","92","Thu Feb 18 13:28:52 2021","The main experiment item","yes","Lexical_Decision_Task.osexp","C:/Users/gemmb","no","Andale Mono","no","18","no","white","no","yes","576","legacy","88","88","3","C:/Users/gemmb/subject-5203611.csv","legacy","Lentiform Loewenfeld","3.3.7","yes","yes","600bd7cfb6416f0113b04181","602110864497cf011d9c0822","0","f","NA","space","space","space","space","f","723","NA","3113","10252","5866","6493","723","2","legacy","1024","2","48000","-16","task","5203611","odd","NA","28511","33627","30513","213556","3816","19939","14072","214058","134004","213555","214058","213473","33627","214782","26531","212972","3797","209490","Lexical Decision Task","88","71239","93","yes","1024"
"3.269668578","0","7","trag","non-word","94.68085106382979","94.68085106382979","766.436170212766","766.436170212766","black","no","legacy","legacy","legacy","0","uniform","1","undefined","undefined","undefined","1","f","0","0","0","0","93","0","0","0","93","0","89","93","89","0","89","3","93","0","93","Thu Feb 18 13:28:52 2021","The main experiment item","yes","Lexical_Decision_Task.osexp","C:/Users/gemmb","no","Andale Mono","no","18","no","white","no","yes","576","legacy","89","89","3","C:/Users/gemmb/subject-5203611.csv","legacy","Lentiform Loewenfeld","3.3.7","yes","yes","600bd7cfb6416f0113b04181","602110864497cf011d9c0822","0","f","NA","space","space","space","space","f","806","NA","3113","10252","5866","6493","806","2","legacy","1024","2","48000","-16","task","5203611","odd","NA","28511","33627","30513","215436","3816","19939","14072","215939","134004","215434","215939","215324","33627","216746","26531","214824","3797","209490","Lexical Decision Task","89","72045","94","yes","1024"
"3.218535505","7.85","7","goat","word","94.73684210526316","94.73684210526316","763.2947368421053","763.2947368421053","black","no","legacy","legacy","legacy","0","uniform","1","undefined","undefined","undefined","1","j","0","0","0","0","94","0","0","0","94","0","90","94","90","0","90","3","94","0","94","Thu Feb 18 13:28:52 2021","The main experiment item","yes","Lexical_Decision_Task.osexp","C:/Users/gemmb","no","Andale Mono","no","18","no","white","no","yes","576","legacy","90","90","3","C:/Users/gemmb/subject-5203611.csv","legacy","Lentiform Loewenfeld","3.3.7","yes","yes","600bd7cfb6416f0113b04181","602110864497cf011d9c0822","0","j","NA","space","space","space","space","j","468","NA","3113","10252","5866","6493","468","2","legacy","1024","2","48000","-16","task","5203611","odd","NA","28511","33627","30513","217401","3816","19939","14072","217904","134004","217398","217905","217290","33627","218374","26531","216790","3797","209490","Lexical Decision Task","90","72513","95","yes","1024"
"3.031408464","0","7","drow","non-word","94.79166666666667","94.79166666666667","762.09375","762.09375","black","no","legacy","legacy","legacy","0","uniform","1","undefined","undefined","undefined","1","f","0","0","0","0","95","0","0","0","95","0","91","95","91","0","91","3","95","0","95","Thu Feb 18 13:28:52 2021","The main experiment item","yes","Lexical_Decision_Task.osexp","C:/Users/gemmb","no","Andale Mono","no","18","no","white","no","yes","576","legacy","91","91","3","C:/Users/gemmb/subject-5203611.csv","legacy","Lentiform Loewenfeld","3.3.7","yes","yes","600bd7cfb6416f0113b04181","602110864497cf011d9c0822","0","f","NA","space","space","space","space","f","648","NA","3113","10252","5866","6493","648","2","legacy","1024","2","48000","-16","task","5203611","odd","NA","28511","33627","30513","219026","3816","19939","14072","219528","134004","219025","219528","218919","33627","220177","26531","218419","3797","209490","Lexical Decision Task","91","73161","96","yes","1024"
"2.664328519","0","4","plux","non-word","94.84536082474227","94.84536082474227","761.5257731958762","761.5257731958762","black","no","legacy","legacy","legacy","0","uniform","1","undefined","undefined","undefined","1","f","0","0","0","0","96","0","0","0","96","0","92","96","92","0","92","3","96","0","96","Thu Feb 18 13:28:52 2021","The main experiment item","yes","Lexical_Decision_Task.osexp","C:/Users/gemmb","no","Andale Mono","no","18","no","white","no","yes","576","legacy","92","92","3","C:/Users/gemmb/subject-5203611.csv","legacy","Lentiform Loewenfeld","3.3.7","yes","yes","600bd7cfb6416f0113b04181","602110864497cf011d9c0822","0","f","NA","space","space","space","space","f","707","NA","3113","10252","5866","6493","707","2","legacy","1024","2","48000","-16","task","5203611","odd","NA","28511","33627","30513","220805","3816","19939","14072","221307","134004","220803","221307","220719","33627","222016","26531","220218","3797","209490","Lexical Decision Task","92","73868","97","yes","1024"
"3.299579929","0","2","flis","non-word","94.89795918367346","94.89795918367346","759.9285714285714","759.9285714285714","black","no","legacy","legacy","legacy","0","uniform","1","undefined","undefined","undefined","1","f","0","0","0","0","97","0","0","0","97","0","93","97","93","0","93","3","97","0","97","Thu Feb 18 13:28:52 2021","The main experiment item","yes","Lexical_Decision_Task.osexp","C:/Users/gemmb","no","Andale Mono","no","18","no","white","no","yes","576","legacy","93","93","3","C:/Users/gemmb/subject-5203611.csv","legacy","Lentiform Loewenfeld","3.3.7","yes","yes","600bd7cfb6416f0113b04181","602110864497cf011d9c0822","0","f","NA","space","space","space","space","f","605","NA","3113","10252","5866","6493","605","2","legacy","1024","2","48000","-16","task","5203611","odd","NA","28511","33627","30513","222678","3816","19939","14072","223180","134004","222677","223180","222557","33627","223787","26531","222057","3797","209490","Lexical Decision Task","93","74473","98","yes","1024"
"3.137775856","7.39","5","comb","word","94.94949494949495","94.94949494949495","758.6767676767677","758.6767676767677","black","no","legacy","legacy","legacy","0","uniform","1","undefined","undefined","undefined","1","j","0","0","0","0","98","0","0","0","98","0","94","98","94","0","94","3","98","0","98","Thu Feb 18 13:28:52 2021","The main experiment item","yes","Lexical_Decision_Task.osexp","C:/Users/gemmb","no","Andale Mono","no","18","no","white","no","yes","576","legacy","94","94","3","C:/Users/gemmb/subject-5203611.csv","legacy","Lentiform Loewenfeld","3.3.7","yes","yes","600bd7cfb6416f0113b04181","602110864497cf011d9c0822","0","j","NA","space","space","space","space","j","636","NA","3113","10252","5866","6493","636","2","legacy","1024","2","48000","-16","task","5203611","odd","NA","28511","33627","30513","224419","3816","19939","14072","224921","134004","224416","224922","224330","33627","225559","26531","223829","3797","209490","Lexical Decision Task","94","75109","99","yes","1024"
"3.257359335","8","6","brew","word","95","95","757.21","757.21","black","no","legacy","legacy","legacy","0","uniform","1","undefined","undefined","undefined","1","j","0","0","0","0","99","0","0","0","99","0","95","99","95","0","95","3","99","0","99","Thu Feb 18 13:28:52 2021","The main experiment item","yes","Lexical_Decision_Task.osexp","C:/Users/gemmb","no","Andale Mono","no","18","no","white","no","yes","576","legacy","95","95","3","C:/Users/gemmb/subject-5203611.csv","legacy","Lentiform Loewenfeld","3.3.7","yes","yes","600bd7cfb6416f0113b04181","602110864497cf011d9c0822","0","j","NA","space","space","space","space","j","612","NA","3113","10252","5866","6493","612","2","legacy","1024","2","48000","-16","task","5203611","odd","NA","28511","33627","30513","226205","3816","19939","14072","226708","134004","226203","226709","226102","33627","227322","26531","225602","3797","209490","Lexical Decision Task","95","75721","100","yes","1024"
"3.208172527","10.27","7","deck","word","95.04950495049505","95.04950495049505","755.009900990099","755.009900990099","black","no","legacy","legacy","legacy","0","uniform","1","undefined","undefined","undefined","1","j","0","0","0","0","100","0","0","0","100","0","96","100","96","0","96","3","100","0","100","Thu Feb 18 13:28:52 2021","The main experiment item","yes","Lexical_Decision_Task.osexp","C:/Users/gemmb","no","Andale Mono","no","18","no","white","no","yes","576","legacy","96","96","3","C:/Users/gemmb/subject-5203611.csv","legacy","Lentiform Loewenfeld","3.3.7","yes","yes","600bd7cfb6416f0113b04181","602110864497cf011d9c0822","0","j","NA","space","space","space","space","j","535","NA","3113","10252","5866","6493","535","2","legacy","1024","2","48000","-16","task","5203611","odd","NA","28511","33627","30513","228014","3816","19939","14072","228516","134004","228011","228516","227864","33627","229052","26531","227364","3797","209490","Lexical Decision Task","96","76256","101","yes","1024"
"3.133964479","0","8","graw","non-word","95.09803921568627","95.09803921568627","759.6960784313726","759.6960784313726","black","no","legacy","legacy","legacy","0","uniform","1","undefined","undefined","undefined","1","f","0","0","0","0","101","0","0","0","101","0","97","101","97","0","97","3","101","0","101","Thu Feb 18 13:28:52 2021","The main experiment item","yes","Lexical_Decision_Task.osexp","C:/Users/gemmb","no","Andale Mono","no","18","no","white","no","yes","576","legacy","97","97","3","C:/Users/gemmb/subject-5203611.csv","legacy","Lentiform Loewenfeld","3.3.7","yes","yes","600bd7cfb6416f0113b04181","602110864497cf011d9c0822","0","f","NA","space","space","space","space","f","1233","NA","3113","10252","5866","6493","1233","2","legacy","1024","2","48000","-16","task","5203611","odd","NA","28511","33627","30513","229677","3816","19939","14072","230179","134004","229674","230179","229571","33627","231413","26531","229071","3797","209490","Lexical Decision Task","97","77489","102","yes","1024"
"2.868644438","10.52","4","town","word","95.14563106796116","95.14563106796116","758.8932038834952","758.8932038834952","black","no","legacy","legacy","legacy","0","uniform","1","undefined","undefined","undefined","1","j","0","0","0","0","102","0","0","0","102","0","98","102","98","0","98","3","102","0","102","Thu Feb 18 13:28:52 2021","The main experiment item","yes","Lexical_Decision_Task.osexp","C:/Users/gemmb","no","Andale Mono","no","18","no","white","no","yes","576","legacy","98","98","3","C:/Users/gemmb/subject-5203611.csv","legacy","Lentiform Loewenfeld","3.3.7","yes","yes","600bd7cfb6416f0113b04181","602110864497cf011d9c0822","0","j","NA","space","space","space","space","j","677","NA","3113","10252","5866","6493","677","2","legacy","1024","2","48000","-16","task","5203611","odd","NA","28511","33627","30513","232071","3816","19939","14072","232573","134004","232068","232573","231956","33627","233251","26531","231456","3797","209490","Lexical Decision Task","98","78166","103","yes","1024"
