"Log_BG","Log_Freq_HAL","Ortho_N","Stimulus","Type","acc","accuracy","average_response_time","avg_rt","background","bidi","canvas_backend","clock_backend","color_backend","compensation","coordinates","correct","correct_Experimental_intro","correct_Introduction","correct_Practice_intro","correct_experimenter_kb","correct_response","count_End_Of_Experiment","count_End_Of_Practice","count_Experimental_Loop","count_Experimental_intro","count_Fixation","count_Introduction","count_Practice_Loop","count_Practice_intro","count_Stimulus","count_block_break_feedback","count_experimental_sequence","count_experimenter_kb","count_increment_trial_count","count_init_trial_count","count_logger","count_practice_sequence","count_right","count_task","count_wrong","datetime","description","disable_garbage_collection","experiment_file","experiment_path","font_bold","font_family","font_italic","font_size","font_underline","foreground","form_clicks","fullscreen","height","keyboard_backend","live_row","live_row_Experimental_Loop","live_row_Practice_Loop","logfile","mouse_backend","opensesame_codename","opensesame_version","osf_always_upload_data","osf_always_upload_experiment","osf_datanode_id","osf_id","repeat_cycle","response","response_End_Of_Experiment","response_Experimental_intro","response_Introduction","response_Practice_intro","response_block_break_feedback","response_experimenter_kb","response_time","response_time_End_Of_Experiment","response_time_Experimental_intro","response_time_Introduction","response_time_Practice_intro","response_time_block_break_feedback","response_time_experimenter_kb","round_decimals","sampler_backend","sound_buf_size","sound_channels","sound_freq","sound_sample_size","start","subject_nr","subject_parity","time_End_Of_Experiment","time_End_Of_Practice","time_Experimental_Loop","time_Experimental_intro","time_Fixation","time_Introduction","time_Practice_Loop","time_Practice_intro","time_Stimulus","time_block_break_feedback","time_experimental_sequence","time_experimenter_kb","time_increment_trial_count","time_init_trial_count","time_logger","time_practice_sequence","time_right","time_task","time_wrong","title","total_correct","total_response_time","total_responses","uniform_coordinates","width"
"2.782472624","10.55","2","huge","word","100","100","635.2","635.2","black","no","legacy","legacy","legacy","0","uniform","1","undefined","undefined","undefined","1","j","0","0","0","0","4","0","0","0","4","NA","0","4","0","0","0","3","4","0","4","Thu Feb 18 11:53:26 2021","The main experiment item","yes","Lexical_Decision_Task.osexp","/Users/clionawalker","no","Andale Mono","no","18","no","white","no","yes","576","legacy","0","0","3","/Users/clionawalker/subject-5206889.csv","legacy","Lentiform Loewenfeld","3.3.7","yes","yes","600bd7cfb6416f0113b04181","602110864497cf011d9c0822","0","j","NA","j","j","j","NA","j","640","NA","2681","10203","5104","NA","640","2","legacy","1024","2","48000","-16","task","5206889","odd","NA","28989","33678","30996","33703","6716","22064","16956","34208","NA","33701","34208","NA","33678","34848","27368","28457","6699","NA","Lexical Decision Task","5","3176","5","yes","1024"
"3.031408464","0","7","drow","non-word","100","100","669","669","black","no","legacy","legacy","legacy","0","uniform","1","undefined","undefined","undefined","1","f","0","0","0","0","5","0","0","0","5","NA","1","5","1","0","1","3","5","0","5","Thu Feb 18 11:53:26 2021","The main experiment item","yes","Lexical_Decision_Task.osexp","/Users/clionawalker","no","Andale Mono","no","18","no","white","no","yes","576","legacy","1","1","3","/Users/clionawalker/subject-5206889.csv","legacy","Lentiform Loewenfeld","3.3.7","yes","yes","600bd7cfb6416f0113b04181","602110864497cf011d9c0822","0","f","NA","j","j","j","NA","f","838","NA","2681","10203","5104","NA","838","2","legacy","1024","2","48000","-16","task","5206889","odd","NA","28989","33678","30996","35426","6716","22064","16956","35929","NA","35423","35930","35354","33678","36768","27368","34854","6699","NA","Lexical Decision Task","6","4014","6","yes","1024"
"3.22685757","9.99","7","roll","word","100","100","672.4285714285714","672.4285714285714","black","no","legacy","legacy","legacy","0","uniform","1","undefined","undefined","undefined","1","j","0","0","0","0","6","0","0","0","6","NA","2","6","2","0","2","3","6","0","6","Thu Feb 18 11:53:26 2021","The main experiment item","yes","Lexical_Decision_Task.osexp","/Users/clionawalker","no","Andale Mono","no","18","no","white","no","yes","576","legacy","2","2","3","/Users/clionawalker/subject-5206889.csv","legacy","Lentiform Loewenfeld","3.3.7","yes","yes","600bd7cfb6416f0113b04181","602110864497cf011d9c0822","0","j","NA","j","j","j","NA","j","693","NA","2681","10203","5104","NA","693","2","legacy","1024","2","48000","-16","task","5206889","odd","NA","28989","33678","30996","37338","6716","22064","16956","37842","NA","37335","37842","37272","33678","38536","27368","36772","6699","NA","Lexical Decision Task","7","4707","7","yes","1024"
"3.252447662","9.67","9","boat","word","100","100","654.875","654.875","black","no","legacy","legacy","legacy","0","uniform","1","undefined","undefined","undefined","1","j","0","0","0","0","7","0","0","0","7","NA","3","7","3","0","3","3","7","0","7","Thu Feb 18 11:53:26 2021","The main experiment item","yes","Lexical_Decision_Task.osexp","/Users/clionawalker","no","Andale Mono","no","18","no","white","no","yes","576","legacy","3","3","3","/Users/clionawalker/subject-5206889.csv","legacy","Lentiform Loewenfeld","3.3.7","yes","yes","600bd7cfb6416f0113b04181","602110864497cf011d9c0822","0","j","NA","j","j","j","NA","j","532","NA","2681","10203","5104","NA","532","2","legacy","1024","2","48000","-16","task","5206889","odd","NA","28989","33678","30996","39105","6716","22064","16956","39608","NA","39102","39609","39039","33678","40141","27368","38539","6699","NA","Lexical Decision Task","8","5239","8","yes","1024"
"3.397302518","7.01","2","knit","word","100","100","638.3333333333334","638.3333333333334","black","no","legacy","legacy","legacy","0","uniform","1","undefined","undefined","undefined","1","j","0","0","0","0","8","0","0","0","8","NA","4","8","4","0","4","3","8","0","8","Thu Feb 18 11:53:26 2021","The main experiment item","yes","Lexical_Decision_Task.osexp","/Users/clionawalker","no","Andale Mono","no","18","no","white","no","yes","576","legacy","4","4","3","/Users/clionawalker/subject-5206889.csv","legacy","Lentiform Loewenfeld","3.3.7","yes","yes","600bd7cfb6416f0113b04181","602110864497cf011d9c0822","0","j","NA","j","j","j","NA","j","506","NA","2681","10203","5104","NA","506","2","legacy","1024","2","48000","-16","task","5206889","odd","NA","28989","33678","30996","40710","6716","22064","16956","41214","NA","40707","41214","40644","33678","41721","27368","40144","6699","NA","Lexical Decision Task","9","5745","9","yes","1024"
"3.16326079","0","5","parg","non-word","100","100","644.1","644.1","black","no","legacy","legacy","legacy","0","uniform","1","undefined","undefined","undefined","1","f","0","0","0","0","9","0","0","0","9","NA","5","9","5","0","5","3","9","0","9","Thu Feb 18 11:53:26 2021","The main experiment item","yes","Lexical_Decision_Task.osexp","/Users/clionawalker","no","Andale Mono","no","18","no","white","no","yes","576","legacy","5","5","3","/Users/clionawalker/subject-5206889.csv","legacy","Lentiform Loewenfeld","3.3.7","yes","yes","600bd7cfb6416f0113b04181","602110864497cf011d9c0822","0","f","NA","j","j","j","NA","f","696","NA","2681","10203","5104","NA","696","2","legacy","1024","2","48000","-16","task","5206889","odd","NA","28989","33678","30996","42290","6716","22064","16956","42797","NA","42288","42797","42224","33678","43494","27368","41724","6699","NA","Lexical Decision Task","10","6441","10","yes","1024"
"3.043885998","0","9","gome","non-word","100","100","634.9090909090909","634.9090909090909","black","no","legacy","legacy","legacy","0","uniform","1","undefined","undefined","undefined","1","f","0","0","0","0","10","0","0","0","10","NA","6","10","6","0","6","3","10","0","10","Thu Feb 18 11:53:26 2021","The main experiment item","yes","Lexical_Decision_Task.osexp","/Users/clionawalker","no","Andale Mono","no","18","no","white","no","yes","576","legacy","6","6","3","/Users/clionawalker/subject-5206889.csv","legacy","Lentiform Loewenfeld","3.3.7","yes","yes","600bd7cfb6416f0113b04181","602110864497cf011d9c0822","0","f","NA","j","j","j","NA","f","543","NA","2681","10203","5104","NA","543","2","legacy","1024","2","48000","-16","task","5206889","odd","NA","28989","33678","30996","44062","6716","22064","16956","44567","NA","44060","44567","43997","33678","45111","27368","43497","6699","NA","Lexical Decision Task","11","6984","11","yes","1024"
"3.382617311","0","4","pret","non-word","100","100","621","621","black","no","legacy","legacy","legacy","0","uniform","1","undefined","undefined","undefined","1","f","0","0","0","0","11","0","0","0","11","NA","7","11","7","0","7","3","11","0","11","Thu Feb 18 11:53:26 2021","The main experiment item","yes","Lexical_Decision_Task.osexp","/Users/clionawalker","no","Andale Mono","no","18","no","white","no","yes","576","legacy","7","7","3","/Users/clionawalker/subject-5206889.csv","legacy","Lentiform Loewenfeld","3.3.7","yes","yes","600bd7cfb6416f0113b04181","602110864497cf011d9c0822","0","f","NA","j","j","j","NA","f","468","NA","2681","10203","5104","NA","468","2","legacy","1024","2","48000","-16","task","5206889","odd","NA","28989","33678","30996","45680","6716","22064","16956","46183","NA","45677","46183","45614","33678","46652","27368","45114","6699","NA","Lexical Decision Task","12","7452","12","yes","1024"
"3.062080345","0","6","tomp","non-word","100","100","625.3846153846154","625.3846153846154","black","no","legacy","legacy","legacy","0","uniform","1","undefined","undefined","undefined","1","f","0","0","0","0","12","0","0","0","12","NA","8","12","8","0","8","3","12","0","12","Thu Feb 18 11:53:26 2021","The main experiment item","yes","Lexical_Decision_Task.osexp","/Users/clionawalker","no","Andale Mono","no","18","no","white","no","yes","576","legacy","8","8","3","/Users/clionawalker/subject-5206889.csv","legacy","Lentiform Loewenfeld","3.3.7","yes","yes","600bd7cfb6416f0113b04181","602110864497cf011d9c0822","0","f","NA","j","j","j","NA","f","678","NA","2681","10203","5104","NA","678","2","legacy","1024","2","48000","-16","task","5206889","odd","NA","28989","33678","30996","47221","6716","22064","16956","47725","NA","47218","47726","47155","33678","48404","27368","46655","6699","NA","Lexical Decision Task","13","8130","13","yes","1024"
"3.263399331","0","8","cour","non-word","100","100","636.9285714285714","636.9285714285714","black","no","legacy","legacy","legacy","0","uniform","1","undefined","undefined","undefined","1","f","0","0","0","0","13","0","0","0","13","NA","9","13","9","0","9","3","13","0","13","Thu Feb 18 11:53:26 2021","The main experiment item","yes","Lexical_Decision_Task.osexp","/Users/clionawalker","no","Andale Mono","no","18","no","white","no","yes","576","legacy","9","9","3","/Users/clionawalker/subject-5206889.csv","legacy","Lentiform Loewenfeld","3.3.7","yes","yes","600bd7cfb6416f0113b04181","602110864497cf011d9c0822","0","f","NA","j","j","j","NA","f","787","NA","2681","10203","5104","NA","787","2","legacy","1024","2","48000","-16","task","5206889","odd","NA","28989","33678","30996","48973","6716","22064","16956","49477","NA","48970","49478","48907","33678","50265","27368","48407","6699","NA","Lexical Decision Task","14","8917","14","yes","1024"
"3.269668578","0","7","trag","non-word","100","100","657.4666666666667","657.4666666666667","black","no","legacy","legacy","legacy","0","uniform","1","undefined","undefined","undefined","1","f","0","0","0","0","14","0","0","0","14","NA","10","14","10","0","10","3","14","0","14","Thu Feb 18 11:53:26 2021","The main experiment item","yes","Lexical_Decision_Task.osexp","/Users/clionawalker","no","Andale Mono","no","18","no","white","no","yes","576","legacy","10","10","3","/Users/clionawalker/subject-5206889.csv","legacy","Lentiform Loewenfeld","3.3.7","yes","yes","600bd7cfb6416f0113b04181","602110864497cf011d9c0822","0","f","NA","j","j","j","NA","f","945","NA","2681","10203","5104","NA","945","2","legacy","1024","2","48000","-16","task","5206889","odd","NA","28989","33678","30996","50836","6716","22064","16956","51341","NA","50833","51341","50770","33678","52286","27368","50270","6699","NA","Lexical Decision Task","15","9862","15","yes","1024"
"2.838639236","0","4","furg","non-word","100","100","648.125","648.125","black","no","legacy","legacy","legacy","0","uniform","1","undefined","undefined","undefined","1","f","0","0","0","0","15","0","0","0","15","NA","11","15","11","0","11","3","15","0","15","Thu Feb 18 11:53:26 2021","The main experiment item","yes","Lexical_Decision_Task.osexp","/Users/clionawalker","no","Andale Mono","no","18","no","white","no","yes","576","legacy","11","11","3","/Users/clionawalker/subject-5206889.csv","legacy","Lentiform Loewenfeld","3.3.7","yes","yes","600bd7cfb6416f0113b04181","602110864497cf011d9c0822","0","f","NA","j","j","j","NA","f","508","NA","2681","10203","5104","NA","508","2","legacy","1024","2","48000","-16","task","5206889","odd","NA","28989","33678","30996","52856","6716","22064","16956","53364","NA","52853","53364","52790","33678","53872","27368","52290","6699","NA","Lexical Decision Task","16","10370","16","yes","1024"
"3.259832699","0","9","flar","non-word","100","100","639.2352941176471","639.2352941176471","black","no","legacy","legacy","legacy","0","uniform","1","undefined","undefined","undefined","1","f","0","0","0","0","16","0","0","0","16","NA","12","16","12","0","12","3","16","0","16","Thu Feb 18 11:53:26 2021","The main experiment item","yes","Lexical_Decision_Task.osexp","/Users/clionawalker","no","Andale Mono","no","18","no","white","no","yes","576","legacy","12","12","3","/Users/clionawalker/subject-5206889.csv","legacy","Lentiform Loewenfeld","3.3.7","yes","yes","600bd7cfb6416f0113b04181","602110864497cf011d9c0822","0","f","NA","j","j","j","NA","f","497","NA","2681","10203","5104","NA","497","2","legacy","1024","2","48000","-16","task","5206889","odd","NA","28989","33678","30996","54441","6716","22064","16956","54945","NA","54438","54945","54375","33678","55442","27368","53875","6699","NA","Lexical Decision Task","17","10867","17","yes","1024"
"3.194328374","9.42","6","harm","word","100","100","628.5555555555555","628.5555555555555","black","no","legacy","legacy","legacy","0","uniform","1","undefined","undefined","undefined","1","j","0","0","0","0","17","0","0","0","17","NA","13","17","13","0","13","3","17","0","17","Thu Feb 18 11:53:26 2021","The main experiment item","yes","Lexical_Decision_Task.osexp","/Users/clionawalker","no","Andale Mono","no","18","no","white","no","yes","576","legacy","13","13","3","/Users/clionawalker/subject-5206889.csv","legacy","Lentiform Loewenfeld","3.3.7","yes","yes","600bd7cfb6416f0113b04181","602110864497cf011d9c0822","0","j","NA","j","j","j","NA","j","447","NA","2681","10203","5104","NA","447","2","legacy","1024","2","48000","-16","task","5206889","odd","NA","28989","33678","30996","56012","6716","22064","16956","56517","NA","56008","56517","55946","33678","56964","27368","55445","6699","NA","Lexical Decision Task","18","11314","18","yes","1024"
"3.037294994","8.64","7","roof","word","100","100","620.3157894736842","620.3157894736842","black","no","legacy","legacy","legacy","0","uniform","1","undefined","undefined","undefined","1","j","0","0","0","0","18","0","0","0","18","NA","14","18","14","0","14","3","18","0","18","Thu Feb 18 11:53:26 2021","The main experiment item","yes","Lexical_Decision_Task.osexp","/Users/clionawalker","no","Andale Mono","no","18","no","white","no","yes","576","legacy","14","14","3","/Users/clionawalker/subject-5206889.csv","legacy","Lentiform Loewenfeld","3.3.7","yes","yes","600bd7cfb6416f0113b04181","602110864497cf011d9c0822","0","j","NA","j","j","j","NA","j","472","NA","2681","10203","5104","NA","472","2","legacy","1024","2","48000","-16","task","5206889","odd","NA","28989","33678","30996","57533","6716","22064","16956","58039","NA","57530","58039","57468","33678","58511","27368","56968","6699","NA","Lexical Decision Task","19","11786","19","yes","1024"
"3.276537627","9.15","5","trap","word","100","100","613","613","black","no","legacy","legacy","legacy","0","uniform","1","undefined","undefined","undefined","1","j","0","0","0","0","19","0","0","0","19","NA","15","19","15","0","15","3","19","0","19","Thu Feb 18 11:53:26 2021","The main experiment item","yes","Lexical_Decision_Task.osexp","/Users/clionawalker","no","Andale Mono","no","18","no","white","no","yes","576","legacy","15","15","3","/Users/clionawalker/subject-5206889.csv","legacy","Lentiform Loewenfeld","3.3.7","yes","yes","600bd7cfb6416f0113b04181","602110864497cf011d9c0822","0","j","NA","j","j","j","NA","j","474","NA","2681","10203","5104","NA","474","2","legacy","1024","2","48000","-16","task","5206889","odd","NA","28989","33678","30996","59080","6716","22064","16956","59584","NA","59077","59585","59014","33678","60060","27368","58514","6699","NA","Lexical Decision Task","20","12260","20","yes","1024"
"3.443783828","7.65","3","verb","word","100","100","605","605","black","no","legacy","legacy","legacy","0","uniform","1","undefined","undefined","undefined","1","j","0","0","0","0","20","0","0","0","20","NA","16","20","16","0","16","3","20","0","20","Thu Feb 18 11:53:26 2021","The main experiment item","yes","Lexical_Decision_Task.osexp","/Users/clionawalker","no","Andale Mono","no","18","no","white","no","yes","576","legacy","16","16","3","/Users/clionawalker/subject-5206889.csv","legacy","Lentiform Loewenfeld","3.3.7","yes","yes","600bd7cfb6416f0113b04181","602110864497cf011d9c0822","0","j","NA","j","j","j","NA","j","445","NA","2681","10203","5104","NA","445","2","legacy","1024","2","48000","-16","task","5206889","odd","NA","28989","33678","30996","60629","6716","22064","16956","61133","NA","60627","61134","60563","33678","61580","27368","60063","6699","NA","Lexical Decision Task","21","12705","21","yes","1024"
"2.664328519","0","4","plux","non-word","100","100","602.5454545454545","602.5454545454545","black","no","legacy","legacy","legacy","0","uniform","1","undefined","undefined","undefined","1","f","0","0","0","0","21","0","0","0","21","NA","17","21","17","0","17","3","21","0","21","Thu Feb 18 11:53:26 2021","The main experiment item","yes","Lexical_Decision_Task.osexp","/Users/clionawalker","no","Andale Mono","no","18","no","white","no","yes","576","legacy","17","17","3","/Users/clionawalker/subject-5206889.csv","legacy","Lentiform Loewenfeld","3.3.7","yes","yes","600bd7cfb6416f0113b04181","602110864497cf011d9c0822","0","f","NA","j","j","j","NA","f","551","NA","2681","10203","5104","NA","551","2","legacy","1024","2","48000","-16","task","5206889","odd","NA","28989","33678","30996","62152","6716","22064","16956","62656","NA","62149","62657","62083","33678","63209","27368","61583","6699","NA","Lexical Decision Task","22","13256","22","yes","1024"
"2.68604012","0","3","mulb","non-word","100","100","601.695652173913","601.695652173913","black","no","legacy","legacy","legacy","0","uniform","1","undefined","undefined","undefined","1","f","0","0","0","0","22","0","0","0","22","NA","18","22","18","0","18","3","22","0","22","Thu Feb 18 11:53:26 2021","The main experiment item","yes","Lexical_Decision_Task.osexp","/Users/clionawalker","no","Andale Mono","no","18","no","white","no","yes","576","legacy","18","18","3","/Users/clionawalker/subject-5206889.csv","legacy","Lentiform Loewenfeld","3.3.7","yes","yes","600bd7cfb6416f0113b04181","602110864497cf011d9c0822","0","f","NA","j","j","j","NA","f","583","NA","2681","10203","5104","NA","583","2","legacy","1024","2","48000","-16","task","5206889","odd","NA","28989","33678","30996","63775","6716","22064","16956","64280","NA","63772","64281","63712","33678","64865","27368","63212","6699","NA","Lexical Decision Task","23","13839","23","yes","1024"
"2.695770526","7.34","6","pawn","word","95.83333333333333","95.83333333333333","605.2916666666666","605.2916666666666","black","no","legacy","legacy","legacy","0","uniform","0","undefined","undefined","undefined","0","j","0","0","0","0","23","0","0","0","23","NA","19","23","19","0","19","3","23","0","23","Thu Feb 18 11:53:26 2021","The main experiment item","yes","Lexical_Decision_Task.osexp","/Users/clionawalker","no","Andale Mono","no","18","no","white","no","yes","576","legacy","19","19","3","/Users/clionawalker/subject-5206889.csv","legacy","Lentiform Loewenfeld","3.3.7","yes","yes","600bd7cfb6416f0113b04181","602110864497cf011d9c0822","0","f","NA","j","j","j","NA","f","688","NA","2681","10203","5104","NA","688","2","legacy","1024","2","48000","-16","task","5206889","odd","NA","28989","33678","30996","65435","6716","22064","16956","65939","NA","65432","65939","65369","33678","66627","27368","64868","6699","NA","Lexical Decision Task","23","14527","24","yes","1024"
"3.094121596","0","8","fode","non-word","96","96","608.92","608.92","black","no","legacy","legacy","legacy","0","uniform","1","undefined","undefined","undefined","1","f","0","0","0","0","24","0","0","0","24","NA","20","24","20","0","20","3","24","0","24","Thu Feb 18 11:53:26 2021","The main experiment item","yes","Lexical_Decision_Task.osexp","/Users/clionawalker","no","Andale Mono","no","18","no","white","no","yes","576","legacy","20","20","3","/Users/clionawalker/subject-5206889.csv","legacy","Lentiform Loewenfeld","3.3.7","yes","yes","600bd7cfb6416f0113b04181","602110864497cf011d9c0822","0","f","NA","j","j","j","NA","f","696","NA","2681","10203","5104","NA","696","2","legacy","1024","2","48000","-16","task","5206889","odd","NA","28989","33678","30996","68200","6716","22064","16956","68704","NA","68197","68704","68131","33678","69401","27368","64868","6699","66631","Lexical Decision Task","24","15223","25","yes","1024"
"2.793790385","5.67","9","swab","word","92.3076923076923","92.3076923076923","605.6538461538462","605.6538461538462","black","no","legacy","legacy","legacy","0","uniform","0","undefined","undefined","undefined","0","j","0","0","0","0","25","0","0","0","25","NA","21","25","21","0","21","3","25","0","25","Thu Feb 18 11:53:26 2021","The main experiment item","yes","Lexical_Decision_Task.osexp","/Users/clionawalker","no","Andale Mono","no","18","no","white","no","yes","576","legacy","21","21","3","/Users/clionawalker/subject-5206889.csv","legacy","Lentiform Loewenfeld","3.3.7","yes","yes","600bd7cfb6416f0113b04181","602110864497cf011d9c0822","0","f","NA","j","j","j","NA","f","524","NA","2681","10203","5104","NA","524","2","legacy","1024","2","48000","-16","task","5206889","odd","NA","28989","33678","30996","69969","6716","22064","16956","70474","NA","69967","70474","69904","33678","70999","27368","69404","6699","66631","Lexical Decision Task","24","15747","26","yes","1024"
"2.9737419","7.69","7","claw","word","92.5925925925926","92.5925925925926","607.8148148148148","607.8148148148148","black","no","legacy","legacy","legacy","0","uniform","1","undefined","undefined","undefined","1","j","0","0","0","0","26","0","0","0","26","NA","22","26","22","0","22","3","26","0","26","Thu Feb 18 11:53:26 2021","The main experiment item","yes","Lexical_Decision_Task.osexp","/Users/clionawalker","no","Andale Mono","no","18","no","white","no","yes","576","legacy","22","22","3","/Users/clionawalker/subject-5206889.csv","legacy","Lentiform Loewenfeld","3.3.7","yes","yes","600bd7cfb6416f0113b04181","602110864497cf011d9c0822","0","j","NA","j","j","j","NA","j","664","NA","2681","10203","5104","NA","664","2","legacy","1024","2","48000","-16","task","5206889","odd","NA","28989","33678","30996","72573","6716","22064","16956","73078","NA","72570","73079","72503","33678","73744","27368","69404","6699","71003","Lexical Decision Task","25","16411","27","yes","1024"
"2.809559715","8.44","4","volt","word","92.85714285714286","92.85714285714286","615.5357142857143","615.5357142857143","black","no","legacy","legacy","legacy","0","uniform","1","undefined","undefined","undefined","1","j","0","0","0","0","27","0","0","0","27","NA","23","27","23","0","23","3","27","0","27","Thu Feb 18 11:53:26 2021","The main experiment item","yes","Lexical_Decision_Task.osexp","/Users/clionawalker","no","Andale Mono","no","18","no","white","no","yes","576","legacy","23","23","3","/Users/clionawalker/subject-5206889.csv","legacy","Lentiform Loewenfeld","3.3.7","yes","yes","600bd7cfb6416f0113b04181","602110864497cf011d9c0822","0","j","NA","j","j","j","NA","j","824","NA","2681","10203","5104","NA","824","2","legacy","1024","2","48000","-16","task","5206889","odd","NA","28989","33678","30996","74312","6716","22064","16956","74817","NA","74309","74818","74247","33678","75642","27368","73747","6699","71003","Lexical Decision Task","26","17235","28","yes","1024"
"3.353210739","0","9","reet","non-word","93.10344827586206","93.10344827586206","618.2758620689655","618.2758620689655","black","no","legacy","legacy","legacy","0","uniform","1","undefined","undefined","undefined","1","f","0","0","0","0","28","0","0","0","28","NA","24","28","24","0","24","3","28","0","28","Thu Feb 18 11:53:26 2021","The main experiment item","yes","Lexical_Decision_Task.osexp","/Users/clionawalker","no","Andale Mono","no","18","no","white","no","yes","576","legacy","24","24","3","/Users/clionawalker/subject-5206889.csv","legacy","Lentiform Loewenfeld","3.3.7","yes","yes","600bd7cfb6416f0113b04181","602110864497cf011d9c0822","0","f","NA","j","j","j","NA","f","695","NA","2681","10203","5104","NA","695","2","legacy","1024","2","48000","-16","task","5206889","odd","NA","28989","33678","30996","76212","6716","22064","16956","76717","NA","76209","76717","76146","33678","77413","27368","75646","6699","71003","Lexical Decision Task","27","17930","29","yes","1024"
"2.799799878","0","4","ciff","non-word","93.33333333333333","93.33333333333333","624.3","624.3","black","no","legacy","legacy","legacy","0","uniform","1","undefined","undefined","undefined","1","f","0","0","0","0","29","0","0","0","29","NA","25","29","25","0","25","3","29","0","29","Thu Feb 18 11:53:26 2021","The main experiment item","yes","Lexical_Decision_Task.osexp","/Users/clionawalker","no","Andale Mono","no","18","no","white","no","yes","576","legacy","25","25","3","/Users/clionawalker/subject-5206889.csv","legacy","Lentiform Loewenfeld","3.3.7","yes","yes","600bd7cfb6416f0113b04181","602110864497cf011d9c0822","0","f","NA","j","j","j","NA","f","799","NA","2681","10203","5104","NA","799","2","legacy","1024","2","48000","-16","task","5206889","odd","NA","28989","33678","30996","77983","6716","22064","16956","78487","NA","77980","78487","77917","33678","79286","27368","77416","6699","71003","Lexical Decision Task","28","18729","30","yes","1024"
"2.705007959","6.01","4","wept","word","93.54838709677419","93.54838709677419","630.258064516129","630.258064516129","black","no","legacy","legacy","legacy","0","uniform","1","undefined","undefined","undefined","1","j","0","0","0","0","30","0","0","0","30","NA","26","30","26","0","26","3","30","0","30","Thu Feb 18 11:53:26 2021","The main experiment item","yes","Lexical_Decision_Task.osexp","/Users/clionawalker","no","Andale Mono","no","18","no","white","no","yes","576","legacy","26","26","3","/Users/clionawalker/subject-5206889.csv","legacy","Lentiform Loewenfeld","3.3.7","yes","yes","600bd7cfb6416f0113b04181","602110864497cf011d9c0822","0","j","NA","j","j","j","NA","j","809","NA","2681","10203","5104","NA","809","2","legacy","1024","2","48000","-16","task","5206889","odd","NA","28989","33678","30996","79856","6716","22064","16956","80361","NA","79853","80361","79790","33678","81170","27368","79290","6699","71003","Lexical Decision Task","29","19538","31","yes","1024"
"3.374198258","0","8","vist","non-word","93.75","93.75","635.96875","635.96875","black","no","legacy","legacy","legacy","0","uniform","1","undefined","undefined","undefined","1","f","0","0","0","0","31","0","0","0","31","NA","27","31","27","0","27","3","31","0","31","Thu Feb 18 11:53:26 2021","The main experiment item","yes","Lexical_Decision_Task.osexp","/Users/clionawalker","no","Andale Mono","no","18","no","white","no","yes","576","legacy","27","27","3","/Users/clionawalker/subject-5206889.csv","legacy","Lentiform Loewenfeld","3.3.7","yes","yes","600bd7cfb6416f0113b04181","602110864497cf011d9c0822","0","f","NA","j","j","j","NA","f","813","NA","2681","10203","5104","NA","813","2","legacy","1024","2","48000","-16","task","5206889","odd","NA","28989","33678","30996","81741","6716","22064","16956","82245","NA","81737","82245","81674","33678","83059","27368","81174","6699","71003","Lexical Decision Task","30","20351","32","yes","1024"
"3.29439347","8.6","9","wand","word","93.93939393939394","93.93939393939394","634.6666666666666","634.6666666666666","black","no","legacy","legacy","legacy","0","uniform","1","undefined","undefined","undefined","1","j","0","0","0","0","32","0","0","0","32","NA","28","32","28","0","28","3","32","0","32","Thu Feb 18 11:53:26 2021","The main experiment item","yes","Lexical_Decision_Task.osexp","/Users/clionawalker","no","Andale Mono","no","18","no","white","no","yes","576","legacy","28","28","3","/Users/clionawalker/subject-5206889.csv","legacy","Lentiform Loewenfeld","3.3.7","yes","yes","600bd7cfb6416f0113b04181","602110864497cf011d9c0822","0","j","NA","j","j","j","NA","j","593","NA","2681","10203","5104","NA","593","2","legacy","1024","2","48000","-16","task","5206889","odd","NA","28989","33678","30996","83629","6716","22064","16956","84134","NA","83626","84134","83562","33678","84728","27368","83062","6699","71003","Lexical Decision Task","31","20944","33","yes","1024"
"3.067070856","9.39","3","loud","word","94.11764705882354","94.11764705882354","628.5882352941177","628.5882352941177","black","no","legacy","legacy","legacy","0","uniform","1","undefined","undefined","undefined","1","j","0","0","0","0","33","0","0","0","33","NA","29","33","29","0","29","3","33","0","33","Thu Feb 18 11:53:26 2021","The main experiment item","yes","Lexical_Decision_Task.osexp","/Users/clionawalker","no","Andale Mono","no","18","no","white","no","yes","576","legacy","29","29","3","/Users/clionawalker/subject-5206889.csv","legacy","Lentiform Loewenfeld","3.3.7","yes","yes","600bd7cfb6416f0113b04181","602110864497cf011d9c0822","0","j","NA","j","j","j","NA","j","428","NA","2681","10203","5104","NA","428","2","legacy","1024","2","48000","-16","task","5206889","odd","NA","28989","33678","30996","85300","6716","22064","16956","85805","NA","85298","85806","85231","33678","86235","27368","84731","6699","71003","Lexical Decision Task","32","21372","34","yes","1024"
"3.159867847","5.98","5","brim","word","94.28571428571429","94.28571428571429","634","634","black","no","legacy","legacy","legacy","0","uniform","1","undefined","undefined","undefined","1","j","0","0","0","0","34","0","0","0","34","NA","30","34","30","0","30","3","34","0","34","Thu Feb 18 11:53:26 2021","The main experiment item","yes","Lexical_Decision_Task.osexp","/Users/clionawalker","no","Andale Mono","no","18","no","white","no","yes","576","legacy","30","30","3","/Users/clionawalker/subject-5206889.csv","legacy","Lentiform Loewenfeld","3.3.7","yes","yes","600bd7cfb6416f0113b04181","602110864497cf011d9c0822","0","j","NA","j","j","j","NA","j","818","NA","2681","10203","5104","NA","818","2","legacy","1024","2","48000","-16","task","5206889","odd","NA","28989","33678","30996","86804","6716","22064","16956","87307","NA","86801","87307","86738","33678","88126","27368","86238","6699","71003","Lexical Decision Task","33","22190","35","yes","1024"
"3.140404328","10.66","9","deep","word","94.44444444444444","94.44444444444444","630.4722222222222","630.4722222222222","black","no","legacy","legacy","legacy","0","uniform","1","undefined","undefined","undefined","1","j","0","0","0","0","35","0","0","0","35","NA","31","35","31","0","31","3","35","0","35","Thu Feb 18 11:53:26 2021","The main experiment item","yes","Lexical_Decision_Task.osexp","/Users/clionawalker","no","Andale Mono","no","18","no","white","no","yes","576","legacy","31","31","3","/Users/clionawalker/subject-5206889.csv","legacy","Lentiform Loewenfeld","3.3.7","yes","yes","600bd7cfb6416f0113b04181","602110864497cf011d9c0822","0","j","NA","j","j","j","NA","j","507","NA","2681","10203","5104","NA","507","2","legacy","1024","2","48000","-16","task","5206889","odd","NA","28989","33678","30996","88694","6716","22064","16956","89199","NA","88691","89199","88629","33678","89707","27368","88129","6699","71003","Lexical Decision Task","34","22697","36","yes","1024"
"3.14849993","10.75","7","hour","word","94.5945945945946","94.5945945945946","630.6756756756756","630.6756756756756","black","no","legacy","legacy","legacy","0","uniform","1","undefined","undefined","undefined","1","j","0","0","0","0","36","0","0","0","36","NA","32","36","32","0","32","3","36","0","36","Thu Feb 18 11:53:26 2021","The main experiment item","yes","Lexical_Decision_Task.osexp","/Users/clionawalker","no","Andale Mono","no","18","no","white","no","yes","576","legacy","32","32","3","/Users/clionawalker/subject-5206889.csv","legacy","Lentiform Loewenfeld","3.3.7","yes","yes","600bd7cfb6416f0113b04181","602110864497cf011d9c0822","0","j","NA","j","j","j","NA","j","638","NA","2681","10203","5104","NA","638","2","legacy","1024","2","48000","-16","task","5206889","odd","NA","28989","33678","30996","90278","6716","22064","16956","90782","NA","90275","90782","90211","33678","91421","27368","89711","6699","71003","Lexical Decision Task","35","23335","37","yes","1024"
"2.82129731","6.72","5","plum","word","94.73684210526316","94.73684210526316","628.7894736842105","628.7894736842105","black","no","legacy","legacy","legacy","0","uniform","1","undefined","undefined","undefined","1","j","0","0","0","0","37","0","0","0","37","NA","33","37","33","0","33","3","37","0","37","Thu Feb 18 11:53:26 2021","The main experiment item","yes","Lexical_Decision_Task.osexp","/Users/clionawalker","no","Andale Mono","no","18","no","white","no","yes","576","legacy","33","33","3","/Users/clionawalker/subject-5206889.csv","legacy","Lentiform Loewenfeld","3.3.7","yes","yes","600bd7cfb6416f0113b04181","602110864497cf011d9c0822","0","j","NA","j","j","j","NA","j","559","NA","2681","10203","5104","NA","559","2","legacy","1024","2","48000","-16","task","5206889","odd","NA","28989","33678","30996","91990","6716","22064","16956","92493","NA","91987","92493","91924","33678","93053","27368","91424","6699","71003","Lexical Decision Task","36","23894","38","yes","1024"
"3.316948329","0","1","besc","non-word","94.87179487179488","94.87179487179488","634.4871794871794","634.4871794871794","black","no","legacy","legacy","legacy","0","uniform","1","undefined","undefined","undefined","1","f","0","0","0","0","38","0","0","0","38","NA","34","38","34","0","34","3","38","0","38","Thu Feb 18 11:53:26 2021","The main experiment item","yes","Lexical_Decision_Task.osexp","/Users/clionawalker","no","Andale Mono","no","18","no","white","no","yes","576","legacy","34","34","3","/Users/clionawalker/subject-5206889.csv","legacy","Lentiform Loewenfeld","3.3.7","yes","yes","600bd7cfb6416f0113b04181","602110864497cf011d9c0822","0","f","NA","j","j","j","NA","f","851","NA","2681","10203","5104","NA","851","2","legacy","1024","2","48000","-16","task","5206889","odd","NA","28989","33678","30996","93623","6716","22064","16956","94127","NA","93620","94127","93557","33678","94978","27368","93057","6699","71003","Lexical Decision Task","37","24745","39","yes","1024"
"2.819763221","0","2","durp","non-word","95","95","637.875","637.875","black","no","legacy","legacy","legacy","0","uniform","1","undefined","undefined","undefined","1","f","0","0","0","0","39","0","0","0","39","NA","35","39","35","0","35","3","39","0","39","Thu Feb 18 11:53:26 2021","The main experiment item","yes","Lexical_Decision_Task.osexp","/Users/clionawalker","no","Andale Mono","no","18","no","white","no","yes","576","legacy","35","35","3","/Users/clionawalker/subject-5206889.csv","legacy","Lentiform Loewenfeld","3.3.7","yes","yes","600bd7cfb6416f0113b04181","602110864497cf011d9c0822","0","f","NA","j","j","j","NA","f","770","NA","2681","10203","5104","NA","770","2","legacy","1024","2","48000","-16","task","5206889","odd","NA","28989","33678","30996","95548","6716","22064","16956","96051","NA","95545","96052","95482","33678","96823","27368","94982","6699","71003","Lexical Decision Task","38","25515","40","yes","1024"
"3.274543461","7.46","7","scar","word","95.1219512195122","95.1219512195122","638.8780487804878","638.8780487804878","black","no","legacy","legacy","legacy","0","uniform","1","undefined","undefined","undefined","1","j","0","0","0","0","40","0","0","0","40","NA","36","40","36","0","36","3","40","0","40","Thu Feb 18 11:53:26 2021","The main experiment item","yes","Lexical_Decision_Task.osexp","/Users/clionawalker","no","Andale Mono","no","18","no","white","no","yes","576","legacy","36","36","3","/Users/clionawalker/subject-5206889.csv","legacy","Lentiform Loewenfeld","3.3.7","yes","yes","600bd7cfb6416f0113b04181","602110864497cf011d9c0822","0","j","NA","j","j","j","NA","j","679","NA","2681","10203","5104","NA","679","2","legacy","1024","2","48000","-16","task","5206889","odd","NA","28989","33678","30996","97391","6716","22064","16956","97894","NA","97388","97895","97326","33678","98575","27368","96826","6699","71003","Lexical Decision Task","39","26194","41","yes","1024"
"2.744553742","0","2","nawk","non-word","95.23809523809524","95.23809523809524","639.8333333333334","639.8333333333334","black","no","legacy","legacy","legacy","0","uniform","1","undefined","undefined","undefined","1","f","0","0","0","0","41","0","0","0","41","NA","37","41","37","0","37","3","41","0","41","Thu Feb 18 11:53:26 2021","The main experiment item","yes","Lexical_Decision_Task.osexp","/Users/clionawalker","no","Andale Mono","no","18","no","white","no","yes","576","legacy","37","37","3","/Users/clionawalker/subject-5206889.csv","legacy","Lentiform Loewenfeld","3.3.7","yes","yes","600bd7cfb6416f0113b04181","602110864497cf011d9c0822","0","f","NA","j","j","j","NA","f","679","NA","2681","10203","5104","NA","679","2","legacy","1024","2","48000","-16","task","5206889","odd","NA","28989","33678","30996","99145","6716","22064","16956","99650","NA","99142","99650","99078","33678","100330","27368","98578","6699","71003","Lexical Decision Task","40","26873","42","yes","1024"
"2.966923697","5.4","2","fume","word","95.34883720930233","95.34883720930233","639.6744186046511","639.6744186046511","black","no","legacy","legacy","legacy","0","uniform","1","undefined","undefined","undefined","1","j","0","0","0","0","42","0","0","0","42","NA","38","42","38","0","38","3","42","0","42","Thu Feb 18 11:53:26 2021","The main experiment item","yes","Lexical_Decision_Task.osexp","/Users/clionawalker","no","Andale Mono","no","18","no","white","no","yes","576","legacy","38","38","3","/Users/clionawalker/subject-5206889.csv","legacy","Lentiform Loewenfeld","3.3.7","yes","yes","600bd7cfb6416f0113b04181","602110864497cf011d9c0822","0","j","NA","j","j","j","NA","j","633","NA","2681","10203","5104","NA","633","2","legacy","1024","2","48000","-16","task","5206889","odd","NA","28989","33678","30996","100900","6716","22064","16956","101404","NA","100897","101404","100833","33678","102038","27368","100333","6699","71003","Lexical Decision Task","41","27506","43","yes","1024"
"2.64476673","0","5","moft","non-word","95.45454545454545","95.45454545454545","641.2272727272727","641.2272727272727","black","no","legacy","legacy","legacy","0","uniform","1","undefined","undefined","undefined","1","f","0","0","0","0","43","0","0","0","43","NA","39","43","39","0","39","3","43","0","43","Thu Feb 18 11:53:26 2021","The main experiment item","yes","Lexical_Decision_Task.osexp","/Users/clionawalker","no","Andale Mono","no","18","no","white","no","yes","576","legacy","39","39","3","/Users/clionawalker/subject-5206889.csv","legacy","Lentiform Loewenfeld","3.3.7","yes","yes","600bd7cfb6416f0113b04181","602110864497cf011d9c0822","0","f","NA","j","j","j","NA","f","708","NA","2681","10203","5104","NA","708","2","legacy","1024","2","48000","-16","task","5206889","odd","NA","28989","33678","30996","102614","6716","22064","16956","103118","NA","102611","103119","102541","33678","103828","27368","102041","6699","71003","Lexical Decision Task","42","28214","44","yes","1024"
"3.153104174","10.89","6","door","word","95.55555555555556","95.55555555555556","641.3777777777777","641.3777777777777","black","no","legacy","legacy","legacy","0","uniform","1","undefined","undefined","undefined","1","j","0","0","0","0","44","0","0","0","44","NA","40","44","40","0","40","3","44","0","44","Thu Feb 18 11:53:26 2021","The main experiment item","yes","Lexical_Decision_Task.osexp","/Users/clionawalker","no","Andale Mono","no","18","no","white","no","yes","576","legacy","40","40","3","/Users/clionawalker/subject-5206889.csv","legacy","Lentiform Loewenfeld","3.3.7","yes","yes","600bd7cfb6416f0113b04181","602110864497cf011d9c0822","0","j","NA","j","j","j","NA","j","648","NA","2681","10203","5104","NA","648","2","legacy","1024","2","48000","-16","task","5206889","odd","NA","28989","33678","30996","104398","6716","22064","16956","104903","NA","104395","104903","104331","33678","105552","27368","103831","6699","71003","Lexical Decision Task","43","28862","45","yes","1024"
"2.695481676","0","7","goke","non-word","95.65217391304348","95.65217391304348","639.195652173913","639.195652173913","black","no","legacy","legacy","legacy","0","uniform","1","undefined","undefined","undefined","1","f","0","0","0","0","45","0","0","0","45","NA","41","45","41","0","41","3","45","0","45","Thu Feb 18 11:53:26 2021","The main experiment item","yes","Lexical_Decision_Task.osexp","/Users/clionawalker","no","Andale Mono","no","18","no","white","no","yes","576","legacy","41","41","3","/Users/clionawalker/subject-5206889.csv","legacy","Lentiform Loewenfeld","3.3.7","yes","yes","600bd7cfb6416f0113b04181","602110864497cf011d9c0822","0","f","NA","j","j","j","NA","f","541","NA","2681","10203","5104","NA","541","2","legacy","1024","2","48000","-16","task","5206889","odd","NA","28989","33678","30996","106130","6716","22064","16956","106634","NA","106126","106634","106055","33678","107175","27368","105555","6699","71003","Lexical Decision Task","44","29403","46","yes","1024"
"3.131833513","7.66","4","limb","word","95.74468085106383","95.74468085106383","644.7872340425532","644.7872340425532","black","no","legacy","legacy","legacy","0","uniform","1","undefined","undefined","undefined","1","j","0","0","0","0","46","0","0","0","46","NA","42","46","42","0","42","3","46","0","46","Thu Feb 18 11:53:26 2021","The main experiment item","yes","Lexical_Decision_Task.osexp","/Users/clionawalker","no","Andale Mono","no","18","no","white","no","yes","576","legacy","42","42","3","/Users/clionawalker/subject-5206889.csv","legacy","Lentiform Loewenfeld","3.3.7","yes","yes","600bd7cfb6416f0113b04181","602110864497cf011d9c0822","0","j","NA","j","j","j","NA","j","902","NA","2681","10203","5104","NA","902","2","legacy","1024","2","48000","-16","task","5206889","odd","NA","28989","33678","30996","107746","6716","22064","16956","108250","NA","107743","108250","107679","33678","109153","27368","107179","6699","71003","Lexical Decision Task","45","30305","47","yes","1024"
"2.746890964","9.67","3","plug","word","95.83333333333333","95.83333333333333","643.4583333333334","643.4583333333334","black","no","legacy","legacy","legacy","0","uniform","1","undefined","undefined","undefined","1","j","0","0","0","0","47","0","0","0","47","NA","43","47","43","0","43","3","47","0","47","Thu Feb 18 11:53:26 2021","The main experiment item","yes","Lexical_Decision_Task.osexp","/Users/clionawalker","no","Andale Mono","no","18","no","white","no","yes","576","legacy","43","43","3","/Users/clionawalker/subject-5206889.csv","legacy","Lentiform Loewenfeld","3.3.7","yes","yes","600bd7cfb6416f0113b04181","602110864497cf011d9c0822","0","j","NA","j","j","j","NA","j","581","NA","2681","10203","5104","NA","581","2","legacy","1024","2","48000","-16","task","5206889","odd","NA","28989","33678","30996","109722","6716","22064","16956","110225","NA","109719","110225","109656","33678","110807","27368","109156","6699","71003","Lexical Decision Task","46","30886","48","yes","1024"
"3.081107167","0","6","chot","non-word","95.91836734693878","95.91836734693878","644.3265306122449","644.3265306122449","black","no","legacy","legacy","legacy","0","uniform","1","undefined","undefined","undefined","1","f","0","0","0","0","48","0","0","0","48","NA","44","48","44","0","44","3","48","0","48","Thu Feb 18 11:53:26 2021","The main experiment item","yes","Lexical_Decision_Task.osexp","/Users/clionawalker","no","Andale Mono","no","18","no","white","no","yes","576","legacy","44","44","3","/Users/clionawalker/subject-5206889.csv","legacy","Lentiform Loewenfeld","3.3.7","yes","yes","600bd7cfb6416f0113b04181","602110864497cf011d9c0822","0","f","NA","j","j","j","NA","f","686","NA","2681","10203","5104","NA","686","2","legacy","1024","2","48000","-16","task","5206889","odd","NA","28989","33678","30996","111376","6716","22064","16956","111879","NA","111372","111879","111310","33678","112566","27368","110810","6699","71003","Lexical Decision Task","47","31572","49","yes","1024"
"3.208978517","10.33","4","fish","word","96","96","642.36","642.36","black","no","legacy","legacy","legacy","0","uniform","1","undefined","undefined","undefined","1","j","0","0","0","0","49","0","0","0","49","NA","45","49","45","0","45","3","49","0","49","Thu Feb 18 11:53:26 2021","The main experiment item","yes","Lexical_Decision_Task.osexp","/Users/clionawalker","no","Andale Mono","no","18","no","white","no","yes","576","legacy","45","45","3","/Users/clionawalker/subject-5206889.csv","legacy","Lentiform Loewenfeld","3.3.7","yes","yes","600bd7cfb6416f0113b04181","602110864497cf011d9c0822","0","j","NA","j","j","j","NA","j","546","NA","2681","10203","5104","NA","546","2","legacy","1024","2","48000","-16","task","5206889","odd","NA","28989","33678","30996","113135","6716","22064","16956","113638","NA","113132","113639","113069","33678","114186","27368","112569","6699","71003","Lexical Decision Task","48","32118","50","yes","1024"
"3.120025233","0","2","nyst","non-word","96.07843137254902","96.07843137254902","642.3529411764706","642.3529411764706","black","no","legacy","legacy","legacy","0","uniform","1","undefined","undefined","undefined","1","f","0","0","0","0","50","0","0","0","50","NA","46","50","46","0","46","3","50","0","50","Thu Feb 18 11:53:26 2021","The main experiment item","yes","Lexical_Decision_Task.osexp","/Users/clionawalker","no","Andale Mono","no","18","no","white","no","yes","576","legacy","46","46","3","/Users/clionawalker/subject-5206889.csv","legacy","Lentiform Loewenfeld","3.3.7","yes","yes","600bd7cfb6416f0113b04181","602110864497cf011d9c0822","0","f","NA","j","j","j","NA","f","642","NA","2681","10203","5104","NA","642","2","legacy","1024","2","48000","-16","task","5206889","odd","NA","28989","33678","30996","114755","6716","22064","16956","115258","NA","114752","115259","114689","33678","115902","27368","114189","6699","71003","Lexical Decision Task","49","32760","51","yes","1024"
"3.311895072","0","9","gung","non-word","96.15384615384616","96.15384615384616","643.9807692307693","643.9807692307693","black","no","legacy","legacy","legacy","0","uniform","1","undefined","undefined","undefined","1","f","0","0","0","0","51","0","0","0","51","NA","47","51","47","0","47","3","51","0","51","Thu Feb 18 11:53:26 2021","The main experiment item","yes","Lexical_Decision_Task.osexp","/Users/clionawalker","no","Andale Mono","no","18","no","white","no","yes","576","legacy","47","47","3","/Users/clionawalker/subject-5206889.csv","legacy","Lentiform Loewenfeld","3.3.7","yes","yes","600bd7cfb6416f0113b04181","602110864497cf011d9c0822","0","f","NA","j","j","j","NA","f","727","NA","2681","10203","5104","NA","727","2","legacy","1024","2","48000","-16","task","5206889","odd","NA","28989","33678","30996","116470","6716","22064","16956","116973","NA","116468","116974","116405","33678","117702","27368","115905","6699","71003","Lexical Decision Task","50","33487","52","yes","1024"
"3.091901331","0","9","nipe","non-word","96.22641509433963","96.22641509433963","643.4905660377359","643.4905660377359","black","no","legacy","legacy","legacy","0","uniform","1","undefined","undefined","undefined","1","f","0","0","0","0","52","0","0","0","52","NA","48","52","48","0","48","3","52","0","52","Thu Feb 18 11:53:26 2021","The main experiment item","yes","Lexical_Decision_Task.osexp","/Users/clionawalker","no","Andale Mono","no","18","no","white","no","yes","576","legacy","48","48","3","/Users/clionawalker/subject-5206889.csv","legacy","Lentiform Loewenfeld","3.3.7","yes","yes","600bd7cfb6416f0113b04181","602110864497cf011d9c0822","0","f","NA","j","j","j","NA","f","618","NA","2681","10203","5104","NA","618","2","legacy","1024","2","48000","-16","task","5206889","odd","NA","28989","33678","30996","118272","6716","22064","16956","118776","NA","118269","118777","118205","33678","119396","27368","117705","6699","71003","Lexical Decision Task","51","34105","53","yes","1024"
"3.049218023","7.4","9","robe","word","96.29629629629629","96.29629629629629","642.9814814814815","642.9814814814815","black","no","legacy","legacy","legacy","0","uniform","1","undefined","undefined","undefined","1","j","0","0","0","0","53","0","0","0","53","NA","49","53","49","0","49","3","53","0","53","Thu Feb 18 11:53:26 2021","The main experiment item","yes","Lexical_Decision_Task.osexp","/Users/clionawalker","no","Andale Mono","no","18","no","white","no","yes","576","legacy","49","49","3","/Users/clionawalker/subject-5206889.csv","legacy","Lentiform Loewenfeld","3.3.7","yes","yes","600bd7cfb6416f0113b04181","602110864497cf011d9c0822","0","j","NA","j","j","j","NA","j","616","NA","2681","10203","5104","NA","616","2","legacy","1024","2","48000","-16","task","5206889","odd","NA","28989","33678","30996","119966","6716","22064","16956","120470","NA","119963","120470","119899","33678","121086","27368","119399","6699","71003","Lexical Decision Task","52","34721","54","yes","1024"
"2.953276337","6.32","4","thaw","word","96.36363636363636","96.36363636363636","644.1272727272727","644.1272727272727","black","no","legacy","legacy","legacy","0","uniform","1","undefined","undefined","undefined","1","j","0","0","0","0","54","0","0","0","54","0","50","54","50","0","50","3","54","0","54","Thu Feb 18 11:53:26 2021","The main experiment item","yes","Lexical_Decision_Task.osexp","/Users/clionawalker","no","Andale Mono","no","18","no","white","no","yes","576","legacy","50","50","3","/Users/clionawalker/subject-5206889.csv","legacy","Lentiform Loewenfeld","3.3.7","yes","yes","600bd7cfb6416f0113b04181","602110864497cf011d9c0822","0","j","NA","j","j","j","j","j","706","NA","2681","10203","5104","27307","706","2","legacy","1024","2","48000","-16","task","5206889","odd","NA","28989","33678","30996","148985","6716","22064","16956","149490","121629","148983","149490","121590","33678","150197","27368","121089","6699","71003","Lexical Decision Task","53","35427","55","yes","1024"
"3.378276681","6.39","8","bran","word","94.64285714285714","94.64285714285714","643.8392857142857","643.8392857142857","black","no","legacy","legacy","legacy","0","uniform","0","undefined","undefined","undefined","0","j","0","0","0","0","55","0","0","0","55","0","51","55","51","0","51","3","55","0","55","Thu Feb 18 11:53:26 2021","The main experiment item","yes","Lexical_Decision_Task.osexp","/Users/clionawalker","no","Andale Mono","no","18","no","white","no","yes","576","legacy","51","51","3","/Users/clionawalker/subject-5206889.csv","legacy","Lentiform Loewenfeld","3.3.7","yes","yes","600bd7cfb6416f0113b04181","602110864497cf011d9c0822","0","f","NA","j","j","j","j","f","628","NA","2681","10203","5104","27307","628","2","legacy","1024","2","48000","-16","task","5206889","odd","NA","28989","33678","30996","150768","6716","22064","16956","151273","121629","150765","151273","150701","33678","151902","27368","150201","6699","71003","Lexical Decision Task","53","36055","56","yes","1024"
"2.981215883","10.66","5","hair","word","94.73684210526316","94.73684210526316","642.2631578947369","642.2631578947369","black","no","legacy","legacy","legacy","0","uniform","1","undefined","undefined","undefined","1","j","0","0","0","0","56","0","0","0","56","0","52","56","52","0","52","3","56","0","56","Thu Feb 18 11:53:26 2021","The main experiment item","yes","Lexical_Decision_Task.osexp","/Users/clionawalker","no","Andale Mono","no","18","no","white","no","yes","576","legacy","52","52","3","/Users/clionawalker/subject-5206889.csv","legacy","Lentiform Loewenfeld","3.3.7","yes","yes","600bd7cfb6416f0113b04181","602110864497cf011d9c0822","0","j","NA","j","j","j","j","j","554","NA","2681","10203","5104","27307","554","2","legacy","1024","2","48000","-16","task","5206889","odd","NA","28989","33678","30996","153478","6716","22064","16956","153982","121629","153472","153982","153406","33678","154537","27368","150201","6699","151905","Lexical Decision Task","54","36609","57","yes","1024"
"3.529815197","0","3","lerm","non-word","94.82758620689656","94.82758620689656","642.8103448275862","642.8103448275862","black","no","legacy","legacy","legacy","0","uniform","1","undefined","undefined","undefined","1","f","0","0","0","0","57","0","0","0","57","0","53","57","53","0","53","3","57","0","57","Thu Feb 18 11:53:26 2021","The main experiment item","yes","Lexical_Decision_Task.osexp","/Users/clionawalker","no","Andale Mono","no","18","no","white","no","yes","576","legacy","53","53","3","/Users/clionawalker/subject-5206889.csv","legacy","Lentiform Loewenfeld","3.3.7","yes","yes","600bd7cfb6416f0113b04181","602110864497cf011d9c0822","0","f","NA","j","j","j","j","f","674","NA","2681","10203","5104","27307","674","2","legacy","1024","2","48000","-16","task","5206889","odd","NA","28989","33678","30996","155108","6716","22064","16956","155612","121629","155105","155612","155041","33678","156287","27368","154541","6699","151905","Lexical Decision Task","55","37283","58","yes","1024"
"2.898725182","0","7","turl","non-word","94.91525423728814","94.91525423728814","647.4406779661017","647.4406779661017","black","no","legacy","legacy","legacy","0","uniform","1","undefined","undefined","undefined","1","f","0","0","0","0","58","0","0","0","58","0","54","58","54","0","54","3","58","0","58","Thu Feb 18 11:53:26 2021","The main experiment item","yes","Lexical_Decision_Task.osexp","/Users/clionawalker","no","Andale Mono","no","18","no","white","no","yes","576","legacy","54","54","3","/Users/clionawalker/subject-5206889.csv","legacy","Lentiform Loewenfeld","3.3.7","yes","yes","600bd7cfb6416f0113b04181","602110864497cf011d9c0822","0","f","NA","j","j","j","j","f","916","NA","2681","10203","5104","27307","916","2","legacy","1024","2","48000","-16","task","5206889","odd","NA","28989","33678","30996","156856","6716","22064","16956","157360","121629","156853","157360","156790","33678","158276","27368","156290","6699","151905","Lexical Decision Task","56","38199","59","yes","1024"
"3.003891166","8.05","2","frog","word","95","95","646.05","646.05","black","no","legacy","legacy","legacy","0","uniform","1","undefined","undefined","undefined","1","j","0","0","0","0","59","0","0","0","59","0","55","59","55","0","55","3","59","0","59","Thu Feb 18 11:53:26 2021","The main experiment item","yes","Lexical_Decision_Task.osexp","/Users/clionawalker","no","Andale Mono","no","18","no","white","no","yes","576","legacy","55","55","3","/Users/clionawalker/subject-5206889.csv","legacy","Lentiform Loewenfeld","3.3.7","yes","yes","600bd7cfb6416f0113b04181","602110864497cf011d9c0822","0","j","NA","j","j","j","j","j","564","NA","2681","10203","5104","27307","564","2","legacy","1024","2","48000","-16","task","5206889","odd","NA","28989","33678","30996","158841","6716","22064","16956","159344","121629","158838","159344","158779","33678","159909","27368","158279","6699","151905","Lexical Decision Task","57","38763","60","yes","1024"
"3.2757719","0","5","slea","non-word","95.08196721311475","95.08196721311475","644.2622950819672","644.2622950819672","black","no","legacy","legacy","legacy","0","uniform","1","undefined","undefined","undefined","1","f","0","0","0","0","60","0","0","0","60","0","56","60","56","0","56","3","60","0","60","Thu Feb 18 11:53:26 2021","The main experiment item","yes","Lexical_Decision_Task.osexp","/Users/clionawalker","no","Andale Mono","no","18","no","white","no","yes","576","legacy","56","56","3","/Users/clionawalker/subject-5206889.csv","legacy","Lentiform Loewenfeld","3.3.7","yes","yes","600bd7cfb6416f0113b04181","602110864497cf011d9c0822","0","f","NA","j","j","j","j","f","537","NA","2681","10203","5104","27307","537","2","legacy","1024","2","48000","-16","task","5206889","odd","NA","28989","33678","30996","160485","6716","22064","16956","160990","121629","160480","160990","160413","33678","161528","27368","159913","6699","151905","Lexical Decision Task","58","39300","61","yes","1024"
"2.771097306","0","9","jold","non-word","95.16129032258064","95.16129032258064","643.0645161290323","643.0645161290323","black","no","legacy","legacy","legacy","0","uniform","1","undefined","undefined","undefined","1","f","0","0","0","0","61","0","0","0","61","0","57","61","57","0","57","3","61","0","61","Thu Feb 18 11:53:26 2021","The main experiment item","yes","Lexical_Decision_Task.osexp","/Users/clionawalker","no","Andale Mono","no","18","no","white","no","yes","576","legacy","57","57","3","/Users/clionawalker/subject-5206889.csv","legacy","Lentiform Loewenfeld","3.3.7","yes","yes","600bd7cfb6416f0113b04181","602110864497cf011d9c0822","0","f","NA","j","j","j","j","f","570","NA","2681","10203","5104","27307","570","2","legacy","1024","2","48000","-16","task","5206889","odd","NA","28989","33678","30996","162099","6716","22064","16956","162602","121629","162096","162603","162031","33678","163174","27368","161531","6699","151905","Lexical Decision Task","59","39870","62","yes","1024"
"2.807758206","6.25","4","hurl","word","93.65079365079364","93.65079365079364","643.6666666666666","643.6666666666666","black","no","legacy","legacy","legacy","0","uniform","0","undefined","undefined","undefined","0","j","0","0","0","0","62","0","0","0","62","0","58","62","58","0","58","3","62","0","62","Thu Feb 18 11:53:26 2021","The main experiment item","yes","Lexical_Decision_Task.osexp","/Users/clionawalker","no","Andale Mono","no","18","no","white","no","yes","576","legacy","58","58","3","/Users/clionawalker/subject-5206889.csv","legacy","Lentiform Loewenfeld","3.3.7","yes","yes","600bd7cfb6416f0113b04181","602110864497cf011d9c0822","0","f","NA","j","j","j","j","f","681","NA","2681","10203","5104","27307","681","2","legacy","1024","2","48000","-16","task","5206889","odd","NA","28989","33678","30996","163743","6716","22064","16956","164250","121629","163741","164251","163678","33678","164935","27368","163177","6699","151905","Lexical Decision Task","59","40551","63","yes","1024"
"2.996511672","0","7","hoil","non-word","92.1875","92.1875","644.109375","644.109375","black","no","legacy","legacy","legacy","0","uniform","0","undefined","undefined","undefined","0","f","0","0","0","0","63","0","0","0","63","0","59","63","59","0","59","3","63","0","63","Thu Feb 18 11:53:26 2021","The main experiment item","yes","Lexical_Decision_Task.osexp","/Users/clionawalker","no","Andale Mono","no","18","no","white","no","yes","576","legacy","59","59","3","/Users/clionawalker/subject-5206889.csv","legacy","Lentiform Loewenfeld","3.3.7","yes","yes","600bd7cfb6416f0113b04181","602110864497cf011d9c0822","0","j","NA","j","j","j","j","j","672","NA","2681","10203","5104","27307","672","2","legacy","1024","2","48000","-16","task","5206889","odd","NA","28989","33678","30996","166597","6716","22064","16956","167105","121629","166588","167106","166449","33678","167781","27368","163177","6699","164949","Lexical Decision Task","59","41223","64","yes","1024"
"2.979548375","8.71","4","soup","word","92.3076923076923","92.3076923076923","642.1692307692308","642.1692307692308","black","no","legacy","legacy","legacy","0","uniform","1","undefined","undefined","undefined","1","j","0","0","0","0","64","0","0","0","64","0","60","64","60","0","60","3","64","0","64","Thu Feb 18 11:53:26 2021","The main experiment item","yes","Lexical_Decision_Task.osexp","/Users/clionawalker","no","Andale Mono","no","18","no","white","no","yes","576","legacy","60","60","3","/Users/clionawalker/subject-5206889.csv","legacy","Lentiform Loewenfeld","3.3.7","yes","yes","600bd7cfb6416f0113b04181","602110864497cf011d9c0822","0","j","NA","j","j","j","j","j","518","NA","2681","10203","5104","27307","518","2","legacy","1024","2","48000","-16","task","5206889","odd","NA","28989","33678","30996","169439","6716","22064","16956","169948","121629","169427","169948","169291","33678","170469","27368","163177","6699","167790","Lexical Decision Task","60","41741","65","yes","1024"
"3.121778632","0","9","sark","non-word","92.42424242424242","92.42424242424242","647.3787878787879","647.3787878787879","black","no","legacy","legacy","legacy","0","uniform","1","undefined","undefined","undefined","1","f","0","0","0","0","65","0","0","0","65","0","61","65","61","0","61","3","65","0","65","Thu Feb 18 11:53:26 2021","The main experiment item","yes","Lexical_Decision_Task.osexp","/Users/clionawalker","no","Andale Mono","no","18","no","white","no","yes","576","legacy","61","61","3","/Users/clionawalker/subject-5206889.csv","legacy","Lentiform Loewenfeld","3.3.7","yes","yes","600bd7cfb6416f0113b04181","602110864497cf011d9c0822","0","f","NA","j","j","j","j","f","986","NA","2681","10203","5104","27307","986","2","legacy","1024","2","48000","-16","task","5206889","odd","NA","28989","33678","30996","171124","6716","22064","16956","171631","121629","171115","171632","170981","33678","172621","27368","170480","6699","167790","Lexical Decision Task","61","42727","66","yes","1024"
"3.137775856","7.39","5","comb","word","92.53731343283582","92.53731343283582","646.2537313432836","646.2537313432836","black","no","legacy","legacy","legacy","0","uniform","1","undefined","undefined","undefined","1","j","0","0","0","0","66","0","0","0","66","0","62","66","62","0","62","3","66","0","66","Thu Feb 18 11:53:26 2021","The main experiment item","yes","Lexical_Decision_Task.osexp","/Users/clionawalker","no","Andale Mono","no","18","no","white","no","yes","576","legacy","62","62","3","/Users/clionawalker/subject-5206889.csv","legacy","Lentiform Loewenfeld","3.3.7","yes","yes","600bd7cfb6416f0113b04181","602110864497cf011d9c0822","0","j","NA","j","j","j","j","j","572","NA","2681","10203","5104","27307","572","2","legacy","1024","2","48000","-16","task","5206889","odd","NA","28989","33678","30996","173276","6716","22064","16956","173787","121629","173267","173787","173131","33678","174363","27368","172631","6699","167790","Lexical Decision Task","62","43299","67","yes","1024"
"3.209246849","0","7","slem","non-word","92.6470588235294","92.6470588235294","645.6176470588235","645.6176470588235","black","no","legacy","legacy","legacy","0","uniform","1","undefined","undefined","undefined","1","f","0","0","0","0","67","0","0","0","67","0","63","67","63","0","63","3","67","0","67","Thu Feb 18 11:53:26 2021","The main experiment item","yes","Lexical_Decision_Task.osexp","/Users/clionawalker","no","Andale Mono","no","18","no","white","no","yes","576","legacy","63","63","3","/Users/clionawalker/subject-5206889.csv","legacy","Lentiform Loewenfeld","3.3.7","yes","yes","600bd7cfb6416f0113b04181","602110864497cf011d9c0822","0","f","NA","j","j","j","j","f","603","NA","2681","10203","5104","27307","603","2","legacy","1024","2","48000","-16","task","5206889","odd","NA","28989","33678","30996","175016","6716","22064","16956","175525","121629","175008","175525","174873","33678","176131","27368","174373","6699","167790","Lexical Decision Task","63","43902","68","yes","1024"
"3.168890155","0","6","thet","non-word","92.7536231884058","92.7536231884058","646.1304347826087","646.1304347826087","black","no","legacy","legacy","legacy","0","uniform","1","undefined","undefined","undefined","1","f","0","0","0","0","68","0","0","0","68","0","64","68","64","0","64","3","68","0","68","Thu Feb 18 11:53:26 2021","The main experiment item","yes","Lexical_Decision_Task.osexp","/Users/clionawalker","no","Andale Mono","no","18","no","white","no","yes","576","legacy","64","64","3","/Users/clionawalker/subject-5206889.csv","legacy","Lentiform Loewenfeld","3.3.7","yes","yes","600bd7cfb6416f0113b04181","602110864497cf011d9c0822","0","f","NA","j","j","j","j","f","681","NA","2681","10203","5104","27307","681","2","legacy","1024","2","48000","-16","task","5206889","odd","NA","28989","33678","30996","176790","6716","22064","16956","177302","121629","176780","177302","176643","33678","177987","27368","176143","6699","167790","Lexical Decision Task","64","44583","69","yes","1024"
"2.972819734","0","4","scew","non-word","92.85714285714286","92.85714285714286","647.8142857142857","647.8142857142857","black","no","legacy","legacy","legacy","0","uniform","1","undefined","undefined","undefined","1","f","0","0","0","0","69","0","0","0","69","0","65","69","65","0","65","3","69","0","69","Thu Feb 18 11:53:26 2021","The main experiment item","yes","Lexical_Decision_Task.osexp","/Users/clionawalker","no","Andale Mono","no","18","no","white","no","yes","576","legacy","65","65","3","/Users/clionawalker/subject-5206889.csv","legacy","Lentiform Loewenfeld","3.3.7","yes","yes","600bd7cfb6416f0113b04181","602110864497cf011d9c0822","0","f","NA","j","j","j","j","f","764","NA","2681","10203","5104","27307","764","2","legacy","1024","2","48000","-16","task","5206889","odd","NA","28989","33678","30996","178656","6716","22064","16956","179168","121629","178643","179168","178499","33678","179936","27368","177999","6699","167790","Lexical Decision Task","65","45347","70","yes","1024"
"3.067193647","6.73","6","raft","word","92.95774647887323","92.95774647887323","647.4507042253521","647.4507042253521","black","no","legacy","legacy","legacy","0","uniform","1","undefined","undefined","undefined","1","j","0","0","0","0","70","0","0","0","70","0","66","70","66","0","66","3","70","0","70","Thu Feb 18 11:53:26 2021","The main experiment item","yes","Lexical_Decision_Task.osexp","/Users/clionawalker","no","Andale Mono","no","18","no","white","no","yes","576","legacy","66","66","3","/Users/clionawalker/subject-5206889.csv","legacy","Lentiform Loewenfeld","3.3.7","yes","yes","600bd7cfb6416f0113b04181","602110864497cf011d9c0822","0","j","NA","j","j","j","j","j","622","NA","2681","10203","5104","27307","622","2","legacy","1024","2","48000","-16","task","5206889","odd","NA","28989","33678","30996","180600","6716","22064","16956","181107","121629","180588","181108","180449","33678","181734","27368","179948","6699","167790","Lexical Decision Task","66","45969","71","yes","1024"
"3.156347201","0","8","lasp","non-word","93.05555555555556","93.05555555555556","648.3611111111111","648.3611111111111","black","no","legacy","legacy","legacy","0","uniform","1","undefined","undefined","undefined","1","f","0","0","0","0","71","0","0","0","71","0","67","71","67","0","67","3","71","0","71","Thu Feb 18 11:53:26 2021","The main experiment item","yes","Lexical_Decision_Task.osexp","/Users/clionawalker","no","Andale Mono","no","18","no","white","no","yes","576","legacy","67","67","3","/Users/clionawalker/subject-5206889.csv","legacy","Lentiform Loewenfeld","3.3.7","yes","yes","600bd7cfb6416f0113b04181","602110864497cf011d9c0822","0","f","NA","j","j","j","j","f","713","NA","2681","10203","5104","27307","713","2","legacy","1024","2","48000","-16","task","5206889","odd","NA","28989","33678","30996","182392","6716","22064","16956","182899","121629","182384","182900","182246","33678","183617","27368","181745","6699","167790","Lexical Decision Task","67","46682","72","yes","1024"
"3.492014979","0","9","yine","non-word","93.15068493150685","93.15068493150685","648.8493150684932","648.8493150684932","black","no","legacy","legacy","legacy","0","uniform","1","undefined","undefined","undefined","1","f","0","0","0","0","72","0","0","0","72","0","68","72","68","0","68","3","72","0","72","Thu Feb 18 11:53:26 2021","The main experiment item","yes","Lexical_Decision_Task.osexp","/Users/clionawalker","no","Andale Mono","no","18","no","white","no","yes","576","legacy","68","68","3","/Users/clionawalker/subject-5206889.csv","legacy","Lentiform Loewenfeld","3.3.7","yes","yes","600bd7cfb6416f0113b04181","602110864497cf011d9c0822","0","f","NA","j","j","j","j","f","684","NA","2681","10203","5104","27307","684","2","legacy","1024","2","48000","-16","task","5206889","odd","NA","28989","33678","30996","184276","6716","22064","16956","184783","121629","184267","184783","184127","33678","185471","27368","183627","6699","167790","Lexical Decision Task","68","47366","73","yes","1024"
"3.274157849","0","8","leet","non-word","93.24324324324324","93.24324324324324","649.3108108108108","649.3108108108108","black","no","legacy","legacy","legacy","0","uniform","1","undefined","undefined","undefined","1","f","0","0","0","0","73","0","0","0","73","0","69","73","69","0","69","3","73","0","73","Thu Feb 18 11:53:26 2021","The main experiment item","yes","Lexical_Decision_Task.osexp","/Users/clionawalker","no","Andale Mono","no","18","no","white","no","yes","576","legacy","69","69","3","/Users/clionawalker/subject-5206889.csv","legacy","Lentiform Loewenfeld","3.3.7","yes","yes","600bd7cfb6416f0113b04181","602110864497cf011d9c0822","0","f","NA","j","j","j","j","f","683","NA","2681","10203","5104","27307","683","2","legacy","1024","2","48000","-16","task","5206889","odd","NA","28989","33678","30996","186127","6716","22064","16956","186636","121629","186118","186637","185982","33678","187323","27368","185482","6699","167790","Lexical Decision Task","69","48049","74","yes","1024"
"3.488597715","0","9","nain","non-word","93.33333333333333","93.33333333333333","653.0533333333333","653.0533333333333","black","no","legacy","legacy","legacy","0","uniform","1","undefined","undefined","undefined","1","f","0","0","0","0","74","0","0","0","74","0","70","74","70","0","70","3","74","0","74","Thu Feb 18 11:53:26 2021","The main experiment item","yes","Lexical_Decision_Task.osexp","/Users/clionawalker","no","Andale Mono","no","18","no","white","no","yes","576","legacy","70","70","3","/Users/clionawalker/subject-5206889.csv","legacy","Lentiform Loewenfeld","3.3.7","yes","yes","600bd7cfb6416f0113b04181","602110864497cf011d9c0822","0","f","NA","j","j","j","j","f","930","NA","2681","10203","5104","27307","930","2","legacy","1024","2","48000","-16","task","5206889","odd","NA","28989","33678","30996","187983","6716","22064","16956","188492","121629","187973","188492","187837","33678","189425","27368","187336","6699","167790","Lexical Decision Task","70","48979","75","yes","1024"
"3.132473155","0","4","glim","non-word","92.10526315789474","92.10526315789474","658.5263157894736","658.5263157894736","black","no","legacy","legacy","legacy","0","uniform","0","undefined","undefined","undefined","0","f","0","0","0","0","75","0","0","0","75","0","71","75","71","0","71","3","75","0","75","Thu Feb 18 11:53:26 2021","The main experiment item","yes","Lexical_Decision_Task.osexp","/Users/clionawalker","no","Andale Mono","no","18","no","white","no","yes","576","legacy","71","71","3","/Users/clionawalker/subject-5206889.csv","legacy","Lentiform Loewenfeld","3.3.7","yes","yes","600bd7cfb6416f0113b04181","602110864497cf011d9c0822","0","j","NA","j","j","j","j","j","1069","NA","2681","10203","5104","27307","1069","2","legacy","1024","2","48000","-16","task","5206889","odd","NA","28989","33678","30996","190081","6716","22064","16956","190590","121629","190072","190590","189935","33678","191663","27368","189435","6699","167790","Lexical Decision Task","70","50048","76","yes","1024"
"3.384413096","10.15","3","glad","word","92.20779220779221","92.20779220779221","659.077922077922","659.077922077922","black","no","legacy","legacy","legacy","0","uniform","1","undefined","undefined","undefined","1","j","0","0","0","0","76","0","0","0","76","0","72","76","72","0","72","3","76","0","76","Thu Feb 18 11:53:26 2021","The main experiment item","yes","Lexical_Decision_Task.osexp","/Users/clionawalker","no","Andale Mono","no","18","no","white","no","yes","576","legacy","72","72","3","/Users/clionawalker/subject-5206889.csv","legacy","Lentiform Loewenfeld","3.3.7","yes","yes","600bd7cfb6416f0113b04181","602110864497cf011d9c0822","0","j","NA","j","j","j","j","j","701","NA","2681","10203","5104","27307","701","2","legacy","1024","2","48000","-16","task","5206889","odd","NA","28989","33678","30996","193319","6716","22064","16956","193827","121629","193309","193827","193174","33678","194531","27368","189435","6699","191674","Lexical Decision Task","71","50749","77","yes","1024"
"2.845304797","0","6","buct","non-word","92.3076923076923","92.3076923076923","659.1794871794872","659.1794871794872","black","no","legacy","legacy","legacy","0","uniform","1","undefined","undefined","undefined","1","f","0","0","0","0","77","0","0","0","77","0","73","77","73","0","73","3","77","0","77","Thu Feb 18 11:53:26 2021","The main experiment item","yes","Lexical_Decision_Task.osexp","/Users/clionawalker","no","Andale Mono","no","18","no","white","no","yes","576","legacy","73","73","3","/Users/clionawalker/subject-5206889.csv","legacy","Lentiform Loewenfeld","3.3.7","yes","yes","600bd7cfb6416f0113b04181","602110864497cf011d9c0822","0","f","NA","j","j","j","j","f","667","NA","2681","10203","5104","27307","667","2","legacy","1024","2","48000","-16","task","5206889","odd","NA","28989","33678","30996","195185","6716","22064","16956","195694","121629","195177","195695","195042","33678","196365","27368","194542","6699","191674","Lexical Decision Task","72","51416","78","yes","1024"
"2.897810299","0","5","glur","non-word","92.40506329113924","92.40506329113924","659.4303797468355","659.4303797468355","black","no","legacy","legacy","legacy","0","uniform","1","undefined","undefined","undefined","1","f","0","0","0","0","78","0","0","0","78","0","74","78","74","0","74","3","78","0","78","Thu Feb 18 11:53:26 2021","The main experiment item","yes","Lexical_Decision_Task.osexp","/Users/clionawalker","no","Andale Mono","no","18","no","white","no","yes","576","legacy","74","74","3","/Users/clionawalker/subject-5206889.csv","legacy","Lentiform Loewenfeld","3.3.7","yes","yes","600bd7cfb6416f0113b04181","602110864497cf011d9c0822","0","f","NA","j","j","j","j","f","679","NA","2681","10203","5104","27307","679","2","legacy","1024","2","48000","-16","task","5206889","odd","NA","28989","33678","30996","197021","6716","22064","16956","197528","121629","197011","197529","196876","33678","198211","27368","196376","6699","191674","Lexical Decision Task","73","52095","79","yes","1024"
"3.299579929","0","2","flis","non-word","92.5","92.5","658.35","658.35","black","no","legacy","legacy","legacy","0","uniform","1","undefined","undefined","undefined","1","f","0","0","0","0","79","0","0","0","79","0","75","79","75","0","75","3","79","0","79","Thu Feb 18 11:53:26 2021","The main experiment item","yes","Lexical_Decision_Task.osexp","/Users/clionawalker","no","Andale Mono","no","18","no","white","no","yes","576","legacy","75","75","3","/Users/clionawalker/subject-5206889.csv","legacy","Lentiform Loewenfeld","3.3.7","yes","yes","600bd7cfb6416f0113b04181","602110864497cf011d9c0822","0","f","NA","j","j","j","j","f","573","NA","2681","10203","5104","27307","573","2","legacy","1024","2","48000","-16","task","5206889","odd","NA","28989","33678","30996","198896","6716","22064","16956","199405","121629","198883","199406","198723","33678","199983","27368","198223","6699","191674","Lexical Decision Task","74","52668","80","yes","1024"
"3.076883066","0","8","mout","non-word","92.5925925925926","92.5925925925926","656.925925925926","656.925925925926","black","no","legacy","legacy","legacy","0","uniform","1","undefined","undefined","undefined","1","f","0","0","0","0","80","0","0","0","80","0","76","80","76","0","76","3","80","0","80","Thu Feb 18 11:53:26 2021","The main experiment item","yes","Lexical_Decision_Task.osexp","/Users/clionawalker","no","Andale Mono","no","18","no","white","no","yes","576","legacy","76","76","3","/Users/clionawalker/subject-5206889.csv","legacy","Lentiform Loewenfeld","3.3.7","yes","yes","600bd7cfb6416f0113b04181","602110864497cf011d9c0822","0","f","NA","j","j","j","j","f","543","NA","2681","10203","5104","27307","543","2","legacy","1024","2","48000","-16","task","5206889","odd","NA","28989","33678","30996","200638","6716","22064","16956","201147","121629","200629","201147","200493","33678","201694","27368","199992","6699","191674","Lexical Decision Task","75","53211","81","yes","1024"
"2.80048796","0","8","pife","non-word","92.6829268292683","92.6829268292683","655.1951219512196","655.1951219512196","black","no","legacy","legacy","legacy","0","uniform","1","undefined","undefined","undefined","1","f","0","0","0","0","81","0","0","0","81","0","77","81","77","0","77","3","81","0","81","Thu Feb 18 11:53:26 2021","The main experiment item","yes","Lexical_Decision_Task.osexp","/Users/clionawalker","no","Andale Mono","no","18","no","white","no","yes","576","legacy","77","77","3","/Users/clionawalker/subject-5206889.csv","legacy","Lentiform Loewenfeld","3.3.7","yes","yes","600bd7cfb6416f0113b04181","602110864497cf011d9c0822","0","f","NA","j","j","j","j","f","515","NA","2681","10203","5104","27307","515","2","legacy","1024","2","48000","-16","task","5206889","odd","NA","28989","33678","30996","202349","6716","22064","16956","202859","121629","202339","202859","202204","33678","203377","27368","201704","6699","191674","Lexical Decision Task","76","53726","82","yes","1024"
"2.842815106","7.86","8","lump","word","92.7710843373494","92.7710843373494","654.2530120481928","654.2530120481928","black","no","legacy","legacy","legacy","0","uniform","1","undefined","undefined","undefined","1","j","0","0","0","0","82","0","0","0","82","0","78","82","78","0","78","3","82","0","82","Thu Feb 18 11:53:26 2021","The main experiment item","yes","Lexical_Decision_Task.osexp","/Users/clionawalker","no","Andale Mono","no","18","no","white","no","yes","576","legacy","78","78","3","/Users/clionawalker/subject-5206889.csv","legacy","Lentiform Loewenfeld","3.3.7","yes","yes","600bd7cfb6416f0113b04181","602110864497cf011d9c0822","0","j","NA","j","j","j","j","j","577","NA","2681","10203","5104","27307","577","2","legacy","1024","2","48000","-16","task","5206889","odd","NA","28989","33678","30996","204029","6716","22064","16956","204535","121629","204022","204536","203887","33678","205118","27368","203387","6699","191674","Lexical Decision Task","77","54303","83","yes","1024"
"2.68604012","0","4","pumb","non-word","92.85714285714286","92.85714285714286","656.3571428571429","656.3571428571429","black","no","legacy","legacy","legacy","0","uniform","1","undefined","undefined","undefined","1","f","0","0","0","0","83","0","0","0","83","0","79","83","79","0","79","3","83","0","83","Thu Feb 18 11:53:26 2021","The main experiment item","yes","Lexical_Decision_Task.osexp","/Users/clionawalker","no","Andale Mono","no","18","no","white","no","yes","576","legacy","79","79","3","/Users/clionawalker/subject-5206889.csv","legacy","Lentiform Loewenfeld","3.3.7","yes","yes","600bd7cfb6416f0113b04181","602110864497cf011d9c0822","0","f","NA","j","j","j","j","f","831","NA","2681","10203","5104","27307","831","2","legacy","1024","2","48000","-16","task","5206889","odd","NA","28989","33678","30996","205771","6716","22064","16956","206277","121629","205763","206278","205629","33678","207114","27368","205128","6699","191674","Lexical Decision Task","78","55134","84","yes","1024"
"2.728085817","10.02","9","bike","word","92.94117647058823","92.94117647058823","656.0470588235294","656.0470588235294","black","no","legacy","legacy","legacy","0","uniform","1","undefined","undefined","undefined","1","j","0","0","0","0","84","0","0","0","84","0","80","84","80","0","80","3","84","0","84","Thu Feb 18 11:53:26 2021","The main experiment item","yes","Lexical_Decision_Task.osexp","/Users/clionawalker","no","Andale Mono","no","18","no","white","no","yes","576","legacy","80","80","3","/Users/clionawalker/subject-5206889.csv","legacy","Lentiform Loewenfeld","3.3.7","yes","yes","600bd7cfb6416f0113b04181","602110864497cf011d9c0822","0","j","NA","j","j","j","j","j","630","NA","2681","10203","5104","27307","630","2","legacy","1024","2","48000","-16","task","5206889","odd","NA","28989","33678","30996","207768","6716","22064","16956","208274","121629","207759","208275","207625","33678","208908","27368","207125","6699","191674","Lexical Decision Task","79","55764","85","yes","1024"
"3.218535505","7.85","7","goat","word","93.02325581395348","93.02325581395348","658.2093023255813","658.2093023255813","black","no","legacy","legacy","legacy","0","uniform","1","undefined","undefined","undefined","1","j","0","0","0","0","85","0","0","0","85","0","81","85","81","0","81","3","85","0","85","Thu Feb 18 11:53:26 2021","The main experiment item","yes","Lexical_Decision_Task.osexp","/Users/clionawalker","no","Andale Mono","no","18","no","white","no","yes","576","legacy","81","81","3","/Users/clionawalker/subject-5206889.csv","legacy","Lentiform Loewenfeld","3.3.7","yes","yes","600bd7cfb6416f0113b04181","602110864497cf011d9c0822","0","j","NA","j","j","j","j","j","842","NA","2681","10203","5104","27307","842","2","legacy","1024","2","48000","-16","task","5206889","odd","NA","28989","33678","30996","209561","6716","22064","16956","210069","121629","209552","210070","209419","33678","210917","27368","208919","6699","191674","Lexical Decision Task","80","56606","86","yes","1024"
"3.368162872","0","4","ferk","non-word","93.10344827586206","93.10344827586206","656.8390804597701","656.8390804597701","black","no","legacy","legacy","legacy","0","uniform","1","undefined","undefined","undefined","1","f","0","0","0","0","86","0","0","0","86","0","82","86","82","0","82","3","86","0","86","Thu Feb 18 11:53:26 2021","The main experiment item","yes","Lexical_Decision_Task.osexp","/Users/clionawalker","no","Andale Mono","no","18","no","white","no","yes","576","legacy","82","82","3","/Users/clionawalker/subject-5206889.csv","legacy","Lentiform Loewenfeld","3.3.7","yes","yes","600bd7cfb6416f0113b04181","602110864497cf011d9c0822","0","f","NA","j","j","j","j","f","539","NA","2681","10203","5104","27307","539","2","legacy","1024","2","48000","-16","task","5206889","odd","NA","28989","33678","30996","211569","6716","22064","16956","212076","121629","211561","212077","211427","33678","212620","27368","210927","6699","191674","Lexical Decision Task","81","57145","87","yes","1024"
"3.372543801","9.24","8","coat","word","93.18181818181819","93.18181818181819","657.3068181818181","657.3068181818181","black","no","legacy","legacy","legacy","0","uniform","1","undefined","undefined","undefined","1","j","0","0","0","0","87","0","0","0","87","0","83","87","83","0","83","3","87","0","87","Thu Feb 18 11:53:26 2021","The main experiment item","yes","Lexical_Decision_Task.osexp","/Users/clionawalker","no","Andale Mono","no","18","no","white","no","yes","576","legacy","83","83","3","/Users/clionawalker/subject-5206889.csv","legacy","Lentiform Loewenfeld","3.3.7","yes","yes","600bd7cfb6416f0113b04181","602110864497cf011d9c0822","0","j","NA","j","j","j","j","j","698","NA","2681","10203","5104","27307","698","2","legacy","1024","2","48000","-16","task","5206889","odd","NA","28989","33678","30996","213274","6716","22064","16956","213782","121629","213266","213782","213130","33678","214484","27368","212629","6699","191674","Lexical Decision Task","82","57843","88","yes","1024"
"3.248054965","7.86","5","glow","word","93.25842696629213","93.25842696629213","657.2696629213483","657.2696629213483","black","no","legacy","legacy","legacy","0","uniform","1","undefined","undefined","undefined","1","j","0","0","0","0","88","0","0","0","88","0","84","88","84","0","84","3","88","0","88","Thu Feb 18 11:53:26 2021","The main experiment item","yes","Lexical_Decision_Task.osexp","/Users/clionawalker","no","Andale Mono","no","18","no","white","no","yes","576","legacy","84","84","3","/Users/clionawalker/subject-5206889.csv","legacy","Lentiform Loewenfeld","3.3.7","yes","yes","600bd7cfb6416f0113b04181","602110864497cf011d9c0822","0","j","NA","j","j","j","j","j","654","NA","2681","10203","5104","27307","654","2","legacy","1024","2","48000","-16","task","5206889","odd","NA","28989","33678","30996","215140","6716","22064","16956","215647","121629","215131","215647","214995","33678","216304","27368","214495","6699","191674","Lexical Decision Task","83","58497","89","yes","1024"
"2.821076612","0","4","lult","non-word","93.33333333333333","93.33333333333333","661.1111111111111","661.1111111111111","black","no","legacy","legacy","legacy","0","uniform","1","undefined","undefined","undefined","1","f","0","0","0","0","89","0","0","0","89","0","85","89","85","0","85","3","89","0","89","Thu Feb 18 11:53:26 2021","The main experiment item","yes","Lexical_Decision_Task.osexp","/Users/clionawalker","no","Andale Mono","no","18","no","white","no","yes","576","legacy","85","85","3","/Users/clionawalker/subject-5206889.csv","legacy","Lentiform Loewenfeld","3.3.7","yes","yes","600bd7cfb6416f0113b04181","602110864497cf011d9c0822","0","f","NA","j","j","j","j","f","1003","NA","2681","10203","5104","27307","1003","2","legacy","1024","2","48000","-16","task","5206889","odd","NA","28989","33678","30996","216958","6716","22064","16956","217464","121629","216950","217464","216815","33678","218471","27368","216315","6699","191674","Lexical Decision Task","84","59500","90","yes","1024"
"2.75025376","10.2","6","jump","word","93.4065934065934","93.4065934065934","659.6373626373627","659.6373626373627","black","no","legacy","legacy","legacy","0","uniform","1","undefined","undefined","undefined","1","j","0","0","0","0","90","0","0","0","90","0","86","90","86","0","86","3","90","0","90","Thu Feb 18 11:53:26 2021","The main experiment item","yes","Lexical_Decision_Task.osexp","/Users/clionawalker","no","Andale Mono","no","18","no","white","no","yes","576","legacy","86","86","3","/Users/clionawalker/subject-5206889.csv","legacy","Lentiform Loewenfeld","3.3.7","yes","yes","600bd7cfb6416f0113b04181","602110864497cf011d9c0822","0","j","NA","j","j","j","j","j","527","NA","2681","10203","5104","27307","527","2","legacy","1024","2","48000","-16","task","5206889","odd","NA","28989","33678","30996","219126","6716","22064","16956","219634","121629","219118","219635","218982","33678","220166","27368","218482","6699","191674","Lexical Decision Task","85","60027","91","yes","1024"
"2.713490543","0","3","feps","non-word","93.47826086956522","93.47826086956522","658.445652173913","658.445652173913","black","no","legacy","legacy","legacy","0","uniform","1","undefined","undefined","undefined","1","f","0","0","0","0","91","0","0","0","91","0","87","91","87","0","87","3","91","0","91","Thu Feb 18 11:53:26 2021","The main experiment item","yes","Lexical_Decision_Task.osexp","/Users/clionawalker","no","Andale Mono","no","18","no","white","no","yes","576","legacy","87","87","3","/Users/clionawalker/subject-5206889.csv","legacy","Lentiform Loewenfeld","3.3.7","yes","yes","600bd7cfb6416f0113b04181","602110864497cf011d9c0822","0","f","NA","j","j","j","j","f","550","NA","2681","10203","5104","27307","550","2","legacy","1024","2","48000","-16","task","5206889","odd","NA","28989","33678","30996","220820","6716","22064","16956","221327","121629","220812","221327","220676","33678","221880","27368","220176","6699","191674","Lexical Decision Task","86","60577","92","yes","1024"
"3.134602053","0","8","jart","non-word","93.54838709677419","93.54838709677419","657.9569892473119","657.9569892473119","black","no","legacy","legacy","legacy","0","uniform","1","undefined","undefined","undefined","1","f","0","0","0","0","92","0","0","0","92","0","88","92","88","0","88","3","92","0","92","Thu Feb 18 11:53:26 2021","The main experiment item","yes","Lexical_Decision_Task.osexp","/Users/clionawalker","no","Andale Mono","no","18","no","white","no","yes","576","legacy","88","88","3","/Users/clionawalker/subject-5206889.csv","legacy","Lentiform Loewenfeld","3.3.7","yes","yes","600bd7cfb6416f0113b04181","602110864497cf011d9c0822","0","f","NA","j","j","j","j","f","613","NA","2681","10203","5104","27307","613","2","legacy","1024","2","48000","-16","task","5206889","odd","NA","28989","33678","30996","222537","6716","22064","16956","223044","121629","222527","223045","222392","33678","223662","27368","221892","6699","191674","Lexical Decision Task","87","61190","93","yes","1024"
"3.431095062","5.74","9","perk","word","93.61702127659575","93.61702127659575","659.0425531914893","659.0425531914893","black","no","legacy","legacy","legacy","0","uniform","1","undefined","undefined","undefined","1","j","0","0","0","0","93","0","0","0","93","0","89","93","89","0","89","3","93","0","93","Thu Feb 18 11:53:26 2021","The main experiment item","yes","Lexical_Decision_Task.osexp","/Users/clionawalker","no","Andale Mono","no","18","no","white","no","yes","576","legacy","89","89","3","/Users/clionawalker/subject-5206889.csv","legacy","Lentiform Loewenfeld","3.3.7","yes","yes","600bd7cfb6416f0113b04181","602110864497cf011d9c0822","0","j","NA","j","j","j","j","j","760","NA","2681","10203","5104","27307","760","2","legacy","1024","2","48000","-16","task","5206889","odd","NA","28989","33678","30996","224318","6716","22064","16956","224825","121629","224309","224826","224172","33678","225589","27368","223672","6699","191674","Lexical Decision Task","88","61950","94","yes","1024"
"3.531734309","0","6","lerd","non-word","93.6842105263158","93.6842105263158","658.3789473684211","658.3789473684211","black","no","legacy","legacy","legacy","0","uniform","1","undefined","undefined","undefined","1","f","0","0","0","0","94","0","0","0","94","0","90","94","90","0","90","3","94","0","94","Thu Feb 18 11:53:26 2021","The main experiment item","yes","Lexical_Decision_Task.osexp","/Users/clionawalker","no","Andale Mono","no","18","no","white","no","yes","576","legacy","90","90","3","/Users/clionawalker/subject-5206889.csv","legacy","Lentiform Loewenfeld","3.3.7","yes","yes","600bd7cfb6416f0113b04181","602110864497cf011d9c0822","0","f","NA","j","j","j","j","f","596","NA","2681","10203","5104","27307","596","2","legacy","1024","2","48000","-16","task","5206889","odd","NA","28989","33678","30996","226292","6716","22064","16956","226800","121629","226280","226801","226100","33678","227401","27368","225600","6699","191674","Lexical Decision Task","89","62546","95","yes","1024"
"2.698387659","6.66","7","skid","word","92.70833333333333","92.70833333333333","657.2708333333334","657.2708333333334","black","no","legacy","legacy","legacy","0","uniform","0","undefined","undefined","undefined","0","j","0","0","0","0","95","0","0","0","95","0","91","95","91","0","91","3","95","0","95","Thu Feb 18 11:53:26 2021","The main experiment item","yes","Lexical_Decision_Task.osexp","/Users/clionawalker","no","Andale Mono","no","18","no","white","no","yes","576","legacy","91","91","3","/Users/clionawalker/subject-5206889.csv","legacy","Lentiform Loewenfeld","3.3.7","yes","yes","600bd7cfb6416f0113b04181","602110864497cf011d9c0822","0","f","NA","j","j","j","j","f","552","NA","2681","10203","5104","27307","552","2","legacy","1024","2","48000","-16","task","5206889","odd","NA","28989","33678","30996","228057","6716","22064","16956","228564","121629","228048","228565","227912","33678","229123","27368","227411","6699","191674","Lexical Decision Task","89","63098","96","yes","1024"
"2.86332286","6.71","2","feud","word","92.78350515463917","92.78350515463917","659.7113402061856","659.7113402061856","black","no","legacy","legacy","legacy","0","uniform","1","undefined","undefined","undefined","1","j","0","0","0","0","96","0","0","0","96","0","92","96","92","0","92","3","96","0","96","Thu Feb 18 11:53:26 2021","The main experiment item","yes","Lexical_Decision_Task.osexp","/Users/clionawalker","no","Andale Mono","no","18","no","white","no","yes","576","legacy","92","92","3","/Users/clionawalker/subject-5206889.csv","legacy","Lentiform Loewenfeld","3.3.7","yes","yes","600bd7cfb6416f0113b04181","602110864497cf011d9c0822","0","j","NA","j","j","j","j","j","894","NA","2681","10203","5104","27307","894","2","legacy","1024","2","48000","-16","task","5206889","odd","NA","28989","33678","30996","230781","6716","22064","16956","231289","121629","230769","231289","230635","33678","232187","27368","227411","6699","229134","Lexical Decision Task","90","63992","97","yes","1024"
"2.784379519","0","2","snaf","non-word","92.85714285714286","92.85714285714286","658.4387755102041","658.4387755102041","black","no","legacy","legacy","legacy","0","uniform","1","undefined","undefined","undefined","1","f","0","0","0","0","97","0","0","0","97","0","93","97","93","0","93","3","97","0","97","Thu Feb 18 11:53:26 2021","The main experiment item","yes","Lexical_Decision_Task.osexp","/Users/clionawalker","no","Andale Mono","no","18","no","white","no","yes","576","legacy","93","93","3","/Users/clionawalker/subject-5206889.csv","legacy","Lentiform Loewenfeld","3.3.7","yes","yes","600bd7cfb6416f0113b04181","602110864497cf011d9c0822","0","f","NA","j","j","j","j","f","535","NA","2681","10203","5104","27307","535","2","legacy","1024","2","48000","-16","task","5206889","odd","NA","28989","33678","30996","232842","6716","22064","16956","233354","121629","232832","233354","232697","33678","233892","27368","232197","6699","229134","Lexical Decision Task","91","64527","98","yes","1024"
"3.149629599","0","2","cleb","non-word","92.92929292929293","92.92929292929293","657","657","black","no","legacy","legacy","legacy","0","uniform","1","undefined","undefined","undefined","1","f","0","0","0","0","98","0","0","0","98","0","94","98","94","0","94","3","98","0","98","Thu Feb 18 11:53:26 2021","The main experiment item","yes","Lexical_Decision_Task.osexp","/Users/clionawalker","no","Andale Mono","no","18","no","white","no","yes","576","legacy","94","94","3","/Users/clionawalker/subject-5206889.csv","legacy","Lentiform Loewenfeld","3.3.7","yes","yes","600bd7cfb6416f0113b04181","602110864497cf011d9c0822","0","f","NA","j","j","j","j","f","516","NA","2681","10203","5104","27307","516","2","legacy","1024","2","48000","-16","task","5206889","odd","NA","28989","33678","30996","234547","6716","22064","16956","235055","121629","234537","235056","234403","33678","235576","27368","233903","6699","229134","Lexical Decision Task","92","65043","99","yes","1024"
"3.307211407","6.07","7","honk","word","93","93","657.84","657.84","black","no","legacy","legacy","legacy","0","uniform","1","undefined","undefined","undefined","1","j","0","0","0","0","99","0","0","0","99","0","95","99","95","0","95","3","99","0","99","Thu Feb 18 11:53:26 2021","The main experiment item","yes","Lexical_Decision_Task.osexp","/Users/clionawalker","no","Andale Mono","no","18","no","white","no","yes","576","legacy","95","95","3","/Users/clionawalker/subject-5206889.csv","legacy","Lentiform Loewenfeld","3.3.7","yes","yes","600bd7cfb6416f0113b04181","602110864497cf011d9c0822","0","j","NA","j","j","j","j","j","741","NA","2681","10203","5104","27307","741","2","legacy","1024","2","48000","-16","task","5206889","odd","NA","28989","33678","30996","236228","6716","22064","16956","236736","121629","236220","236737","236086","33678","237481","27368","235586","6699","229134","Lexical Decision Task","93","65784","100","yes","1024"
"2.576725172","0","8","gowl","non-word","93.06930693069307","93.06930693069307","660.3168316831683","660.3168316831683","black","no","legacy","legacy","legacy","0","uniform","1","undefined","undefined","undefined","1","f","0","0","0","0","100","0","0","0","100","0","96","100","96","0","96","3","100","0","100","Thu Feb 18 11:53:26 2021","The main experiment item","yes","Lexical_Decision_Task.osexp","/Users/clionawalker","no","Andale Mono","no","18","no","white","no","yes","576","legacy","96","96","3","/Users/clionawalker/subject-5206889.csv","legacy","Lentiform Loewenfeld","3.3.7","yes","yes","600bd7cfb6416f0113b04181","602110864497cf011d9c0822","0","f","NA","j","j","j","j","f","908","NA","2681","10203","5104","27307","908","2","legacy","1024","2","48000","-16","task","5206889","odd","NA","28989","33678","30996","238136","6716","22064","16956","238642","121629","238127","238642","237991","33678","239555","27368","237491","6699","229134","Lexical Decision Task","94","66692","101","yes","1024"
"2.696356389","0","1","pizz","non-word","93.13725490196079","93.13725490196079","663.2450980392157","663.2450980392157","black","no","legacy","legacy","legacy","0","uniform","1","undefined","undefined","undefined","1","f","0","0","0","0","101","0","0","0","101","0","97","101","97","0","97","3","101","0","101","Thu Feb 18 11:53:26 2021","The main experiment item","yes","Lexical_Decision_Task.osexp","/Users/clionawalker","no","Andale Mono","no","18","no","white","no","yes","576","legacy","97","97","3","/Users/clionawalker/subject-5206889.csv","legacy","Lentiform Loewenfeld","3.3.7","yes","yes","600bd7cfb6416f0113b04181","602110864497cf011d9c0822","0","f","NA","j","j","j","j","f","959","NA","2681","10203","5104","27307","959","2","legacy","1024","2","48000","-16","task","5206889","odd","NA","28989","33678","30996","240206","6716","22064","16956","240713","121629","240198","240713","240065","33678","241676","27368","239564","6699","229134","Lexical Decision Task","95","67651","102","yes","1024"
"2.892836167","10.01","5","soft","word","93.20388349514563","93.20388349514563","662.5145631067961","662.5145631067961","black","no","legacy","legacy","legacy","0","uniform","1","undefined","undefined","undefined","1","j","0","0","0","0","102","0","0","0","102","0","98","102","98","0","98","3","102","0","102","Thu Feb 18 11:53:26 2021","The main experiment item","yes","Lexical_Decision_Task.osexp","/Users/clionawalker","no","Andale Mono","no","18","no","white","no","yes","576","legacy","98","98","3","/Users/clionawalker/subject-5206889.csv","legacy","Lentiform Loewenfeld","3.3.7","yes","yes","600bd7cfb6416f0113b04181","602110864497cf011d9c0822","0","j","NA","j","j","j","j","j","588","NA","2681","10203","5104","27307","588","2","legacy","1024","2","48000","-16","task","5206889","odd","NA","28989","33678","30996","242329","6716","22064","16956","242838","121629","242322","242838","242187","33678","243431","27368","241686","6699","229134","Lexical Decision Task","96","68239","103","yes","1024"
