"Log_BG","Log_Freq_HAL","Ortho_N","Stimulus","Type","acc","accuracy","average_response_time","avg_rt","background","bidi","canvas_backend","clock_backend","color_backend","compensation","coordinates","correct","correct_Experimental_intro","correct_Introduction","correct_Practice_intro","correct_experimenter_kb","correct_response","count_End_Of_Experiment","count_End_Of_Practice","count_Experimental_Loop","count_Experimental_intro","count_Fixation","count_Introduction","count_Practice_Loop","count_Practice_intro","count_Stimulus","count_block_break_feedback","count_experimental_sequence","count_experimenter_kb","count_increment_trial_count","count_init_trial_count","count_logger","count_practice_sequence","count_right","count_task","count_wrong","datetime","description","disable_garbage_collection","experiment_file","experiment_path","font_bold","font_family","font_italic","font_size","font_underline","foreground","form_clicks","fullscreen","height","keyboard_backend","live_row","live_row_Experimental_Loop","live_row_Practice_Loop","logfile","mouse_backend","opensesame_codename","opensesame_version","osf_always_upload_data","osf_always_upload_experiment","osf_datanode_id","osf_id","repeat_cycle","response","response_End_Of_Experiment","response_Experimental_intro","response_Introduction","response_Practice_intro","response_block_break_feedback","response_experimenter_kb","response_time","response_time_End_Of_Experiment","response_time_Experimental_intro","response_time_Introduction","response_time_Practice_intro","response_time_block_break_feedback","response_time_experimenter_kb","round_decimals","sampler_backend","sound_buf_size","sound_channels","sound_freq","sound_sample_size","start","subject_nr","subject_parity","time_End_Of_Experiment","time_End_Of_Practice","time_Experimental_Loop","time_Experimental_intro","time_Fixation","time_Introduction","time_Practice_Loop","time_Practice_intro","time_Stimulus","time_block_break_feedback","time_experimental_sequence","time_experimenter_kb","time_increment_trial_count","time_init_trial_count","time_logger","time_practice_sequence","time_right","time_task","time_wrong","title","total_correct","total_response_time","total_responses","uniform_coordinates","width"
"3.197740804","6.74","3","ache","word","100","100","819.2","819.2","black","no","legacy","legacy","legacy","0","uniform","1","undefined","undefined","undefined","1","j","0","0","0","0","4","0","0","0","4","NA","0","4","0","0","0","3","4","0","4","Thu Mar  4 15:25:37 2021","The main experiment item","yes","Lexical_Decision_Task.osexp","/Users/norah/Downloads","no","Andale Mono","no","18","no","white","no","yes","576","legacy","0","0","3","/Users/norah/Downloads/3. Psychology/3. Cognition and Language/subject-5210427.csv","legacy","Lentiform Loewenfeld","3.3.8","yes","yes","600bd7cfb6416f0113b04181","602110864497cf011d9c0822","0","j","NA","space","space","space","NA","j","587","NA","2297","4218","1100","NA","587","2","legacy","1024","2","48000","-16","task","5210427","odd","NA","17358","21658","19361","21683","4211","9551","8448","22187","NA","21681","22187","NA","21658","22774","15752","16827","4201","NA","Lexical Decision Task","5","4096","5","yes","1024"
"3.168400243","9.12","6","horn","word","100","100","756.6666666666666","756.6666666666666","black","no","legacy","legacy","legacy","0","uniform","1","undefined","undefined","undefined","1","j","0","0","0","0","5","0","0","0","5","NA","1","5","1","0","1","3","5","0","5","Thu Mar  4 15:25:37 2021","The main experiment item","yes","Lexical_Decision_Task.osexp","/Users/norah/Downloads","no","Andale Mono","no","18","no","white","no","yes","576","legacy","1","1","3","/Users/norah/Downloads/3. Psychology/3. Cognition and Language/subject-5210427.csv","legacy","Lentiform Loewenfeld","3.3.8","yes","yes","600bd7cfb6416f0113b04181","602110864497cf011d9c0822","0","j","NA","space","space","space","NA","j","444","NA","2297","4218","1100","NA","444","2","legacy","1024","2","48000","-16","task","5210427","odd","NA","17358","21658","19361","23341","4211","9551","8448","23844","NA","23339","23844","23280","21658","24289","15752","22780","4201","NA","Lexical Decision Task","6","4540","6","yes","1024"
"2.875447132","0","9","jelt","non-word","100","100","742.5714285714286","742.5714285714286","black","no","legacy","legacy","legacy","0","uniform","1","undefined","undefined","undefined","1","f","0","0","0","0","6","0","0","0","6","NA","2","6","2","0","2","3","6","0","6","Thu Mar  4 15:25:37 2021","The main experiment item","yes","Lexical_Decision_Task.osexp","/Users/norah/Downloads","no","Andale Mono","no","18","no","white","no","yes","576","legacy","2","2","3","/Users/norah/Downloads/3. Psychology/3. Cognition and Language/subject-5210427.csv","legacy","Lentiform Loewenfeld","3.3.8","yes","yes","600bd7cfb6416f0113b04181","602110864497cf011d9c0822","0","f","NA","space","space","space","NA","f","658","NA","2297","4218","1100","NA","658","2","legacy","1024","2","48000","-16","task","5210427","odd","NA","17358","21658","19361","24853","4211","9551","8448","25355","NA","24850","25356","24792","21658","26014","15752","24292","4201","NA","Lexical Decision Task","7","5198","7","yes","1024"
"3.299579929","0","2","flis","non-word","100","100","718.375","718.375","black","no","legacy","legacy","legacy","0","uniform","1","undefined","undefined","undefined","1","f","0","0","0","0","7","0","0","0","7","NA","3","7","3","0","3","3","7","0","7","Thu Mar  4 15:25:37 2021","The main experiment item","yes","Lexical_Decision_Task.osexp","/Users/norah/Downloads","no","Andale Mono","no","18","no","white","no","yes","576","legacy","3","3","3","/Users/norah/Downloads/3. Psychology/3. Cognition and Language/subject-5210427.csv","legacy","Lentiform Loewenfeld","3.3.8","yes","yes","600bd7cfb6416f0113b04181","602110864497cf011d9c0822","0","f","NA","space","space","space","NA","f","549","NA","2297","4218","1100","NA","549","2","legacy","1024","2","48000","-16","task","5210427","odd","NA","17358","21658","19361","26579","4211","9551","8448","27082","NA","26577","27082","26519","21658","27631","15752","26018","4201","NA","Lexical Decision Task","8","5747","8","yes","1024"
"2.809559715","8.44","4","volt","word","100","100","697.5555555555555","697.5555555555555","black","no","legacy","legacy","legacy","0","uniform","1","undefined","undefined","undefined","1","j","0","0","0","0","8","0","0","0","8","NA","4","8","4","0","4","3","8","0","8","Thu Mar  4 15:25:37 2021","The main experiment item","yes","Lexical_Decision_Task.osexp","/Users/norah/Downloads","no","Andale Mono","no","18","no","white","no","yes","576","legacy","4","4","3","/Users/norah/Downloads/3. Psychology/3. Cognition and Language/subject-5210427.csv","legacy","Lentiform Loewenfeld","3.3.8","yes","yes","600bd7cfb6416f0113b04181","602110864497cf011d9c0822","0","j","NA","space","space","space","NA","j","531","NA","2297","4218","1100","NA","531","2","legacy","1024","2","48000","-16","task","5210427","odd","NA","17358","21658","19361","28196","4211","9551","8448","28699","NA","28193","28699","28135","21658","29230","15752","27635","4201","NA","Lexical Decision Task","9","6278","9","yes","1024"
"3.159867847","5.98","5","brim","word","100","100","704.9","704.9","black","no","legacy","legacy","legacy","0","uniform","1","undefined","undefined","undefined","1","j","0","0","0","0","9","0","0","0","9","NA","5","9","5","0","5","3","9","0","9","Thu Mar  4 15:25:37 2021","The main experiment item","yes","Lexical_Decision_Task.osexp","/Users/norah/Downloads","no","Andale Mono","no","18","no","white","no","yes","576","legacy","5","5","3","/Users/norah/Downloads/3. Psychology/3. Cognition and Language/subject-5210427.csv","legacy","Lentiform Loewenfeld","3.3.8","yes","yes","600bd7cfb6416f0113b04181","602110864497cf011d9c0822","0","j","NA","space","space","space","NA","j","771","NA","2297","4218","1100","NA","771","2","legacy","1024","2","48000","-16","task","5210427","odd","NA","17358","21658","19361","29794","4211","9551","8448","30297","NA","29792","30298","29734","21658","31069","15752","29234","4201","NA","Lexical Decision Task","10","7049","10","yes","1024"
"2.884795364","0","6","flob","non-word","100","100","695.1818181818181","695.1818181818181","black","no","legacy","legacy","legacy","0","uniform","1","undefined","undefined","undefined","1","f","0","0","0","0","10","0","0","0","10","NA","6","10","6","0","6","3","10","0","10","Thu Mar  4 15:25:37 2021","The main experiment item","yes","Lexical_Decision_Task.osexp","/Users/norah/Downloads","no","Andale Mono","no","18","no","white","no","yes","576","legacy","6","6","3","/Users/norah/Downloads/3. Psychology/3. Cognition and Language/subject-5210427.csv","legacy","Lentiform Loewenfeld","3.3.8","yes","yes","600bd7cfb6416f0113b04181","602110864497cf011d9c0822","0","f","NA","space","space","space","NA","f","598","NA","2297","4218","1100","NA","598","2","legacy","1024","2","48000","-16","task","5210427","odd","NA","17358","21658","19361","31632","4211","9551","8448","32135","NA","31629","32135","31573","21658","32733","15752","31073","4201","NA","Lexical Decision Task","11","7647","11","yes","1024"
"3.282244367","0","6","fute","non-word","100","100","720.1666666666666","720.1666666666666","black","no","legacy","legacy","legacy","0","uniform","1","undefined","undefined","undefined","1","f","0","0","0","0","11","0","0","0","11","NA","7","11","7","0","7","3","11","0","11","Thu Mar  4 15:25:37 2021","The main experiment item","yes","Lexical_Decision_Task.osexp","/Users/norah/Downloads","no","Andale Mono","no","18","no","white","no","yes","576","legacy","7","7","3","/Users/norah/Downloads/3. Psychology/3. Cognition and Language/subject-5210427.csv","legacy","Lentiform Loewenfeld","3.3.8","yes","yes","600bd7cfb6416f0113b04181","602110864497cf011d9c0822","0","f","NA","space","space","space","NA","f","995","NA","2297","4218","1100","NA","995","2","legacy","1024","2","48000","-16","task","5210427","odd","NA","17358","21658","19361","33297","4211","9551","8448","33801","NA","33295","33801","33237","21658","34796","15752","32737","4201","NA","Lexical Decision Task","12","8642","12","yes","1024"
"3.133964479","0","8","graw","non-word","100","100","715","715","black","no","legacy","legacy","legacy","0","uniform","1","undefined","undefined","undefined","1","f","0","0","0","0","12","0","0","0","12","NA","8","12","8","0","8","3","12","0","12","Thu Mar  4 15:25:37 2021","The main experiment item","yes","Lexical_Decision_Task.osexp","/Users/norah/Downloads","no","Andale Mono","no","18","no","white","no","yes","576","legacy","8","8","3","/Users/norah/Downloads/3. Psychology/3. Cognition and Language/subject-5210427.csv","legacy","Lentiform Loewenfeld","3.3.8","yes","yes","600bd7cfb6416f0113b04181","602110864497cf011d9c0822","0","f","NA","space","space","space","NA","f","653","NA","2297","4218","1100","NA","653","2","legacy","1024","2","48000","-16","task","5210427","odd","NA","17358","21658","19361","35358","4211","9551","8448","35861","NA","35355","35861","35299","21658","36514","15752","34799","4201","NA","Lexical Decision Task","13","9295","13","yes","1024"
"3.22685757","9.99","7","roll","word","100","100","695.2142857142857","695.2142857142857","black","no","legacy","legacy","legacy","0","uniform","1","undefined","undefined","undefined","1","j","0","0","0","0","13","0","0","0","13","NA","9","13","9","0","9","3","13","0","13","Thu Mar  4 15:25:37 2021","The main experiment item","yes","Lexical_Decision_Task.osexp","/Users/norah/Downloads","no","Andale Mono","no","18","no","white","no","yes","576","legacy","9","9","3","/Users/norah/Downloads/3. Psychology/3. Cognition and Language/subject-5210427.csv","legacy","Lentiform Loewenfeld","3.3.8","yes","yes","600bd7cfb6416f0113b04181","602110864497cf011d9c0822","0","j","NA","space","space","space","NA","j","438","NA","2297","4218","1100","NA","438","2","legacy","1024","2","48000","-16","task","5210427","odd","NA","17358","21658","19361","37077","4211","9551","8448","37580","NA","37074","37580","37018","21658","38019","15752","36518","4201","NA","Lexical Decision Task","14","9733","14","yes","1024"
"3.531734309","0","6","lerd","non-word","100","100","687.7333333333333","687.7333333333333","black","no","legacy","legacy","legacy","0","uniform","1","undefined","undefined","undefined","1","f","0","0","0","0","14","0","0","0","14","NA","10","14","10","0","10","3","14","0","14","Thu Mar  4 15:25:37 2021","The main experiment item","yes","Lexical_Decision_Task.osexp","/Users/norah/Downloads","no","Andale Mono","no","18","no","white","no","yes","576","legacy","10","10","3","/Users/norah/Downloads/3. Psychology/3. Cognition and Language/subject-5210427.csv","legacy","Lentiform Loewenfeld","3.3.8","yes","yes","600bd7cfb6416f0113b04181","602110864497cf011d9c0822","0","f","NA","space","space","space","NA","f","583","NA","2297","4218","1100","NA","583","2","legacy","1024","2","48000","-16","task","5210427","odd","NA","17358","21658","19361","38582","4211","9551","8448","39085","NA","38579","39085","38523","21658","39668","15752","38022","4201","NA","Lexical Decision Task","15","10316","15","yes","1024"
"3.003891166","8.05","2","frog","word","100","100","674.9375","674.9375","black","no","legacy","legacy","legacy","0","uniform","1","undefined","undefined","undefined","1","j","0","0","0","0","15","0","0","0","15","NA","11","15","11","0","11","3","15","0","15","Thu Mar  4 15:25:37 2021","The main experiment item","yes","Lexical_Decision_Task.osexp","/Users/norah/Downloads","no","Andale Mono","no","18","no","white","no","yes","576","legacy","11","11","3","/Users/norah/Downloads/3. Psychology/3. Cognition and Language/subject-5210427.csv","legacy","Lentiform Loewenfeld","3.3.8","yes","yes","600bd7cfb6416f0113b04181","602110864497cf011d9c0822","0","j","NA","space","space","space","NA","j","483","NA","2297","4218","1100","NA","483","2","legacy","1024","2","48000","-16","task","5210427","odd","NA","17358","21658","19361","40231","4211","9551","8448","40734","NA","40228","40734","40172","21658","41218","15752","39672","4201","NA","Lexical Decision Task","16","10799","16","yes","1024"
"2.839268497","0","8","maft","non-word","100","100","670.2352941176471","670.2352941176471","black","no","legacy","legacy","legacy","0","uniform","1","undefined","undefined","undefined","1","f","0","0","0","0","16","0","0","0","16","NA","12","16","12","0","12","3","16","0","16","Thu Mar  4 15:25:37 2021","The main experiment item","yes","Lexical_Decision_Task.osexp","/Users/norah/Downloads","no","Andale Mono","no","18","no","white","no","yes","576","legacy","12","12","3","/Users/norah/Downloads/3. Psychology/3. Cognition and Language/subject-5210427.csv","legacy","Lentiform Loewenfeld","3.3.8","yes","yes","600bd7cfb6416f0113b04181","602110864497cf011d9c0822","0","f","NA","space","space","space","NA","f","595","NA","2297","4218","1100","NA","595","2","legacy","1024","2","48000","-16","task","5210427","odd","NA","17358","21658","19361","41781","4211","9551","8448","42284","NA","41779","42284","41722","21658","42880","15752","41222","4201","NA","Lexical Decision Task","17","11394","17","yes","1024"
"3.064581521","5.51","6","cask","word","100","100","670.5555555555555","670.5555555555555","black","no","legacy","legacy","legacy","0","uniform","1","undefined","undefined","undefined","1","j","0","0","0","0","17","0","0","0","17","NA","13","17","13","0","13","3","17","0","17","Thu Mar  4 15:25:37 2021","The main experiment item","yes","Lexical_Decision_Task.osexp","/Users/norah/Downloads","no","Andale Mono","no","18","no","white","no","yes","576","legacy","13","13","3","/Users/norah/Downloads/3. Psychology/3. Cognition and Language/subject-5210427.csv","legacy","Lentiform Loewenfeld","3.3.8","yes","yes","600bd7cfb6416f0113b04181","602110864497cf011d9c0822","0","j","NA","space","space","space","NA","j","676","NA","2297","4218","1100","NA","676","2","legacy","1024","2","48000","-16","task","5210427","odd","NA","17358","21658","19361","43442","4211","9551","8448","43945","NA","43440","43946","43384","21658","44623","15752","42884","4201","NA","Lexical Decision Task","18","12070","18","yes","1024"
"2.842815106","7.86","8","lump","word","100","100","663.6315789473684","663.6315789473684","black","no","legacy","legacy","legacy","0","uniform","1","undefined","undefined","undefined","1","j","0","0","0","0","18","0","0","0","18","NA","14","18","14","0","14","3","18","0","18","Thu Mar  4 15:25:37 2021","The main experiment item","yes","Lexical_Decision_Task.osexp","/Users/norah/Downloads","no","Andale Mono","no","18","no","white","no","yes","576","legacy","14","14","3","/Users/norah/Downloads/3. Psychology/3. Cognition and Language/subject-5210427.csv","legacy","Lentiform Loewenfeld","3.3.8","yes","yes","600bd7cfb6416f0113b04181","602110864497cf011d9c0822","0","j","NA","space","space","space","NA","j","539","NA","2297","4218","1100","NA","539","2","legacy","1024","2","48000","-16","task","5210427","odd","NA","17358","21658","19361","45186","4211","9551","8448","45689","NA","45183","45689","45127","21658","46229","15752","44627","4201","NA","Lexical Decision Task","19","12609","19","yes","1024"
"2.981215883","10.66","5","hair","word","100","100","654.05","654.05","black","no","legacy","legacy","legacy","0","uniform","1","undefined","undefined","undefined","1","j","0","0","0","0","19","0","0","0","19","NA","15","19","15","0","15","3","19","0","19","Thu Mar  4 15:25:37 2021","The main experiment item","yes","Lexical_Decision_Task.osexp","/Users/norah/Downloads","no","Andale Mono","no","18","no","white","no","yes","576","legacy","15","15","3","/Users/norah/Downloads/3. Psychology/3. Cognition and Language/subject-5210427.csv","legacy","Lentiform Loewenfeld","3.3.8","yes","yes","600bd7cfb6416f0113b04181","602110864497cf011d9c0822","0","j","NA","space","space","space","NA","j","472","NA","2297","4218","1100","NA","472","2","legacy","1024","2","48000","-16","task","5210427","odd","NA","17358","21658","19361","46792","4211","9551","8448","47295","NA","46789","47295","46733","21658","47768","15752","46233","4201","NA","Lexical Decision Task","20","13081","20","yes","1024"
"3.208172527","10.27","7","deck","word","100","100","646.952380952381","646.952380952381","black","no","legacy","legacy","legacy","0","uniform","1","undefined","undefined","undefined","1","j","0","0","0","0","20","0","0","0","20","NA","16","20","16","0","16","3","20","0","20","Thu Mar  4 15:25:37 2021","The main experiment item","yes","Lexical_Decision_Task.osexp","/Users/norah/Downloads","no","Andale Mono","no","18","no","white","no","yes","576","legacy","16","16","3","/Users/norah/Downloads/3. Psychology/3. Cognition and Language/subject-5210427.csv","legacy","Lentiform Loewenfeld","3.3.8","yes","yes","600bd7cfb6416f0113b04181","602110864497cf011d9c0822","0","j","NA","space","space","space","NA","j","505","NA","2297","4218","1100","NA","505","2","legacy","1024","2","48000","-16","task","5210427","odd","NA","17358","21658","19361","48331","4211","9551","8448","48834","NA","48328","48834","48272","21658","49340","15752","47772","4201","NA","Lexical Decision Task","21","13586","21","yes","1024"
"2.845304797","0","6","buct","non-word","100","100","649.0909090909091","649.0909090909091","black","no","legacy","legacy","legacy","0","uniform","1","undefined","undefined","undefined","1","f","0","0","0","0","21","0","0","0","21","NA","17","21","17","0","17","3","21","0","21","Thu Mar  4 15:25:37 2021","The main experiment item","yes","Lexical_Decision_Task.osexp","/Users/norah/Downloads","no","Andale Mono","no","18","no","white","no","yes","576","legacy","17","17","3","/Users/norah/Downloads/3. Psychology/3. Cognition and Language/subject-5210427.csv","legacy","Lentiform Loewenfeld","3.3.8","yes","yes","600bd7cfb6416f0113b04181","602110864497cf011d9c0822","0","f","NA","space","space","space","NA","f","694","NA","2297","4218","1100","NA","694","2","legacy","1024","2","48000","-16","task","5210427","odd","NA","17358","21658","19361","49902","4211","9551","8448","50405","NA","49899","50405","49844","21658","51100","15752","49344","4201","NA","Lexical Decision Task","22","14280","22","yes","1024"
"3.495914186","0","4","peng","non-word","95.65217391304348","95.65217391304348","642.1739130434783","642.1739130434783","black","no","legacy","legacy","legacy","0","uniform","0","undefined","undefined","undefined","0","f","0","0","0","0","22","0","0","0","22","NA","18","22","18","0","18","3","22","0","22","Thu Mar  4 15:25:37 2021","The main experiment item","yes","Lexical_Decision_Task.osexp","/Users/norah/Downloads","no","Andale Mono","no","18","no","white","no","yes","576","legacy","18","18","3","/Users/norah/Downloads/3. Psychology/3. Cognition and Language/subject-5210427.csv","legacy","Lentiform Loewenfeld","3.3.8","yes","yes","600bd7cfb6416f0113b04181","602110864497cf011d9c0822","0","j","NA","space","space","space","NA","j","490","NA","2297","4218","1100","NA","490","2","legacy","1024","2","48000","-16","task","5210427","odd","NA","17358","21658","19361","51663","4211","9551","8448","52167","NA","51661","52167","51604","21658","52658","15752","51104","4201","NA","Lexical Decision Task","22","14770","23","yes","1024"
"2.953276337","6.32","4","thaw","word","91.66666666666667","91.66666666666667","649.375","649.375","black","no","legacy","legacy","legacy","0","uniform","0","undefined","undefined","undefined","0","j","0","0","0","0","23","0","0","0","23","NA","19","23","19","0","19","3","23","0","23","Thu Mar  4 15:25:37 2021","The main experiment item","yes","Lexical_Decision_Task.osexp","/Users/norah/Downloads","no","Andale Mono","no","18","no","white","no","yes","576","legacy","19","19","3","/Users/norah/Downloads/3. Psychology/3. Cognition and Language/subject-5210427.csv","legacy","Lentiform Loewenfeld","3.3.8","yes","yes","600bd7cfb6416f0113b04181","602110864497cf011d9c0822","0","f","NA","space","space","space","NA","f","815","NA","2297","4218","1100","NA","815","2","legacy","1024","2","48000","-16","task","5210427","odd","NA","17358","21658","19361","54224","4211","9551","8448","54727","NA","54222","54727","54161","21658","55543","15752","51104","4201","52661","Lexical Decision Task","22","15585","24","yes","1024"
"2.895974732","6.65","5","sift","word","92","92","660.76","660.76","black","no","legacy","legacy","legacy","0","uniform","1","undefined","undefined","undefined","1","j","0","0","0","0","24","0","0","0","24","NA","20","24","20","0","20","3","24","0","24","Thu Mar  4 15:25:37 2021","The main experiment item","yes","Lexical_Decision_Task.osexp","/Users/norah/Downloads","no","Andale Mono","no","18","no","white","no","yes","576","legacy","20","20","3","/Users/norah/Downloads/3. Psychology/3. Cognition and Language/subject-5210427.csv","legacy","Lentiform Loewenfeld","3.3.8","yes","yes","600bd7cfb6416f0113b04181","602110864497cf011d9c0822","0","j","NA","space","space","space","NA","j","934","NA","2297","4218","1100","NA","934","2","legacy","1024","2","48000","-16","task","5210427","odd","NA","17358","21658","19361","57110","4211","9551","8448","57613","NA","57107","57613","57047","21658","58548","15752","51104","4201","55547","Lexical Decision Task","23","16519","25","yes","1024"
"2.664328519","0","4","plux","non-word","92.3076923076923","92.3076923076923","657.1923076923077","657.1923076923077","black","no","legacy","legacy","legacy","0","uniform","1","undefined","undefined","undefined","1","f","0","0","0","0","25","0","0","0","25","NA","21","25","21","0","21","3","25","0","25","Thu Mar  4 15:25:37 2021","The main experiment item","yes","Lexical_Decision_Task.osexp","/Users/norah/Downloads","no","Andale Mono","no","18","no","white","no","yes","576","legacy","21","21","3","/Users/norah/Downloads/3. Psychology/3. Cognition and Language/subject-5210427.csv","legacy","Lentiform Loewenfeld","3.3.8","yes","yes","600bd7cfb6416f0113b04181","602110864497cf011d9c0822","0","f","NA","space","space","space","NA","f","568","NA","2297","4218","1100","NA","568","2","legacy","1024","2","48000","-16","task","5210427","odd","NA","17358","21658","19361","59110","4211","9551","8448","59613","NA","59108","59613","59051","21658","60182","15752","58551","4201","55547","Lexical Decision Task","24","17087","26","yes","1024"
"3.067070856","9.39","3","loud","word","92.5925925925926","92.5925925925926","652.2222222222222","652.2222222222222","black","no","legacy","legacy","legacy","0","uniform","1","undefined","undefined","undefined","1","j","0","0","0","0","26","0","0","0","26","NA","22","26","22","0","22","3","26","0","26","Thu Mar  4 15:25:37 2021","The main experiment item","yes","Lexical_Decision_Task.osexp","/Users/norah/Downloads","no","Andale Mono","no","18","no","white","no","yes","576","legacy","22","22","3","/Users/norah/Downloads/3. Psychology/3. Cognition and Language/subject-5210427.csv","legacy","Lentiform Loewenfeld","3.3.8","yes","yes","600bd7cfb6416f0113b04181","602110864497cf011d9c0822","0","j","NA","space","space","space","NA","j","523","NA","2297","4218","1100","NA","523","2","legacy","1024","2","48000","-16","task","5210427","odd","NA","17358","21658","19361","60744","4211","9551","8448","61247","NA","60742","61247","60685","21658","61771","15752","60185","4201","55547","Lexical Decision Task","25","17610","27","yes","1024"
"3.077974404","10.41","8","tool","word","92.85714285714286","92.85714285714286","645.5357142857143","645.5357142857143","black","no","legacy","legacy","legacy","0","uniform","1","undefined","undefined","undefined","1","j","0","0","0","0","27","0","0","0","27","NA","23","27","23","0","23","3","27","0","27","Thu Mar  4 15:25:37 2021","The main experiment item","yes","Lexical_Decision_Task.osexp","/Users/norah/Downloads","no","Andale Mono","no","18","no","white","no","yes","576","legacy","23","23","3","/Users/norah/Downloads/3. Psychology/3. Cognition and Language/subject-5210427.csv","legacy","Lentiform Loewenfeld","3.3.8","yes","yes","600bd7cfb6416f0113b04181","602110864497cf011d9c0822","0","j","NA","space","space","space","NA","j","465","NA","2297","4218","1100","NA","465","2","legacy","1024","2","48000","-16","task","5210427","odd","NA","17358","21658","19361","62334","4211","9551","8448","62837","NA","62331","62837","62275","21658","63303","15752","61774","4201","55547","Lexical Decision Task","26","18075","28","yes","1024"
"2.7084209","0","8","vump","non-word","93.10344827586206","93.10344827586206","644.0689655172414","644.0689655172414","black","no","legacy","legacy","legacy","0","uniform","1","undefined","undefined","undefined","1","f","0","0","0","0","28","0","0","0","28","NA","24","28","24","0","24","3","28","0","28","Thu Mar  4 15:25:37 2021","The main experiment item","yes","Lexical_Decision_Task.osexp","/Users/norah/Downloads","no","Andale Mono","no","18","no","white","no","yes","576","legacy","24","24","3","/Users/norah/Downloads/3. Psychology/3. Cognition and Language/subject-5210427.csv","legacy","Lentiform Loewenfeld","3.3.8","yes","yes","600bd7cfb6416f0113b04181","602110864497cf011d9c0822","0","f","NA","space","space","space","NA","f","603","NA","2297","4218","1100","NA","603","2","legacy","1024","2","48000","-16","task","5210427","odd","NA","17358","21658","19361","63867","4211","9551","8448","64370","NA","63865","64370","63806","21658","64974","15752","63306","4201","55547","Lexical Decision Task","27","18678","29","yes","1024"
"3.481012421","8.34","5","teen","word","93.33333333333333","93.33333333333333","638.6","638.6","black","no","legacy","legacy","legacy","0","uniform","1","undefined","undefined","undefined","1","j","0","0","0","0","29","0","0","0","29","NA","25","29","25","0","25","3","29","0","29","Thu Mar  4 15:25:37 2021","The main experiment item","yes","Lexical_Decision_Task.osexp","/Users/norah/Downloads","no","Andale Mono","no","18","no","white","no","yes","576","legacy","25","25","3","/Users/norah/Downloads/3. Psychology/3. Cognition and Language/subject-5210427.csv","legacy","Lentiform Loewenfeld","3.3.8","yes","yes","600bd7cfb6416f0113b04181","602110864497cf011d9c0822","0","j","NA","space","space","space","NA","j","480","NA","2297","4218","1100","NA","480","2","legacy","1024","2","48000","-16","task","5210427","odd","NA","17358","21658","19361","65537","4211","9551","8448","66040","NA","65534","66040","65478","21658","66521","15752","64978","4201","55547","Lexical Decision Task","28","19158","30","yes","1024"
"2.972357144","0","5","dasp","non-word","93.54838709677419","93.54838709677419","640.7741935483871","640.7741935483871","black","no","legacy","legacy","legacy","0","uniform","1","undefined","undefined","undefined","1","f","0","0","0","0","30","0","0","0","30","NA","26","30","26","0","26","3","30","0","30","Thu Mar  4 15:25:37 2021","The main experiment item","yes","Lexical_Decision_Task.osexp","/Users/norah/Downloads","no","Andale Mono","no","18","no","white","no","yes","576","legacy","26","26","3","/Users/norah/Downloads/3. Psychology/3. Cognition and Language/subject-5210427.csv","legacy","Lentiform Loewenfeld","3.3.8","yes","yes","600bd7cfb6416f0113b04181","602110864497cf011d9c0822","0","f","NA","space","space","space","NA","f","706","NA","2297","4218","1100","NA","706","2","legacy","1024","2","48000","-16","task","5210427","odd","NA","17358","21658","19361","67084","4211","9551","8448","67587","NA","67081","67587","67024","21658","68293","15752","66524","4201","55547","Lexical Decision Task","29","19864","31","yes","1024"
"3.2757719","0","5","slea","non-word","93.75","93.75","639.71875","639.71875","black","no","legacy","legacy","legacy","0","uniform","1","undefined","undefined","undefined","1","f","0","0","0","0","31","0","0","0","31","NA","27","31","27","0","27","3","31","0","31","Thu Mar  4 15:25:37 2021","The main experiment item","yes","Lexical_Decision_Task.osexp","/Users/norah/Downloads","no","Andale Mono","no","18","no","white","no","yes","576","legacy","27","27","3","/Users/norah/Downloads/3. Psychology/3. Cognition and Language/subject-5210427.csv","legacy","Lentiform Loewenfeld","3.3.8","yes","yes","600bd7cfb6416f0113b04181","602110864497cf011d9c0822","0","f","NA","space","space","space","NA","f","607","NA","2297","4218","1100","NA","607","2","legacy","1024","2","48000","-16","task","5210427","odd","NA","17358","21658","19361","68858","4211","9551","8448","69361","NA","68855","69361","68798","21658","69969","15752","68297","4201","55547","Lexical Decision Task","30","20471","32","yes","1024"
"3.15462682","0","6","noal","non-word","93.93939393939394","93.93939393939394","644.030303030303","644.030303030303","black","no","legacy","legacy","legacy","0","uniform","1","undefined","undefined","undefined","1","f","0","0","0","0","32","0","0","0","32","NA","28","32","28","0","28","3","32","0","32","Thu Mar  4 15:25:37 2021","The main experiment item","yes","Lexical_Decision_Task.osexp","/Users/norah/Downloads","no","Andale Mono","no","18","no","white","no","yes","576","legacy","28","28","3","/Users/norah/Downloads/3. Psychology/3. Cognition and Language/subject-5210427.csv","legacy","Lentiform Loewenfeld","3.3.8","yes","yes","600bd7cfb6416f0113b04181","602110864497cf011d9c0822","0","f","NA","space","space","space","NA","f","782","NA","2297","4218","1100","NA","782","2","legacy","1024","2","48000","-16","task","5210427","odd","NA","17358","21658","19361","70533","4211","9551","8448","71036","NA","70530","71036","70473","21658","71818","15752","69973","4201","55547","Lexical Decision Task","31","21253","33","yes","1024"
"2.821076612","0","4","lult","non-word","94.11764705882354","94.11764705882354","644","644","black","no","legacy","legacy","legacy","0","uniform","1","undefined","undefined","undefined","1","f","0","0","0","0","33","0","0","0","33","NA","29","33","29","0","29","3","33","0","33","Thu Mar  4 15:25:37 2021","The main experiment item","yes","Lexical_Decision_Task.osexp","/Users/norah/Downloads","no","Andale Mono","no","18","no","white","no","yes","576","legacy","29","29","3","/Users/norah/Downloads/3. Psychology/3. Cognition and Language/subject-5210427.csv","legacy","Lentiform Loewenfeld","3.3.8","yes","yes","600bd7cfb6416f0113b04181","602110864497cf011d9c0822","0","f","NA","space","space","space","NA","f","643","NA","2297","4218","1100","NA","643","2","legacy","1024","2","48000","-16","task","5210427","odd","NA","17358","21658","19361","72381","4211","9551","8448","72884","NA","72378","72884","72322","21658","73527","15752","71822","4201","55547","Lexical Decision Task","32","21896","34","yes","1024"
"3.168890155","0","6","thet","non-word","94.28571428571429","94.28571428571429","643.1428571428571","643.1428571428571","black","no","legacy","legacy","legacy","0","uniform","1","undefined","undefined","undefined","1","f","0","0","0","0","34","0","0","0","34","NA","30","34","30","0","30","3","34","0","34","Thu Mar  4 15:25:37 2021","The main experiment item","yes","Lexical_Decision_Task.osexp","/Users/norah/Downloads","no","Andale Mono","no","18","no","white","no","yes","576","legacy","30","30","3","/Users/norah/Downloads/3. Psychology/3. Cognition and Language/subject-5210427.csv","legacy","Lentiform Loewenfeld","3.3.8","yes","yes","600bd7cfb6416f0113b04181","602110864497cf011d9c0822","0","f","NA","space","space","space","NA","f","614","NA","2297","4218","1100","NA","614","2","legacy","1024","2","48000","-16","task","5210427","odd","NA","17358","21658","19361","74088","4211","9551","8448","74591","NA","74086","74591","74031","21658","75206","15752","73531","4201","55547","Lexical Decision Task","33","22510","35","yes","1024"
"3.302475237","0","7","leel","non-word","94.44444444444444","94.44444444444444","641.5","641.5","black","no","legacy","legacy","legacy","0","uniform","1","undefined","undefined","undefined","1","f","0","0","0","0","35","0","0","0","35","NA","31","35","31","0","31","3","35","0","35","Thu Mar  4 15:25:37 2021","The main experiment item","yes","Lexical_Decision_Task.osexp","/Users/norah/Downloads","no","Andale Mono","no","18","no","white","no","yes","576","legacy","31","31","3","/Users/norah/Downloads/3. Psychology/3. Cognition and Language/subject-5210427.csv","legacy","Lentiform Loewenfeld","3.3.8","yes","yes","600bd7cfb6416f0113b04181","602110864497cf011d9c0822","0","f","NA","space","space","space","NA","f","584","NA","2297","4218","1100","NA","584","2","legacy","1024","2","48000","-16","task","5210427","odd","NA","17358","21658","19361","75769","4211","9551","8448","76272","NA","75766","76272","75709","21658","76857","15752","75209","4201","55547","Lexical Decision Task","34","23094","36","yes","1024"
"3.366547468","0","6","plat","non-word","94.5945945945946","94.5945945945946","646.6756756756756","646.6756756756756","black","no","legacy","legacy","legacy","0","uniform","1","undefined","undefined","undefined","1","f","0","0","0","0","36","0","0","0","36","NA","32","36","32","0","32","3","36","0","36","Thu Mar  4 15:25:37 2021","The main experiment item","yes","Lexical_Decision_Task.osexp","/Users/norah/Downloads","no","Andale Mono","no","18","no","white","no","yes","576","legacy","32","32","3","/Users/norah/Downloads/3. Psychology/3. Cognition and Language/subject-5210427.csv","legacy","Lentiform Loewenfeld","3.3.8","yes","yes","600bd7cfb6416f0113b04181","602110864497cf011d9c0822","0","f","NA","space","space","space","NA","f","833","NA","2297","4218","1100","NA","833","2","legacy","1024","2","48000","-16","task","5210427","odd","NA","17358","21658","19361","77419","4211","9551","8448","77922","NA","77416","77922","77360","21658","78756","15752","76860","4201","55547","Lexical Decision Task","35","23927","37","yes","1024"
"3.137775856","7.39","5","comb","word","94.73684210526316","94.73684210526316","642.6052631578947","642.6052631578947","black","no","legacy","legacy","legacy","0","uniform","1","undefined","undefined","undefined","1","j","0","0","0","0","37","0","0","0","37","NA","33","37","33","0","33","3","37","0","37","Thu Mar  4 15:25:37 2021","The main experiment item","yes","Lexical_Decision_Task.osexp","/Users/norah/Downloads","no","Andale Mono","no","18","no","white","no","yes","576","legacy","33","33","3","/Users/norah/Downloads/3. Psychology/3. Cognition and Language/subject-5210427.csv","legacy","Lentiform Loewenfeld","3.3.8","yes","yes","600bd7cfb6416f0113b04181","602110864497cf011d9c0822","0","j","NA","space","space","space","NA","j","492","NA","2297","4218","1100","NA","492","2","legacy","1024","2","48000","-16","task","5210427","odd","NA","17358","21658","19361","79318","4211","9551","8448","79821","NA","79315","79822","79260","21658","80314","15752","78759","4201","55547","Lexical Decision Task","36","24419","38","yes","1024"
"3.431095062","5.74","9","perk","word","94.87179487179488","94.87179487179488","639.974358974359","639.974358974359","black","no","legacy","legacy","legacy","0","uniform","1","undefined","undefined","undefined","1","j","0","0","0","0","38","0","0","0","38","NA","34","38","34","0","34","3","38","0","38","Thu Mar  4 15:25:37 2021","The main experiment item","yes","Lexical_Decision_Task.osexp","/Users/norah/Downloads","no","Andale Mono","no","18","no","white","no","yes","576","legacy","34","34","3","/Users/norah/Downloads/3. Psychology/3. Cognition and Language/subject-5210427.csv","legacy","Lentiform Loewenfeld","3.3.8","yes","yes","600bd7cfb6416f0113b04181","602110864497cf011d9c0822","0","j","NA","space","space","space","NA","j","540","NA","2297","4218","1100","NA","540","2","legacy","1024","2","48000","-16","task","5210427","odd","NA","17358","21658","19361","80879","4211","9551","8448","81382","NA","80876","81382","80818","21658","81923","15752","80318","4201","55547","Lexical Decision Task","37","24959","39","yes","1024"
"3.263399331","0","8","cour","non-word","95","95","639.025","639.025","black","no","legacy","legacy","legacy","0","uniform","1","undefined","undefined","undefined","1","f","0","0","0","0","39","0","0","0","39","NA","35","39","35","0","35","3","39","0","39","Thu Mar  4 15:25:37 2021","The main experiment item","yes","Lexical_Decision_Task.osexp","/Users/norah/Downloads","no","Andale Mono","no","18","no","white","no","yes","576","legacy","35","35","3","/Users/norah/Downloads/3. Psychology/3. Cognition and Language/subject-5210427.csv","legacy","Lentiform Loewenfeld","3.3.8","yes","yes","600bd7cfb6416f0113b04181","602110864497cf011d9c0822","0","f","NA","space","space","space","NA","f","602","NA","2297","4218","1100","NA","602","2","legacy","1024","2","48000","-16","task","5210427","odd","NA","17358","21658","19361","82488","4211","9551","8448","82991","NA","82485","82991","82427","21658","83594","15752","81927","4201","55547","Lexical Decision Task","38","25561","40","yes","1024"
"2.794720352","0","9","koot","non-word","95.1219512195122","95.1219512195122","639.7560975609756","639.7560975609756","black","no","legacy","legacy","legacy","0","uniform","1","undefined","undefined","undefined","1","f","0","0","0","0","40","0","0","0","40","NA","36","40","36","0","36","3","40","0","40","Thu Mar  4 15:25:37 2021","The main experiment item","yes","Lexical_Decision_Task.osexp","/Users/norah/Downloads","no","Andale Mono","no","18","no","white","no","yes","576","legacy","36","36","3","/Users/norah/Downloads/3. Psychology/3. Cognition and Language/subject-5210427.csv","legacy","Lentiform Loewenfeld","3.3.8","yes","yes","600bd7cfb6416f0113b04181","602110864497cf011d9c0822","0","f","NA","space","space","space","NA","f","669","NA","2297","4218","1100","NA","669","2","legacy","1024","2","48000","-16","task","5210427","odd","NA","17358","21658","19361","84158","4211","9551","8448","84661","NA","84155","84661","84098","21658","85331","15752","83598","4201","55547","Lexical Decision Task","39","26230","41","yes","1024"
"3.153104174","10.89","6","door","word","92.85714285714286","92.85714285714286","634.6190476190476","634.6190476190476","black","no","legacy","legacy","legacy","0","uniform","0","undefined","undefined","undefined","0","j","0","0","0","0","41","0","0","0","41","NA","37","41","37","0","37","3","41","0","41","Thu Mar  4 15:25:37 2021","The main experiment item","yes","Lexical_Decision_Task.osexp","/Users/norah/Downloads","no","Andale Mono","no","18","no","white","no","yes","576","legacy","37","37","3","/Users/norah/Downloads/3. Psychology/3. Cognition and Language/subject-5210427.csv","legacy","Lentiform Loewenfeld","3.3.8","yes","yes","600bd7cfb6416f0113b04181","602110864497cf011d9c0822","0","f","NA","space","space","space","NA","f","424","NA","2297","4218","1100","NA","424","2","legacy","1024","2","48000","-16","task","5210427","odd","NA","17358","21658","19361","85894","4211","9551","8448","86397","NA","85892","86398","85834","21658","86823","15752","85334","4201","55547","Lexical Decision Task","39","26654","42","yes","1024"
"3.20996159","0","4","clee","non-word","93.02325581395348","93.02325581395348","636.0930232558139","636.0930232558139","black","no","legacy","legacy","legacy","0","uniform","1","undefined","undefined","undefined","1","f","0","0","0","0","42","0","0","0","42","NA","38","42","38","0","38","3","42","0","42","Thu Mar  4 15:25:37 2021","The main experiment item","yes","Lexical_Decision_Task.osexp","/Users/norah/Downloads","no","Andale Mono","no","18","no","white","no","yes","576","legacy","38","38","3","/Users/norah/Downloads/3. Psychology/3. Cognition and Language/subject-5210427.csv","legacy","Lentiform Loewenfeld","3.3.8","yes","yes","600bd7cfb6416f0113b04181","602110864497cf011d9c0822","0","f","NA","space","space","space","NA","f","698","NA","2297","4218","1100","NA","698","2","legacy","1024","2","48000","-16","task","5210427","odd","NA","17358","21658","19361","88390","4211","9551","8448","88893","NA","88387","88893","88327","21658","89592","15752","85334","4201","86827","Lexical Decision Task","40","27352","43","yes","1024"
"2.799799878","0","4","ciff","non-word","93.18181818181819","93.18181818181819","640.0227272727273","640.0227272727273","black","no","legacy","legacy","legacy","0","uniform","1","undefined","undefined","undefined","1","f","0","0","0","0","43","0","0","0","43","NA","39","43","39","0","39","3","43","0","43","Thu Mar  4 15:25:37 2021","The main experiment item","yes","Lexical_Decision_Task.osexp","/Users/norah/Downloads","no","Andale Mono","no","18","no","white","no","yes","576","legacy","39","39","3","/Users/norah/Downloads/3. Psychology/3. Cognition and Language/subject-5210427.csv","legacy","Lentiform Loewenfeld","3.3.8","yes","yes","600bd7cfb6416f0113b04181","602110864497cf011d9c0822","0","f","NA","space","space","space","NA","f","809","NA","2297","4218","1100","NA","809","2","legacy","1024","2","48000","-16","task","5210427","odd","NA","17358","21658","19361","90154","4211","9551","8448","90657","NA","90152","90657","90096","21658","91467","15752","89596","4201","86827","Lexical Decision Task","41","28161","44","yes","1024"
"3.062080345","0","6","tomp","non-word","93.33333333333333","93.33333333333333","639.6","639.6","black","no","legacy","legacy","legacy","0","uniform","1","undefined","undefined","undefined","1","f","0","0","0","0","44","0","0","0","44","NA","40","44","40","0","40","3","44","0","44","Thu Mar  4 15:25:37 2021","The main experiment item","yes","Lexical_Decision_Task.osexp","/Users/norah/Downloads","no","Andale Mono","no","18","no","white","no","yes","576","legacy","40","40","3","/Users/norah/Downloads/3. Psychology/3. Cognition and Language/subject-5210427.csv","legacy","Lentiform Loewenfeld","3.3.8","yes","yes","600bd7cfb6416f0113b04181","602110864497cf011d9c0822","0","f","NA","space","space","space","NA","f","621","NA","2297","4218","1100","NA","621","2","legacy","1024","2","48000","-16","task","5210427","odd","NA","17358","21658","19361","92030","4211","9551","8448","92533","NA","92028","92534","91971","21658","93156","15752","91471","4201","86827","Lexical Decision Task","42","28782","45","yes","1024"
"3.090140555","5.81","8","pout","word","93.47826086956522","93.47826086956522","642.2391304347826","642.2391304347826","black","no","legacy","legacy","legacy","0","uniform","1","undefined","undefined","undefined","1","j","0","0","0","0","45","0","0","0","45","NA","41","45","41","0","41","3","45","0","45","Thu Mar  4 15:25:37 2021","The main experiment item","yes","Lexical_Decision_Task.osexp","/Users/norah/Downloads","no","Andale Mono","no","18","no","white","no","yes","576","legacy","41","41","3","/Users/norah/Downloads/3. Psychology/3. Cognition and Language/subject-5210427.csv","legacy","Lentiform Loewenfeld","3.3.8","yes","yes","600bd7cfb6416f0113b04181","602110864497cf011d9c0822","0","j","NA","space","space","space","NA","j","761","NA","2297","4218","1100","NA","761","2","legacy","1024","2","48000","-16","task","5210427","odd","NA","17358","21658","19361","93719","4211","9551","8448","94222","NA","93716","94223","93659","21658","94985","15752","93159","4201","86827","Lexical Decision Task","43","29543","46","yes","1024"
"2.8162413","0","5","nusk","non-word","93.61702127659575","93.61702127659575","639.3404255319149","639.3404255319149","black","no","legacy","legacy","legacy","0","uniform","1","undefined","undefined","undefined","1","f","0","0","0","0","46","0","0","0","46","NA","42","46","42","0","42","3","46","0","46","Thu Mar  4 15:25:37 2021","The main experiment item","yes","Lexical_Decision_Task.osexp","/Users/norah/Downloads","no","Andale Mono","no","18","no","white","no","yes","576","legacy","42","42","3","/Users/norah/Downloads/3. Psychology/3. Cognition and Language/subject-5210427.csv","legacy","Lentiform Loewenfeld","3.3.8","yes","yes","600bd7cfb6416f0113b04181","602110864497cf011d9c0822","0","f","NA","space","space","space","NA","f","506","NA","2297","4218","1100","NA","506","2","legacy","1024","2","48000","-16","task","5210427","odd","NA","17358","21658","19361","95548","4211","9551","8448","96051","NA","95545","96051","95489","21658","96558","15752","94989","4201","86827","Lexical Decision Task","44","30049","47","yes","1024"
"3.088136089","8.32","9","worm","word","93.75","93.75","635.25","635.25","black","no","legacy","legacy","legacy","0","uniform","1","undefined","undefined","undefined","1","j","0","0","0","0","47","0","0","0","47","NA","43","47","43","0","43","3","47","0","47","Thu Mar  4 15:25:37 2021","The main experiment item","yes","Lexical_Decision_Task.osexp","/Users/norah/Downloads","no","Andale Mono","no","18","no","white","no","yes","576","legacy","43","43","3","/Users/norah/Downloads/3. Psychology/3. Cognition and Language/subject-5210427.csv","legacy","Lentiform Loewenfeld","3.3.8","yes","yes","600bd7cfb6416f0113b04181","602110864497cf011d9c0822","0","j","NA","space","space","space","NA","j","443","NA","2297","4218","1100","NA","443","2","legacy","1024","2","48000","-16","task","5210427","odd","NA","17358","21658","19361","97121","4211","9551","8448","97624","NA","97118","97624","97062","21658","98068","15752","96562","4201","86827","Lexical Decision Task","45","30492","48","yes","1024"
"2.778633532","0","3","jurp","non-word","93.87755102040816","93.87755102040816","633.3877551020408","633.3877551020408","black","no","legacy","legacy","legacy","0","uniform","1","undefined","undefined","undefined","1","f","0","0","0","0","48","0","0","0","48","NA","44","48","44","0","44","3","48","0","48","Thu Mar  4 15:25:37 2021","The main experiment item","yes","Lexical_Decision_Task.osexp","/Users/norah/Downloads","no","Andale Mono","no","18","no","white","no","yes","576","legacy","44","44","3","/Users/norah/Downloads/3. Psychology/3. Cognition and Language/subject-5210427.csv","legacy","Lentiform Loewenfeld","3.3.8","yes","yes","600bd7cfb6416f0113b04181","602110864497cf011d9c0822","0","f","NA","space","space","space","NA","f","544","NA","2297","4218","1100","NA","544","2","legacy","1024","2","48000","-16","task","5210427","odd","NA","17358","21658","19361","98633","4211","9551","8448","99136","NA","98630","99136","98572","21658","99681","15752","98072","4201","86827","Lexical Decision Task","46","31036","49","yes","1024"
"2.980306438","0","7","slun","non-word","94","94","639.98","639.98","black","no","legacy","legacy","legacy","0","uniform","1","undefined","undefined","undefined","1","f","0","0","0","0","49","0","0","0","49","NA","45","49","45","0","45","3","49","0","49","Thu Mar  4 15:25:37 2021","The main experiment item","yes","Lexical_Decision_Task.osexp","/Users/norah/Downloads","no","Andale Mono","no","18","no","white","no","yes","576","legacy","45","45","3","/Users/norah/Downloads/3. Psychology/3. Cognition and Language/subject-5210427.csv","legacy","Lentiform Loewenfeld","3.3.8","yes","yes","600bd7cfb6416f0113b04181","602110864497cf011d9c0822","0","f","NA","space","space","space","NA","f","963","NA","2297","4218","1100","NA","963","2","legacy","1024","2","48000","-16","task","5210427","odd","NA","17358","21658","19361","100245","4211","9551","8448","100748","NA","100242","100748","100185","21658","101712","15752","99685","4201","86827","Lexical Decision Task","47","31999","50","yes","1024"
"2.996511672","0","7","hoil","non-word","94.11764705882354","94.11764705882354","640.3529411764706","640.3529411764706","black","no","legacy","legacy","legacy","0","uniform","1","undefined","undefined","undefined","1","f","0","0","0","0","50","0","0","0","50","NA","46","50","46","0","46","3","50","0","50","Thu Mar  4 15:25:37 2021","The main experiment item","yes","Lexical_Decision_Task.osexp","/Users/norah/Downloads","no","Andale Mono","no","18","no","white","no","yes","576","legacy","46","46","3","/Users/norah/Downloads/3. Psychology/3. Cognition and Language/subject-5210427.csv","legacy","Lentiform Loewenfeld","3.3.8","yes","yes","600bd7cfb6416f0113b04181","602110864497cf011d9c0822","0","f","NA","space","space","space","NA","f","659","NA","2297","4218","1100","NA","659","2","legacy","1024","2","48000","-16","task","5210427","odd","NA","17358","21658","19361","102276","4211","9551","8448","102779","NA","102273","102779","102216","21658","103439","15752","101716","4201","86827","Lexical Decision Task","48","32658","51","yes","1024"
"3.311895072","0","9","gung","non-word","94.23076923076923","94.23076923076923","639.4423076923077","639.4423076923077","black","no","legacy","legacy","legacy","0","uniform","1","undefined","undefined","undefined","1","f","0","0","0","0","51","0","0","0","51","NA","47","51","47","0","47","3","51","0","51","Thu Mar  4 15:25:37 2021","The main experiment item","yes","Lexical_Decision_Task.osexp","/Users/norah/Downloads","no","Andale Mono","no","18","no","white","no","yes","576","legacy","47","47","3","/Users/norah/Downloads/3. Psychology/3. Cognition and Language/subject-5210427.csv","legacy","Lentiform Loewenfeld","3.3.8","yes","yes","600bd7cfb6416f0113b04181","602110864497cf011d9c0822","0","f","NA","space","space","space","NA","f","593","NA","2297","4218","1100","NA","593","2","legacy","1024","2","48000","-16","task","5210427","odd","NA","17358","21658","19361","104002","4211","9551","8448","104506","NA","104000","104506","103942","21658","105100","15752","103442","4201","86827","Lexical Decision Task","49","33251","52","yes","1024"
"2.80048796","0","8","pife","non-word","94.33962264150944","94.33962264150944","637.3396226415094","637.3396226415094","black","no","legacy","legacy","legacy","0","uniform","1","undefined","undefined","undefined","1","f","0","0","0","0","52","0","0","0","52","NA","48","52","48","0","48","3","52","0","52","Thu Mar  4 15:25:37 2021","The main experiment item","yes","Lexical_Decision_Task.osexp","/Users/norah/Downloads","no","Andale Mono","no","18","no","white","no","yes","576","legacy","48","48","3","/Users/norah/Downloads/3. Psychology/3. Cognition and Language/subject-5210427.csv","legacy","Lentiform Loewenfeld","3.3.8","yes","yes","600bd7cfb6416f0113b04181","602110864497cf011d9c0822","0","f","NA","space","space","space","NA","f","528","NA","2297","4218","1100","NA","528","2","legacy","1024","2","48000","-16","task","5210427","odd","NA","17358","21658","19361","105664","4211","9551","8448","106167","NA","105662","106167","105604","21658","106696","15752","105104","4201","86827","Lexical Decision Task","50","33779","53","yes","1024"
"2.696356389","0","1","pizz","non-word","94.44444444444444","94.44444444444444","637.9444444444445","637.9444444444445","black","no","legacy","legacy","legacy","0","uniform","1","undefined","undefined","undefined","1","f","0","0","0","0","53","0","0","0","53","NA","49","53","49","0","49","3","53","0","53","Thu Mar  4 15:25:37 2021","The main experiment item","yes","Lexical_Decision_Task.osexp","/Users/norah/Downloads","no","Andale Mono","no","18","no","white","no","yes","576","legacy","49","49","3","/Users/norah/Downloads/3. Psychology/3. Cognition and Language/subject-5210427.csv","legacy","Lentiform Loewenfeld","3.3.8","yes","yes","600bd7cfb6416f0113b04181","602110864497cf011d9c0822","0","f","NA","space","space","space","NA","f","670","NA","2297","4218","1100","NA","670","2","legacy","1024","2","48000","-16","task","5210427","odd","NA","17358","21658","19361","107258","4211","9551","8448","107761","NA","107255","107761","107199","21658","108432","15752","106699","4201","86827","Lexical Decision Task","51","34449","54","yes","1024"
"3.031812271","6.52","3","gulp","word","92.72727272727273","92.72727272727273","635.9454545454546","635.9454545454546","black","no","legacy","legacy","legacy","0","uniform","0","undefined","undefined","undefined","0","j","0","0","0","0","54","0","0","0","54","0","50","54","50","0","50","3","54","0","54","Thu Mar  4 15:25:37 2021","The main experiment item","yes","Lexical_Decision_Task.osexp","/Users/norah/Downloads","no","Andale Mono","no","18","no","white","no","yes","576","legacy","50","50","3","/Users/norah/Downloads/3. Psychology/3. Cognition and Language/subject-5210427.csv","legacy","Lentiform Loewenfeld","3.3.8","yes","yes","600bd7cfb6416f0113b04181","602110864497cf011d9c0822","0","f","NA","space","space","space","space","f","528","NA","2297","4218","1100","4613","528","2","legacy","1024","2","48000","-16","task","5210427","odd","NA","17358","21658","19361","113632","4211","9551","8448","114135","108965","113630","114136","108935","21658","114664","15752","108435","4201","86827","Lexical Decision Task","51","34977","55","yes","1024"
"3.209246849","0","7","slem","non-word","92.85714285714286","92.85714285714286","639.9464285714286","639.9464285714286","black","no","legacy","legacy","legacy","0","uniform","1","undefined","undefined","undefined","1","f","0","0","0","0","55","0","0","0","55","0","51","55","51","0","51","3","55","0","55","Thu Mar  4 15:25:37 2021","The main experiment item","yes","Lexical_Decision_Task.osexp","/Users/norah/Downloads","no","Andale Mono","no","18","no","white","no","yes","576","legacy","51","51","3","/Users/norah/Downloads/3. Psychology/3. Cognition and Language/subject-5210427.csv","legacy","Lentiform Loewenfeld","3.3.8","yes","yes","600bd7cfb6416f0113b04181","602110864497cf011d9c0822","0","f","NA","space","space","space","space","f","860","NA","2297","4218","1100","4613","860","2","legacy","1024","2","48000","-16","task","5210427","odd","NA","17358","21658","19361","116231","4211","9551","8448","116735","108965","116229","116735","116169","21658","117596","15752","108435","4201","114668","Lexical Decision Task","52","35837","56","yes","1024"
"3.140404328","10.66","9","deep","word","92.98245614035088","92.98245614035088","638.2456140350877","638.2456140350877","black","no","legacy","legacy","legacy","0","uniform","1","undefined","undefined","undefined","1","j","0","0","0","0","56","0","0","0","56","0","52","56","52","0","52","3","56","0","56","Thu Mar  4 15:25:37 2021","The main experiment item","yes","Lexical_Decision_Task.osexp","/Users/norah/Downloads","no","Andale Mono","no","18","no","white","no","yes","576","legacy","52","52","3","/Users/norah/Downloads/3. Psychology/3. Cognition and Language/subject-5210427.csv","legacy","Lentiform Loewenfeld","3.3.8","yes","yes","600bd7cfb6416f0113b04181","602110864497cf011d9c0822","0","j","NA","space","space","space","space","j","543","NA","2297","4218","1100","4613","543","2","legacy","1024","2","48000","-16","task","5210427","odd","NA","17358","21658","19361","118157","4211","9551","8448","118660","108965","118155","118661","118099","21658","119205","15752","117599","4201","114668","Lexical Decision Task","53","36380","57","yes","1024"
"3.028977705","0","7","frow","non-word","93.10344827586206","93.10344827586206","641.7241379310345","641.7241379310345","black","no","legacy","legacy","legacy","0","uniform","1","undefined","undefined","undefined","1","f","0","0","0","0","57","0","0","0","57","0","53","57","53","0","53","3","57","0","57","Thu Mar  4 15:25:37 2021","The main experiment item","yes","Lexical_Decision_Task.osexp","/Users/norah/Downloads","no","Andale Mono","no","18","no","white","no","yes","576","legacy","53","53","3","/Users/norah/Downloads/3. Psychology/3. Cognition and Language/subject-5210427.csv","legacy","Lentiform Loewenfeld","3.3.8","yes","yes","600bd7cfb6416f0113b04181","602110864497cf011d9c0822","0","f","NA","space","space","space","space","f","840","NA","2297","4218","1100","4613","840","2","legacy","1024","2","48000","-16","task","5210427","odd","NA","17358","21658","19361","119766","4211","9551","8448","120269","108965","119764","120269","119708","21658","121109","15752","119208","4201","114668","Lexical Decision Task","54","37220","58","yes","1024"
"3.20871002","7.15","8","cram","word","93.22033898305085","93.22033898305085","640.6949152542373","640.6949152542373","black","no","legacy","legacy","legacy","0","uniform","1","undefined","undefined","undefined","1","j","0","0","0","0","58","0","0","0","58","0","54","58","54","0","54","3","58","0","58","Thu Mar  4 15:25:37 2021","The main experiment item","yes","Lexical_Decision_Task.osexp","/Users/norah/Downloads","no","Andale Mono","no","18","no","white","no","yes","576","legacy","54","54","3","/Users/norah/Downloads/3. Psychology/3. Cognition and Language/subject-5210427.csv","legacy","Lentiform Loewenfeld","3.3.8","yes","yes","600bd7cfb6416f0113b04181","602110864497cf011d9c0822","0","j","NA","space","space","space","space","j","581","NA","2297","4218","1100","4613","581","2","legacy","1024","2","48000","-16","task","5210427","odd","NA","17358","21658","19361","121672","4211","9551","8448","122174","108965","121669","122175","121613","21658","122757","15752","121113","4201","114668","Lexical Decision Task","55","37801","59","yes","1024"
"3.382617311","0","4","pret","non-word","93.33333333333333","93.33333333333333","644.4833333333333","644.4833333333333","black","no","legacy","legacy","legacy","0","uniform","1","undefined","undefined","undefined","1","f","0","0","0","0","59","0","0","0","59","0","55","59","55","0","55","3","59","0","59","Thu Mar  4 15:25:37 2021","The main experiment item","yes","Lexical_Decision_Task.osexp","/Users/norah/Downloads","no","Andale Mono","no","18","no","white","no","yes","576","legacy","55","55","3","/Users/norah/Downloads/3. Psychology/3. Cognition and Language/subject-5210427.csv","legacy","Lentiform Loewenfeld","3.3.8","yes","yes","600bd7cfb6416f0113b04181","602110864497cf011d9c0822","0","f","NA","space","space","space","space","f","868","NA","2297","4218","1100","4613","868","2","legacy","1024","2","48000","-16","task","5210427","odd","NA","17358","21658","19361","123319","4211","9551","8448","123822","108965","123317","123822","123260","21658","124692","15752","122760","4201","114668","Lexical Decision Task","56","38669","60","yes","1024"
"2.990042563","6.64","9","plow","word","91.80327868852459","91.80327868852459","643.9672131147541","643.9672131147541","black","no","legacy","legacy","legacy","0","uniform","0","undefined","undefined","undefined","0","j","0","0","0","0","60","0","0","0","60","0","56","60","56","0","56","3","60","0","60","Thu Mar  4 15:25:37 2021","The main experiment item","yes","Lexical_Decision_Task.osexp","/Users/norah/Downloads","no","Andale Mono","no","18","no","white","no","yes","576","legacy","56","56","3","/Users/norah/Downloads/3. Psychology/3. Cognition and Language/subject-5210427.csv","legacy","Lentiform Loewenfeld","3.3.8","yes","yes","600bd7cfb6416f0113b04181","602110864497cf011d9c0822","0","f","NA","space","space","space","space","f","613","NA","2297","4218","1100","4613","613","2","legacy","1024","2","48000","-16","task","5210427","odd","NA","17358","21658","19361","125255","4211","9551","8448","125758","108965","125252","125758","125196","21658","126371","15752","124695","4201","114668","Lexical Decision Task","56","39282","61","yes","1024"
"2.703007489","8.37","3","pulp","word","91.93548387096774","91.93548387096774","644.2096774193549","644.2096774193549","black","no","legacy","legacy","legacy","0","uniform","1","undefined","undefined","undefined","1","j","0","0","0","0","61","0","0","0","61","0","57","61","57","0","57","3","61","0","61","Thu Mar  4 15:25:37 2021","The main experiment item","yes","Lexical_Decision_Task.osexp","/Users/norah/Downloads","no","Andale Mono","no","18","no","white","no","yes","576","legacy","57","57","3","/Users/norah/Downloads/3. Psychology/3. Cognition and Language/subject-5210427.csv","legacy","Lentiform Loewenfeld","3.3.8","yes","yes","600bd7cfb6416f0113b04181","602110864497cf011d9c0822","0","j","NA","space","space","space","space","j","659","NA","2297","4218","1100","4613","659","2","legacy","1024","2","48000","-16","task","5210427","odd","NA","17358","21658","19361","127938","4211","9551","8448","128441","108965","127935","128441","127875","21658","129102","15752","124695","4201","126375","Lexical Decision Task","57","39941","62","yes","1024"
"2.714888338","0","3","brug","non-word","92.06349206349206","92.06349206349206","644.2063492063492","644.2063492063492","black","no","legacy","legacy","legacy","0","uniform","1","undefined","undefined","undefined","1","f","0","0","0","0","62","0","0","0","62","0","58","62","58","0","58","3","62","0","62","Thu Mar  4 15:25:37 2021","The main experiment item","yes","Lexical_Decision_Task.osexp","/Users/norah/Downloads","no","Andale Mono","no","18","no","white","no","yes","576","legacy","58","58","3","/Users/norah/Downloads/3. Psychology/3. Cognition and Language/subject-5210427.csv","legacy","Lentiform Loewenfeld","3.3.8","yes","yes","600bd7cfb6416f0113b04181","602110864497cf011d9c0822","0","f","NA","space","space","space","space","f","644","NA","2297","4218","1100","4613","644","2","legacy","1024","2","48000","-16","task","5210427","odd","NA","17358","21658","19361","129663","4211","9551","8448","130167","108965","129661","130167","129605","21658","130812","15752","129105","4201","126375","Lexical Decision Task","58","40585","63","yes","1024"
"3.378276681","6.39","8","bran","word","92.1875","92.1875","653.015625","653.015625","black","no","legacy","legacy","legacy","0","uniform","1","undefined","undefined","undefined","1","j","0","0","0","0","63","0","0","0","63","0","59","63","59","0","59","3","63","0","63","Thu Mar  4 15:25:37 2021","The main experiment item","yes","Lexical_Decision_Task.osexp","/Users/norah/Downloads","no","Andale Mono","no","18","no","white","no","yes","576","legacy","59","59","3","/Users/norah/Downloads/3. Psychology/3. Cognition and Language/subject-5210427.csv","legacy","Lentiform Loewenfeld","3.3.8","yes","yes","600bd7cfb6416f0113b04181","602110864497cf011d9c0822","0","j","NA","space","space","space","space","j","1208","NA","2297","4218","1100","4613","1208","2","legacy","1024","2","48000","-16","task","5210427","odd","NA","17358","21658","19361","131377","4211","9551","8448","131880","108965","131374","131880","131316","21658","133088","15752","130816","4201","126375","Lexical Decision Task","59","41793","64","yes","1024"
"3.353210739","0","9","reet","non-word","92.3076923076923","92.3076923076923","653.1384615384616","653.1384615384616","black","no","legacy","legacy","legacy","0","uniform","1","undefined","undefined","undefined","1","f","0","0","0","0","64","0","0","0","64","0","60","64","60","0","60","3","64","0","64","Thu Mar  4 15:25:37 2021","The main experiment item","yes","Lexical_Decision_Task.osexp","/Users/norah/Downloads","no","Andale Mono","no","18","no","white","no","yes","576","legacy","60","60","3","/Users/norah/Downloads/3. Psychology/3. Cognition and Language/subject-5210427.csv","legacy","Lentiform Loewenfeld","3.3.8","yes","yes","600bd7cfb6416f0113b04181","602110864497cf011d9c0822","0","f","NA","space","space","space","space","f","661","NA","2297","4218","1100","4613","661","2","legacy","1024","2","48000","-16","task","5210427","odd","NA","17358","21658","19361","133651","4211","9551","8448","134153","108965","133649","134154","133593","21658","134816","15752","133092","4201","126375","Lexical Decision Task","60","42454","65","yes","1024"
"3.153001286","8.7","5","palm","word","92.42424242424242","92.42424242424242","653.5757575757576","653.5757575757576","black","no","legacy","legacy","legacy","0","uniform","1","undefined","undefined","undefined","1","j","0","0","0","0","65","0","0","0","65","0","61","65","61","0","61","3","65","0","65","Thu Mar  4 15:25:37 2021","The main experiment item","yes","Lexical_Decision_Task.osexp","/Users/norah/Downloads","no","Andale Mono","no","18","no","white","no","yes","576","legacy","61","61","3","/Users/norah/Downloads/3. Psychology/3. Cognition and Language/subject-5210427.csv","legacy","Lentiform Loewenfeld","3.3.8","yes","yes","600bd7cfb6416f0113b04181","602110864497cf011d9c0822","0","j","NA","space","space","space","space","j","682","NA","2297","4218","1100","4613","682","2","legacy","1024","2","48000","-16","task","5210427","odd","NA","17358","21658","19361","135378","4211","9551","8448","135881","108965","135375","135881","135320","21658","136564","15752","134820","4201","126375","Lexical Decision Task","61","43136","66","yes","1024"
"2.782472624","10.55","2","huge","word","92.53731343283582","92.53731343283582","650.5223880597015","650.5223880597015","black","no","legacy","legacy","legacy","0","uniform","1","undefined","undefined","undefined","1","j","0","0","0","0","66","0","0","0","66","0","62","66","62","0","62","3","66","0","66","Thu Mar  4 15:25:37 2021","The main experiment item","yes","Lexical_Decision_Task.osexp","/Users/norah/Downloads","no","Andale Mono","no","18","no","white","no","yes","576","legacy","62","62","3","/Users/norah/Downloads/3. Psychology/3. Cognition and Language/subject-5210427.csv","legacy","Lentiform Loewenfeld","3.3.8","yes","yes","600bd7cfb6416f0113b04181","602110864497cf011d9c0822","0","j","NA","space","space","space","space","j","449","NA","2297","4218","1100","4613","449","2","legacy","1024","2","48000","-16","task","5210427","odd","NA","17358","21658","19361","137127","4211","9551","8448","137630","108965","137125","137630","137068","21658","138080","15752","136568","4201","126375","Lexical Decision Task","62","43585","67","yes","1024"
"3.474361976","5.24","6","veer","word","91.17647058823529","91.17647058823529","652.3382352941177","652.3382352941177","black","no","legacy","legacy","legacy","0","uniform","0","undefined","undefined","undefined","0","j","0","0","0","0","67","0","0","0","67","0","63","67","63","0","63","3","67","0","67","Thu Mar  4 15:25:37 2021","The main experiment item","yes","Lexical_Decision_Task.osexp","/Users/norah/Downloads","no","Andale Mono","no","18","no","white","no","yes","576","legacy","63","63","3","/Users/norah/Downloads/3. Psychology/3. Cognition and Language/subject-5210427.csv","legacy","Lentiform Loewenfeld","3.3.8","yes","yes","600bd7cfb6416f0113b04181","602110864497cf011d9c0822","0","f","NA","space","space","space","space","f","774","NA","2297","4218","1100","4613","774","2","legacy","1024","2","48000","-16","task","5210427","odd","NA","17358","21658","19361","138643","4211","9551","8448","139146","108965","138640","139146","138584","21658","139921","15752","138084","4201","126375","Lexical Decision Task","62","44359","68","yes","1024"
"2.706148589","0","4","hube","non-word","91.30434782608695","91.30434782608695","652.1884057971015","652.1884057971015","black","no","legacy","legacy","legacy","0","uniform","1","undefined","undefined","undefined","1","f","0","0","0","0","68","0","0","0","68","0","64","68","64","0","64","3","68","0","68","Thu Mar  4 15:25:37 2021","The main experiment item","yes","Lexical_Decision_Task.osexp","/Users/norah/Downloads","no","Andale Mono","no","18","no","white","no","yes","576","legacy","64","64","3","/Users/norah/Downloads/3. Psychology/3. Cognition and Language/subject-5210427.csv","legacy","Lentiform Loewenfeld","3.3.8","yes","yes","600bd7cfb6416f0113b04181","602110864497cf011d9c0822","0","f","NA","space","space","space","space","f","642","NA","2297","4218","1100","4613","642","2","legacy","1024","2","48000","-16","task","5210427","odd","NA","17358","21658","19361","141488","4211","9551","8448","141991","108965","141486","141991","141425","21658","142634","15752","138084","4201","139925","Lexical Decision Task","63","45001","69","yes","1024"
"2.880623071","0","9","curp","non-word","91.42857142857143","91.42857142857143","652.9571428571429","652.9571428571429","black","no","legacy","legacy","legacy","0","uniform","1","undefined","undefined","undefined","1","f","0","0","0","0","69","0","0","0","69","0","65","69","65","0","65","3","69","0","69","Thu Mar  4 15:25:37 2021","The main experiment item","yes","Lexical_Decision_Task.osexp","/Users/norah/Downloads","no","Andale Mono","no","18","no","white","no","yes","576","legacy","65","65","3","/Users/norah/Downloads/3. Psychology/3. Cognition and Language/subject-5210427.csv","legacy","Lentiform Loewenfeld","3.3.8","yes","yes","600bd7cfb6416f0113b04181","602110864497cf011d9c0822","0","f","NA","space","space","space","space","f","706","NA","2297","4218","1100","4613","706","2","legacy","1024","2","48000","-16","task","5210427","odd","NA","17358","21658","19361","143197","4211","9551","8448","143700","108965","143194","143700","143138","21658","144407","15752","142638","4201","139925","Lexical Decision Task","64","45707","70","yes","1024"
"2.819763221","0","2","durp","non-word","91.54929577464789","91.54929577464789","651.056338028169","651.056338028169","black","no","legacy","legacy","legacy","0","uniform","1","undefined","undefined","undefined","1","f","0","0","0","0","70","0","0","0","70","0","66","70","66","0","66","3","70","0","70","Thu Mar  4 15:25:37 2021","The main experiment item","yes","Lexical_Decision_Task.osexp","/Users/norah/Downloads","no","Andale Mono","no","18","no","white","no","yes","576","legacy","66","66","3","/Users/norah/Downloads/3. Psychology/3. Cognition and Language/subject-5210427.csv","legacy","Lentiform Loewenfeld","3.3.8","yes","yes","600bd7cfb6416f0113b04181","602110864497cf011d9c0822","0","f","NA","space","space","space","space","f","518","NA","2297","4218","1100","4613","518","2","legacy","1024","2","48000","-16","task","5210427","odd","NA","17358","21658","19361","144971","4211","9551","8448","145474","108965","144969","145474","144911","21658","145993","15752","144411","4201","139925","Lexical Decision Task","65","46225","71","yes","1024"
"2.812467698","0","7","hafe","non-word","91.66666666666667","91.66666666666667","650.8333333333334","650.8333333333334","black","no","legacy","legacy","legacy","0","uniform","1","undefined","undefined","undefined","1","f","0","0","0","0","71","0","0","0","71","0","67","71","67","0","67","3","71","0","71","Thu Mar  4 15:25:37 2021","The main experiment item","yes","Lexical_Decision_Task.osexp","/Users/norah/Downloads","no","Andale Mono","no","18","no","white","no","yes","576","legacy","67","67","3","/Users/norah/Downloads/3. Psychology/3. Cognition and Language/subject-5210427.csv","legacy","Lentiform Loewenfeld","3.3.8","yes","yes","600bd7cfb6416f0113b04181","602110864497cf011d9c0822","0","f","NA","space","space","space","space","f","635","NA","2297","4218","1100","4613","635","2","legacy","1024","2","48000","-16","task","5210427","odd","NA","17358","21658","19361","146558","4211","9551","8448","147061","108965","146555","147061","146497","21658","147697","15752","145997","4201","139925","Lexical Decision Task","66","46860","72","yes","1024"
"2.972819734","0","4","scew","non-word","91.78082191780823","91.78082191780823","652.5342465753424","652.5342465753424","black","no","legacy","legacy","legacy","0","uniform","1","undefined","undefined","undefined","1","f","0","0","0","0","72","0","0","0","72","0","68","72","68","0","68","3","72","0","72","Thu Mar  4 15:25:37 2021","The main experiment item","yes","Lexical_Decision_Task.osexp","/Users/norah/Downloads","no","Andale Mono","no","18","no","white","no","yes","576","legacy","68","68","3","/Users/norah/Downloads/3. Psychology/3. Cognition and Language/subject-5210427.csv","legacy","Lentiform Loewenfeld","3.3.8","yes","yes","600bd7cfb6416f0113b04181","602110864497cf011d9c0822","0","f","NA","space","space","space","space","f","775","NA","2297","4218","1100","4613","775","2","legacy","1024","2","48000","-16","task","5210427","odd","NA","17358","21658","19361","148262","4211","9551","8448","148765","108965","148259","148765","148201","21658","149541","15752","147701","4201","139925","Lexical Decision Task","67","47635","73","yes","1024"
"3.067193647","6.73","6","raft","word","91.89189189189189","91.89189189189189","652.3378378378378","652.3378378378378","black","no","legacy","legacy","legacy","0","uniform","1","undefined","undefined","undefined","1","j","0","0","0","0","73","0","0","0","73","0","69","73","69","0","69","3","73","0","73","Thu Mar  4 15:25:37 2021","The main experiment item","yes","Lexical_Decision_Task.osexp","/Users/norah/Downloads","no","Andale Mono","no","18","no","white","no","yes","576","legacy","69","69","3","/Users/norah/Downloads/3. Psychology/3. Cognition and Language/subject-5210427.csv","legacy","Lentiform Loewenfeld","3.3.8","yes","yes","600bd7cfb6416f0113b04181","602110864497cf011d9c0822","0","j","NA","space","space","space","space","j","638","NA","2297","4218","1100","4613","638","2","legacy","1024","2","48000","-16","task","5210427","odd","NA","17358","21658","19361","150104","4211","9551","8448","150608","108965","150102","150608","150044","21658","151247","15752","149544","4201","139925","Lexical Decision Task","68","48273","74","yes","1024"
"2.839898939","8.99","6","soap","word","92","92","650.2533333333333","650.2533333333333","black","no","legacy","legacy","legacy","0","uniform","1","undefined","undefined","undefined","1","j","0","0","0","0","74","0","0","0","74","0","70","74","70","0","70","3","74","0","74","Thu Mar  4 15:25:37 2021","The main experiment item","yes","Lexical_Decision_Task.osexp","/Users/norah/Downloads","no","Andale Mono","no","18","no","white","no","yes","576","legacy","70","70","3","/Users/norah/Downloads/3. Psychology/3. Cognition and Language/subject-5210427.csv","legacy","Lentiform Loewenfeld","3.3.8","yes","yes","600bd7cfb6416f0113b04181","602110864497cf011d9c0822","0","j","NA","space","space","space","space","j","496","NA","2297","4218","1100","4613","496","2","legacy","1024","2","48000","-16","task","5210427","odd","NA","17358","21658","19361","151812","4211","9551","8448","152315","108965","151809","152316","151751","21658","152813","15752","151251","4201","139925","Lexical Decision Task","69","48769","75","yes","1024"
"2.868644438","10.52","4","town","word","92.10526315789474","92.10526315789474","646.9078947368421","646.9078947368421","black","no","legacy","legacy","legacy","0","uniform","1","undefined","undefined","undefined","1","j","0","0","0","0","75","0","0","0","75","0","71","75","71","0","71","3","75","0","75","Thu Mar  4 15:25:37 2021","The main experiment item","yes","Lexical_Decision_Task.osexp","/Users/norah/Downloads","no","Andale Mono","no","18","no","white","no","yes","576","legacy","71","71","3","/Users/norah/Downloads/3. Psychology/3. Cognition and Language/subject-5210427.csv","legacy","Lentiform Loewenfeld","3.3.8","yes","yes","600bd7cfb6416f0113b04181","602110864497cf011d9c0822","0","j","NA","space","space","space","space","j","396","NA","2297","4218","1100","4613","396","2","legacy","1024","2","48000","-16","task","5210427","odd","NA","17358","21658","19361","153377","4211","9551","8448","153880","108965","153374","153881","153317","21658","154278","15752","152817","4201","139925","Lexical Decision Task","70","49165","76","yes","1024"
"3.102203805","7.21","3","drip","word","92.20779220779221","92.20779220779221","644.2207792207793","644.2207792207793","black","no","legacy","legacy","legacy","0","uniform","1","undefined","undefined","undefined","1","j","0","0","0","0","76","0","0","0","76","0","72","76","72","0","72","3","76","0","76","Thu Mar  4 15:25:37 2021","The main experiment item","yes","Lexical_Decision_Task.osexp","/Users/norah/Downloads","no","Andale Mono","no","18","no","white","no","yes","576","legacy","72","72","3","/Users/norah/Downloads/3. Psychology/3. Cognition and Language/subject-5210427.csv","legacy","Lentiform Loewenfeld","3.3.8","yes","yes","600bd7cfb6416f0113b04181","602110864497cf011d9c0822","0","j","NA","space","space","space","space","j","440","NA","2297","4218","1100","4613","440","2","legacy","1024","2","48000","-16","task","5210427","odd","NA","17358","21658","19361","154840","4211","9551","8448","155343","108965","154838","155343","154781","21658","155784","15752","154281","4201","139925","Lexical Decision Task","71","49605","77","yes","1024"
"3.347850856","10.51","2","rich","word","92.3076923076923","92.3076923076923","640.7307692307693","640.7307692307693","black","no","legacy","legacy","legacy","0","uniform","1","undefined","undefined","undefined","1","j","0","0","0","0","77","0","0","0","77","0","73","77","73","0","73","3","77","0","77","Thu Mar  4 15:25:37 2021","The main experiment item","yes","Lexical_Decision_Task.osexp","/Users/norah/Downloads","no","Andale Mono","no","18","no","white","no","yes","576","legacy","73","73","3","/Users/norah/Downloads/3. Psychology/3. Cognition and Language/subject-5210427.csv","legacy","Lentiform Loewenfeld","3.3.8","yes","yes","600bd7cfb6416f0113b04181","602110864497cf011d9c0822","0","j","NA","space","space","space","space","j","372","NA","2297","4218","1100","4613","372","2","legacy","1024","2","48000","-16","task","5210427","odd","NA","17358","21658","19361","156347","4211","9551","8448","156851","108965","156345","156851","156288","21658","157224","15752","155787","4201","139925","Lexical Decision Task","72","49977","78","yes","1024"
"3.492014979","0","9","yine","non-word","92.40506329113924","92.40506329113924","645.7721518987341","645.7721518987341","black","no","legacy","legacy","legacy","0","uniform","1","undefined","undefined","undefined","1","f","0","0","0","0","78","0","0","0","78","0","74","78","74","0","74","3","78","0","78","Thu Mar  4 15:25:37 2021","The main experiment item","yes","Lexical_Decision_Task.osexp","/Users/norah/Downloads","no","Andale Mono","no","18","no","white","no","yes","576","legacy","74","74","3","/Users/norah/Downloads/3. Psychology/3. Cognition and Language/subject-5210427.csv","legacy","Lentiform Loewenfeld","3.3.8","yes","yes","600bd7cfb6416f0113b04181","602110864497cf011d9c0822","0","f","NA","space","space","space","space","f","1039","NA","2297","4218","1100","4613","1039","2","legacy","1024","2","48000","-16","task","5210427","odd","NA","17358","21658","19361","157786","4211","9551","8448","158289","108965","157783","158289","157727","21658","159329","15752","157227","4201","139925","Lexical Decision Task","73","51016","79","yes","1024"
"2.838639236","0","4","furg","non-word","92.5","92.5","645.6875","645.6875","black","no","legacy","legacy","legacy","0","uniform","1","undefined","undefined","undefined","1","f","0","0","0","0","79","0","0","0","79","0","75","79","75","0","75","3","79","0","79","Thu Mar  4 15:25:37 2021","The main experiment item","yes","Lexical_Decision_Task.osexp","/Users/norah/Downloads","no","Andale Mono","no","18","no","white","no","yes","576","legacy","75","75","3","/Users/norah/Downloads/3. Psychology/3. Cognition and Language/subject-5210427.csv","legacy","Lentiform Loewenfeld","3.3.8","yes","yes","600bd7cfb6416f0113b04181","602110864497cf011d9c0822","0","f","NA","space","space","space","space","f","639","NA","2297","4218","1100","4613","639","2","legacy","1024","2","48000","-16","task","5210427","odd","NA","17358","21658","19361","159892","4211","9551","8448","160395","108965","159890","160396","159833","21658","161036","15752","159333","4201","139925","Lexical Decision Task","74","51655","80","yes","1024"
"3.303771854","0","9","dath","non-word","92.5925925925926","92.5925925925926","644.5802469135803","644.5802469135803","black","no","legacy","legacy","legacy","0","uniform","1","undefined","undefined","undefined","1","f","0","0","0","0","80","0","0","0","80","0","76","80","76","0","76","3","80","0","80","Thu Mar  4 15:25:37 2021","The main experiment item","yes","Lexical_Decision_Task.osexp","/Users/norah/Downloads","no","Andale Mono","no","18","no","white","no","yes","576","legacy","76","76","3","/Users/norah/Downloads/3. Psychology/3. Cognition and Language/subject-5210427.csv","legacy","Lentiform Loewenfeld","3.3.8","yes","yes","600bd7cfb6416f0113b04181","602110864497cf011d9c0822","0","f","NA","space","space","space","space","f","556","NA","2297","4218","1100","4613","556","2","legacy","1024","2","48000","-16","task","5210427","odd","NA","17358","21658","19361","161599","4211","9551","8448","162102","108965","161596","162102","161540","21658","162659","15752","161039","4201","139925","Lexical Decision Task","75","52211","81","yes","1024"
"3.165936429","0","7","leps","non-word","92.6829268292683","92.6829268292683","642.8780487804878","642.8780487804878","black","no","legacy","legacy","legacy","0","uniform","1","undefined","undefined","undefined","1","f","0","0","0","0","81","0","0","0","81","0","77","81","77","0","77","3","81","0","81","Thu Mar  4 15:25:37 2021","The main experiment item","yes","Lexical_Decision_Task.osexp","/Users/norah/Downloads","no","Andale Mono","no","18","no","white","no","yes","576","legacy","77","77","3","/Users/norah/Downloads/3. Psychology/3. Cognition and Language/subject-5210427.csv","legacy","Lentiform Loewenfeld","3.3.8","yes","yes","600bd7cfb6416f0113b04181","602110864497cf011d9c0822","0","f","NA","space","space","space","space","f","505","NA","2297","4218","1100","4613","505","2","legacy","1024","2","48000","-16","task","5210427","odd","NA","17358","21658","19361","163222","4211","9551","8448","163725","108965","163220","163725","163163","21658","164231","15752","162663","4201","139925","Lexical Decision Task","76","52716","82","yes","1024"
"3.374137706","10.21","4","tree","word","92.7710843373494","92.7710843373494","645.3855421686746","645.3855421686746","black","no","legacy","legacy","legacy","0","uniform","1","undefined","undefined","undefined","1","j","0","0","0","0","82","0","0","0","82","0","78","82","78","0","78","3","82","0","82","Thu Mar  4 15:25:37 2021","The main experiment item","yes","Lexical_Decision_Task.osexp","/Users/norah/Downloads","no","Andale Mono","no","18","no","white","no","yes","576","legacy","78","78","3","/Users/norah/Downloads/3. Psychology/3. Cognition and Language/subject-5210427.csv","legacy","Lentiform Loewenfeld","3.3.8","yes","yes","600bd7cfb6416f0113b04181","602110864497cf011d9c0822","0","j","NA","space","space","space","space","j","851","NA","2297","4218","1100","4613","851","2","legacy","1024","2","48000","-16","task","5210427","odd","NA","17358","21658","19361","164794","4211","9551","8448","165297","108965","164792","165297","164735","21658","166149","15752","164235","4201","139925","Lexical Decision Task","77","53567","83","yes","1024"
"2.979548375","8.71","4","soup","word","92.85714285714286","92.85714285714286","643.8452380952381","643.8452380952381","black","no","legacy","legacy","legacy","0","uniform","1","undefined","undefined","undefined","1","j","0","0","0","0","83","0","0","0","83","0","79","83","79","0","79","3","83","0","83","Thu Mar  4 15:25:37 2021","The main experiment item","yes","Lexical_Decision_Task.osexp","/Users/norah/Downloads","no","Andale Mono","no","18","no","white","no","yes","576","legacy","79","79","3","/Users/norah/Downloads/3. Psychology/3. Cognition and Language/subject-5210427.csv","legacy","Lentiform Loewenfeld","3.3.8","yes","yes","600bd7cfb6416f0113b04181","602110864497cf011d9c0822","0","j","NA","space","space","space","space","j","516","NA","2297","4218","1100","4613","516","2","legacy","1024","2","48000","-16","task","5210427","odd","NA","17358","21658","19361","166711","4211","9551","8448","167215","108965","166709","167215","166653","21658","167733","15752","166153","4201","139925","Lexical Decision Task","78","54083","84","yes","1024"
"3.252447662","9.67","9","boat","word","92.94117647058823","92.94117647058823","641.2823529411764","641.2823529411764","black","no","legacy","legacy","legacy","0","uniform","1","undefined","undefined","undefined","1","j","0","0","0","0","84","0","0","0","84","0","80","84","80","0","80","3","84","0","84","Thu Mar  4 15:25:37 2021","The main experiment item","yes","Lexical_Decision_Task.osexp","/Users/norah/Downloads","no","Andale Mono","no","18","no","white","no","yes","576","legacy","80","80","3","/Users/norah/Downloads/3. Psychology/3. Cognition and Language/subject-5210427.csv","legacy","Lentiform Loewenfeld","3.3.8","yes","yes","600bd7cfb6416f0113b04181","602110864497cf011d9c0822","0","j","NA","space","space","space","space","j","426","NA","2297","4218","1100","4613","426","2","legacy","1024","2","48000","-16","task","5210427","odd","NA","17358","21658","19361","168296","4211","9551","8448","168799","108965","168293","168799","168236","21658","169225","15752","167736","4201","139925","Lexical Decision Task","79","54509","85","yes","1024"
"2.728085817","10.02","9","bike","word","93.02325581395348","93.02325581395348","638.8837209302326","638.8837209302326","black","no","legacy","legacy","legacy","0","uniform","1","undefined","undefined","undefined","1","j","0","0","0","0","85","0","0","0","85","0","81","85","81","0","81","3","85","0","85","Thu Mar  4 15:25:37 2021","The main experiment item","yes","Lexical_Decision_Task.osexp","/Users/norah/Downloads","no","Andale Mono","no","18","no","white","no","yes","576","legacy","81","81","3","/Users/norah/Downloads/3. Psychology/3. Cognition and Language/subject-5210427.csv","legacy","Lentiform Loewenfeld","3.3.8","yes","yes","600bd7cfb6416f0113b04181","602110864497cf011d9c0822","0","j","NA","space","space","space","space","j","435","NA","2297","4218","1100","4613","435","2","legacy","1024","2","48000","-16","task","5210427","odd","NA","17358","21658","19361","169791","4211","9551","8448","170294","108965","169787","170294","169729","21658","170730","15752","169229","4201","139925","Lexical Decision Task","80","54944","86","yes","1024"
"2.803231716","5.26","3","kiln","word","91.95402298850574","91.95402298850574","637.9885057471264","637.9885057471264","black","no","legacy","legacy","legacy","0","uniform","0","undefined","undefined","undefined","0","j","0","0","0","0","86","0","0","0","86","0","82","86","82","0","82","3","86","0","86","Thu Mar  4 15:25:37 2021","The main experiment item","yes","Lexical_Decision_Task.osexp","/Users/norah/Downloads","no","Andale Mono","no","18","no","white","no","yes","576","legacy","82","82","3","/Users/norah/Downloads/3. Psychology/3. Cognition and Language/subject-5210427.csv","legacy","Lentiform Loewenfeld","3.3.8","yes","yes","600bd7cfb6416f0113b04181","602110864497cf011d9c0822","0","f","NA","space","space","space","space","f","561","NA","2297","4218","1100","4613","561","2","legacy","1024","2","48000","-16","task","5210427","odd","NA","17358","21658","19361","171293","4211","9551","8448","171797","108965","171291","171797","171234","21658","172359","15752","170734","4201","139925","Lexical Decision Task","80","55505","87","yes","1024"
"2.898725182","0","7","turl","non-word","92.04545454545455","92.04545454545455","637.9772727272727","637.9772727272727","black","no","legacy","legacy","legacy","0","uniform","1","undefined","undefined","undefined","1","f","0","0","0","0","87","0","0","0","87","0","83","87","83","0","83","3","87","0","87","Thu Mar  4 15:25:37 2021","The main experiment item","yes","Lexical_Decision_Task.osexp","/Users/norah/Downloads","no","Andale Mono","no","18","no","white","no","yes","576","legacy","83","83","3","/Users/norah/Downloads/3. Psychology/3. Cognition and Language/subject-5210427.csv","legacy","Lentiform Loewenfeld","3.3.8","yes","yes","600bd7cfb6416f0113b04181","602110864497cf011d9c0822","0","f","NA","space","space","space","space","f","637","NA","2297","4218","1100","4613","637","2","legacy","1024","2","48000","-16","task","5210427","odd","NA","17358","21658","19361","173926","4211","9551","8448","174431","108965","173923","174432","173863","21658","175070","15752","170734","4201","172363","Lexical Decision Task","81","56142","88","yes","1024"
"2.616654026","9.37","5","gift","word","92.13483146067416","92.13483146067416","636.8202247191011","636.8202247191011","black","no","legacy","legacy","legacy","0","uniform","1","undefined","undefined","undefined","1","j","0","0","0","0","88","0","0","0","88","0","84","88","84","0","84","3","88","0","88","Thu Mar  4 15:25:37 2021","The main experiment item","yes","Lexical_Decision_Task.osexp","/Users/norah/Downloads","no","Andale Mono","no","18","no","white","no","yes","576","legacy","84","84","3","/Users/norah/Downloads/3. Psychology/3. Cognition and Language/subject-5210427.csv","legacy","Lentiform Loewenfeld","3.3.8","yes","yes","600bd7cfb6416f0113b04181","602110864497cf011d9c0822","0","j","NA","space","space","space","space","j","535","NA","2297","4218","1100","4613","535","2","legacy","1024","2","48000","-16","task","5210427","odd","NA","17358","21658","19361","175634","4211","9551","8448","176137","108965","175631","176138","175574","21658","176674","15752","175074","4201","172363","Lexical Decision Task","82","56677","89","yes","1024"
"3.248054965","7.86","5","glow","word","92.22222222222223","92.22222222222223","634.8111111111111","634.8111111111111","black","no","legacy","legacy","legacy","0","uniform","1","undefined","undefined","undefined","1","j","0","0","0","0","89","0","0","0","89","0","85","89","85","0","85","3","89","0","89","Thu Mar  4 15:25:37 2021","The main experiment item","yes","Lexical_Decision_Task.osexp","/Users/norah/Downloads","no","Andale Mono","no","18","no","white","no","yes","576","legacy","85","85","3","/Users/norah/Downloads/3. Psychology/3. Cognition and Language/subject-5210427.csv","legacy","Lentiform Loewenfeld","3.3.8","yes","yes","600bd7cfb6416f0113b04181","602110864497cf011d9c0822","0","j","NA","space","space","space","space","j","456","NA","2297","4218","1100","4613","456","2","legacy","1024","2","48000","-16","task","5210427","odd","NA","17358","21658","19361","177237","4211","9551","8448","177742","108965","177235","177742","177178","21658","178199","15752","176678","4201","172363","Lexical Decision Task","83","57133","90","yes","1024"
"2.6599162","0","2","saff","non-word","92.3076923076923","92.3076923076923","634.7802197802198","634.7802197802198","black","no","legacy","legacy","legacy","0","uniform","1","undefined","undefined","undefined","1","f","0","0","0","0","90","0","0","0","90","0","86","90","86","0","86","3","90","0","90","Thu Mar  4 15:25:37 2021","The main experiment item","yes","Lexical_Decision_Task.osexp","/Users/norah/Downloads","no","Andale Mono","no","18","no","white","no","yes","576","legacy","86","86","3","/Users/norah/Downloads/3. Psychology/3. Cognition and Language/subject-5210427.csv","legacy","Lentiform Loewenfeld","3.3.8","yes","yes","600bd7cfb6416f0113b04181","602110864497cf011d9c0822","0","f","NA","space","space","space","space","f","632","NA","2297","4218","1100","4613","632","2","legacy","1024","2","48000","-16","task","5210427","odd","NA","17358","21658","19361","178762","4211","9551","8448","179265","108965","178759","179265","178703","21658","179898","15752","178203","4201","172363","Lexical Decision Task","84","57765","91","yes","1024"
"3.081107167","0","6","chot","non-word","92.3913043478261","92.3913043478261","634.3804347826087","634.3804347826087","black","no","legacy","legacy","legacy","0","uniform","1","undefined","undefined","undefined","1","f","0","0","0","0","91","0","0","0","91","0","87","91","87","0","87","3","91","0","91","Thu Mar  4 15:25:37 2021","The main experiment item","yes","Lexical_Decision_Task.osexp","/Users/norah/Downloads","no","Andale Mono","no","18","no","white","no","yes","576","legacy","87","87","3","/Users/norah/Downloads/3. Psychology/3. Cognition and Language/subject-5210427.csv","legacy","Lentiform Loewenfeld","3.3.8","yes","yes","600bd7cfb6416f0113b04181","602110864497cf011d9c0822","0","f","NA","space","space","space","space","f","598","NA","2297","4218","1100","4613","598","2","legacy","1024","2","48000","-16","task","5210427","odd","NA","17358","21658","19361","180461","4211","9551","8448","180964","108965","180459","180965","180402","21658","181564","15752","179902","4201","172363","Lexical Decision Task","85","58363","92","yes","1024"
"2.966923697","5.4","2","fume","word","92.47311827956989","92.47311827956989","635.247311827957","635.247311827957","black","no","legacy","legacy","legacy","0","uniform","1","undefined","undefined","undefined","1","j","0","0","0","0","92","0","0","0","92","0","88","92","88","0","88","3","92","0","92","Thu Mar  4 15:25:37 2021","The main experiment item","yes","Lexical_Decision_Task.osexp","/Users/norah/Downloads","no","Andale Mono","no","18","no","white","no","yes","576","legacy","88","88","3","/Users/norah/Downloads/3. Psychology/3. Cognition and Language/subject-5210427.csv","legacy","Lentiform Loewenfeld","3.3.8","yes","yes","600bd7cfb6416f0113b04181","602110864497cf011d9c0822","0","j","NA","space","space","space","space","j","715","NA","2297","4218","1100","4613","715","2","legacy","1024","2","48000","-16","task","5210427","odd","NA","17358","21658","19361","182127","4211","9551","8448","182631","108965","182124","182631","182068","21658","183347","15752","181568","4201","172363","Lexical Decision Task","86","59078","93","yes","1024"
"2.937852093","0","7","bamp","non-word","92.55319148936171","92.55319148936171","634.4148936170212","634.4148936170212","black","no","legacy","legacy","legacy","0","uniform","1","undefined","undefined","undefined","1","f","0","0","0","0","93","0","0","0","93","0","89","93","89","0","89","3","93","0","93","Thu Mar  4 15:25:37 2021","The main experiment item","yes","Lexical_Decision_Task.osexp","/Users/norah/Downloads","no","Andale Mono","no","18","no","white","no","yes","576","legacy","89","89","3","/Users/norah/Downloads/3. Psychology/3. Cognition and Language/subject-5210427.csv","legacy","Lentiform Loewenfeld","3.3.8","yes","yes","600bd7cfb6416f0113b04181","602110864497cf011d9c0822","0","f","NA","space","space","space","space","f","557","NA","2297","4218","1100","4613","557","2","legacy","1024","2","48000","-16","task","5210427","odd","NA","17358","21658","19361","183910","4211","9551","8448","184413","108965","183907","184413","183851","21658","184971","15752","183351","4201","172363","Lexical Decision Task","87","59635","94","yes","1024"
"2.971428938","9.86","7","spot","word","92.63157894736842","92.63157894736842","632.3473684210526","632.3473684210526","black","no","legacy","legacy","legacy","0","uniform","1","undefined","undefined","undefined","1","j","0","0","0","0","94","0","0","0","94","0","90","94","90","0","90","3","94","0","94","Thu Mar  4 15:25:37 2021","The main experiment item","yes","Lexical_Decision_Task.osexp","/Users/norah/Downloads","no","Andale Mono","no","18","no","white","no","yes","576","legacy","90","90","3","/Users/norah/Downloads/3. Psychology/3. Cognition and Language/subject-5210427.csv","legacy","Lentiform Loewenfeld","3.3.8","yes","yes","600bd7cfb6416f0113b04181","602110864497cf011d9c0822","0","j","NA","space","space","space","space","j","438","NA","2297","4218","1100","4613","438","2","legacy","1024","2","48000","-16","task","5210427","odd","NA","17358","21658","19361","185535","4211","9551","8448","186039","108965","185532","186039","185475","21658","186478","15752","184975","4201","172363","Lexical Decision Task","88","60073","95","yes","1024"
"3.121778632","0","9","sark","non-word","92.70833333333333","92.70833333333333","631.5","631.5","black","no","legacy","legacy","legacy","0","uniform","1","undefined","undefined","undefined","1","f","0","0","0","0","95","0","0","0","95","0","91","95","91","0","91","3","95","0","95","Thu Mar  4 15:25:37 2021","The main experiment item","yes","Lexical_Decision_Task.osexp","/Users/norah/Downloads","no","Andale Mono","no","18","no","white","no","yes","576","legacy","91","91","3","/Users/norah/Downloads/3. Psychology/3. Cognition and Language/subject-5210427.csv","legacy","Lentiform Loewenfeld","3.3.8","yes","yes","600bd7cfb6416f0113b04181","602110864497cf011d9c0822","0","f","NA","space","space","space","space","f","551","NA","2297","4218","1100","4613","551","2","legacy","1024","2","48000","-16","task","5210427","odd","NA","17358","21658","19361","187042","4211","9551","8448","187545","108965","187039","187545","186982","21658","188097","15752","186481","4201","172363","Lexical Decision Task","89","60624","96","yes","1024"
"3.384413096","10.15","3","glad","word","92.78350515463917","92.78350515463917","632.5979381443299","632.5979381443299","black","no","legacy","legacy","legacy","0","uniform","1","undefined","undefined","undefined","1","j","0","0","0","0","96","0","0","0","96","0","92","96","92","0","92","3","96","0","96","Thu Mar  4 15:25:37 2021","The main experiment item","yes","Lexical_Decision_Task.osexp","/Users/norah/Downloads","no","Andale Mono","no","18","no","white","no","yes","576","legacy","92","92","3","/Users/norah/Downloads/3. Psychology/3. Cognition and Language/subject-5210427.csv","legacy","Lentiform Loewenfeld","3.3.8","yes","yes","600bd7cfb6416f0113b04181","602110864497cf011d9c0822","0","j","NA","space","space","space","space","j","738","NA","2297","4218","1100","4613","738","2","legacy","1024","2","48000","-16","task","5210427","odd","NA","17358","21658","19361","188659","4211","9551","8448","189162","108965","188656","189163","188600","21658","189902","15752","188100","4201","172363","Lexical Decision Task","90","61362","97","yes","1024"
"2.82129731","6.72","5","plum","word","92.85714285714286","92.85714285714286","634.3469387755102","634.3469387755102","black","no","legacy","legacy","legacy","0","uniform","1","undefined","undefined","undefined","1","j","0","0","0","0","97","0","0","0","97","0","93","97","93","0","93","3","97","0","97","Thu Mar  4 15:25:37 2021","The main experiment item","yes","Lexical_Decision_Task.osexp","/Users/norah/Downloads","no","Andale Mono","no","18","no","white","no","yes","576","legacy","93","93","3","/Users/norah/Downloads/3. Psychology/3. Cognition and Language/subject-5210427.csv","legacy","Lentiform Loewenfeld","3.3.8","yes","yes","600bd7cfb6416f0113b04181","602110864497cf011d9c0822","0","j","NA","space","space","space","space","j","804","NA","2297","4218","1100","4613","804","2","legacy","1024","2","48000","-16","task","5210427","odd","NA","17358","21658","19361","190465","4211","9551","8448","190968","108965","190462","190969","190406","21658","191774","15752","189906","4201","172363","Lexical Decision Task","91","62166","98","yes","1024"
