"Log_BG","Log_Freq_HAL","Ortho_N","Stimulus","Type","acc","accuracy","average_response_time","avg_rt","background","bidi","canvas_backend","clock_backend","color_backend","compensation","coordinates","correct","correct_Experimental_intro","correct_Introduction","correct_Practice_intro","correct_experimenter_kb","correct_response","count_End_Of_Experiment","count_End_Of_Practice","count_Experimental_Loop","count_Experimental_intro","count_Fixation","count_Introduction","count_Practice_Loop","count_Practice_intro","count_Stimulus","count_block_break_feedback","count_experimental_sequence","count_experimenter_kb","count_increment_trial_count","count_init_trial_count","count_logger","count_practice_sequence","count_right","count_task","count_wrong","datetime","description","disable_garbage_collection","experiment_file","experiment_path","font_bold","font_family","font_italic","font_size","font_underline","foreground","form_clicks","fullscreen","height","keyboard_backend","live_row","live_row_Experimental_Loop","live_row_Practice_Loop","logfile","mouse_backend","opensesame_codename","opensesame_version","osf_always_upload_data","osf_always_upload_experiment","osf_datanode_id","osf_id","repeat_cycle","response","response_End_Of_Experiment","response_Experimental_intro","response_Introduction","response_Practice_intro","response_block_break_feedback","response_experimenter_kb","response_time","response_time_End_Of_Experiment","response_time_Experimental_intro","response_time_Introduction","response_time_Practice_intro","response_time_block_break_feedback","response_time_experimenter_kb","round_decimals","sampler_backend","sound_buf_size","sound_channels","sound_freq","sound_sample_size","start","subject_nr","subject_parity","time_End_Of_Experiment","time_End_Of_Practice","time_Experimental_Loop","time_Experimental_intro","time_Fixation","time_Introduction","time_Practice_Loop","time_Practice_intro","time_Stimulus","time_block_break_feedback","time_experimental_sequence","time_experimenter_kb","time_increment_trial_count","time_init_trial_count","time_logger","time_practice_sequence","time_right","time_task","time_wrong","title","total_correct","total_response_time","total_responses","uniform_coordinates","width"
"2.952953801","0","8","clax","non-word","80","80","1527.2","1527.2","black","no","legacy","legacy","legacy","0","uniform","1","undefined","undefined","undefined","1","f","0","0","0","0","4","0","0","0","4","NA","0","4","0","0","0","3","4","0","4","Fri Feb 19 11:21:53 2021","The main experiment item","yes","Lexical_Decision_Task.osexp","C:/Users/melan","no","Andale Mono","no","18","no","white","no","yes","576","legacy","0","0","3","C:/Users/melan/subject-5210344.csv","legacy","Lentiform Loewenfeld","3.3.7","yes","yes","600bd7cfb6416f0113b04181","602110864497cf011d9c0822","0","f","NA","space","space","space","NA","f","852","NA","3097","28122","18367","NA","852","2","legacy","1024","2","48000","-16","task","5210344","even","NA","66903","72003","68906","72036","8259","54750","36383","72537","NA","72035","72537","NA","72003","73390","64411","66378","8241","58425","Lexical Decision Task","4","7636","5","yes","1024"
"3.062080345","0","6","tomp","non-word","83.33333333333333","83.33333333333333","1386.5","1386.5","black","no","legacy","legacy","legacy","0","uniform","1","undefined","undefined","undefined","1","f","0","0","0","0","5","0","0","0","5","NA","1","5","1","0","1","3","5","0","5","Fri Feb 19 11:21:53 2021","The main experiment item","yes","Lexical_Decision_Task.osexp","C:/Users/melan","no","Andale Mono","no","18","no","white","no","yes","576","legacy","1","1","3","C:/Users/melan/subject-5210344.csv","legacy","Lentiform Loewenfeld","3.3.7","yes","yes","600bd7cfb6416f0113b04181","602110864497cf011d9c0822","0","f","NA","space","space","space","NA","f","683","NA","3097","28122","18367","NA","683","2","legacy","1024","2","48000","-16","task","5210344","even","NA","66903","72003","68906","74028","8259","54750","36383","74528","NA","74026","74529","73923","72003","75212","64411","73422","8241","58425","Lexical Decision Task","5","8319","6","yes","1024"
"3.307211407","6.07","7","honk","word","85.71428571428571","85.71428571428571","1303.7142857142858","1303.7142857142858","black","no","legacy","legacy","legacy","0","uniform","1","undefined","undefined","undefined","1","j","0","0","0","0","6","0","0","0","6","NA","2","6","2","0","2","3","6","0","6","Fri Feb 19 11:21:53 2021","The main experiment item","yes","Lexical_Decision_Task.osexp","C:/Users/melan","no","Andale Mono","no","18","no","white","no","yes","576","legacy","2","2","3","C:/Users/melan/subject-5210344.csv","legacy","Lentiform Loewenfeld","3.3.7","yes","yes","600bd7cfb6416f0113b04181","602110864497cf011d9c0822","0","j","NA","space","space","space","NA","j","807","NA","3097","28122","18367","NA","807","2","legacy","1024","2","48000","-16","task","5210344","even","NA","66903","72003","68906","75791","8259","54750","36383","76294","NA","75790","76294","75746","72003","77102","64411","75246","8241","58425","Lexical Decision Task","6","9126","7","yes","1024"
"3.259832699","0","9","flar","non-word","87.5","87.5","1261.5","1261.5","black","no","legacy","legacy","legacy","0","uniform","1","undefined","undefined","undefined","1","f","0","0","0","0","7","0","0","0","7","NA","3","7","3","0","3","3","7","0","7","Fri Feb 19 11:21:53 2021","The main experiment item","yes","Lexical_Decision_Task.osexp","C:/Users/melan","no","Andale Mono","no","18","no","white","no","yes","576","legacy","3","3","3","C:/Users/melan/subject-5210344.csv","legacy","Lentiform Loewenfeld","3.3.7","yes","yes","600bd7cfb6416f0113b04181","602110864497cf011d9c0822","0","f","NA","space","space","space","NA","f","966","NA","3097","28122","18367","NA","966","2","legacy","1024","2","48000","-16","task","5210344","even","NA","66903","72003","68906","77692","8259","54750","36383","78195","NA","77691","78195","77635","72003","79161","64411","77135","8241","58425","Lexical Decision Task","7","10092","8","yes","1024"
"3.495914186","0","4","peng","non-word","77.77777777777777","77.77777777777777","1207.6666666666667","1207.6666666666667","black","no","legacy","legacy","legacy","0","uniform","0","undefined","undefined","undefined","0","f","0","0","0","0","8","0","0","0","8","NA","4","8","4","0","4","3","8","0","8","Fri Feb 19 11:21:53 2021","The main experiment item","yes","Lexical_Decision_Task.osexp","C:/Users/melan","no","Andale Mono","no","18","no","white","no","yes","576","legacy","4","4","3","C:/Users/melan/subject-5210344.csv","legacy","Lentiform Loewenfeld","3.3.7","yes","yes","600bd7cfb6416f0113b04181","602110864497cf011d9c0822","0","j","NA","space","space","space","NA","j","777","NA","3097","28122","18367","NA","777","2","legacy","1024","2","48000","-16","task","5210344","even","NA","66903","72003","68906","79720","8259","54750","36383","80223","NA","79719","80223","79673","72003","81001","64411","79173","8241","58425","Lexical Decision Task","7","10869","9","yes","1024"
"2.68604012","0","4","pumb","non-word","80","80","1172.2","1172.2","black","no","legacy","legacy","legacy","0","uniform","1","undefined","undefined","undefined","1","f","0","0","0","0","9","0","0","0","9","NA","5","9","5","0","5","3","9","0","9","Fri Feb 19 11:21:53 2021","The main experiment item","yes","Lexical_Decision_Task.osexp","C:/Users/melan","no","Andale Mono","no","18","no","white","no","yes","576","legacy","5","5","3","C:/Users/melan/subject-5210344.csv","legacy","Lentiform Loewenfeld","3.3.7","yes","yes","600bd7cfb6416f0113b04181","602110864497cf011d9c0822","0","f","NA","space","space","space","NA","f","853","NA","3097","28122","18367","NA","853","2","legacy","1024","2","48000","-16","task","5210344","even","NA","66903","72003","68906","82605","8259","54750","36383","83106","NA","82604","83106","82544","72003","83959","64411","79173","8241","81044","Lexical Decision Task","8","11722","10","yes","1024"
"3.194328374","9.42","6","harm","word","81.81818181818181","81.81818181818181","1138.6363636363637","1138.6363636363637","black","no","legacy","legacy","legacy","0","uniform","1","undefined","undefined","undefined","1","j","0","0","0","0","10","0","0","0","10","NA","6","10","6","0","6","3","10","0","10","Fri Feb 19 11:21:53 2021","The main experiment item","yes","Lexical_Decision_Task.osexp","C:/Users/melan","no","Andale Mono","no","18","no","white","no","yes","576","legacy","6","6","3","C:/Users/melan/subject-5210344.csv","legacy","Lentiform Loewenfeld","3.3.7","yes","yes","600bd7cfb6416f0113b04181","602110864497cf011d9c0822","0","j","NA","space","space","space","NA","j","803","NA","3097","28122","18367","NA","803","2","legacy","1024","2","48000","-16","task","5210344","even","NA","66903","72003","68906","84544","8259","54750","36383","85044","NA","84542","85045","84500","72003","85849","64411","84000","8241","81044","Lexical Decision Task","9","12525","11","yes","1024"
"3.311895072","0","9","gung","non-word","83.33333333333333","83.33333333333333","1113.25","1113.25","black","no","legacy","legacy","legacy","0","uniform","1","undefined","undefined","undefined","1","f","0","0","0","0","11","0","0","0","11","NA","7","11","7","0","7","3","11","0","11","Fri Feb 19 11:21:53 2021","The main experiment item","yes","Lexical_Decision_Task.osexp","C:/Users/melan","no","Andale Mono","no","18","no","white","no","yes","576","legacy","7","7","3","C:/Users/melan/subject-5210344.csv","legacy","Lentiform Loewenfeld","3.3.7","yes","yes","600bd7cfb6416f0113b04181","602110864497cf011d9c0822","0","f","NA","space","space","space","NA","f","834","NA","3097","28122","18367","NA","834","2","legacy","1024","2","48000","-16","task","5210344","even","NA","66903","72003","68906","86431","8259","54750","36383","86934","NA","86430","86934","86387","72003","87769","64411","85887","8241","81044","Lexical Decision Task","10","13359","12","yes","1024"
"3.16326079","0","5","parg","non-word","84.61538461538461","84.61538461538461","1100.5384615384614","1100.5384615384614","black","no","legacy","legacy","legacy","0","uniform","1","undefined","undefined","undefined","1","f","0","0","0","0","12","0","0","0","12","NA","8","12","8","0","8","3","12","0","12","Fri Feb 19 11:21:53 2021","The main experiment item","yes","Lexical_Decision_Task.osexp","C:/Users/melan","no","Andale Mono","no","18","no","white","no","yes","576","legacy","8","8","3","C:/Users/melan/subject-5210344.csv","legacy","Lentiform Loewenfeld","3.3.7","yes","yes","600bd7cfb6416f0113b04181","602110864497cf011d9c0822","0","f","NA","space","space","space","NA","f","948","NA","3097","28122","18367","NA","948","2","legacy","1024","2","48000","-16","task","5210344","even","NA","66903","72003","68906","88366","8259","54750","36383","88866","NA","88364","88867","88310","72003","89816","64411","87809","8241","81044","Lexical Decision Task","11","14307","13","yes","1024"
"2.9737419","7.69","7","claw","word","85.71428571428571","85.71428571428571","1076.0714285714287","1076.0714285714287","black","no","legacy","legacy","legacy","0","uniform","1","undefined","undefined","undefined","1","j","0","0","0","0","13","0","0","0","13","NA","9","13","9","0","9","3","13","0","13","Fri Feb 19 11:21:53 2021","The main experiment item","yes","Lexical_Decision_Task.osexp","C:/Users/melan","no","Andale Mono","no","18","no","white","no","yes","576","legacy","9","9","3","C:/Users/melan/subject-5210344.csv","legacy","Lentiform Loewenfeld","3.3.7","yes","yes","600bd7cfb6416f0113b04181","602110864497cf011d9c0822","0","j","NA","space","space","space","NA","j","758","NA","3097","28122","18367","NA","758","2","legacy","1024","2","48000","-16","task","5210344","even","NA","66903","72003","68906","90416","8259","54750","36383","90917","NA","90415","90917","90358","72003","91675","64411","89858","8241","81044","Lexical Decision Task","12","15065","14","yes","1024"
"3.363486562","6.93","9","lush","word","86.66666666666667","86.66666666666667","1053.9333333333334","1053.9333333333334","black","no","legacy","legacy","legacy","0","uniform","1","undefined","undefined","undefined","1","j","0","0","0","0","14","0","0","0","14","NA","10","14","10","0","10","3","14","0","14","Fri Feb 19 11:21:53 2021","The main experiment item","yes","Lexical_Decision_Task.osexp","C:/Users/melan","no","Andale Mono","no","18","no","white","no","yes","576","legacy","10","10","3","C:/Users/melan/subject-5210344.csv","legacy","Lentiform Loewenfeld","3.3.7","yes","yes","600bd7cfb6416f0113b04181","602110864497cf011d9c0822","0","j","NA","space","space","space","NA","j","744","NA","3097","28122","18367","NA","744","2","legacy","1024","2","48000","-16","task","5210344","even","NA","66903","72003","68906","92273","8259","54750","36383","92773","NA","92272","92774","92214","72003","93519","64411","91714","8241","81044","Lexical Decision Task","13","15809","15","yes","1024"
"2.75025376","10.2","6","jump","word","87.5","87.5","1039.75","1039.75","black","no","legacy","legacy","legacy","0","uniform","1","undefined","undefined","undefined","1","j","0","0","0","0","15","0","0","0","15","NA","11","15","11","0","11","3","15","0","15","Fri Feb 19 11:21:53 2021","The main experiment item","yes","Lexical_Decision_Task.osexp","C:/Users/melan","no","Andale Mono","no","18","no","white","no","yes","576","legacy","11","11","3","C:/Users/melan/subject-5210344.csv","legacy","Lentiform Loewenfeld","3.3.7","yes","yes","600bd7cfb6416f0113b04181","602110864497cf011d9c0822","0","j","NA","space","space","space","NA","j","827","NA","3097","28122","18367","NA","827","2","legacy","1024","2","48000","-16","task","5210344","even","NA","66903","72003","68906","94119","8259","54750","36383","94622","NA","94118","94622","94059","72003","95450","64411","93559","8241","81044","Lexical Decision Task","14","16636","16","yes","1024"
"2.814027728","8.2","4","foam","word","88.23529411764706","88.23529411764706","1025.764705882353","1025.764705882353","black","no","legacy","legacy","legacy","0","uniform","1","undefined","undefined","undefined","1","j","0","0","0","0","16","0","0","0","16","NA","12","16","12","0","12","3","16","0","16","Fri Feb 19 11:21:53 2021","The main experiment item","yes","Lexical_Decision_Task.osexp","C:/Users/melan","no","Andale Mono","no","18","no","white","no","yes","576","legacy","12","12","3","C:/Users/melan/subject-5210344.csv","legacy","Lentiform Loewenfeld","3.3.7","yes","yes","600bd7cfb6416f0113b04181","602110864497cf011d9c0822","0","j","NA","space","space","space","NA","j","802","NA","3097","28122","18367","NA","802","2","legacy","1024","2","48000","-16","task","5210344","even","NA","66903","72003","68906","96036","8259","54750","36383","96538","NA","96034","96538","95991","72003","97341","64411","95491","8241","81044","Lexical Decision Task","15","17438","17","yes","1024"
"3.29439347","8.6","9","wand","word","88.88888888888889","88.88888888888889","1011.8888888888889","1011.8888888888889","black","no","legacy","legacy","legacy","0","uniform","1","undefined","undefined","undefined","1","j","0","0","0","0","17","0","0","0","17","NA","13","17","13","0","13","3","17","0","17","Fri Feb 19 11:21:53 2021","The main experiment item","yes","Lexical_Decision_Task.osexp","C:/Users/melan","no","Andale Mono","no","18","no","white","no","yes","576","legacy","13","13","3","C:/Users/melan/subject-5210344.csv","legacy","Lentiform Loewenfeld","3.3.7","yes","yes","600bd7cfb6416f0113b04181","602110864497cf011d9c0822","0","j","NA","space","space","space","NA","j","776","NA","3097","28122","18367","NA","776","2","legacy","1024","2","48000","-16","task","5210344","even","NA","66903","72003","68906","97941","8259","54750","36383","98442","NA","97940","98442","97883","72003","99218","64411","97383","8241","81044","Lexical Decision Task","16","18214","18","yes","1024"
"3.20996159","0","4","clee","non-word","89.47368421052632","89.47368421052632","1008.7894736842105","1008.7894736842105","black","no","legacy","legacy","legacy","0","uniform","1","undefined","undefined","undefined","1","f","0","0","0","0","18","0","0","0","18","NA","14","18","14","0","14","3","18","0","18","Fri Feb 19 11:21:53 2021","The main experiment item","yes","Lexical_Decision_Task.osexp","C:/Users/melan","no","Andale Mono","no","18","no","white","no","yes","576","legacy","14","14","3","C:/Users/melan/subject-5210344.csv","legacy","Lentiform Loewenfeld","3.3.7","yes","yes","600bd7cfb6416f0113b04181","602110864497cf011d9c0822","0","f","NA","space","space","space","NA","f","953","NA","3097","28122","18367","NA","953","2","legacy","1024","2","48000","-16","task","5210344","even","NA","66903","72003","68906","99802","8259","54750","36383","100302","NA","99801","100303","99759","72003","101257","64411","99259","8241","81044","Lexical Decision Task","17","19167","19","yes","1024"
"2.616654026","9.37","5","gift","word","90","90","991.1","991.1","black","no","legacy","legacy","legacy","0","uniform","1","undefined","undefined","undefined","1","j","0","0","0","0","19","0","0","0","19","NA","15","19","15","0","15","3","19","0","19","Fri Feb 19 11:21:53 2021","The main experiment item","yes","Lexical_Decision_Task.osexp","C:/Users/melan","no","Andale Mono","no","18","no","white","no","yes","576","legacy","15","15","3","C:/Users/melan/subject-5210344.csv","legacy","Lentiform Loewenfeld","3.3.7","yes","yes","600bd7cfb6416f0113b04181","602110864497cf011d9c0822","0","j","NA","space","space","space","NA","j","655","NA","3097","28122","18367","NA","655","2","legacy","1024","2","48000","-16","task","5210344","even","NA","66903","72003","68906","101849","8259","54750","36383","102352","NA","101848","102352","101792","72003","103008","64411","101292","8241","81044","Lexical Decision Task","18","19822","20","yes","1024"
"2.696356389","0","1","pizz","non-word","90.47619047619048","90.47619047619048","981.047619047619","981.047619047619","black","no","legacy","legacy","legacy","0","uniform","1","undefined","undefined","undefined","1","f","0","0","0","0","20","0","0","0","20","NA","16","20","16","0","16","3","20","0","20","Fri Feb 19 11:21:53 2021","The main experiment item","yes","Lexical_Decision_Task.osexp","C:/Users/melan","no","Andale Mono","no","18","no","white","no","yes","576","legacy","16","16","3","C:/Users/melan/subject-5210344.csv","legacy","Lentiform Loewenfeld","3.3.7","yes","yes","600bd7cfb6416f0113b04181","602110864497cf011d9c0822","0","f","NA","space","space","space","NA","f","780","NA","3097","28122","18367","NA","780","2","legacy","1024","2","48000","-16","task","5210344","even","NA","66903","72003","68906","103594","8259","54750","36383","104094","NA","103593","104095","103548","72003","104876","64411","103048","8241","81044","Lexical Decision Task","19","20602","21","yes","1024"
"3.347850856","10.51","2","rich","word","90.9090909090909","90.9090909090909","966.0909090909091","966.0909090909091","black","no","legacy","legacy","legacy","0","uniform","1","undefined","undefined","undefined","1","j","0","0","0","0","21","0","0","0","21","NA","17","21","17","0","17","3","21","0","21","Fri Feb 19 11:21:53 2021","The main experiment item","yes","Lexical_Decision_Task.osexp","C:/Users/melan","no","Andale Mono","no","18","no","white","no","yes","576","legacy","17","17","3","C:/Users/melan/subject-5210344.csv","legacy","Lentiform Loewenfeld","3.3.7","yes","yes","600bd7cfb6416f0113b04181","602110864497cf011d9c0822","0","j","NA","space","space","space","NA","j","652","NA","3097","28122","18367","NA","652","2","legacy","1024","2","48000","-16","task","5210344","even","NA","66903","72003","68906","105427","8259","54750","36383","105927","NA","105425","105928","105382","72003","106580","64411","104882","8241","81044","Lexical Decision Task","20","21254","22","yes","1024"
"2.594027722","9.08","8","skip","word","91.30434782608695","91.30434782608695","951.1739130434783","951.1739130434783","black","no","legacy","legacy","legacy","0","uniform","1","undefined","undefined","undefined","1","j","0","0","0","0","22","0","0","0","22","NA","18","22","18","0","18","3","22","0","22","Fri Feb 19 11:21:53 2021","The main experiment item","yes","Lexical_Decision_Task.osexp","C:/Users/melan","no","Andale Mono","no","18","no","white","no","yes","576","legacy","18","18","3","C:/Users/melan/subject-5210344.csv","legacy","Lentiform Loewenfeld","3.3.7","yes","yes","600bd7cfb6416f0113b04181","602110864497cf011d9c0822","0","j","NA","space","space","space","NA","j","623","NA","3097","28122","18367","NA","623","2","legacy","1024","2","48000","-16","task","5210344","even","NA","66903","72003","68906","107161","8259","54750","36383","107661","NA","107160","107662","107118","72003","108286","64411","106618","8241","81044","Lexical Decision Task","21","21877","23","yes","1024"
"2.899092422","7.27","6","snag","word","91.66666666666667","91.66666666666667","955.8333333333334","955.8333333333334","black","no","legacy","legacy","legacy","0","uniform","1","undefined","undefined","undefined","1","j","0","0","0","0","23","0","0","0","23","NA","19","23","19","0","19","3","23","0","23","Fri Feb 19 11:21:53 2021","The main experiment item","yes","Lexical_Decision_Task.osexp","C:/Users/melan","no","Andale Mono","no","18","no","white","no","yes","576","legacy","19","19","3","C:/Users/melan/subject-5210344.csv","legacy","Lentiform Loewenfeld","3.3.7","yes","yes","600bd7cfb6416f0113b04181","602110864497cf011d9c0822","0","j","NA","space","space","space","NA","j","1063","NA","3097","28122","18367","NA","1063","2","legacy","1024","2","48000","-16","task","5210344","even","NA","66903","72003","68906","108878","8259","54750","36383","109379","NA","108877","109379","108831","72003","110443","64411","108331","8241","81044","Lexical Decision Task","22","22940","24","yes","1024"
"3.474361976","5.24","6","veer","word","88","88","949.12","949.12","black","no","legacy","legacy","legacy","0","uniform","0","undefined","undefined","undefined","0","j","0","0","0","0","24","0","0","0","24","NA","20","24","20","0","20","3","24","0","24","Fri Feb 19 11:21:53 2021","The main experiment item","yes","Lexical_Decision_Task.osexp","C:/Users/melan","no","Andale Mono","no","18","no","white","no","yes","576","legacy","20","20","3","C:/Users/melan/subject-5210344.csv","legacy","Lentiform Loewenfeld","3.3.7","yes","yes","600bd7cfb6416f0113b04181","602110864497cf011d9c0822","0","f","NA","space","space","space","NA","f","788","NA","3097","28122","18367","NA","788","2","legacy","1024","2","48000","-16","task","5210344","even","NA","66903","72003","68906","111021","8259","54750","36383","111521","NA","111020","111522","110977","72003","112311","64411","110477","8241","81044","Lexical Decision Task","22","23728","25","yes","1024"
"3.492014979","0","9","yine","non-word","88.46153846153847","88.46153846153847","946.3461538461538","946.3461538461538","black","no","legacy","legacy","legacy","0","uniform","1","undefined","undefined","undefined","1","f","0","0","0","0","25","0","0","0","25","NA","21","25","21","0","21","3","25","0","25","Fri Feb 19 11:21:53 2021","The main experiment item","yes","Lexical_Decision_Task.osexp","C:/Users/melan","no","Andale Mono","no","18","no","white","no","yes","576","legacy","21","21","3","C:/Users/melan/subject-5210344.csv","legacy","Lentiform Loewenfeld","3.3.7","yes","yes","600bd7cfb6416f0113b04181","602110864497cf011d9c0822","0","f","NA","space","space","space","NA","f","877","NA","3097","28122","18367","NA","877","2","legacy","1024","2","48000","-16","task","5210344","even","NA","66903","72003","68906","113913","8259","54750","36383","114413","NA","113912","114414","113858","72003","115292","64411","110477","8241","112358","Lexical Decision Task","23","24605","26","yes","1024"
"3.22685757","9.99","7","roll","word","88.88888888888889","88.88888888888889","934.7407407407408","934.7407407407408","black","no","legacy","legacy","legacy","0","uniform","1","undefined","undefined","undefined","1","j","0","0","0","0","26","0","0","0","26","NA","22","26","22","0","22","3","26","0","26","Fri Feb 19 11:21:53 2021","The main experiment item","yes","Lexical_Decision_Task.osexp","C:/Users/melan","no","Andale Mono","no","18","no","white","no","yes","576","legacy","22","22","3","C:/Users/melan/subject-5210344.csv","legacy","Lentiform Loewenfeld","3.3.7","yes","yes","600bd7cfb6416f0113b04181","602110864497cf011d9c0822","0","j","NA","space","space","space","NA","j","633","NA","3097","28122","18367","NA","633","2","legacy","1024","2","48000","-16","task","5210344","even","NA","66903","72003","68906","115894","8259","54750","36383","116394","NA","115893","116395","115833","72003","117029","64411","115333","8241","112358","Lexical Decision Task","24","25238","27","yes","1024"
"2.803231716","5.26","3","kiln","word","85.71428571428571","85.71428571428571","929.5714285714286","929.5714285714286","black","no","legacy","legacy","legacy","0","uniform","0","undefined","undefined","undefined","0","j","0","0","0","0","27","0","0","0","27","NA","23","27","23","0","23","3","27","0","27","Fri Feb 19 11:21:53 2021","The main experiment item","yes","Lexical_Decision_Task.osexp","C:/Users/melan","no","Andale Mono","no","18","no","white","no","yes","576","legacy","23","23","3","C:/Users/melan/subject-5210344.csv","legacy","Lentiform Loewenfeld","3.3.7","yes","yes","600bd7cfb6416f0113b04181","602110864497cf011d9c0822","0","f","NA","space","space","space","NA","f","790","NA","3097","28122","18367","NA","790","2","legacy","1024","2","48000","-16","task","5210344","even","NA","66903","72003","68906","117612","8259","54750","36383","118115","NA","117611","118115","117569","72003","118906","64411","117069","8241","112358","Lexical Decision Task","24","26028","28","yes","1024"
"3.090140555","5.81","8","pout","word","86.20689655172414","86.20689655172414","927.2068965517242","927.2068965517242","black","no","legacy","legacy","legacy","0","uniform","1","undefined","undefined","undefined","1","j","0","0","0","0","28","0","0","0","28","NA","24","28","24","0","24","3","28","0","28","Fri Feb 19 11:21:53 2021","The main experiment item","yes","Lexical_Decision_Task.osexp","C:/Users/melan","no","Andale Mono","no","18","no","white","no","yes","576","legacy","24","24","3","C:/Users/melan/subject-5210344.csv","legacy","Lentiform Loewenfeld","3.3.7","yes","yes","600bd7cfb6416f0113b04181","602110864497cf011d9c0822","0","j","NA","space","space","space","NA","j","861","NA","3097","28122","18367","NA","861","2","legacy","1024","2","48000","-16","task","5210344","even","NA","66903","72003","68906","120494","8259","54750","36383","120994","NA","120493","120995","120448","72003","121857","64411","117069","8241","118948","Lexical Decision Task","25","26889","29","yes","1024"
"3.261341392","5.08","8","reek","word","86.66666666666667","86.66666666666667","922.2333333333333","922.2333333333333","black","no","legacy","legacy","legacy","0","uniform","1","undefined","undefined","undefined","1","j","0","0","0","0","29","0","0","0","29","NA","25","29","25","0","25","3","29","0","29","Fri Feb 19 11:21:53 2021","The main experiment item","yes","Lexical_Decision_Task.osexp","C:/Users/melan","no","Andale Mono","no","18","no","white","no","yes","576","legacy","25","25","3","C:/Users/melan/subject-5210344.csv","legacy","Lentiform Loewenfeld","3.3.7","yes","yes","600bd7cfb6416f0113b04181","602110864497cf011d9c0822","0","j","NA","space","space","space","NA","j","778","NA","3097","28122","18367","NA","778","2","legacy","1024","2","48000","-16","task","5210344","even","NA","66903","72003","68906","122438","8259","54750","36383","122938","NA","122437","122939","122391","72003","123718","64411","121890","8241","118948","Lexical Decision Task","26","27667","30","yes","1024"
"2.842815106","7.86","8","lump","word","87.09677419354838","87.09677419354838","913.6451612903226","913.6451612903226","black","no","legacy","legacy","legacy","0","uniform","1","undefined","undefined","undefined","1","j","0","0","0","0","30","0","0","0","30","NA","26","30","26","0","26","3","30","0","30","Fri Feb 19 11:21:53 2021","The main experiment item","yes","Lexical_Decision_Task.osexp","C:/Users/melan","no","Andale Mono","no","18","no","white","no","yes","576","legacy","26","26","3","C:/Users/melan/subject-5210344.csv","legacy","Lentiform Loewenfeld","3.3.7","yes","yes","600bd7cfb6416f0113b04181","602110864497cf011d9c0822","0","j","NA","space","space","space","NA","j","656","NA","3097","28122","18367","NA","656","2","legacy","1024","2","48000","-16","task","5210344","even","NA","66903","72003","68906","124304","8259","54750","36383","124806","NA","124303","124806","124260","72003","125463","64411","123760","8241","118948","Lexical Decision Task","27","28323","31","yes","1024"
"3.131833513","7.66","4","limb","word","87.5","87.5","905.46875","905.46875","black","no","legacy","legacy","legacy","0","uniform","1","undefined","undefined","undefined","1","j","0","0","0","0","31","0","0","0","31","NA","27","31","27","0","27","3","31","0","31","Fri Feb 19 11:21:53 2021","The main experiment item","yes","Lexical_Decision_Task.osexp","C:/Users/melan","no","Andale Mono","no","18","no","white","no","yes","576","legacy","27","27","3","C:/Users/melan/subject-5210344.csv","legacy","Lentiform Loewenfeld","3.3.7","yes","yes","600bd7cfb6416f0113b04181","602110864497cf011d9c0822","0","j","NA","space","space","space","NA","j","652","NA","3097","28122","18367","NA","652","2","legacy","1024","2","48000","-16","task","5210344","even","NA","66903","72003","68906","126041","8259","54750","36383","126541","NA","126040","126542","125997","72003","127195","64411","125497","8241","118948","Lexical Decision Task","28","28975","32","yes","1024"
"2.793790385","5.67","9","swab","word","87.87878787878788","87.87878787878788","898.2727272727273","898.2727272727273","black","no","legacy","legacy","legacy","0","uniform","1","undefined","undefined","undefined","1","j","0","0","0","0","32","0","0","0","32","NA","28","32","28","0","28","3","32","0","32","Fri Feb 19 11:21:53 2021","The main experiment item","yes","Lexical_Decision_Task.osexp","C:/Users/melan","no","Andale Mono","no","18","no","white","no","yes","576","legacy","28","28","3","C:/Users/melan/subject-5210344.csv","legacy","Lentiform Loewenfeld","3.3.7","yes","yes","600bd7cfb6416f0113b04181","602110864497cf011d9c0822","0","j","NA","space","space","space","NA","j","668","NA","3097","28122","18367","NA","668","2","legacy","1024","2","48000","-16","task","5210344","even","NA","66903","72003","68906","127779","8259","54750","36383","128279","NA","127778","128280","127735","72003","128948","64411","127235","8241","118948","Lexical Decision Task","29","29643","33","yes","1024"
"3.088136089","8.32","9","worm","word","88.23529411764706","88.23529411764706","888.0294117647059","888.0294117647059","black","no","legacy","legacy","legacy","0","uniform","1","undefined","undefined","undefined","1","j","0","0","0","0","33","0","0","0","33","NA","29","33","29","0","29","3","33","0","33","Fri Feb 19 11:21:53 2021","The main experiment item","yes","Lexical_Decision_Task.osexp","C:/Users/melan","no","Andale Mono","no","18","no","white","no","yes","576","legacy","29","29","3","C:/Users/melan/subject-5210344.csv","legacy","Lentiform Loewenfeld","3.3.7","yes","yes","600bd7cfb6416f0113b04181","602110864497cf011d9c0822","0","j","NA","space","space","space","NA","j","550","NA","3097","28122","18367","NA","550","2","legacy","1024","2","48000","-16","task","5210344","even","NA","66903","72003","68906","129530","8259","54750","36383","130033","NA","129529","130033","129484","72003","130583","64411","128984","8241","118948","Lexical Decision Task","30","30193","34","yes","1024"
"2.7084209","0","8","vump","non-word","88.57142857142857","88.57142857142857","884.3714285714286","884.3714285714286","black","no","legacy","legacy","legacy","0","uniform","1","undefined","undefined","undefined","1","f","0","0","0","0","34","0","0","0","34","NA","30","34","30","0","30","3","34","0","34","Fri Feb 19 11:21:53 2021","The main experiment item","yes","Lexical_Decision_Task.osexp","C:/Users/melan","no","Andale Mono","no","18","no","white","no","yes","576","legacy","30","30","3","C:/Users/melan/subject-5210344.csv","legacy","Lentiform Loewenfeld","3.3.7","yes","yes","600bd7cfb6416f0113b04181","602110864497cf011d9c0822","0","f","NA","space","space","space","NA","f","760","NA","3097","28122","18367","NA","760","2","legacy","1024","2","48000","-16","task","5210344","even","NA","66903","72003","68906","131165","8259","54750","36383","131666","NA","131164","131666","131121","72003","132426","64411","130621","8241","118948","Lexical Decision Task","31","30953","35","yes","1024"
"3.263399331","0","8","cour","non-word","88.88888888888889","88.88888888888889","880.0555555555555","880.0555555555555","black","no","legacy","legacy","legacy","0","uniform","1","undefined","undefined","undefined","1","f","0","0","0","0","35","0","0","0","35","NA","31","35","31","0","31","3","35","0","35","Fri Feb 19 11:21:53 2021","The main experiment item","yes","Lexical_Decision_Task.osexp","C:/Users/melan","no","Andale Mono","no","18","no","white","no","yes","576","legacy","31","31","3","C:/Users/melan/subject-5210344.csv","legacy","Lentiform Loewenfeld","3.3.7","yes","yes","600bd7cfb6416f0113b04181","602110864497cf011d9c0822","0","f","NA","space","space","space","NA","f","729","NA","3097","28122","18367","NA","729","2","legacy","1024","2","48000","-16","task","5210344","even","NA","66903","72003","68906","133011","8259","54750","36383","133512","NA","133010","133513","132966","72003","134243","64411","132466","8241","118948","Lexical Decision Task","32","31682","36","yes","1024"
"3.481012421","8.34","5","teen","word","89.1891891891892","89.1891891891892","875.7837837837837","875.7837837837837","black","no","legacy","legacy","legacy","0","uniform","1","undefined","undefined","undefined","1","j","0","0","0","0","36","0","0","0","36","NA","32","36","32","0","32","3","36","0","36","Fri Feb 19 11:21:53 2021","The main experiment item","yes","Lexical_Decision_Task.osexp","C:/Users/melan","no","Andale Mono","no","18","no","white","no","yes","576","legacy","32","32","3","C:/Users/melan/subject-5210344.csv","legacy","Lentiform Loewenfeld","3.3.7","yes","yes","600bd7cfb6416f0113b04181","602110864497cf011d9c0822","0","j","NA","space","space","space","NA","j","722","NA","3097","28122","18367","NA","722","2","legacy","1024","2","48000","-16","task","5210344","even","NA","66903","72003","68906","134832","8259","54750","36383","135332","NA","134831","135333","134788","72003","136055","64411","134288","8241","118948","Lexical Decision Task","33","32404","37","yes","1024"
"2.839898939","8.99","6","soap","word","89.47368421052632","89.47368421052632","867.8947368421053","867.8947368421053","black","no","legacy","legacy","legacy","0","uniform","1","undefined","undefined","undefined","1","j","0","0","0","0","37","0","0","0","37","NA","33","37","33","0","33","3","37","0","37","Fri Feb 19 11:21:53 2021","The main experiment item","yes","Lexical_Decision_Task.osexp","C:/Users/melan","no","Andale Mono","no","18","no","white","no","yes","576","legacy","33","33","3","C:/Users/melan/subject-5210344.csv","legacy","Lentiform Loewenfeld","3.3.7","yes","yes","600bd7cfb6416f0113b04181","602110864497cf011d9c0822","0","j","NA","space","space","space","NA","j","576","NA","3097","28122","18367","NA","576","2","legacy","1024","2","48000","-16","task","5210344","even","NA","66903","72003","68906","136626","8259","54750","36383","137127","NA","136625","137127","136583","72003","137703","64411","136083","8241","118948","Lexical Decision Task","34","32980","38","yes","1024"
"2.713490543","0","3","feps","non-word","89.74358974358974","89.74358974358974","863.4615384615385","863.4615384615385","black","no","legacy","legacy","legacy","0","uniform","1","undefined","undefined","undefined","1","f","0","0","0","0","38","0","0","0","38","NA","34","38","34","0","34","3","38","0","38","Fri Feb 19 11:21:53 2021","The main experiment item","yes","Lexical_Decision_Task.osexp","C:/Users/melan","no","Andale Mono","no","18","no","white","no","yes","576","legacy","34","34","3","C:/Users/melan/subject-5210344.csv","legacy","Lentiform Loewenfeld","3.3.7","yes","yes","600bd7cfb6416f0113b04181","602110864497cf011d9c0822","0","f","NA","space","space","space","NA","f","695","NA","3097","28122","18367","NA","695","2","legacy","1024","2","48000","-16","task","5210344","even","NA","66903","72003","68906","138280","8259","54750","36383","138780","NA","138279","138781","138222","72003","139477","64411","137722","8241","118948","Lexical Decision Task","35","33675","39","yes","1024"
"3.276537627","9.15","5","trap","word","90","90","857.725","857.725","black","no","legacy","legacy","legacy","0","uniform","1","undefined","undefined","undefined","1","j","0","0","0","0","39","0","0","0","39","NA","35","39","35","0","35","3","39","0","39","Fri Feb 19 11:21:53 2021","The main experiment item","yes","Lexical_Decision_Task.osexp","C:/Users/melan","no","Andale Mono","no","18","no","white","no","yes","576","legacy","35","35","3","C:/Users/melan/subject-5210344.csv","legacy","Lentiform Loewenfeld","3.3.7","yes","yes","600bd7cfb6416f0113b04181","602110864497cf011d9c0822","0","j","NA","space","space","space","NA","j","634","NA","3097","28122","18367","NA","634","2","legacy","1024","2","48000","-16","task","5210344","even","NA","66903","72003","68906","140063","8259","54750","36383","140564","NA","140062","140564","140014","72003","141198","64411","139514","8241","118948","Lexical Decision Task","36","34309","40","yes","1024"
"2.698387659","6.66","7","skid","word","90.2439024390244","90.2439024390244","850.560975609756","850.560975609756","black","no","legacy","legacy","legacy","0","uniform","1","undefined","undefined","undefined","1","j","0","0","0","0","40","0","0","0","40","NA","36","40","36","0","36","3","40","0","40","Fri Feb 19 11:21:53 2021","The main experiment item","yes","Lexical_Decision_Task.osexp","C:/Users/melan","no","Andale Mono","no","18","no","white","no","yes","576","legacy","36","36","3","C:/Users/melan/subject-5210344.csv","legacy","Lentiform Loewenfeld","3.3.7","yes","yes","600bd7cfb6416f0113b04181","602110864497cf011d9c0822","0","j","NA","space","space","space","NA","j","564","NA","3097","28122","18367","NA","564","2","legacy","1024","2","48000","-16","task","5210344","even","NA","66903","72003","68906","141771","8259","54750","36383","142274","NA","141770","142274","141726","72003","142839","64411","141226","8241","118948","Lexical Decision Task","37","34873","41","yes","1024"
"2.899638141","0","3","hapt","non-word","90.47619047619048","90.47619047619048","847.2857142857143","847.2857142857143","black","no","legacy","legacy","legacy","0","uniform","1","undefined","undefined","undefined","1","f","0","0","0","0","41","0","0","0","41","NA","37","41","37","0","37","3","41","0","41","Fri Feb 19 11:21:53 2021","The main experiment item","yes","Lexical_Decision_Task.osexp","C:/Users/melan","no","Andale Mono","no","18","no","white","no","yes","576","legacy","37","37","3","C:/Users/melan/subject-5210344.csv","legacy","Lentiform Loewenfeld","3.3.7","yes","yes","600bd7cfb6416f0113b04181","602110864497cf011d9c0822","0","f","NA","space","space","space","NA","f","713","NA","3097","28122","18367","NA","713","2","legacy","1024","2","48000","-16","task","5210344","even","NA","66903","72003","68906","143505","8259","54750","36383","144007","NA","143504","144007","143460","72003","144721","64411","142959","8241","118948","Lexical Decision Task","38","35586","42","yes","1024"
"3.049218023","7.4","9","robe","word","90.69767441860465","90.69767441860465","844.9069767441861","844.9069767441861","black","no","legacy","legacy","legacy","0","uniform","1","undefined","undefined","undefined","1","j","0","0","0","0","42","0","0","0","42","NA","38","42","38","0","38","3","42","0","42","Fri Feb 19 11:21:53 2021","The main experiment item","yes","Lexical_Decision_Task.osexp","C:/Users/melan","no","Andale Mono","no","18","no","white","no","yes","576","legacy","38","38","3","C:/Users/melan/subject-5210344.csv","legacy","Lentiform Loewenfeld","3.3.7","yes","yes","600bd7cfb6416f0113b04181","602110864497cf011d9c0822","0","j","NA","space","space","space","NA","j","745","NA","3097","28122","18367","NA","745","2","legacy","1024","2","48000","-16","task","5210344","even","NA","66903","72003","68906","145362","8259","54750","36383","145863","NA","145361","145863","145316","72003","146609","64411","144816","8241","118948","Lexical Decision Task","39","36331","43","yes","1024"
"3.2757719","0","5","slea","non-word","90.9090909090909","90.9090909090909","842.7045454545455","842.7045454545455","black","no","legacy","legacy","legacy","0","uniform","1","undefined","undefined","undefined","1","f","0","0","0","0","43","0","0","0","43","NA","39","43","39","0","39","3","43","0","43","Fri Feb 19 11:21:53 2021","The main experiment item","yes","Lexical_Decision_Task.osexp","C:/Users/melan","no","Andale Mono","no","18","no","white","no","yes","576","legacy","39","39","3","C:/Users/melan/subject-5210344.csv","legacy","Lentiform Loewenfeld","3.3.7","yes","yes","600bd7cfb6416f0113b04181","602110864497cf011d9c0822","0","f","NA","space","space","space","NA","f","748","NA","3097","28122","18367","NA","748","2","legacy","1024","2","48000","-16","task","5210344","even","NA","66903","72003","68906","147216","8259","54750","36383","147717","NA","147215","147717","147172","72003","148466","64411","146672","8241","118948","Lexical Decision Task","40","37079","44","yes","1024"
"2.708989954","9.28","9","bowl","word","91.11111111111111","91.11111111111111","838.2444444444444","838.2444444444444","black","no","legacy","legacy","legacy","0","uniform","1","undefined","undefined","undefined","1","j","0","0","0","0","44","0","0","0","44","NA","40","44","40","0","40","3","44","0","44","Fri Feb 19 11:21:53 2021","The main experiment item","yes","Lexical_Decision_Task.osexp","C:/Users/melan","no","Andale Mono","no","18","no","white","no","yes","576","legacy","40","40","3","C:/Users/melan/subject-5210344.csv","legacy","Lentiform Loewenfeld","3.3.7","yes","yes","600bd7cfb6416f0113b04181","602110864497cf011d9c0822","0","j","NA","space","space","space","NA","j","642","NA","3097","28122","18367","NA","642","2","legacy","1024","2","48000","-16","task","5210344","even","NA","66903","72003","68906","149074","8259","54750","36383","149574","NA","149073","149575","149030","72003","150217","64411","148530","8241","118948","Lexical Decision Task","41","37721","45","yes","1024"
"3.197740804","6.74","3","ache","word","91.30434782608695","91.30434782608695","832.0652173913044","832.0652173913044","black","no","legacy","legacy","legacy","0","uniform","1","undefined","undefined","undefined","1","j","0","0","0","0","45","0","0","0","45","NA","41","45","41","0","41","3","45","0","45","Fri Feb 19 11:21:53 2021","The main experiment item","yes","Lexical_Decision_Task.osexp","C:/Users/melan","no","Andale Mono","no","18","no","white","no","yes","576","legacy","41","41","3","C:/Users/melan/subject-5210344.csv","legacy","Lentiform Loewenfeld","3.3.7","yes","yes","600bd7cfb6416f0113b04181","602110864497cf011d9c0822","0","j","NA","space","space","space","NA","j","554","NA","3097","28122","18367","NA","554","2","legacy","1024","2","48000","-16","task","5210344","even","NA","66903","72003","68906","150808","8259","54750","36383","151308","NA","150807","151309","150764","72003","151863","64411","150264","8241","118948","Lexical Decision Task","42","38275","46","yes","1024"
"3.378276681","6.39","8","bran","word","89.36170212765957","89.36170212765957","830.3829787234042","830.3829787234042","black","no","legacy","legacy","legacy","0","uniform","0","undefined","undefined","undefined","0","j","0","0","0","0","46","0","0","0","46","NA","42","46","42","0","42","3","46","0","46","Fri Feb 19 11:21:53 2021","The main experiment item","yes","Lexical_Decision_Task.osexp","C:/Users/melan","no","Andale Mono","no","18","no","white","no","yes","576","legacy","42","42","3","C:/Users/melan/subject-5210344.csv","legacy","Lentiform Loewenfeld","3.3.7","yes","yes","600bd7cfb6416f0113b04181","602110864497cf011d9c0822","0","f","NA","space","space","space","NA","f","753","NA","3097","28122","18367","NA","753","2","legacy","1024","2","48000","-16","task","5210344","even","NA","66903","72003","68906","152487","8259","54750","36383","152987","NA","152486","152988","152431","72003","153742","64411","151931","8241","118948","Lexical Decision Task","42","39028","47","yes","1024"
"2.920123326","7.43","4","duel","word","89.58333333333333","89.58333333333333","829.1666666666666","829.1666666666666","black","no","legacy","legacy","legacy","0","uniform","1","undefined","undefined","undefined","1","j","0","0","0","0","47","0","0","0","47","NA","43","47","43","0","43","3","47","0","47","Fri Feb 19 11:21:53 2021","The main experiment item","yes","Lexical_Decision_Task.osexp","C:/Users/melan","no","Andale Mono","no","18","no","white","no","yes","576","legacy","43","43","3","C:/Users/melan/subject-5210344.csv","legacy","Lentiform Loewenfeld","3.3.7","yes","yes","600bd7cfb6416f0113b04181","602110864497cf011d9c0822","0","j","NA","space","space","space","NA","j","772","NA","3097","28122","18367","NA","772","2","legacy","1024","2","48000","-16","task","5210344","even","NA","66903","72003","68906","155381","8259","54750","36383","155881","NA","155380","155882","155334","72003","156655","64411","151931","8241","153834","Lexical Decision Task","43","39800","48","yes","1024"
"2.972357144","0","5","dasp","non-word","89.79591836734694","89.79591836734694","831","831","black","no","legacy","legacy","legacy","0","uniform","1","undefined","undefined","undefined","1","f","0","0","0","0","48","0","0","0","48","NA","44","48","44","0","44","3","48","0","48","Fri Feb 19 11:21:53 2021","The main experiment item","yes","Lexical_Decision_Task.osexp","C:/Users/melan","no","Andale Mono","no","18","no","white","no","yes","576","legacy","44","44","3","C:/Users/melan/subject-5210344.csv","legacy","Lentiform Loewenfeld","3.3.7","yes","yes","600bd7cfb6416f0113b04181","602110864497cf011d9c0822","0","f","NA","space","space","space","NA","f","919","NA","3097","28122","18367","NA","919","2","legacy","1024","2","48000","-16","task","5210344","even","NA","66903","72003","68906","157222","8259","54750","36383","157724","NA","157221","157724","157178","72003","158644","64411","156678","8241","153834","Lexical Decision Task","44","40719","49","yes","1024"
"2.819763221","0","2","durp","non-word","88","88","841.34","841.34","black","no","legacy","legacy","legacy","0","uniform","0","undefined","undefined","undefined","0","f","0","0","0","0","49","0","0","0","49","NA","45","49","45","0","45","3","49","0","49","Fri Feb 19 11:21:53 2021","The main experiment item","yes","Lexical_Decision_Task.osexp","C:/Users/melan","no","Andale Mono","no","18","no","white","no","yes","576","legacy","45","45","3","C:/Users/melan/subject-5210344.csv","legacy","Lentiform Loewenfeld","3.3.7","yes","yes","600bd7cfb6416f0113b04181","602110864497cf011d9c0822","0","j","NA","space","space","space","NA","j","1348","NA","3097","28122","18367","NA","1348","2","legacy","1024","2","48000","-16","task","5210344","even","NA","66903","72003","68906","159278","8259","54750","36383","159778","NA","159277","159779","159235","72003","161127","64411","158735","8241","153834","Lexical Decision Task","44","42067","50","yes","1024"
"2.996511672","0","7","hoil","non-word","88.23529411764706","88.23529411764706","843.3725490196078","843.3725490196078","black","no","legacy","legacy","legacy","0","uniform","1","undefined","undefined","undefined","1","f","0","0","0","0","50","0","0","0","50","NA","46","50","46","0","46","3","50","0","50","Fri Feb 19 11:21:53 2021","The main experiment item","yes","Lexical_Decision_Task.osexp","C:/Users/melan","no","Andale Mono","no","18","no","white","no","yes","576","legacy","46","46","3","C:/Users/melan/subject-5210344.csv","legacy","Lentiform Loewenfeld","3.3.7","yes","yes","600bd7cfb6416f0113b04181","602110864497cf011d9c0822","0","f","NA","space","space","space","NA","f","945","NA","3097","28122","18367","NA","945","2","legacy","1024","2","48000","-16","task","5210344","even","NA","66903","72003","68906","162717","8259","54750","36383","163217","NA","162716","163218","162672","72003","164164","64411","158735","8241","161172","Lexical Decision Task","45","43012","51","yes","1024"
"3.529815197","0","3","lerm","non-word","88.46153846153847","88.46153846153847","849.3269230769231","849.3269230769231","black","no","legacy","legacy","legacy","0","uniform","1","undefined","undefined","undefined","1","f","0","0","0","0","51","0","0","0","51","NA","47","51","47","0","47","3","51","0","51","Fri Feb 19 11:21:53 2021","The main experiment item","yes","Lexical_Decision_Task.osexp","C:/Users/melan","no","Andale Mono","no","18","no","white","no","yes","576","legacy","47","47","3","C:/Users/melan/subject-5210344.csv","legacy","Lentiform Loewenfeld","3.3.7","yes","yes","600bd7cfb6416f0113b04181","602110864497cf011d9c0822","0","f","NA","space","space","space","NA","f","1153","NA","3097","28122","18367","NA","1153","2","legacy","1024","2","48000","-16","task","5210344","even","NA","66903","72003","68906","164749","8259","54750","36383","165252","NA","164748","165252","164705","72003","166405","64411","164205","8241","161172","Lexical Decision Task","46","44165","52","yes","1024"
"2.64476673","0","5","moft","non-word","88.67924528301887","88.67924528301887","854.1509433962265","854.1509433962265","black","no","legacy","legacy","legacy","0","uniform","1","undefined","undefined","undefined","1","f","0","0","0","0","52","0","0","0","52","NA","48","52","48","0","48","3","52","0","52","Fri Feb 19 11:21:53 2021","The main experiment item","yes","Lexical_Decision_Task.osexp","C:/Users/melan","no","Andale Mono","no","18","no","white","no","yes","576","legacy","48","48","3","C:/Users/melan/subject-5210344.csv","legacy","Lentiform Loewenfeld","3.3.7","yes","yes","600bd7cfb6416f0113b04181","602110864497cf011d9c0822","0","f","NA","space","space","space","NA","f","1105","NA","3097","28122","18367","NA","1105","2","legacy","1024","2","48000","-16","task","5210344","even","NA","66903","72003","68906","166987","8259","54750","36383","167487","NA","166985","167488","166942","72003","168593","64411","166442","8241","161172","Lexical Decision Task","47","45270","53","yes","1024"
"2.983324025","9.56","2","debt","word","88.88888888888889","88.88888888888889","850.2777777777778","850.2777777777778","black","no","legacy","legacy","legacy","0","uniform","1","undefined","undefined","undefined","1","j","0","0","0","0","53","0","0","0","53","NA","49","53","49","0","49","3","53","0","53","Fri Feb 19 11:21:53 2021","The main experiment item","yes","Lexical_Decision_Task.osexp","C:/Users/melan","no","Andale Mono","no","18","no","white","no","yes","576","legacy","49","49","3","C:/Users/melan/subject-5210344.csv","legacy","Lentiform Loewenfeld","3.3.7","yes","yes","600bd7cfb6416f0113b04181","602110864497cf011d9c0822","0","j","NA","space","space","space","NA","j","645","NA","3097","28122","18367","NA","645","2","legacy","1024","2","48000","-16","task","5210344","even","NA","66903","72003","68906","169187","8259","54750","36383","169689","NA","169186","169689","169131","72003","170335","64411","168631","8241","161172","Lexical Decision Task","48","45915","54","yes","1024"
"3.153104174","10.89","6","door","word","89.0909090909091","89.0909090909091","845.6181818181818","845.6181818181818","black","no","legacy","legacy","legacy","0","uniform","1","undefined","undefined","undefined","1","j","0","0","0","0","54","0","0","0","54","0","50","54","50","0","50","3","54","0","54","Fri Feb 19 11:21:53 2021","The main experiment item","yes","Lexical_Decision_Task.osexp","C:/Users/melan","no","Andale Mono","no","18","no","white","no","yes","576","legacy","50","50","3","C:/Users/melan/subject-5210344.csv","legacy","Lentiform Loewenfeld","3.3.7","yes","yes","600bd7cfb6416f0113b04181","602110864497cf011d9c0822","0","j","NA","space","space","space","space","j","594","NA","3097","28122","18367","5914","594","2","legacy","1024","2","48000","-16","task","5210344","even","NA","66903","72003","68906","176834","8259","54750","36383","177334","170874","176833","177334","170840","72003","177929","64411","170340","8241","161172","Lexical Decision Task","49","46509","55","yes","1024"
"3.120025233","0","2","nyst","non-word","89.28571428571429","89.28571428571429","841.9464285714286","841.9464285714286","black","no","legacy","legacy","legacy","0","uniform","1","undefined","undefined","undefined","1","f","0","0","0","0","55","0","0","0","55","0","51","55","51","0","51","3","55","0","55","Fri Feb 19 11:21:53 2021","The main experiment item","yes","Lexical_Decision_Task.osexp","C:/Users/melan","no","Andale Mono","no","18","no","white","no","yes","576","legacy","51","51","3","C:/Users/melan/subject-5210344.csv","legacy","Lentiform Loewenfeld","3.3.7","yes","yes","600bd7cfb6416f0113b04181","602110864497cf011d9c0822","0","f","NA","space","space","space","space","f","640","NA","3097","28122","18367","5914","640","2","legacy","1024","2","48000","-16","task","5210344","even","NA","66903","72003","68906","178524","8259","54750","36383","179024","170874","178523","179025","178467","72003","179666","64411","177967","8241","161172","Lexical Decision Task","50","47149","56","yes","1024"
"2.675164031","8.57","6","glue","word","89.47368421052632","89.47368421052632","836.5263157894736","836.5263157894736","black","no","legacy","legacy","legacy","0","uniform","1","undefined","undefined","undefined","1","j","0","0","0","0","56","0","0","0","56","0","52","56","52","0","52","3","56","0","56","Fri Feb 19 11:21:53 2021","The main experiment item","yes","Lexical_Decision_Task.osexp","C:/Users/melan","no","Andale Mono","no","18","no","white","no","yes","576","legacy","52","52","3","C:/Users/melan/subject-5210344.csv","legacy","Lentiform Loewenfeld","3.3.7","yes","yes","600bd7cfb6416f0113b04181","602110864497cf011d9c0822","0","j","NA","space","space","space","space","j","533","NA","3097","28122","18367","5914","533","2","legacy","1024","2","48000","-16","task","5210344","even","NA","66903","72003","68906","180282","8259","54750","36383","180782","170874","180281","180783","180237","72003","181316","64411","179736","8241","161172","Lexical Decision Task","51","47682","57","yes","1024"
"2.664328519","0","4","plux","non-word","89.65517241379311","89.65517241379311","832.2758620689655","832.2758620689655","black","no","legacy","legacy","legacy","0","uniform","1","undefined","undefined","undefined","1","f","0","0","0","0","57","0","0","0","57","0","53","57","53","0","53","3","57","0","57","Fri Feb 19 11:21:53 2021","The main experiment item","yes","Lexical_Decision_Task.osexp","C:/Users/melan","no","Andale Mono","no","18","no","white","no","yes","576","legacy","53","53","3","C:/Users/melan/subject-5210344.csv","legacy","Lentiform Loewenfeld","3.3.7","yes","yes","600bd7cfb6416f0113b04181","602110864497cf011d9c0822","0","f","NA","space","space","space","space","f","590","NA","3097","28122","18367","5914","590","2","legacy","1024","2","48000","-16","task","5210344","even","NA","66903","72003","68906","181912","8259","54750","36383","182416","170874","181911","182416","181858","72003","183007","64411","181358","8241","161172","Lexical Decision Task","52","48272","58","yes","1024"
"3.091901331","0","9","nipe","non-word","89.83050847457628","89.83050847457628","831.1694915254237","831.1694915254237","black","no","legacy","legacy","legacy","0","uniform","1","undefined","undefined","undefined","1","f","0","0","0","0","58","0","0","0","58","0","54","58","54","0","54","3","58","0","58","Fri Feb 19 11:21:53 2021","The main experiment item","yes","Lexical_Decision_Task.osexp","C:/Users/melan","no","Andale Mono","no","18","no","white","no","yes","576","legacy","54","54","3","C:/Users/melan/subject-5210344.csv","legacy","Lentiform Loewenfeld","3.3.7","yes","yes","600bd7cfb6416f0113b04181","602110864497cf011d9c0822","0","f","NA","space","space","space","space","f","767","NA","3097","28122","18367","5914","767","2","legacy","1024","2","48000","-16","task","5210344","even","NA","66903","72003","68906","183591","8259","54750","36383","184091","170874","183590","184092","183548","72003","184859","64411","183048","8241","161172","Lexical Decision Task","53","49039","59","yes","1024"
"3.384413096","10.15","3","glad","word","90","90","826.3166666666667","826.3166666666667","black","no","legacy","legacy","legacy","0","uniform","1","undefined","undefined","undefined","1","j","0","0","0","0","59","0","0","0","59","0","55","59","55","0","55","3","59","0","59","Fri Feb 19 11:21:53 2021","The main experiment item","yes","Lexical_Decision_Task.osexp","C:/Users/melan","no","Andale Mono","no","18","no","white","no","yes","576","legacy","55","55","3","C:/Users/melan/subject-5210344.csv","legacy","Lentiform Loewenfeld","3.3.7","yes","yes","600bd7cfb6416f0113b04181","602110864497cf011d9c0822","0","j","NA","space","space","space","space","j","540","NA","3097","28122","18367","5914","540","2","legacy","1024","2","48000","-16","task","5210344","even","NA","66903","72003","68906","185446","8259","54750","36383","185947","170874","185445","185947","185402","72003","186488","64411","184902","8241","161172","Lexical Decision Task","54","49579","60","yes","1024"
"3.037294994","8.64","7","roof","word","90.1639344262295","90.1639344262295","821.1967213114754","821.1967213114754","black","no","legacy","legacy","legacy","0","uniform","1","undefined","undefined","undefined","1","j","0","0","0","0","60","0","0","0","60","0","56","60","56","0","56","3","60","0","60","Fri Feb 19 11:21:53 2021","The main experiment item","yes","Lexical_Decision_Task.osexp","C:/Users/melan","no","Andale Mono","no","18","no","white","no","yes","576","legacy","56","56","3","C:/Users/melan/subject-5210344.csv","legacy","Lentiform Loewenfeld","3.3.7","yes","yes","600bd7cfb6416f0113b04181","602110864497cf011d9c0822","0","j","NA","space","space","space","space","j","514","NA","3097","28122","18367","5914","514","2","legacy","1024","2","48000","-16","task","5210344","even","NA","66903","72003","68906","187069","8259","54750","36383","187572","170874","187068","187572","187025","72003","188086","64411","186525","8241","161172","Lexical Decision Task","55","50093","61","yes","1024"
"2.809559715","8.44","4","volt","word","90.3225806451613","90.3225806451613","819.9677419354839","819.9677419354839","black","no","legacy","legacy","legacy","0","uniform","1","undefined","undefined","undefined","1","j","0","0","0","0","61","0","0","0","61","0","57","61","57","0","57","3","61","0","61","Fri Feb 19 11:21:53 2021","The main experiment item","yes","Lexical_Decision_Task.osexp","C:/Users/melan","no","Andale Mono","no","18","no","white","no","yes","576","legacy","57","57","3","C:/Users/melan/subject-5210344.csv","legacy","Lentiform Loewenfeld","3.3.7","yes","yes","600bd7cfb6416f0113b04181","602110864497cf011d9c0822","0","j","NA","space","space","space","space","j","745","NA","3097","28122","18367","5914","745","2","legacy","1024","2","48000","-16","task","5210344","even","NA","66903","72003","68906","188684","8259","54750","36383","189187","170874","188683","189187","188627","72003","189933","64411","188127","8241","161172","Lexical Decision Task","56","50838","62","yes","1024"
"3.248054965","7.86","5","glow","word","90.47619047619048","90.47619047619048","814.6349206349206","814.6349206349206","black","no","legacy","legacy","legacy","0","uniform","1","undefined","undefined","undefined","1","j","0","0","0","0","62","0","0","0","62","0","58","62","58","0","58","3","62","0","62","Fri Feb 19 11:21:53 2021","The main experiment item","yes","Lexical_Decision_Task.osexp","C:/Users/melan","no","Andale Mono","no","18","no","white","no","yes","576","legacy","58","58","3","C:/Users/melan/subject-5210344.csv","legacy","Lentiform Loewenfeld","3.3.7","yes","yes","600bd7cfb6416f0113b04181","602110864497cf011d9c0822","0","j","NA","space","space","space","space","j","484","NA","3097","28122","18367","5914","484","2","legacy","1024","2","48000","-16","task","5210344","even","NA","66903","72003","68906","190516","8259","54750","36383","191017","170874","190515","191017","190472","72003","191502","64411","189972","8241","161172","Lexical Decision Task","57","51322","63","yes","1024"
"3.316948329","0","1","besc","non-word","90.625","90.625","810.46875","810.46875","black","no","legacy","legacy","legacy","0","uniform","1","undefined","undefined","undefined","1","f","0","0","0","0","63","0","0","0","63","0","59","63","59","0","59","3","63","0","63","Fri Feb 19 11:21:53 2021","The main experiment item","yes","Lexical_Decision_Task.osexp","C:/Users/melan","no","Andale Mono","no","18","no","white","no","yes","576","legacy","59","59","3","C:/Users/melan/subject-5210344.csv","legacy","Lentiform Loewenfeld","3.3.7","yes","yes","600bd7cfb6416f0113b04181","602110864497cf011d9c0822","0","f","NA","space","space","space","space","f","548","NA","3097","28122","18367","5914","548","2","legacy","1024","2","48000","-16","task","5210344","even","NA","66903","72003","68906","192081","8259","54750","36383","192581","170874","192080","192582","192037","72003","193131","64411","191537","8241","161172","Lexical Decision Task","58","51870","64","yes","1024"
"2.839268497","0","8","maft","non-word","89.23076923076923","89.23076923076923","810.2307692307693","810.2307692307693","black","no","legacy","legacy","legacy","0","uniform","0","undefined","undefined","undefined","0","f","0","0","0","0","64","0","0","0","64","0","60","64","60","0","60","3","64","0","64","Fri Feb 19 11:21:53 2021","The main experiment item","yes","Lexical_Decision_Task.osexp","C:/Users/melan","no","Andale Mono","no","18","no","white","no","yes","576","legacy","60","60","3","C:/Users/melan/subject-5210344.csv","legacy","Lentiform Loewenfeld","3.3.7","yes","yes","600bd7cfb6416f0113b04181","602110864497cf011d9c0822","0","j","NA","space","space","space","space","j","795","NA","3097","28122","18367","5914","795","2","legacy","1024","2","48000","-16","task","5210344","even","NA","66903","72003","68906","193723","8259","54750","36383","194223","170874","193722","194224","193674","72003","195020","64411","193173","8241","161172","Lexical Decision Task","58","52665","65","yes","1024"
"3.225825991","0","7","talm","non-word","89.39393939393939","89.39393939393939","809.8939393939394","809.8939393939394","black","no","legacy","legacy","legacy","0","uniform","1","undefined","undefined","undefined","1","f","0","0","0","0","65","0","0","0","65","0","61","65","61","0","61","3","65","0","65","Fri Feb 19 11:21:53 2021","The main experiment item","yes","Lexical_Decision_Task.osexp","C:/Users/melan","no","Andale Mono","no","18","no","white","no","yes","576","legacy","61","61","3","C:/Users/melan/subject-5210344.csv","legacy","Lentiform Loewenfeld","3.3.7","yes","yes","600bd7cfb6416f0113b04181","602110864497cf011d9c0822","0","f","NA","space","space","space","space","f","788","NA","3097","28122","18367","5914","788","2","legacy","1024","2","48000","-16","task","5210344","even","NA","66903","72003","68906","196609","8259","54750","36383","197109","170874","196608","197110","196563","72003","197898","64411","193173","8241","195063","Lexical Decision Task","59","53453","66","yes","1024"
"2.8162413","0","5","nusk","non-word","89.55223880597015","89.55223880597015","812.3432835820895","812.3432835820895","black","no","legacy","legacy","legacy","0","uniform","1","undefined","undefined","undefined","1","f","0","0","0","0","66","0","0","0","66","0","62","66","62","0","62","3","66","0","66","Fri Feb 19 11:21:53 2021","The main experiment item","yes","Lexical_Decision_Task.osexp","C:/Users/melan","no","Andale Mono","no","18","no","white","no","yes","576","legacy","62","62","3","C:/Users/melan/subject-5210344.csv","legacy","Lentiform Loewenfeld","3.3.7","yes","yes","600bd7cfb6416f0113b04181","602110864497cf011d9c0822","0","f","NA","space","space","space","space","f","974","NA","3097","28122","18367","5914","974","2","legacy","1024","2","48000","-16","task","5210344","even","NA","66903","72003","68906","198487","8259","54750","36383","198987","170874","198486","198988","198439","72003","199962","64411","197939","8241","195063","Lexical Decision Task","60","54427","67","yes","1024"
"3.14849993","10.75","7","hour","word","89.70588235294117","89.70588235294117","810.3088235294117","810.3088235294117","black","no","legacy","legacy","legacy","0","uniform","1","undefined","undefined","undefined","1","j","0","0","0","0","67","0","0","0","67","0","63","67","63","0","63","3","67","0","67","Fri Feb 19 11:21:53 2021","The main experiment item","yes","Lexical_Decision_Task.osexp","C:/Users/melan","no","Andale Mono","no","18","no","white","no","yes","576","legacy","63","63","3","C:/Users/melan/subject-5210344.csv","legacy","Lentiform Loewenfeld","3.3.7","yes","yes","600bd7cfb6416f0113b04181","602110864497cf011d9c0822","0","j","NA","space","space","space","space","j","674","NA","3097","28122","18367","5914","674","2","legacy","1024","2","48000","-16","task","5210344","even","NA","66903","72003","68906","200550","8259","54750","36383","201050","170874","200549","201051","200506","72003","201726","64411","200006","8241","195063","Lexical Decision Task","61","55101","68","yes","1024"
"3.209246849","0","7","slem","non-word","89.85507246376811","89.85507246376811","808.8840579710145","808.8840579710145","black","no","legacy","legacy","legacy","0","uniform","1","undefined","undefined","undefined","1","f","0","0","0","0","68","0","0","0","68","0","64","68","64","0","64","3","68","0","68","Fri Feb 19 11:21:53 2021","The main experiment item","yes","Lexical_Decision_Task.osexp","C:/Users/melan","no","Andale Mono","no","18","no","white","no","yes","576","legacy","64","64","3","C:/Users/melan/subject-5210344.csv","legacy","Lentiform Loewenfeld","3.3.7","yes","yes","600bd7cfb6416f0113b04181","602110864497cf011d9c0822","0","f","NA","space","space","space","space","f","712","NA","3097","28122","18367","5914","712","2","legacy","1024","2","48000","-16","task","5210344","even","NA","66903","72003","68906","202303","8259","54750","36383","202804","170874","202302","202804","202259","72003","203517","64411","201759","8241","195063","Lexical Decision Task","62","55813","69","yes","1024"
"3.302475237","0","7","leel","non-word","90","90","811.5285714285715","811.5285714285715","black","no","legacy","legacy","legacy","0","uniform","1","undefined","undefined","undefined","1","f","0","0","0","0","69","0","0","0","69","0","65","69","65","0","65","3","69","0","69","Fri Feb 19 11:21:53 2021","The main experiment item","yes","Lexical_Decision_Task.osexp","C:/Users/melan","no","Andale Mono","no","18","no","white","no","yes","576","legacy","65","65","3","C:/Users/melan/subject-5210344.csv","legacy","Lentiform Loewenfeld","3.3.7","yes","yes","600bd7cfb6416f0113b04181","602110864497cf011d9c0822","0","f","NA","space","space","space","space","f","994","NA","3097","28122","18367","5914","994","2","legacy","1024","2","48000","-16","task","5210344","even","NA","66903","72003","68906","204114","8259","54750","36383","204616","170874","204113","204616","204059","72003","205611","64411","203559","8241","195063","Lexical Decision Task","63","56807","70","yes","1024"
"2.782472624","10.55","2","huge","word","90.14084507042253","90.14084507042253","808.8732394366198","808.8732394366198","black","no","legacy","legacy","legacy","0","uniform","1","undefined","undefined","undefined","1","j","0","0","0","0","70","0","0","0","70","0","66","70","66","0","66","3","70","0","70","Fri Feb 19 11:21:53 2021","The main experiment item","yes","Lexical_Decision_Task.osexp","C:/Users/melan","no","Andale Mono","no","18","no","white","no","yes","576","legacy","66","66","3","C:/Users/melan/subject-5210344.csv","legacy","Lentiform Loewenfeld","3.3.7","yes","yes","600bd7cfb6416f0113b04181","602110864497cf011d9c0822","0","j","NA","space","space","space","space","j","623","NA","3097","28122","18367","5914","623","2","legacy","1024","2","48000","-16","task","5210344","even","NA","66903","72003","68906","206195","8259","54750","36383","206696","170874","206194","206696","206152","72003","207319","64411","205652","8241","195063","Lexical Decision Task","64","57430","71","yes","1024"
"3.134602053","0","8","jart","non-word","90.27777777777777","90.27777777777777","806.6666666666666","806.6666666666666","black","no","legacy","legacy","legacy","0","uniform","1","undefined","undefined","undefined","1","f","0","0","0","0","71","0","0","0","71","0","67","71","67","0","67","3","71","0","71","Fri Feb 19 11:21:53 2021","The main experiment item","yes","Lexical_Decision_Task.osexp","C:/Users/melan","no","Andale Mono","no","18","no","white","no","yes","576","legacy","67","67","3","C:/Users/melan/subject-5210344.csv","legacy","Lentiform Loewenfeld","3.3.7","yes","yes","600bd7cfb6416f0113b04181","602110864497cf011d9c0822","0","f","NA","space","space","space","space","f","650","NA","3097","28122","18367","5914","650","2","legacy","1024","2","48000","-16","task","5210344","even","NA","66903","72003","68906","207909","8259","54750","36383","208409","170874","207908","208410","207862","72003","209061","64411","207362","8241","195063","Lexical Decision Task","65","58080","72","yes","1024"
"3.374137706","10.21","4","tree","word","90.41095890410959","90.41095890410959","802.8767123287671","802.8767123287671","black","no","legacy","legacy","legacy","0","uniform","1","undefined","undefined","undefined","1","j","0","0","0","0","72","0","0","0","72","0","68","72","68","0","68","3","72","0","72","Fri Feb 19 11:21:53 2021","The main experiment item","yes","Lexical_Decision_Task.osexp","C:/Users/melan","no","Andale Mono","no","18","no","white","no","yes","576","legacy","68","68","3","C:/Users/melan/subject-5210344.csv","legacy","Lentiform Loewenfeld","3.3.7","yes","yes","600bd7cfb6416f0113b04181","602110864497cf011d9c0822","0","j","NA","space","space","space","space","j","530","NA","3097","28122","18367","5914","530","2","legacy","1024","2","48000","-16","task","5210344","even","NA","66903","72003","68906","209668","8259","54750","36383","210168","170874","209667","210169","209612","72003","210700","64411","209112","8241","195063","Lexical Decision Task","66","58610","73","yes","1024"
"3.081107167","0","6","chot","non-word","90.54054054054055","90.54054054054055","801.081081081081","801.081081081081","black","no","legacy","legacy","legacy","0","uniform","1","undefined","undefined","undefined","1","f","0","0","0","0","73","0","0","0","73","0","69","73","69","0","69","3","73","0","73","Fri Feb 19 11:21:53 2021","The main experiment item","yes","Lexical_Decision_Task.osexp","C:/Users/melan","no","Andale Mono","no","18","no","white","no","yes","576","legacy","69","69","3","C:/Users/melan/subject-5210344.csv","legacy","Lentiform Loewenfeld","3.3.7","yes","yes","600bd7cfb6416f0113b04181","602110864497cf011d9c0822","0","f","NA","space","space","space","space","f","670","NA","3097","28122","18367","5914","670","2","legacy","1024","2","48000","-16","task","5210344","even","NA","66903","72003","68906","211283","8259","54750","36383","211784","170874","211282","211784","211239","72003","212455","64411","210739","8241","195063","Lexical Decision Task","67","59280","74","yes","1024"
"2.706148589","0","4","hube","non-word","90.66666666666667","90.66666666666667","799.5466666666666","799.5466666666666","black","no","legacy","legacy","legacy","0","uniform","1","undefined","undefined","undefined","1","f","0","0","0","0","74","0","0","0","74","0","70","74","70","0","70","3","74","0","74","Fri Feb 19 11:21:53 2021","The main experiment item","yes","Lexical_Decision_Task.osexp","C:/Users/melan","no","Andale Mono","no","18","no","white","no","yes","576","legacy","70","70","3","C:/Users/melan/subject-5210344.csv","legacy","Lentiform Loewenfeld","3.3.7","yes","yes","600bd7cfb6416f0113b04181","602110864497cf011d9c0822","0","f","NA","space","space","space","space","f","686","NA","3097","28122","18367","5914","686","2","legacy","1024","2","48000","-16","task","5210344","even","NA","66903","72003","68906","213048","8259","54750","36383","213549","170874","213047","213550","212994","72003","214237","64411","212493","8241","195063","Lexical Decision Task","68","59966","75","yes","1024"
"2.69019608","9.01","2","myth","word","90.78947368421052","90.78947368421052","795.9736842105264","795.9736842105264","black","no","legacy","legacy","legacy","0","uniform","1","undefined","undefined","undefined","1","j","0","0","0","0","75","0","0","0","75","0","71","75","71","0","71","3","75","0","75","Fri Feb 19 11:21:53 2021","The main experiment item","yes","Lexical_Decision_Task.osexp","C:/Users/melan","no","Andale Mono","no","18","no","white","no","yes","576","legacy","71","71","3","C:/Users/melan/subject-5210344.csv","legacy","Lentiform Loewenfeld","3.3.7","yes","yes","600bd7cfb6416f0113b04181","602110864497cf011d9c0822","0","j","NA","space","space","space","space","j","528","NA","3097","28122","18367","5914","528","2","legacy","1024","2","48000","-16","task","5210344","even","NA","66903","72003","68906","214815","8259","54750","36383","215319","170874","214814","215319","214771","72003","215847","64411","214271","8241","195063","Lexical Decision Task","69","60494","76","yes","1024"
"2.68604012","0","3","mulb","non-word","90.9090909090909","90.9090909090909","792.5324675324675","792.5324675324675","black","no","legacy","legacy","legacy","0","uniform","1","undefined","undefined","undefined","1","f","0","0","0","0","76","0","0","0","76","0","72","76","72","0","72","3","76","0","76","Fri Feb 19 11:21:53 2021","The main experiment item","yes","Lexical_Decision_Task.osexp","C:/Users/melan","no","Andale Mono","no","18","no","white","no","yes","576","legacy","72","72","3","C:/Users/melan/subject-5210344.csv","legacy","Lentiform Loewenfeld","3.3.7","yes","yes","600bd7cfb6416f0113b04181","602110864497cf011d9c0822","0","f","NA","space","space","space","space","f","531","NA","3097","28122","18367","5914","531","2","legacy","1024","2","48000","-16","task","5210344","even","NA","66903","72003","68906","216426","8259","54750","36383","216927","170874","216425","216927","216382","72003","217459","64411","215882","8241","195063","Lexical Decision Task","70","61025","77","yes","1024"
"3.068433376","8.09","2","bulb","word","89.74358974358974","89.74358974358974","789.4358974358975","789.4358974358975","black","no","legacy","legacy","legacy","0","uniform","0","undefined","undefined","undefined","0","j","0","0","0","0","77","0","0","0","77","0","73","77","73","0","73","3","77","0","77","Fri Feb 19 11:21:53 2021","The main experiment item","yes","Lexical_Decision_Task.osexp","C:/Users/melan","no","Andale Mono","no","18","no","white","no","yes","576","legacy","73","73","3","C:/Users/melan/subject-5210344.csv","legacy","Lentiform Loewenfeld","3.3.7","yes","yes","600bd7cfb6416f0113b04181","602110864497cf011d9c0822","0","f","NA","space","space","space","space","f","551","NA","3097","28122","18367","5914","551","2","legacy","1024","2","48000","-16","task","5210344","even","NA","66903","72003","68906","218040","8259","54750","36383","218540","170874","218039","218541","217996","72003","219093","64411","217496","8241","195063","Lexical Decision Task","70","61576","78","yes","1024"
"2.799799878","0","4","ciff","non-word","89.87341772151899","89.87341772151899","790.4050632911392","790.4050632911392","black","no","legacy","legacy","legacy","0","uniform","1","undefined","undefined","undefined","1","f","0","0","0","0","78","0","0","0","78","0","74","78","74","0","74","3","78","0","78","Fri Feb 19 11:21:53 2021","The main experiment item","yes","Lexical_Decision_Task.osexp","C:/Users/melan","no","Andale Mono","no","18","no","white","no","yes","576","legacy","74","74","3","C:/Users/melan/subject-5210344.csv","legacy","Lentiform Loewenfeld","3.3.7","yes","yes","600bd7cfb6416f0113b04181","602110864497cf011d9c0822","0","f","NA","space","space","space","space","f","866","NA","3097","28122","18367","5914","866","2","legacy","1024","2","48000","-16","task","5210344","even","NA","66903","72003","68906","220688","8259","54750","36383","221191","170874","220687","221192","220627","72003","222058","64411","217496","8241","219127","Lexical Decision Task","71","62442","79","yes","1024"
"3.257359335","8","6","brew","word","90","90","787.825","787.825","black","no","legacy","legacy","legacy","0","uniform","1","undefined","undefined","undefined","1","j","0","0","0","0","79","0","0","0","79","0","75","79","75","0","75","3","79","0","79","Fri Feb 19 11:21:53 2021","The main experiment item","yes","Lexical_Decision_Task.osexp","C:/Users/melan","no","Andale Mono","no","18","no","white","no","yes","576","legacy","75","75","3","C:/Users/melan/subject-5210344.csv","legacy","Lentiform Loewenfeld","3.3.7","yes","yes","600bd7cfb6416f0113b04181","602110864497cf011d9c0822","0","j","NA","space","space","space","space","j","584","NA","3097","28122","18367","5914","584","2","legacy","1024","2","48000","-16","task","5210344","even","NA","66903","72003","68906","222653","8259","54750","36383","223157","170874","222652","223157","222598","72003","223742","64411","222098","8241","219127","Lexical Decision Task","72","63026","80","yes","1024"
"3.531734309","0","6","lerd","non-word","90.12345679012346","90.12345679012346","786.6543209876543","786.6543209876543","black","no","legacy","legacy","legacy","0","uniform","1","undefined","undefined","undefined","1","f","0","0","0","0","80","0","0","0","80","0","76","80","76","0","76","3","80","0","80","Fri Feb 19 11:21:53 2021","The main experiment item","yes","Lexical_Decision_Task.osexp","C:/Users/melan","no","Andale Mono","no","18","no","white","no","yes","576","legacy","76","76","3","C:/Users/melan/subject-5210344.csv","legacy","Lentiform Loewenfeld","3.3.7","yes","yes","600bd7cfb6416f0113b04181","602110864497cf011d9c0822","0","f","NA","space","space","space","space","f","693","NA","3097","28122","18367","5914","693","2","legacy","1024","2","48000","-16","task","5210344","even","NA","66903","72003","68906","224320","8259","54750","36383","224820","170874","224319","224821","224277","72003","225515","64411","223776","8241","219127","Lexical Decision Task","73","63719","81","yes","1024"
"2.576725172","0","8","gowl","non-word","90.2439024390244","90.2439024390244","789.1463414634146","789.1463414634146","black","no","legacy","legacy","legacy","0","uniform","1","undefined","undefined","undefined","1","f","0","0","0","0","81","0","0","0","81","0","77","81","77","0","77","3","81","0","81","Fri Feb 19 11:21:53 2021","The main experiment item","yes","Lexical_Decision_Task.osexp","C:/Users/melan","no","Andale Mono","no","18","no","white","no","yes","576","legacy","77","77","3","C:/Users/melan/subject-5210344.csv","legacy","Lentiform Loewenfeld","3.3.7","yes","yes","600bd7cfb6416f0113b04181","602110864497cf011d9c0822","0","f","NA","space","space","space","space","f","991","NA","3097","28122","18367","5914","991","2","legacy","1024","2","48000","-16","task","5210344","even","NA","66903","72003","68906","226099","8259","54750","36383","226599","170874","226098","226600","226055","72003","227592","64411","225554","8241","219127","Lexical Decision Task","74","64710","82","yes","1024"
"2.698100546","0","9","mulk","non-word","90.36144578313252","90.36144578313252","789.0843373493976","789.0843373493976","black","no","legacy","legacy","legacy","0","uniform","1","undefined","undefined","undefined","1","f","0","0","0","0","82","0","0","0","82","0","78","82","78","0","78","3","82","0","82","Fri Feb 19 11:21:53 2021","The main experiment item","yes","Lexical_Decision_Task.osexp","C:/Users/melan","no","Andale Mono","no","18","no","white","no","yes","576","legacy","78","78","3","C:/Users/melan/subject-5210344.csv","legacy","Lentiform Loewenfeld","3.3.7","yes","yes","600bd7cfb6416f0113b04181","602110864497cf011d9c0822","0","f","NA","space","space","space","space","f","784","NA","3097","28122","18367","5914","784","2","legacy","1024","2","48000","-16","task","5210344","even","NA","66903","72003","68906","228179","8259","54750","36383","228680","170874","228178","228680","228133","72003","229465","64411","227633","8241","219127","Lexical Decision Task","75","65494","83","yes","1024"
"3.153001286","8.7","5","palm","word","90.47619047619048","90.47619047619048","787.547619047619","787.547619047619","black","no","legacy","legacy","legacy","0","uniform","1","undefined","undefined","undefined","1","j","0","0","0","0","83","0","0","0","83","0","79","83","79","0","79","3","83","0","83","Fri Feb 19 11:21:53 2021","The main experiment item","yes","Lexical_Decision_Task.osexp","C:/Users/melan","no","Andale Mono","no","18","no","white","no","yes","576","legacy","79","79","3","C:/Users/melan/subject-5210344.csv","legacy","Lentiform Loewenfeld","3.3.7","yes","yes","600bd7cfb6416f0113b04181","602110864497cf011d9c0822","0","j","NA","space","space","space","space","j","660","NA","3097","28122","18367","5914","660","2","legacy","1024","2","48000","-16","task","5210344","even","NA","66903","72003","68906","230048","8259","54750","36383","230548","170874","230047","230549","230003","72003","231210","64411","229502","8241","219127","Lexical Decision Task","76","66154","84","yes","1024"
"3.443783828","7.65","3","verb","word","90.58823529411765","90.58823529411765","784.8117647058823","784.8117647058823","black","no","legacy","legacy","legacy","0","uniform","1","undefined","undefined","undefined","1","j","0","0","0","0","84","0","0","0","84","0","80","84","80","0","80","3","84","0","84","Fri Feb 19 11:21:53 2021","The main experiment item","yes","Lexical_Decision_Task.osexp","C:/Users/melan","no","Andale Mono","no","18","no","white","no","yes","576","legacy","80","80","3","C:/Users/melan/subject-5210344.csv","legacy","Lentiform Loewenfeld","3.3.7","yes","yes","600bd7cfb6416f0113b04181","602110864497cf011d9c0822","0","j","NA","space","space","space","space","j","555","NA","3097","28122","18367","5914","555","2","legacy","1024","2","48000","-16","task","5210344","even","NA","66903","72003","68906","231789","8259","54750","36383","232289","170874","231788","232290","231745","72003","232846","64411","231245","8241","219127","Lexical Decision Task","77","66709","85","yes","1024"
"3.168400243","9.12","6","horn","word","90.69767441860465","90.69767441860465","782.1162790697674","782.1162790697674","black","no","legacy","legacy","legacy","0","uniform","1","undefined","undefined","undefined","1","j","0","0","0","0","85","0","0","0","85","0","81","85","81","0","81","3","85","0","85","Fri Feb 19 11:21:53 2021","The main experiment item","yes","Lexical_Decision_Task.osexp","C:/Users/melan","no","Andale Mono","no","18","no","white","no","yes","576","legacy","81","81","3","C:/Users/melan/subject-5210344.csv","legacy","Lentiform Loewenfeld","3.3.7","yes","yes","600bd7cfb6416f0113b04181","602110864497cf011d9c0822","0","j","NA","space","space","space","space","j","553","NA","3097","28122","18367","5914","553","2","legacy","1024","2","48000","-16","task","5210344","even","NA","66903","72003","68906","233481","8259","54750","36383","233981","170874","233480","233982","233437","72003","234536","64411","232937","8241","219127","Lexical Decision Task","78","67262","86","yes","1024"
"2.838639236","0","4","furg","non-word","90.80459770114942","90.80459770114942","779.6321839080459","779.6321839080459","black","no","legacy","legacy","legacy","0","uniform","1","undefined","undefined","undefined","1","f","0","0","0","0","86","0","0","0","86","0","82","86","82","0","82","3","86","0","86","Fri Feb 19 11:21:53 2021","The main experiment item","yes","Lexical_Decision_Task.osexp","C:/Users/melan","no","Andale Mono","no","18","no","white","no","yes","576","legacy","82","82","3","C:/Users/melan/subject-5210344.csv","legacy","Lentiform Loewenfeld","3.3.7","yes","yes","600bd7cfb6416f0113b04181","602110864497cf011d9c0822","0","f","NA","space","space","space","space","f","566","NA","3097","28122","18367","5914","566","2","legacy","1024","2","48000","-16","task","5210344","even","NA","66903","72003","68906","235117","8259","54750","36383","235618","170874","235116","235618","235073","72003","236186","64411","234573","8241","219127","Lexical Decision Task","79","67828","87","yes","1024"
"3.252447662","9.67","9","boat","word","90.9090909090909","90.9090909090909","776.9886363636364","776.9886363636364","black","no","legacy","legacy","legacy","0","uniform","1","undefined","undefined","undefined","1","j","0","0","0","0","87","0","0","0","87","0","83","87","83","0","83","3","87","0","87","Fri Feb 19 11:21:53 2021","The main experiment item","yes","Lexical_Decision_Task.osexp","C:/Users/melan","no","Andale Mono","no","18","no","white","no","yes","576","legacy","83","83","3","C:/Users/melan/subject-5210344.csv","legacy","Lentiform Loewenfeld","3.3.7","yes","yes","600bd7cfb6416f0113b04181","602110864497cf011d9c0822","0","j","NA","space","space","space","space","j","547","NA","3097","28122","18367","5914","547","2","legacy","1024","2","48000","-16","task","5210344","even","NA","66903","72003","68906","236772","8259","54750","36383","237272","170874","236771","237273","236727","72003","237821","64411","236227","8241","219127","Lexical Decision Task","80","68375","88","yes","1024"
"3.374198258","0","8","vist","non-word","89.88764044943821","89.88764044943821","773.6629213483146","773.6629213483146","black","no","legacy","legacy","legacy","0","uniform","0","undefined","undefined","undefined","0","f","0","0","0","0","88","0","0","0","88","0","84","88","84","0","84","3","88","0","88","Fri Feb 19 11:21:53 2021","The main experiment item","yes","Lexical_Decision_Task.osexp","C:/Users/melan","no","Andale Mono","no","18","no","white","no","yes","576","legacy","84","84","3","C:/Users/melan/subject-5210344.csv","legacy","Lentiform Loewenfeld","3.3.7","yes","yes","600bd7cfb6416f0113b04181","602110864497cf011d9c0822","0","j","NA","space","space","space","space","j","481","NA","3097","28122","18367","5914","481","2","legacy","1024","2","48000","-16","task","5210344","even","NA","66903","72003","68906","238405","8259","54750","36383","238906","170874","238404","238906","238361","72003","239388","64411","237861","8241","219127","Lexical Decision Task","80","68856","89","yes","1024"
"3.010582609","0","2","drod","non-word","90","90","772.2777777777778","772.2777777777778","black","no","legacy","legacy","legacy","0","uniform","1","undefined","undefined","undefined","1","f","0","0","0","0","89","0","0","0","89","0","85","89","85","0","85","3","89","0","89","Fri Feb 19 11:21:53 2021","The main experiment item","yes","Lexical_Decision_Task.osexp","C:/Users/melan","no","Andale Mono","no","18","no","white","no","yes","576","legacy","85","85","3","C:/Users/melan/subject-5210344.csv","legacy","Lentiform Loewenfeld","3.3.7","yes","yes","600bd7cfb6416f0113b04181","602110864497cf011d9c0822","0","f","NA","space","space","space","space","f","649","NA","3097","28122","18367","5914","649","2","legacy","1024","2","48000","-16","task","5210344","even","NA","66903","72003","68906","240973","8259","54750","36383","241473","170874","240972","241474","240927","72003","242124","64411","237861","8241","239426","Lexical Decision Task","81","69505","90","yes","1024"
"2.767650507","0","6","yolt","non-word","90.10989010989012","90.10989010989012","772.021978021978","772.021978021978","black","no","legacy","legacy","legacy","0","uniform","1","undefined","undefined","undefined","1","f","0","0","0","0","90","0","0","0","90","0","86","90","86","0","86","3","90","0","90","Fri Feb 19 11:21:53 2021","The main experiment item","yes","Lexical_Decision_Task.osexp","C:/Users/melan","no","Andale Mono","no","18","no","white","no","yes","576","legacy","86","86","3","C:/Users/melan/subject-5210344.csv","legacy","Lentiform Loewenfeld","3.3.7","yes","yes","600bd7cfb6416f0113b04181","602110864497cf011d9c0822","0","f","NA","space","space","space","space","f","749","NA","3097","28122","18367","5914","749","2","legacy","1024","2","48000","-16","task","5210344","even","NA","66903","72003","68906","242712","8259","54750","36383","243215","170874","242711","243215","242668","72003","243965","64411","242168","8241","239426","Lexical Decision Task","82","70254","91","yes","1024"
"2.703007489","8.37","3","pulp","word","90.21739130434783","90.21739130434783","773.9239130434783","773.9239130434783","black","no","legacy","legacy","legacy","0","uniform","1","undefined","undefined","undefined","1","j","0","0","0","0","91","0","0","0","91","0","87","91","87","0","87","3","91","0","91","Fri Feb 19 11:21:53 2021","The main experiment item","yes","Lexical_Decision_Task.osexp","C:/Users/melan","no","Andale Mono","no","18","no","white","no","yes","576","legacy","87","87","3","C:/Users/melan/subject-5210344.csv","legacy","Lentiform Loewenfeld","3.3.7","yes","yes","600bd7cfb6416f0113b04181","602110864497cf011d9c0822","0","j","NA","space","space","space","space","j","947","NA","3097","28122","18367","5914","947","2","legacy","1024","2","48000","-16","task","5210344","even","NA","66903","72003","68906","244542","8259","54750","36383","245042","170874","244541","245043","244499","72003","245991","64411","243999","8241","239426","Lexical Decision Task","83","71201","92","yes","1024"
"2.980911938","7.15","7","hoop","word","90.3225806451613","90.3225806451613","774.0430107526881","774.0430107526881","black","no","legacy","legacy","legacy","0","uniform","1","undefined","undefined","undefined","1","j","0","0","0","0","92","0","0","0","92","0","88","92","88","0","88","3","92","0","92","Fri Feb 19 11:21:53 2021","The main experiment item","yes","Lexical_Decision_Task.osexp","C:/Users/melan","no","Andale Mono","no","18","no","white","no","yes","576","legacy","88","88","3","C:/Users/melan/subject-5210344.csv","legacy","Lentiform Loewenfeld","3.3.7","yes","yes","600bd7cfb6416f0113b04181","602110864497cf011d9c0822","0","j","NA","space","space","space","space","j","785","NA","3097","28122","18367","5914","785","2","legacy","1024","2","48000","-16","task","5210344","even","NA","66903","72003","68906","246580","8259","54750","36383","247083","170874","246579","247083","246535","72003","247869","64411","246035","8241","239426","Lexical Decision Task","84","71986","93","yes","1024"
"2.873320602","0","4","lurg","non-word","90.42553191489361","90.42553191489361","778.0851063829788","778.0851063829788","black","no","legacy","legacy","legacy","0","uniform","1","undefined","undefined","undefined","1","f","0","0","0","0","93","0","0","0","93","0","89","93","89","0","89","3","93","0","93","Fri Feb 19 11:21:53 2021","The main experiment item","yes","Lexical_Decision_Task.osexp","C:/Users/melan","no","Andale Mono","no","18","no","white","no","yes","576","legacy","89","89","3","C:/Users/melan/subject-5210344.csv","legacy","Lentiform Loewenfeld","3.3.7","yes","yes","600bd7cfb6416f0113b04181","602110864497cf011d9c0822","0","f","NA","space","space","space","space","f","1154","NA","3097","28122","18367","5914","1154","2","legacy","1024","2","48000","-16","task","5210344","even","NA","66903","72003","68906","248467","8259","54750","36383","248968","170874","248466","248968","248413","72003","250123","64411","247913","8241","239426","Lexical Decision Task","85","73140","94","yes","1024"
"2.898725182","0","7","turl","non-word","90.52631578947368","90.52631578947368","777.1157894736842","777.1157894736842","black","no","legacy","legacy","legacy","0","uniform","1","undefined","undefined","undefined","1","f","0","0","0","0","94","0","0","0","94","0","90","94","90","0","90","3","94","0","94","Fri Feb 19 11:21:53 2021","The main experiment item","yes","Lexical_Decision_Task.osexp","C:/Users/melan","no","Andale Mono","no","18","no","white","no","yes","576","legacy","90","90","3","C:/Users/melan/subject-5210344.csv","legacy","Lentiform Loewenfeld","3.3.7","yes","yes","600bd7cfb6416f0113b04181","602110864497cf011d9c0822","0","f","NA","space","space","space","space","f","686","NA","3097","28122","18367","5914","686","2","legacy","1024","2","48000","-16","task","5210344","even","NA","66903","72003","68906","250704","8259","54750","36383","251207","170874","250703","251207","250660","72003","251894","64411","250160","8241","239426","Lexical Decision Task","86","73826","95","yes","1024"
"2.821076612","0","4","lult","non-word","90.625","90.625","775.0416666666666","775.0416666666666","black","no","legacy","legacy","legacy","0","uniform","1","undefined","undefined","undefined","1","f","0","0","0","0","95","0","0","0","95","0","91","95","91","0","91","3","95","0","95","Fri Feb 19 11:21:53 2021","The main experiment item","yes","Lexical_Decision_Task.osexp","C:/Users/melan","no","Andale Mono","no","18","no","white","no","yes","576","legacy","91","91","3","C:/Users/melan/subject-5210344.csv","legacy","Lentiform Loewenfeld","3.3.7","yes","yes","600bd7cfb6416f0113b04181","602110864497cf011d9c0822","0","f","NA","space","space","space","space","f","578","NA","3097","28122","18367","5914","578","2","legacy","1024","2","48000","-16","task","5210344","even","NA","66903","72003","68906","252481","8259","54750","36383","252981","170874","252480","252982","252436","72003","253561","64411","251936","8241","239426","Lexical Decision Task","87","74404","96","yes","1024"
"2.693726949","5.08","3","swig","word","90.72164948453609","90.72164948453609","774.4020618556701","774.4020618556701","black","no","legacy","legacy","legacy","0","uniform","1","undefined","undefined","undefined","1","j","0","0","0","0","96","0","0","0","96","0","92","96","92","0","92","3","96","0","96","Fri Feb 19 11:21:53 2021","The main experiment item","yes","Lexical_Decision_Task.osexp","C:/Users/melan","no","Andale Mono","no","18","no","white","no","yes","576","legacy","92","92","3","C:/Users/melan/subject-5210344.csv","legacy","Lentiform Loewenfeld","3.3.7","yes","yes","600bd7cfb6416f0113b04181","602110864497cf011d9c0822","0","j","NA","space","space","space","space","j","713","NA","3097","28122","18367","5914","713","2","legacy","1024","2","48000","-16","task","5210344","even","NA","66903","72003","68906","254150","8259","54750","36383","254651","170874","254149","254651","254105","72003","255365","64411","253605","8241","239426","Lexical Decision Task","88","75117","97","yes","1024"
"3.460446784","0","5","dess","non-word","89.79591836734694","89.79591836734694","771.3979591836735","771.3979591836735","black","no","legacy","legacy","legacy","0","uniform","0","undefined","undefined","undefined","0","f","0","0","0","0","97","0","0","0","97","0","93","97","93","0","93","3","97","0","97","Fri Feb 19 11:21:53 2021","The main experiment item","yes","Lexical_Decision_Task.osexp","C:/Users/melan","no","Andale Mono","no","18","no","white","no","yes","576","legacy","93","93","3","C:/Users/melan/subject-5210344.csv","legacy","Lentiform Loewenfeld","3.3.7","yes","yes","600bd7cfb6416f0113b04181","602110864497cf011d9c0822","0","j","NA","space","space","space","space","j","480","NA","3097","28122","18367","5914","480","2","legacy","1024","2","48000","-16","task","5210344","even","NA","66903","72003","68906","255925","8259","54750","36383","256427","170874","255924","256427","255881","72003","256908","64411","255381","8241","239426","Lexical Decision Task","88","75597","98","yes","1024"
"3.149629599","0","2","cleb","non-word","89.8989898989899","89.8989898989899","773.030303030303","773.030303030303","black","no","legacy","legacy","legacy","0","uniform","1","undefined","undefined","undefined","1","f","0","0","0","0","98","0","0","0","98","0","94","98","94","0","94","3","98","0","98","Fri Feb 19 11:21:53 2021","The main experiment item","yes","Lexical_Decision_Task.osexp","C:/Users/melan","no","Andale Mono","no","18","no","white","no","yes","576","legacy","94","94","3","C:/Users/melan/subject-5210344.csv","legacy","Lentiform Loewenfeld","3.3.7","yes","yes","600bd7cfb6416f0113b04181","602110864497cf011d9c0822","0","f","NA","space","space","space","space","f","933","NA","3097","28122","18367","5914","933","2","legacy","1024","2","48000","-16","task","5210344","even","NA","66903","72003","68906","258493","8259","54750","36383","258993","170874","258492","258994","258450","72003","259928","64411","255381","8241","256950","Lexical Decision Task","89","76530","99","yes","1024"
"2.755364069","7.72","2","hoax","word","90","90","773.12","773.12","black","no","legacy","legacy","legacy","0","uniform","1","undefined","undefined","undefined","1","j","0","0","0","0","99","0","0","0","99","0","95","99","95","0","95","3","99","0","99","Fri Feb 19 11:21:53 2021","The main experiment item","yes","Lexical_Decision_Task.osexp","C:/Users/melan","no","Andale Mono","no","18","no","white","no","yes","576","legacy","95","95","3","C:/Users/melan/subject-5210344.csv","legacy","Lentiform Loewenfeld","3.3.7","yes","yes","600bd7cfb6416f0113b04181","602110864497cf011d9c0822","0","j","NA","space","space","space","space","j","782","NA","3097","28122","18367","5914","782","2","legacy","1024","2","48000","-16","task","5210344","even","NA","66903","72003","68906","260496","8259","54750","36383","260997","170874","260495","260997","260452","72003","261780","64411","259951","8241","256950","Lexical Decision Task","90","77312","100","yes","1024"
"3.15462682","0","6","noal","non-word","90.0990099009901","90.0990099009901","771.980198019802","771.980198019802","black","no","legacy","legacy","legacy","0","uniform","1","undefined","undefined","undefined","1","f","0","0","0","0","100","0","0","0","100","0","96","100","96","0","96","3","100","0","100","Fri Feb 19 11:21:53 2021","The main experiment item","yes","Lexical_Decision_Task.osexp","C:/Users/melan","no","Andale Mono","no","18","no","white","no","yes","576","legacy","96","96","3","C:/Users/melan/subject-5210344.csv","legacy","Lentiform Loewenfeld","3.3.7","yes","yes","600bd7cfb6416f0113b04181","602110864497cf011d9c0822","0","f","NA","space","space","space","space","f","658","NA","3097","28122","18367","5914","658","2","legacy","1024","2","48000","-16","task","5210344","even","NA","66903","72003","68906","262353","8259","54750","36383","262855","170874","262352","262855","262308","72003","263514","64411","261808","8241","256950","Lexical Decision Task","91","77970","101","yes","1024"
"2.893578687","8.69","3","surf","word","90.19607843137256","90.19607843137256","770.4803921568628","770.4803921568628","black","no","legacy","legacy","legacy","0","uniform","1","undefined","undefined","undefined","1","j","0","0","0","0","101","0","0","0","101","0","97","101","97","0","97","3","101","0","101","Fri Feb 19 11:21:53 2021","The main experiment item","yes","Lexical_Decision_Task.osexp","C:/Users/melan","no","Andale Mono","no","18","no","white","no","yes","576","legacy","97","97","3","C:/Users/melan/subject-5210344.csv","legacy","Lentiform Loewenfeld","3.3.7","yes","yes","600bd7cfb6416f0113b04181","602110864497cf011d9c0822","0","j","NA","space","space","space","space","j","619","NA","3097","28122","18367","5914","619","2","legacy","1024","2","48000","-16","task","5210344","even","NA","66903","72003","68906","264146","8259","54750","36383","264646","170874","264144","264647","264092","72003","265267","64411","263592","8241","256950","Lexical Decision Task","92","78589","102","yes","1024"
