"Log_BG","Log_Freq_HAL","Ortho_N","Stimulus","Type","acc","accuracy","average_response_time","avg_rt","background","bidi","canvas_backend","clock_backend","color_backend","compensation","coordinates","correct","correct_Experimental_intro","correct_Introduction","correct_Practice_intro","correct_experimenter_kb","correct_response","count_End_Of_Experiment","count_End_Of_Practice","count_Experimental_Loop","count_Experimental_intro","count_Fixation","count_Introduction","count_Practice_Loop","count_Practice_intro","count_Stimulus","count_block_break_feedback","count_experimental_sequence","count_experimenter_kb","count_increment_trial_count","count_init_trial_count","count_logger","count_practice_sequence","count_right","count_task","count_wrong","datetime","description","disable_garbage_collection","experiment_file","experiment_path","font_bold","font_family","font_italic","font_size","font_underline","foreground","form_clicks","fullscreen","height","keyboard_backend","live_row","live_row_Experimental_Loop","live_row_Practice_Loop","logfile","mouse_backend","opensesame_codename","opensesame_version","osf_always_upload_data","osf_always_upload_experiment","osf_datanode_id","osf_id","repeat_cycle","response","response_End_Of_Experiment","response_Experimental_intro","response_Introduction","response_Practice_intro","response_block_break_feedback","response_experimenter_kb","response_time","response_time_End_Of_Experiment","response_time_Experimental_intro","response_time_Introduction","response_time_Practice_intro","response_time_block_break_feedback","response_time_experimenter_kb","round_decimals","sampler_backend","sound_buf_size","sound_channels","sound_freq","sound_sample_size","start","subject_nr","subject_parity","time_End_Of_Experiment","time_End_Of_Practice","time_Experimental_Loop","time_Experimental_intro","time_Fixation","time_Introduction","time_Practice_Loop","time_Practice_intro","time_Stimulus","time_block_break_feedback","time_experimental_sequence","time_experimenter_kb","time_increment_trial_count","time_init_trial_count","time_logger","time_practice_sequence","time_right","time_task","time_wrong","title","total_correct","total_response_time","total_responses","uniform_coordinates","width"
"3.121778632","0","9","sark","non-word","80","80","985","985","black","no","legacy","legacy","legacy","0","uniform","0","undefined","undefined","undefined","0","f","0","0","0","0","4","0","0","0","4","NA","0","4","0","0","0","3","4","0","4","Sun Feb 21 21:24:35 2021","The main experiment item","yes","Lexical_Decision_Task.osexp","C:\Users\jessi\Downloads","no","Andale Mono","no","18","no","white","no","yes","576","legacy","0","0","3","C:/Users/jessi/Downloads/subject-5208254.csv","legacy","Lentiform Loewenfeld","3.3.7","yes","yes","600bd7cfb6416f0113b04181","602110864497cf011d9c0822","0","j","NA","space","return","space","NA","j","879","NA","2301","4307","1039","NA","879","2","legacy","1024","2","48000","-16","task","5208254","even","NA","19769","24075","21772","24172","5752","11104","10063","24676","NA","24172","24676","NA","24075","25556","18127","19214","5698","NA","Lexical Decision Task","4","4925","5","yes","1024"
"3.230789326","5.38","5","prim","word","66.66666666666667","66.66666666666667","993.5","993.5","black","no","legacy","legacy","legacy","0","uniform","0","undefined","undefined","undefined","0","j","0","0","0","0","5","0","0","0","5","NA","1","5","1","0","1","3","5","0","5","Sun Feb 21 21:24:35 2021","The main experiment item","yes","Lexical_Decision_Task.osexp","C:\Users\jessi\Downloads","no","Andale Mono","no","18","no","white","no","yes","576","legacy","1","1","3","C:/Users/jessi/Downloads/subject-5208254.csv","legacy","Lentiform Loewenfeld","3.3.7","yes","yes","600bd7cfb6416f0113b04181","602110864497cf011d9c0822","0","f","NA","space","return","space","NA","f","1036","NA","2301","4307","1039","NA","1036","2","legacy","1024","2","48000","-16","task","5208254","even","NA","19769","24075","21772","27302","5752","11104","10063","27806","NA","27298","27806","27078","24075","28843","18127","19214","5698","25578","Lexical Decision Task","4","5961","6","yes","1024"
"3.474361976","5.24","6","veer","word","57.142857142857146","57.142857142857146","973","973","black","no","legacy","legacy","legacy","0","uniform","0","undefined","undefined","undefined","0","j","0","0","0","0","6","0","0","0","6","NA","2","6","2","0","2","3","6","0","6","Sun Feb 21 21:24:35 2021","The main experiment item","yes","Lexical_Decision_Task.osexp","C:\Users\jessi\Downloads","no","Andale Mono","no","18","no","white","no","yes","576","legacy","2","2","3","C:/Users/jessi/Downloads/subject-5208254.csv","legacy","Lentiform Loewenfeld","3.3.7","yes","yes","600bd7cfb6416f0113b04181","602110864497cf011d9c0822","0","f","NA","space","return","space","NA","f","850","NA","2301","4307","1039","NA","850","2","legacy","1024","2","48000","-16","task","5208254","even","NA","19769","24075","21772","30493","5752","11104","10063","30997","NA","30490","30997","30354","24075","31850","18127","19214","5698","28853","Lexical Decision Task","4","6811","7","yes","1024"
"3.257359335","8","6","brew","word","62.5","62.5","952.75","952.75","black","no","legacy","legacy","legacy","0","uniform","1","undefined","undefined","undefined","1","j","0","0","0","0","7","0","0","0","7","NA","3","7","3","0","3","3","7","0","7","Sun Feb 21 21:24:35 2021","The main experiment item","yes","Lexical_Decision_Task.osexp","C:\Users\jessi\Downloads","no","Andale Mono","no","18","no","white","no","yes","576","legacy","3","3","3","C:/Users/jessi/Downloads/subject-5208254.csv","legacy","Lentiform Loewenfeld","3.3.7","yes","yes","600bd7cfb6416f0113b04181","602110864497cf011d9c0822","0","j","NA","space","return","space","NA","j","811","NA","2301","4307","1039","NA","811","2","legacy","1024","2","48000","-16","task","5208254","even","NA","19769","24075","21772","33519","5752","11104","10063","34022","NA","33516","34022","33360","24075","34834","18127","19214","5698","31860","Lexical Decision Task","5","7622","8","yes","1024"
"2.68604012","0","4","pumb","non-word","66.66666666666667","66.66666666666667","947","947","black","no","legacy","legacy","legacy","0","uniform","1","undefined","undefined","undefined","1","f","0","0","0","0","8","0","0","0","8","NA","4","8","4","0","4","3","8","0","8","Sun Feb 21 21:24:35 2021","The main experiment item","yes","Lexical_Decision_Task.osexp","C:\Users\jessi\Downloads","no","Andale Mono","no","18","no","white","no","yes","576","legacy","4","4","3","C:/Users/jessi/Downloads/subject-5208254.csv","legacy","Lentiform Loewenfeld","3.3.7","yes","yes","600bd7cfb6416f0113b04181","602110864497cf011d9c0822","0","f","NA","space","return","space","NA","f","901","NA","2301","4307","1039","NA","901","2","legacy","1024","2","48000","-16","task","5208254","even","NA","19769","24075","21772","35522","5752","11104","10063","36026","NA","35520","36026","35345","24075","36929","18127","34845","5698","31860","Lexical Decision Task","6","8523","9","yes","1024"
"3.374137706","10.21","4","tree","word","70","70","926.4","926.4","black","no","legacy","legacy","legacy","0","uniform","1","undefined","undefined","undefined","1","j","0","0","0","0","9","0","0","0","9","NA","5","9","5","0","5","3","9","0","9","Sun Feb 21 21:24:35 2021","The main experiment item","yes","Lexical_Decision_Task.osexp","C:\Users\jessi\Downloads","no","Andale Mono","no","18","no","white","no","yes","576","legacy","5","5","3","C:/Users/jessi/Downloads/subject-5208254.csv","legacy","Lentiform Loewenfeld","3.3.7","yes","yes","600bd7cfb6416f0113b04181","602110864497cf011d9c0822","0","j","NA","space","return","space","NA","j","741","NA","2301","4307","1039","NA","741","2","legacy","1024","2","48000","-16","task","5208254","even","NA","19769","24075","21772","37571","5752","11104","10063","38074","NA","37569","38074","37439","24075","38816","18127","36939","5698","31860","Lexical Decision Task","7","9264","10","yes","1024"
"3.100255637","0","6","brax","non-word","72.72727272727273","72.72727272727273","907.8181818181819","907.8181818181819","black","no","legacy","legacy","legacy","0","uniform","1","undefined","undefined","undefined","1","f","0","0","0","0","10","0","0","0","10","NA","6","10","6","0","6","3","10","0","10","Sun Feb 21 21:24:35 2021","The main experiment item","yes","Lexical_Decision_Task.osexp","C:\Users\jessi\Downloads","no","Andale Mono","no","18","no","white","no","yes","576","legacy","6","6","3","C:/Users/jessi/Downloads/subject-5208254.csv","legacy","Lentiform Loewenfeld","3.3.7","yes","yes","600bd7cfb6416f0113b04181","602110864497cf011d9c0822","0","f","NA","space","return","space","NA","f","722","NA","2301","4307","1039","NA","722","2","legacy","1024","2","48000","-16","task","5208254","even","NA","19769","24075","21772","39483","5752","11104","10063","39986","NA","39480","39986","39327","24075","40710","18127","38827","5698","31860","Lexical Decision Task","8","9986","11","yes","1024"
"3.208172527","10.27","7","deck","word","75","75","942.0833333333334","942.0833333333334","black","no","legacy","legacy","legacy","0","uniform","1","undefined","undefined","undefined","1","j","0","0","0","0","11","0","0","0","11","NA","7","11","7","0","7","3","11","0","11","Sun Feb 21 21:24:35 2021","The main experiment item","yes","Lexical_Decision_Task.osexp","C:\Users\jessi\Downloads","no","Andale Mono","no","18","no","white","no","yes","576","legacy","7","7","3","C:/Users/jessi/Downloads/subject-5208254.csv","legacy","Lentiform Loewenfeld","3.3.7","yes","yes","600bd7cfb6416f0113b04181","602110864497cf011d9c0822","0","j","NA","space","return","space","NA","j","1319","NA","2301","4307","1039","NA","1319","2","legacy","1024","2","48000","-16","task","5208254","even","NA","19769","24075","21772","41365","5752","11104","10063","41868","NA","41362","41868","41222","24075","43189","18127","40722","5698","31860","Lexical Decision Task","9","11305","12","yes","1024"
"3.031812271","6.52","3","gulp","word","76.92307692307692","76.92307692307692","925.2307692307693","925.2307692307693","black","no","legacy","legacy","legacy","0","uniform","1","undefined","undefined","undefined","1","j","0","0","0","0","12","0","0","0","12","NA","8","12","8","0","8","3","12","0","12","Sun Feb 21 21:24:35 2021","The main experiment item","yes","Lexical_Decision_Task.osexp","C:\Users\jessi\Downloads","no","Andale Mono","no","18","no","white","no","yes","576","legacy","8","8","3","C:/Users/jessi/Downloads/subject-5208254.csv","legacy","Lentiform Loewenfeld","3.3.7","yes","yes","600bd7cfb6416f0113b04181","602110864497cf011d9c0822","0","j","NA","space","return","space","NA","j","723","NA","2301","4307","1039","NA","723","2","legacy","1024","2","48000","-16","task","5208254","even","NA","19769","24075","21772","43858","5752","11104","10063","44361","NA","43855","44362","43702","24075","45087","18127","43201","5698","31860","Lexical Decision Task","10","12028","13","yes","1024"
"3.16326079","0","5","parg","non-word","78.57142857142857","78.57142857142857","910.6428571428571","910.6428571428571","black","no","legacy","legacy","legacy","0","uniform","1","undefined","undefined","undefined","1","f","0","0","0","0","13","0","0","0","13","NA","9","13","9","0","9","3","13","0","13","Sun Feb 21 21:24:35 2021","The main experiment item","yes","Lexical_Decision_Task.osexp","C:\Users\jessi\Downloads","no","Andale Mono","no","18","no","white","no","yes","576","legacy","9","9","3","C:/Users/jessi/Downloads/subject-5208254.csv","legacy","Lentiform Loewenfeld","3.3.7","yes","yes","600bd7cfb6416f0113b04181","602110864497cf011d9c0822","0","f","NA","space","return","space","NA","f","721","NA","2301","4307","1039","NA","721","2","legacy","1024","2","48000","-16","task","5208254","even","NA","19769","24075","21772","45775","5752","11104","10063","46279","NA","45771","46279","45599","24075","47002","18127","45099","5698","31860","Lexical Decision Task","11","12749","14","yes","1024"
"3.208978517","10.33","4","fish","word","80","80","897.6","897.6","black","no","legacy","legacy","legacy","0","uniform","1","undefined","undefined","undefined","1","j","0","0","0","0","14","0","0","0","14","NA","10","14","10","0","10","3","14","0","14","Sun Feb 21 21:24:35 2021","The main experiment item","yes","Lexical_Decision_Task.osexp","C:\Users\jessi\Downloads","no","Andale Mono","no","18","no","white","no","yes","576","legacy","10","10","3","C:/Users/jessi/Downloads/subject-5208254.csv","legacy","Lentiform Loewenfeld","3.3.7","yes","yes","600bd7cfb6416f0113b04181","602110864497cf011d9c0822","0","j","NA","space","return","space","NA","j","715","NA","2301","4307","1039","NA","715","2","legacy","1024","2","48000","-16","task","5208254","even","NA","19769","24075","21772","47702","5752","11104","10063","48204","NA","47697","48205","47515","24075","48922","18127","47015","5698","31860","Lexical Decision Task","12","13464","15","yes","1024"
"2.698387659","6.66","7","skid","word","81.25","81.25","880.75","880.75","black","no","legacy","legacy","legacy","0","uniform","1","undefined","undefined","undefined","1","j","0","0","0","0","15","0","0","0","15","NA","11","15","11","0","11","3","15","0","15","Sun Feb 21 21:24:35 2021","The main experiment item","yes","Lexical_Decision_Task.osexp","C:\Users\jessi\Downloads","no","Andale Mono","no","18","no","white","no","yes","576","legacy","11","11","3","C:/Users/jessi/Downloads/subject-5208254.csv","legacy","Lentiform Loewenfeld","3.3.7","yes","yes","600bd7cfb6416f0113b04181","602110864497cf011d9c0822","0","j","NA","space","return","space","NA","j","628","NA","2301","4307","1039","NA","628","2","legacy","1024","2","48000","-16","task","5208254","even","NA","19769","24075","21772","49565","5752","11104","10063","50068","NA","49564","50069","49433","24075","50699","18127","48933","5698","31860","Lexical Decision Task","13","14092","16","yes","1024"
"2.75025376","10.2","6","jump","word","82.3529411764706","82.3529411764706","862.5294117647059","862.5294117647059","black","no","legacy","legacy","legacy","0","uniform","1","undefined","undefined","undefined","1","j","0","0","0","0","16","0","0","0","16","NA","12","16","12","0","12","3","16","0","16","Sun Feb 21 21:24:35 2021","The main experiment item","yes","Lexical_Decision_Task.osexp","C:\Users\jessi\Downloads","no","Andale Mono","no","18","no","white","no","yes","576","legacy","12","12","3","C:/Users/jessi/Downloads/subject-5208254.csv","legacy","Lentiform Loewenfeld","3.3.7","yes","yes","600bd7cfb6416f0113b04181","602110864497cf011d9c0822","0","j","NA","space","return","space","NA","j","571","NA","2301","4307","1039","NA","571","2","legacy","1024","2","48000","-16","task","5208254","even","NA","19769","24075","21772","51373","5752","11104","10063","51876","NA","51371","51877","51211","24075","52451","18127","50711","5698","31860","Lexical Decision Task","14","14663","17","yes","1024"
"2.719886232","7.98","2","quiz","word","83.33333333333333","83.33333333333333","844","844","black","no","legacy","legacy","legacy","0","uniform","1","undefined","undefined","undefined","1","j","0","0","0","0","17","0","0","0","17","NA","13","17","13","0","13","3","17","0","17","Sun Feb 21 21:24:35 2021","The main experiment item","yes","Lexical_Decision_Task.osexp","C:\Users\jessi\Downloads","no","Andale Mono","no","18","no","white","no","yes","576","legacy","13","13","3","C:/Users/jessi/Downloads/subject-5208254.csv","legacy","Lentiform Loewenfeld","3.3.7","yes","yes","600bd7cfb6416f0113b04181","602110864497cf011d9c0822","0","j","NA","space","return","space","NA","j","529","NA","2301","4307","1039","NA","529","2","legacy","1024","2","48000","-16","task","5208254","even","NA","19769","24075","21772","53115","5752","11104","10063","53619","NA","53112","53619","52962","24075","54150","18127","52462","5698","31860","Lexical Decision Task","15","15192","18","yes","1024"
"3.076883066","0","8","mout","non-word","78.94736842105263","78.94736842105263","848.8421052631579","848.8421052631579","black","no","legacy","legacy","legacy","0","uniform","0","undefined","undefined","undefined","0","f","0","0","0","0","18","0","0","0","18","NA","14","18","14","0","14","3","18","0","18","Sun Feb 21 21:24:35 2021","The main experiment item","yes","Lexical_Decision_Task.osexp","C:\Users\jessi\Downloads","no","Andale Mono","no","18","no","white","no","yes","576","legacy","14","14","3","C:/Users/jessi/Downloads/subject-5208254.csv","legacy","Lentiform Loewenfeld","3.3.7","yes","yes","600bd7cfb6416f0113b04181","602110864497cf011d9c0822","0","j","NA","space","return","space","NA","j","936","NA","2301","4307","1039","NA","936","2","legacy","1024","2","48000","-16","task","5208254","even","NA","19769","24075","21772","54794","5752","11104","10063","55298","NA","54793","55298","54661","24075","56235","18127","54161","5698","31860","Lexical Decision Task","15","16128","19","yes","1024"
"3.15462682","0","6","noal","non-word","75","75","850.15","850.15","black","no","legacy","legacy","legacy","0","uniform","0","undefined","undefined","undefined","0","f","0","0","0","0","19","0","0","0","19","NA","15","19","15","0","15","3","19","0","19","Sun Feb 21 21:24:35 2021","The main experiment item","yes","Lexical_Decision_Task.osexp","C:\Users\jessi\Downloads","no","Andale Mono","no","18","no","white","no","yes","576","legacy","15","15","3","C:/Users/jessi/Downloads/subject-5208254.csv","legacy","Lentiform Loewenfeld","3.3.7","yes","yes","600bd7cfb6416f0113b04181","602110864497cf011d9c0822","0","j","NA","space","return","space","NA","j","875","NA","2301","4307","1039","NA","875","2","legacy","1024","2","48000","-16","task","5208254","even","NA","19769","24075","21772","57889","5752","11104","10063","58392","NA","57887","58392","57746","24075","59269","18127","54161","5698","56245","Lexical Decision Task","15","17003","20","yes","1024"
"2.696644658","5.78","2","yolk","word","76.19047619047619","76.19047619047619","844.8571428571429","844.8571428571429","black","no","legacy","legacy","legacy","0","uniform","1","undefined","undefined","undefined","1","j","0","0","0","0","20","0","0","0","20","NA","16","20","16","0","16","3","20","0","20","Sun Feb 21 21:24:35 2021","The main experiment item","yes","Lexical_Decision_Task.osexp","C:\Users\jessi\Downloads","no","Andale Mono","no","18","no","white","no","yes","576","legacy","16","16","3","C:/Users/jessi/Downloads/subject-5208254.csv","legacy","Lentiform Loewenfeld","3.3.7","yes","yes","600bd7cfb6416f0113b04181","602110864497cf011d9c0822","0","j","NA","space","return","space","NA","j","739","NA","2301","4307","1039","NA","739","2","legacy","1024","2","48000","-16","task","5208254","even","NA","19769","24075","21772","60921","5752","11104","10063","61424","NA","60919","61424","60781","24075","62165","18127","54161","5698","59281","Lexical Decision Task","16","17742","21","yes","1024"
"2.920123326","7.43","4","duel","word","77.27272727272727","77.27272727272727","833.3181818181819","833.3181818181819","black","no","legacy","legacy","legacy","0","uniform","1","undefined","undefined","undefined","1","j","0","0","0","0","21","0","0","0","21","NA","17","21","17","0","17","3","21","0","21","Sun Feb 21 21:24:35 2021","The main experiment item","yes","Lexical_Decision_Task.osexp","C:\Users\jessi\Downloads","no","Andale Mono","no","18","no","white","no","yes","576","legacy","17","17","3","C:/Users/jessi/Downloads/subject-5208254.csv","legacy","Lentiform Loewenfeld","3.3.7","yes","yes","600bd7cfb6416f0113b04181","602110864497cf011d9c0822","0","j","NA","space","return","space","NA","j","591","NA","2301","4307","1039","NA","591","2","legacy","1024","2","48000","-16","task","5208254","even","NA","19769","24075","21772","62801","5752","11104","10063","63305","NA","62799","63305","62677","24075","63897","18127","62177","5698","59281","Lexical Decision Task","17","18333","22","yes","1024"
"3.168890155","0","6","thet","non-word","78.26086956521739","78.26086956521739","828.5652173913044","828.5652173913044","black","no","legacy","legacy","legacy","0","uniform","1","undefined","undefined","undefined","1","f","0","0","0","0","22","0","0","0","22","NA","18","22","18","0","18","3","22","0","22","Sun Feb 21 21:24:35 2021","The main experiment item","yes","Lexical_Decision_Task.osexp","C:\Users\jessi\Downloads","no","Andale Mono","no","18","no","white","no","yes","576","legacy","18","18","3","C:/Users/jessi/Downloads/subject-5208254.csv","legacy","Lentiform Loewenfeld","3.3.7","yes","yes","600bd7cfb6416f0113b04181","602110864497cf011d9c0822","0","f","NA","space","return","space","NA","f","724","NA","2301","4307","1039","NA","724","2","legacy","1024","2","48000","-16","task","5208254","even","NA","19769","24075","21772","64537","5752","11104","10063","65041","NA","64535","65041","64409","24075","65768","18127","63909","5698","59281","Lexical Decision Task","18","19057","23","yes","1024"
"2.755364069","7.72","2","hoax","word","79.16666666666667","79.16666666666667","823.875","823.875","black","no","legacy","legacy","legacy","0","uniform","1","undefined","undefined","undefined","1","j","0","0","0","0","23","0","0","0","23","NA","19","23","19","0","19","3","23","0","23","Sun Feb 21 21:24:35 2021","The main experiment item","yes","Lexical_Decision_Task.osexp","C:\Users\jessi\Downloads","no","Andale Mono","no","18","no","white","no","yes","576","legacy","19","19","3","C:/Users/jessi/Downloads/subject-5208254.csv","legacy","Lentiform Loewenfeld","3.3.7","yes","yes","600bd7cfb6416f0113b04181","602110864497cf011d9c0822","0","j","NA","space","return","space","NA","j","716","NA","2301","4307","1039","NA","716","2","legacy","1024","2","48000","-16","task","5208254","even","NA","19769","24075","21772","66404","5752","11104","10063","66908","NA","66402","66908","66280","24075","67626","18127","65780","5698","59281","Lexical Decision Task","19","19773","24","yes","1024"
"3.088136089","8.32","9","worm","word","80","80","812.96","812.96","black","no","legacy","legacy","legacy","0","uniform","1","undefined","undefined","undefined","1","j","0","0","0","0","24","0","0","0","24","NA","20","24","20","0","20","3","24","0","24","Sun Feb 21 21:24:35 2021","The main experiment item","yes","Lexical_Decision_Task.osexp","C:\Users\jessi\Downloads","no","Andale Mono","no","18","no","white","no","yes","576","legacy","20","20","3","C:/Users/jessi/Downloads/subject-5208254.csv","legacy","Lentiform Loewenfeld","3.3.7","yes","yes","600bd7cfb6416f0113b04181","602110864497cf011d9c0822","0","j","NA","space","return","space","NA","j","551","NA","2301","4307","1039","NA","551","2","legacy","1024","2","48000","-16","task","5208254","even","NA","19769","24075","21772","68309","5752","11104","10063","68814","NA","68307","68814","68138","24075","69367","18127","67638","5698","59281","Lexical Decision Task","20","20324","25","yes","1024"
"2.782472624","10.55","2","huge","word","80.76923076923077","80.76923076923077","805.6923076923077","805.6923076923077","black","no","legacy","legacy","legacy","0","uniform","1","undefined","undefined","undefined","1","j","0","0","0","0","25","0","0","0","25","NA","21","25","21","0","21","3","25","0","25","Sun Feb 21 21:24:35 2021","The main experiment item","yes","Lexical_Decision_Task.osexp","C:\Users\jessi\Downloads","no","Andale Mono","no","18","no","white","no","yes","576","legacy","21","21","3","C:/Users/jessi/Downloads/subject-5208254.csv","legacy","Lentiform Loewenfeld","3.3.7","yes","yes","600bd7cfb6416f0113b04181","602110864497cf011d9c0822","0","j","NA","space","return","space","NA","j","624","NA","2301","4307","1039","NA","624","2","legacy","1024","2","48000","-16","task","5208254","even","NA","19769","24075","21772","70029","5752","11104","10063","70532","NA","70026","70533","69878","24075","71159","18127","69378","5698","59281","Lexical Decision Task","21","20948","26","yes","1024"
"2.771097306","0","9","jold","non-word","81.48148148148148","81.48148148148148","800.2962962962963","800.2962962962963","black","no","legacy","legacy","legacy","0","uniform","1","undefined","undefined","undefined","1","f","0","0","0","0","26","0","0","0","26","NA","22","26","22","0","22","3","26","0","26","Sun Feb 21 21:24:35 2021","The main experiment item","yes","Lexical_Decision_Task.osexp","C:\Users\jessi\Downloads","no","Andale Mono","no","18","no","white","no","yes","576","legacy","22","22","3","C:/Users/jessi/Downloads/subject-5208254.csv","legacy","Lentiform Loewenfeld","3.3.7","yes","yes","600bd7cfb6416f0113b04181","602110864497cf011d9c0822","0","f","NA","space","return","space","NA","f","660","NA","2301","4307","1039","NA","660","2","legacy","1024","2","48000","-16","task","5208254","even","NA","19769","24075","21772","71834","5752","11104","10063","72338","NA","71832","72339","71670","24075","73002","18127","71169","5698","59281","Lexical Decision Task","22","21608","27","yes","1024"
"3.165936429","0","7","leps","non-word","82.14285714285714","82.14285714285714","802.9285714285714","802.9285714285714","black","no","legacy","legacy","legacy","0","uniform","1","undefined","undefined","undefined","1","f","0","0","0","0","27","0","0","0","27","NA","23","27","23","0","23","3","27","0","27","Sun Feb 21 21:24:35 2021","The main experiment item","yes","Lexical_Decision_Task.osexp","C:\Users\jessi\Downloads","no","Andale Mono","no","18","no","white","no","yes","576","legacy","23","23","3","C:/Users/jessi/Downloads/subject-5208254.csv","legacy","Lentiform Loewenfeld","3.3.7","yes","yes","600bd7cfb6416f0113b04181","602110864497cf011d9c0822","0","f","NA","space","return","space","NA","f","874","NA","2301","4307","1039","NA","874","2","legacy","1024","2","48000","-16","task","5208254","even","NA","19769","24075","21772","73636","5752","11104","10063","74139","NA","73634","74139","73512","24075","75015","18127","73011","5698","59281","Lexical Decision Task","23","22482","28","yes","1024"
"3.102203805","7.21","3","drip","word","82.75862068965517","82.75862068965517","800.1724137931035","800.1724137931035","black","no","legacy","legacy","legacy","0","uniform","1","undefined","undefined","undefined","1","j","0","0","0","0","28","0","0","0","28","NA","24","28","24","0","24","3","28","0","28","Sun Feb 21 21:24:35 2021","The main experiment item","yes","Lexical_Decision_Task.osexp","C:\Users\jessi\Downloads","no","Andale Mono","no","18","no","white","no","yes","576","legacy","24","24","3","C:/Users/jessi/Downloads/subject-5208254.csv","legacy","Lentiform Loewenfeld","3.3.7","yes","yes","600bd7cfb6416f0113b04181","602110864497cf011d9c0822","0","j","NA","space","return","space","NA","j","723","NA","2301","4307","1039","NA","723","2","legacy","1024","2","48000","-16","task","5208254","even","NA","19769","24075","21772","75654","5752","11104","10063","76157","NA","75652","76157","75524","24075","76882","18127","75024","5698","59281","Lexical Decision Task","24","23205","29","yes","1024"
"2.728085817","10.02","9","bike","word","83.33333333333333","83.33333333333333","793.4666666666667","793.4666666666667","black","no","legacy","legacy","legacy","0","uniform","1","undefined","undefined","undefined","1","j","0","0","0","0","29","0","0","0","29","NA","25","29","25","0","25","3","29","0","29","Sun Feb 21 21:24:35 2021","The main experiment item","yes","Lexical_Decision_Task.osexp","C:\Users\jessi\Downloads","no","Andale Mono","no","18","no","white","no","yes","576","legacy","25","25","3","C:/Users/jessi/Downloads/subject-5208254.csv","legacy","Lentiform Loewenfeld","3.3.7","yes","yes","600bd7cfb6416f0113b04181","602110864497cf011d9c0822","0","j","NA","space","return","space","NA","j","599","NA","2301","4307","1039","NA","599","2","legacy","1024","2","48000","-16","task","5208254","even","NA","19769","24075","21772","77527","5752","11104","10063","78030","NA","77526","78031","77392","24075","78632","18127","76892","5698","59281","Lexical Decision Task","25","23804","30","yes","1024"
"3.218535505","7.85","7","goat","word","83.87096774193549","83.87096774193549","785.1290322580645","785.1290322580645","black","no","legacy","legacy","legacy","0","uniform","1","undefined","undefined","undefined","1","j","0","0","0","0","30","0","0","0","30","NA","26","30","26","0","26","3","30","0","30","Sun Feb 21 21:24:35 2021","The main experiment item","yes","Lexical_Decision_Task.osexp","C:\Users\jessi\Downloads","no","Andale Mono","no","18","no","white","no","yes","576","legacy","26","26","3","C:/Users/jessi/Downloads/subject-5208254.csv","legacy","Lentiform Loewenfeld","3.3.7","yes","yes","600bd7cfb6416f0113b04181","602110864497cf011d9c0822","0","j","NA","space","return","space","NA","j","535","NA","2301","4307","1039","NA","535","2","legacy","1024","2","48000","-16","task","5208254","even","NA","19769","24075","21772","79277","5752","11104","10063","79781","NA","79275","79781","79144","24075","80318","18127","78643","5698","59281","Lexical Decision Task","26","24339","31","yes","1024"
"2.80048796","0","8","pife","non-word","84.375","84.375","781.21875","781.21875","black","no","legacy","legacy","legacy","0","uniform","1","undefined","undefined","undefined","1","f","0","0","0","0","31","0","0","0","31","NA","27","31","27","0","27","3","31","0","31","Sun Feb 21 21:24:35 2021","The main experiment item","yes","Lexical_Decision_Task.osexp","C:\Users\jessi\Downloads","no","Andale Mono","no","18","no","white","no","yes","576","legacy","27","27","3","C:/Users/jessi/Downloads/subject-5208254.csv","legacy","Lentiform Loewenfeld","3.3.7","yes","yes","600bd7cfb6416f0113b04181","602110864497cf011d9c0822","0","f","NA","space","return","space","NA","f","660","NA","2301","4307","1039","NA","660","2","legacy","1024","2","48000","-16","task","5208254","even","NA","19769","24075","21772","80959","5752","11104","10063","81464","NA","80957","81464","80829","24075","82126","18127","80329","5698","59281","Lexical Decision Task","27","24999","32","yes","1024"
"2.86332286","6.71","2","feud","word","84.84848484848484","84.84848484848484","779.2121212121212","779.2121212121212","black","no","legacy","legacy","legacy","0","uniform","1","undefined","undefined","undefined","1","j","0","0","0","0","32","0","0","0","32","NA","28","32","28","0","28","3","32","0","32","Sun Feb 21 21:24:35 2021","The main experiment item","yes","Lexical_Decision_Task.osexp","C:\Users\jessi\Downloads","no","Andale Mono","no","18","no","white","no","yes","576","legacy","28","28","3","C:/Users/jessi/Downloads/subject-5208254.csv","legacy","Lentiform Loewenfeld","3.3.7","yes","yes","600bd7cfb6416f0113b04181","602110864497cf011d9c0822","0","j","NA","space","return","space","NA","j","715","NA","2301","4307","1039","NA","715","2","legacy","1024","2","48000","-16","task","5208254","even","NA","19769","24075","21772","82772","5752","11104","10063","83275","NA","82770","83275","82638","24075","83993","18127","82138","5698","59281","Lexical Decision Task","28","25714","33","yes","1024"
"2.767650507","0","6","yolt","non-word","82.3529411764706","82.3529411764706","784.0588235294117","784.0588235294117","black","no","legacy","legacy","legacy","0","uniform","0","undefined","undefined","undefined","0","f","0","0","0","0","33","0","0","0","33","NA","29","33","29","0","29","3","33","0","33","Sun Feb 21 21:24:35 2021","The main experiment item","yes","Lexical_Decision_Task.osexp","C:\Users\jessi\Downloads","no","Andale Mono","no","18","no","white","no","yes","576","legacy","29","29","3","C:/Users/jessi/Downloads/subject-5208254.csv","legacy","Lentiform Loewenfeld","3.3.7","yes","yes","600bd7cfb6416f0113b04181","602110864497cf011d9c0822","0","j","NA","space","return","space","NA","j","944","NA","2301","4307","1039","NA","944","2","legacy","1024","2","48000","-16","task","5208254","even","NA","19769","24075","21772","84638","5752","11104","10063","85141","NA","84635","85142","84506","24075","86089","18127","84006","5698","59281","Lexical Decision Task","28","26658","34","yes","1024"
"3.077974404","10.41","8","tool","word","82.85714285714286","82.85714285714286","780.4857142857143","780.4857142857143","black","no","legacy","legacy","legacy","0","uniform","1","undefined","undefined","undefined","1","j","0","0","0","0","34","0","0","0","34","NA","30","34","30","0","30","3","34","0","34","Sun Feb 21 21:24:35 2021","The main experiment item","yes","Lexical_Decision_Task.osexp","C:\Users\jessi\Downloads","no","Andale Mono","no","18","no","white","no","yes","576","legacy","30","30","3","C:/Users/jessi/Downloads/subject-5208254.csv","legacy","Lentiform Loewenfeld","3.3.7","yes","yes","600bd7cfb6416f0113b04181","602110864497cf011d9c0822","0","j","NA","space","return","space","NA","j","659","NA","2301","4307","1039","NA","659","2","legacy","1024","2","48000","-16","task","5208254","even","NA","19769","24075","21772","87736","5752","11104","10063","88241","NA","87734","88241","87599","24075","88903","18127","84006","5698","86099","Lexical Decision Task","29","27317","35","yes","1024"
"2.744553742","0","2","nawk","non-word","83.33333333333333","83.33333333333333","797.3888888888889","797.3888888888889","black","no","legacy","legacy","legacy","0","uniform","1","undefined","undefined","undefined","1","f","0","0","0","0","35","0","0","0","35","NA","31","35","31","0","31","3","35","0","35","Sun Feb 21 21:24:35 2021","The main experiment item","yes","Lexical_Decision_Task.osexp","C:\Users\jessi\Downloads","no","Andale Mono","no","18","no","white","no","yes","576","legacy","31","31","3","C:/Users/jessi/Downloads/subject-5208254.csv","legacy","Lentiform Loewenfeld","3.3.7","yes","yes","600bd7cfb6416f0113b04181","602110864497cf011d9c0822","0","f","NA","space","return","space","NA","f","1389","NA","2301","4307","1039","NA","1389","2","legacy","1024","2","48000","-16","task","5208254","even","NA","19769","24075","21772","89551","5752","11104","10063","90055","NA","89550","90055","89414","24075","91446","18127","88914","5698","86099","Lexical Decision Task","30","28706","36","yes","1024"
"2.924968096","0","4","phim","non-word","83.78378378378379","83.78378378378379","795.6486486486486","795.6486486486486","black","no","legacy","legacy","legacy","0","uniform","1","undefined","undefined","undefined","1","f","0","0","0","0","36","0","0","0","36","NA","32","36","32","0","32","3","36","0","36","Sun Feb 21 21:24:35 2021","The main experiment item","yes","Lexical_Decision_Task.osexp","C:\Users\jessi\Downloads","no","Andale Mono","no","18","no","white","no","yes","576","legacy","32","32","3","C:/Users/jessi/Downloads/subject-5208254.csv","legacy","Lentiform Loewenfeld","3.3.7","yes","yes","600bd7cfb6416f0113b04181","602110864497cf011d9c0822","0","f","NA","space","return","space","NA","f","733","NA","2301","4307","1039","NA","733","2","legacy","1024","2","48000","-16","task","5208254","even","NA","19769","24075","21772","92078","5752","11104","10063","92581","NA","92076","92581","91958","24075","93316","18127","91458","5698","86099","Lexical Decision Task","31","29439","37","yes","1024"
"3.225825991","0","7","talm","non-word","81.57894736842105","81.57894736842105","794.7631578947369","794.7631578947369","black","no","legacy","legacy","legacy","0","uniform","0","undefined","undefined","undefined","0","f","0","0","0","0","37","0","0","0","37","NA","33","37","33","0","33","3","37","0","37","Sun Feb 21 21:24:35 2021","The main experiment item","yes","Lexical_Decision_Task.osexp","C:\Users\jessi\Downloads","no","Andale Mono","no","18","no","white","no","yes","576","legacy","33","33","3","C:/Users/jessi/Downloads/subject-5208254.csv","legacy","Lentiform Loewenfeld","3.3.7","yes","yes","600bd7cfb6416f0113b04181","602110864497cf011d9c0822","0","j","NA","space","return","space","NA","j","762","NA","2301","4307","1039","NA","762","2","legacy","1024","2","48000","-16","task","5208254","even","NA","19769","24075","21772","93953","5752","11104","10063","94456","NA","93952","94457","93827","24075","95222","18127","93327","5698","86099","Lexical Decision Task","31","30201","38","yes","1024"
"3.067070856","9.39","3","loud","word","82.05128205128206","82.05128205128206","789.6410256410256","789.6410256410256","black","no","legacy","legacy","legacy","0","uniform","1","undefined","undefined","undefined","1","j","0","0","0","0","38","0","0","0","38","NA","34","38","34","0","34","3","38","0","38","Sun Feb 21 21:24:35 2021","The main experiment item","yes","Lexical_Decision_Task.osexp","C:\Users\jessi\Downloads","no","Andale Mono","no","18","no","white","no","yes","576","legacy","34","34","3","C:/Users/jessi/Downloads/subject-5208254.csv","legacy","Lentiform Loewenfeld","3.3.7","yes","yes","600bd7cfb6416f0113b04181","602110864497cf011d9c0822","0","j","NA","space","return","space","NA","j","595","NA","2301","4307","1039","NA","595","2","legacy","1024","2","48000","-16","task","5208254","even","NA","19769","24075","21772","96875","5752","11104","10063","97379","NA","96873","97379","96735","24075","97976","18127","93327","5698","95235","Lexical Decision Task","32","30796","39","yes","1024"
"3.094121596","0","8","fode","non-word","82.5","82.5","785.775","785.775","black","no","legacy","legacy","legacy","0","uniform","1","undefined","undefined","undefined","1","f","0","0","0","0","39","0","0","0","39","NA","35","39","35","0","35","3","39","0","39","Sun Feb 21 21:24:35 2021","The main experiment item","yes","Lexical_Decision_Task.osexp","C:\Users\jessi\Downloads","no","Andale Mono","no","18","no","white","no","yes","576","legacy","35","35","3","C:/Users/jessi/Downloads/subject-5208254.csv","legacy","Lentiform Loewenfeld","3.3.7","yes","yes","600bd7cfb6416f0113b04181","602110864497cf011d9c0822","0","f","NA","space","return","space","NA","f","635","NA","2301","4307","1039","NA","635","2","legacy","1024","2","48000","-16","task","5208254","even","NA","19769","24075","21772","98620","5752","11104","10063","99124","NA","98618","99124","98487","24075","99761","18127","97987","5698","95235","Lexical Decision Task","33","31431","40","yes","1024"
"3.090140555","5.81","8","pout","word","82.92682926829268","82.92682926829268","796.8536585365854","796.8536585365854","black","no","legacy","legacy","legacy","0","uniform","1","undefined","undefined","undefined","1","j","0","0","0","0","40","0","0","0","40","NA","36","40","36","0","36","3","40","0","40","Sun Feb 21 21:24:35 2021","The main experiment item","yes","Lexical_Decision_Task.osexp","C:\Users\jessi\Downloads","no","Andale Mono","no","18","no","white","no","yes","576","legacy","36","36","3","C:/Users/jessi/Downloads/subject-5208254.csv","legacy","Lentiform Loewenfeld","3.3.7","yes","yes","600bd7cfb6416f0113b04181","602110864497cf011d9c0822","0","j","NA","space","return","space","NA","j","1240","NA","2301","4307","1039","NA","1240","2","legacy","1024","2","48000","-16","task","5208254","even","NA","19769","24075","21772","100407","5752","11104","10063","100911","NA","100406","100911","100274","24075","102153","18127","99773","5698","95235","Lexical Decision Task","34","32671","41","yes","1024"
"3.529815197","0","3","lerm","non-word","83.33333333333333","83.33333333333333","794.3571428571429","794.3571428571429","black","no","legacy","legacy","legacy","0","uniform","1","undefined","undefined","undefined","1","f","0","0","0","0","41","0","0","0","41","NA","37","41","37","0","37","3","41","0","41","Sun Feb 21 21:24:35 2021","The main experiment item","yes","Lexical_Decision_Task.osexp","C:\Users\jessi\Downloads","no","Andale Mono","no","18","no","white","no","yes","576","legacy","37","37","3","C:/Users/jessi/Downloads/subject-5208254.csv","legacy","Lentiform Loewenfeld","3.3.7","yes","yes","600bd7cfb6416f0113b04181","602110864497cf011d9c0822","0","f","NA","space","return","space","NA","f","692","NA","2301","4307","1039","NA","692","2","legacy","1024","2","48000","-16","task","5208254","even","NA","19769","24075","21772","102810","5752","11104","10063","103315","NA","102807","103315","102666","24075","104010","18127","102166","5698","95235","Lexical Decision Task","35","33363","42","yes","1024"
"3.274157849","0","8","leet","non-word","83.72093023255815","83.72093023255815","794.2093023255813","794.2093023255813","black","no","legacy","legacy","legacy","0","uniform","1","undefined","undefined","undefined","1","f","0","0","0","0","42","0","0","0","42","NA","38","42","38","0","38","3","42","0","42","Sun Feb 21 21:24:35 2021","The main experiment item","yes","Lexical_Decision_Task.osexp","C:\Users\jessi\Downloads","no","Andale Mono","no","18","no","white","no","yes","576","legacy","38","38","3","C:/Users/jessi/Downloads/subject-5208254.csv","legacy","Lentiform Loewenfeld","3.3.7","yes","yes","600bd7cfb6416f0113b04181","602110864497cf011d9c0822","0","f","NA","space","return","space","NA","f","788","NA","2301","4307","1039","NA","788","2","legacy","1024","2","48000","-16","task","5208254","even","NA","19769","24075","21772","104655","5752","11104","10063","105158","NA","104653","105159","104522","24075","105949","18127","104022","5698","95235","Lexical Decision Task","36","34151","43","yes","1024"
"3.134602053","0","8","jart","non-word","84.0909090909091","84.0909090909091","791.1818181818181","791.1818181818181","black","no","legacy","legacy","legacy","0","uniform","1","undefined","undefined","undefined","1","f","0","0","0","0","43","0","0","0","43","NA","39","43","39","0","39","3","43","0","43","Sun Feb 21 21:24:35 2021","The main experiment item","yes","Lexical_Decision_Task.osexp","C:\Users\jessi\Downloads","no","Andale Mono","no","18","no","white","no","yes","576","legacy","39","39","3","C:/Users/jessi/Downloads/subject-5208254.csv","legacy","Lentiform Loewenfeld","3.3.7","yes","yes","600bd7cfb6416f0113b04181","602110864497cf011d9c0822","0","f","NA","space","return","space","NA","f","661","NA","2301","4307","1039","NA","661","2","legacy","1024","2","48000","-16","task","5208254","even","NA","19769","24075","21772","106581","5752","11104","10063","107084","NA","106579","107084","106461","24075","107747","18127","105961","5698","95235","Lexical Decision Task","37","34812","44","yes","1024"
"2.981215883","10.66","5","hair","word","84.44444444444444","84.44444444444444","790.4222222222222","790.4222222222222","black","no","legacy","legacy","legacy","0","uniform","1","undefined","undefined","undefined","1","j","0","0","0","0","44","0","0","0","44","NA","40","44","40","0","40","3","44","0","44","Sun Feb 21 21:24:35 2021","The main experiment item","yes","Lexical_Decision_Task.osexp","C:\Users\jessi\Downloads","no","Andale Mono","no","18","no","white","no","yes","576","legacy","40","40","3","C:/Users/jessi/Downloads/subject-5208254.csv","legacy","Lentiform Loewenfeld","3.3.7","yes","yes","600bd7cfb6416f0113b04181","602110864497cf011d9c0822","0","j","NA","space","return","space","NA","j","757","NA","2301","4307","1039","NA","757","2","legacy","1024","2","48000","-16","task","5208254","even","NA","19769","24075","21772","108417","5752","11104","10063","108921","NA","108414","108921","108259","24075","109682","18127","107759","5698","95235","Lexical Decision Task","38","35569","45","yes","1024"
"2.713490543","0","3","feps","non-word","84.78260869565217","84.78260869565217","784.8478260869565","784.8478260869565","black","no","legacy","legacy","legacy","0","uniform","1","undefined","undefined","undefined","1","f","0","0","0","0","45","0","0","0","45","NA","41","45","41","0","41","3","45","0","45","Sun Feb 21 21:24:35 2021","The main experiment item","yes","Lexical_Decision_Task.osexp","C:\Users\jessi\Downloads","no","Andale Mono","no","18","no","white","no","yes","576","legacy","41","41","3","C:/Users/jessi/Downloads/subject-5208254.csv","legacy","Lentiform Loewenfeld","3.3.7","yes","yes","600bd7cfb6416f0113b04181","602110864497cf011d9c0822","0","f","NA","space","return","space","NA","f","534","NA","2301","4307","1039","NA","534","2","legacy","1024","2","48000","-16","task","5208254","even","NA","19769","24075","21772","110376","5752","11104","10063","110880","NA","110373","110880","110194","24075","111416","18127","109693","5698","95235","Lexical Decision Task","39","36103","46","yes","1024"
"3.037294994","8.64","7","roof","word","85.1063829787234","85.1063829787234","785.3829787234042","785.3829787234042","black","no","legacy","legacy","legacy","0","uniform","1","undefined","undefined","undefined","1","j","0","0","0","0","46","0","0","0","46","NA","42","46","42","0","42","3","46","0","46","Sun Feb 21 21:24:35 2021","The main experiment item","yes","Lexical_Decision_Task.osexp","C:\Users\jessi\Downloads","no","Andale Mono","no","18","no","white","no","yes","576","legacy","42","42","3","C:/Users/jessi/Downloads/subject-5208254.csv","legacy","Lentiform Loewenfeld","3.3.7","yes","yes","600bd7cfb6416f0113b04181","602110864497cf011d9c0822","0","j","NA","space","return","space","NA","j","810","NA","2301","4307","1039","NA","810","2","legacy","1024","2","48000","-16","task","5208254","even","NA","19769","24075","21772","112059","5752","11104","10063","112562","NA","112057","112563","111928","24075","113375","18127","111428","5698","95235","Lexical Decision Task","40","36913","47","yes","1024"
"2.858136002","0","4","phip","non-word","85.41666666666667","85.41666666666667","780.5833333333334","780.5833333333334","black","no","legacy","legacy","legacy","0","uniform","1","undefined","undefined","undefined","1","f","0","0","0","0","47","0","0","0","47","NA","43","47","43","0","43","3","47","0","47","Sun Feb 21 21:24:35 2021","The main experiment item","yes","Lexical_Decision_Task.osexp","C:\Users\jessi\Downloads","no","Andale Mono","no","18","no","white","no","yes","576","legacy","43","43","3","C:/Users/jessi/Downloads/subject-5208254.csv","legacy","Lentiform Loewenfeld","3.3.7","yes","yes","600bd7cfb6416f0113b04181","602110864497cf011d9c0822","0","f","NA","space","return","space","NA","f","555","NA","2301","4307","1039","NA","555","2","legacy","1024","2","48000","-16","task","5208254","even","NA","19769","24075","21772","114015","5752","11104","10063","114518","NA","114014","114518","113887","24075","115076","18127","113386","5698","95235","Lexical Decision Task","41","37468","48","yes","1024"
"2.884795364","0","6","flob","non-word","85.71428571428571","85.71428571428571","777.6326530612245","777.6326530612245","black","no","legacy","legacy","legacy","0","uniform","1","undefined","undefined","undefined","1","f","0","0","0","0","48","0","0","0","48","NA","44","48","44","0","44","3","48","0","48","Sun Feb 21 21:24:35 2021","The main experiment item","yes","Lexical_Decision_Task.osexp","C:\Users\jessi\Downloads","no","Andale Mono","no","18","no","white","no","yes","576","legacy","44","44","3","C:/Users/jessi/Downloads/subject-5208254.csv","legacy","Lentiform Loewenfeld","3.3.7","yes","yes","600bd7cfb6416f0113b04181","602110864497cf011d9c0822","0","f","NA","space","return","space","NA","f","636","NA","2301","4307","1039","NA","636","2","legacy","1024","2","48000","-16","task","5208254","even","NA","19769","24075","21772","115719","5752","11104","10063","116222","NA","115717","116223","115588","24075","116862","18127","115088","5698","95235","Lexical Decision Task","42","38104","49","yes","1024"
"3.153001286","8.7","5","palm","word","86","86","776.58","776.58","black","no","legacy","legacy","legacy","0","uniform","1","undefined","undefined","undefined","1","j","0","0","0","0","49","0","0","0","49","NA","45","49","45","0","45","3","49","0","49","Sun Feb 21 21:24:35 2021","The main experiment item","yes","Lexical_Decision_Task.osexp","C:\Users\jessi\Downloads","no","Andale Mono","no","18","no","white","no","yes","576","legacy","45","45","3","C:/Users/jessi/Downloads/subject-5208254.csv","legacy","Lentiform Loewenfeld","3.3.7","yes","yes","600bd7cfb6416f0113b04181","602110864497cf011d9c0822","0","j","NA","space","return","space","NA","j","725","NA","2301","4307","1039","NA","725","2","legacy","1024","2","48000","-16","task","5208254","even","NA","19769","24075","21772","117506","5752","11104","10063","118009","NA","117503","118010","117374","24075","118738","18127","116874","5698","95235","Lexical Decision Task","43","38829","50","yes","1024"
"3.347850856","10.51","2","rich","word","86.27450980392157","86.27450980392157","772.1176470588235","772.1176470588235","black","no","legacy","legacy","legacy","0","uniform","1","undefined","undefined","undefined","1","j","0","0","0","0","50","0","0","0","50","NA","46","50","46","0","46","3","50","0","50","Sun Feb 21 21:24:35 2021","The main experiment item","yes","Lexical_Decision_Task.osexp","C:\Users\jessi\Downloads","no","Andale Mono","no","18","no","white","no","yes","576","legacy","46","46","3","C:/Users/jessi/Downloads/subject-5208254.csv","legacy","Lentiform Loewenfeld","3.3.7","yes","yes","600bd7cfb6416f0113b04181","602110864497cf011d9c0822","0","j","NA","space","return","space","NA","j","549","NA","2301","4307","1039","NA","549","2","legacy","1024","2","48000","-16","task","5208254","even","NA","19769","24075","21772","119380","5752","11104","10063","119884","NA","119378","119884","119249","24075","120435","18127","118749","5698","95235","Lexical Decision Task","44","39378","51","yes","1024"
"2.695481676","0","7","goke","non-word","86.53846153846153","86.53846153846153","769.4230769230769","769.4230769230769","black","no","legacy","legacy","legacy","0","uniform","1","undefined","undefined","undefined","1","f","0","0","0","0","51","0","0","0","51","NA","47","51","47","0","47","3","51","0","51","Sun Feb 21 21:24:35 2021","The main experiment item","yes","Lexical_Decision_Task.osexp","C:\Users\jessi\Downloads","no","Andale Mono","no","18","no","white","no","yes","576","legacy","47","47","3","C:/Users/jessi/Downloads/subject-5208254.csv","legacy","Lentiform Loewenfeld","3.3.7","yes","yes","600bd7cfb6416f0113b04181","602110864497cf011d9c0822","0","f","NA","space","return","space","NA","f","632","NA","2301","4307","1039","NA","632","2","legacy","1024","2","48000","-16","task","5208254","even","NA","19769","24075","21772","121081","5752","11104","10063","121584","NA","121079","121584","120948","24075","122220","18127","120447","5698","95235","Lexical Decision Task","45","40010","52","yes","1024"
"2.980911938","7.15","7","hoop","word","86.79245283018868","86.79245283018868","768.2641509433962","768.2641509433962","black","no","legacy","legacy","legacy","0","uniform","1","undefined","undefined","undefined","1","j","0","0","0","0","52","0","0","0","52","NA","48","52","48","0","48","3","52","0","52","Sun Feb 21 21:24:35 2021","The main experiment item","yes","Lexical_Decision_Task.osexp","C:\Users\jessi\Downloads","no","Andale Mono","no","18","no","white","no","yes","576","legacy","48","48","3","C:/Users/jessi/Downloads/subject-5208254.csv","legacy","Lentiform Loewenfeld","3.3.7","yes","yes","600bd7cfb6416f0113b04181","602110864497cf011d9c0822","0","j","NA","space","return","space","NA","j","708","NA","2301","4307","1039","NA","708","2","legacy","1024","2","48000","-16","task","5208254","even","NA","19769","24075","21772","122867","5752","11104","10063","123370","NA","122865","123371","122732","24075","124082","18127","122232","5698","95235","Lexical Decision Task","46","40718","53","yes","1024"
"2.803231716","5.26","3","kiln","word","85.18518518518519","85.18518518518519","764.5555555555555","764.5555555555555","black","no","legacy","legacy","legacy","0","uniform","0","undefined","undefined","undefined","0","j","0","0","0","0","53","0","0","0","53","NA","49","53","49","0","49","3","53","0","53","Sun Feb 21 21:24:35 2021","The main experiment item","yes","Lexical_Decision_Task.osexp","C:\Users\jessi\Downloads","no","Andale Mono","no","18","no","white","no","yes","576","legacy","49","49","3","C:/Users/jessi/Downloads/subject-5208254.csv","legacy","Lentiform Loewenfeld","3.3.7","yes","yes","600bd7cfb6416f0113b04181","602110864497cf011d9c0822","0","f","NA","space","return","space","NA","f","568","NA","2301","4307","1039","NA","568","2","legacy","1024","2","48000","-16","task","5208254","even","NA","19769","24075","21772","124727","5752","11104","10063","125231","NA","124725","125232","124594","24075","125802","18127","124094","5698","95235","Lexical Decision Task","46","41286","54","yes","1024"
"2.7084209","0","8","vump","non-word","85.45454545454545","85.45454545454545","770.8909090909091","770.8909090909091","black","no","legacy","legacy","legacy","0","uniform","1","undefined","undefined","undefined","1","f","0","0","0","0","54","0","0","0","54","0","50","54","50","0","50","3","54","0","54","Sun Feb 21 21:24:35 2021","The main experiment item","yes","Lexical_Decision_Task.osexp","C:\Users\jessi\Downloads","no","Andale Mono","no","18","no","white","no","yes","576","legacy","50","50","3","C:/Users/jessi/Downloads/subject-5208254.csv","legacy","Lentiform Loewenfeld","3.3.7","yes","yes","600bd7cfb6416f0113b04181","602110864497cf011d9c0822","0","f","NA","space","return","space","space","f","1113","NA","2301","4307","1039","15866","1113","2","legacy","1024","2","48000","-16","task","5208254","even","NA","19769","24075","21772","143440","5752","11104","10063","143943","127442","143438","143944","127314","24075","145060","18127","124094","5698","125814","Lexical Decision Task","47","42399","55","yes","1024"
"2.784379519","0","2","snaf","non-word","85.71428571428571","85.71428571428571","771.4107142857143","771.4107142857143","black","no","legacy","legacy","legacy","0","uniform","1","undefined","undefined","undefined","1","f","0","0","0","0","55","0","0","0","55","0","51","55","51","0","51","3","55","0","55","Sun Feb 21 21:24:35 2021","The main experiment item","yes","Lexical_Decision_Task.osexp","C:\Users\jessi\Downloads","no","Andale Mono","no","18","no","white","no","yes","576","legacy","51","51","3","C:/Users/jessi/Downloads/subject-5208254.csv","legacy","Lentiform Loewenfeld","3.3.7","yes","yes","600bd7cfb6416f0113b04181","602110864497cf011d9c0822","0","f","NA","space","return","space","space","f","800","NA","2301","4307","1039","15866","800","2","legacy","1024","2","48000","-16","task","5208254","even","NA","19769","24075","21772","145699","5752","11104","10063","146202","127442","145697","146203","145570","24075","147006","18127","145070","5698","125814","Lexical Decision Task","48","43199","56","yes","1024"
"2.966923697","5.4","2","fume","word","85.96491228070175","85.96491228070175","771.9824561403509","771.9824561403509","black","no","legacy","legacy","legacy","0","uniform","1","undefined","undefined","undefined","1","j","0","0","0","0","56","0","0","0","56","0","52","56","52","0","52","3","56","0","56","Sun Feb 21 21:24:35 2021","The main experiment item","yes","Lexical_Decision_Task.osexp","C:\Users\jessi\Downloads","no","Andale Mono","no","18","no","white","no","yes","576","legacy","52","52","3","C:/Users/jessi/Downloads/subject-5208254.csv","legacy","Lentiform Loewenfeld","3.3.7","yes","yes","600bd7cfb6416f0113b04181","602110864497cf011d9c0822","0","j","NA","space","return","space","space","j","804","NA","2301","4307","1039","15866","804","2","legacy","1024","2","48000","-16","task","5208254","even","NA","19769","24075","21772","147696","5752","11104","10063","148199","127442","147693","148200","147521","24075","149006","18127","147020","5698","125814","Lexical Decision Task","49","44003","57","yes","1024"
"3.531734309","0","6","lerd","non-word","86.20689655172414","86.20689655172414","771.4655172413793","771.4655172413793","black","no","legacy","legacy","legacy","0","uniform","1","undefined","undefined","undefined","1","f","0","0","0","0","57","0","0","0","57","0","53","57","53","0","53","3","57","0","57","Sun Feb 21 21:24:35 2021","The main experiment item","yes","Lexical_Decision_Task.osexp","C:\Users\jessi\Downloads","no","Andale Mono","no","18","no","white","no","yes","576","legacy","53","53","3","C:/Users/jessi/Downloads/subject-5208254.csv","legacy","Lentiform Loewenfeld","3.3.7","yes","yes","600bd7cfb6416f0113b04181","602110864497cf011d9c0822","0","f","NA","space","return","space","space","f","742","NA","2301","4307","1039","15866","742","2","legacy","1024","2","48000","-16","task","5208254","even","NA","19769","24075","21772","149670","5752","11104","10063","150173","127442","149666","150174","149516","24075","150920","18127","149016","5698","125814","Lexical Decision Task","50","44745","58","yes","1024"
"3.156347201","0","8","lasp","non-word","84.7457627118644","84.7457627118644","769.8983050847457","769.8983050847457","black","no","legacy","legacy","legacy","0","uniform","0","undefined","undefined","undefined","0","f","0","0","0","0","58","0","0","0","58","0","54","58","54","0","54","3","58","0","58","Sun Feb 21 21:24:35 2021","The main experiment item","yes","Lexical_Decision_Task.osexp","C:\Users\jessi\Downloads","no","Andale Mono","no","18","no","white","no","yes","576","legacy","54","54","3","C:/Users/jessi/Downloads/subject-5208254.csv","legacy","Lentiform Loewenfeld","3.3.7","yes","yes","600bd7cfb6416f0113b04181","602110864497cf011d9c0822","0","j","NA","space","return","space","space","j","679","NA","2301","4307","1039","15866","679","2","legacy","1024","2","48000","-16","task","5208254","even","NA","19769","24075","21772","151561","5752","11104","10063","152064","127442","151559","152065","151431","24075","152746","18127","150931","5698","125814","Lexical Decision Task","50","45424","59","yes","1024"
"2.868644438","10.52","4","town","word","85","85","767.8666666666667","767.8666666666667","black","no","legacy","legacy","legacy","0","uniform","1","undefined","undefined","undefined","1","j","0","0","0","0","59","0","0","0","59","0","55","59","55","0","55","3","59","0","59","Sun Feb 21 21:24:35 2021","The main experiment item","yes","Lexical_Decision_Task.osexp","C:\Users\jessi\Downloads","no","Andale Mono","no","18","no","white","no","yes","576","legacy","55","55","3","C:/Users/jessi/Downloads/subject-5208254.csv","legacy","Lentiform Loewenfeld","3.3.7","yes","yes","600bd7cfb6416f0113b04181","602110864497cf011d9c0822","0","j","NA","space","return","space","space","j","648","NA","2301","4307","1039","15866","648","2","legacy","1024","2","48000","-16","task","5208254","even","NA","19769","24075","21772","154413","5752","11104","10063","154917","127442","154410","154917","154259","24075","155569","18127","150931","5698","152759","Lexical Decision Task","51","46072","60","yes","1024"
"3.259832699","0","9","flar","non-word","85.24590163934427","85.24590163934427","764.983606557377","764.983606557377","black","no","legacy","legacy","legacy","0","uniform","1","undefined","undefined","undefined","1","f","0","0","0","0","60","0","0","0","60","0","56","60","56","0","56","3","60","0","60","Sun Feb 21 21:24:35 2021","The main experiment item","yes","Lexical_Decision_Task.osexp","C:\Users\jessi\Downloads","no","Andale Mono","no","18","no","white","no","yes","576","legacy","56","56","3","C:/Users/jessi/Downloads/subject-5208254.csv","legacy","Lentiform Loewenfeld","3.3.7","yes","yes","600bd7cfb6416f0113b04181","602110864497cf011d9c0822","0","f","NA","space","return","space","space","f","592","NA","2301","4307","1039","15866","592","2","legacy","1024","2","48000","-16","task","5208254","even","NA","19769","24075","21772","156210","5752","11104","10063","156713","127442","156208","156714","156081","24075","157309","18127","155581","5698","152759","Lexical Decision Task","52","46664","61","yes","1024"
"3.003891166","8.05","2","frog","word","85.48387096774194","85.48387096774194","763.4193548387096","763.4193548387096","black","no","legacy","legacy","legacy","0","uniform","1","undefined","undefined","undefined","1","j","0","0","0","0","61","0","0","0","61","0","57","61","57","0","57","3","61","0","61","Sun Feb 21 21:24:35 2021","The main experiment item","yes","Lexical_Decision_Task.osexp","C:\Users\jessi\Downloads","no","Andale Mono","no","18","no","white","no","yes","576","legacy","57","57","3","C:/Users/jessi/Downloads/subject-5208254.csv","legacy","Lentiform Loewenfeld","3.3.7","yes","yes","600bd7cfb6416f0113b04181","602110864497cf011d9c0822","0","j","NA","space","return","space","space","j","668","NA","2301","4307","1039","15866","668","2","legacy","1024","2","48000","-16","task","5208254","even","NA","19769","24075","21772","157954","5752","11104","10063","158458","127442","157952","158458","157821","24075","159128","18127","157321","5698","152759","Lexical Decision Task","53","47332","62","yes","1024"
"2.95456409","0","4","taud","non-word","85.71428571428571","85.71428571428571","761.2222222222222","761.2222222222222","black","no","legacy","legacy","legacy","0","uniform","1","undefined","undefined","undefined","1","f","0","0","0","0","62","0","0","0","62","0","58","62","58","0","58","3","62","0","62","Sun Feb 21 21:24:35 2021","The main experiment item","yes","Lexical_Decision_Task.osexp","C:\Users\jessi\Downloads","no","Andale Mono","no","18","no","white","no","yes","576","legacy","58","58","3","C:/Users/jessi/Downloads/subject-5208254.csv","legacy","Lentiform Loewenfeld","3.3.7","yes","yes","600bd7cfb6416f0113b04181","602110864497cf011d9c0822","0","f","NA","space","return","space","space","f","625","NA","2301","4307","1039","15866","625","2","legacy","1024","2","48000","-16","task","5208254","even","NA","19769","24075","21772","159770","5752","11104","10063","160274","127442","159768","160274","159639","24075","160903","18127","159139","5698","152759","Lexical Decision Task","54","47957","63","yes","1024"
"3.066077331","0","7","vorn","non-word","85.9375","85.9375","760.109375","760.109375","black","no","legacy","legacy","legacy","0","uniform","1","undefined","undefined","undefined","1","f","0","0","0","0","63","0","0","0","63","0","59","63","59","0","59","3","63","0","63","Sun Feb 21 21:24:35 2021","The main experiment item","yes","Lexical_Decision_Task.osexp","C:\Users\jessi\Downloads","no","Andale Mono","no","18","no","white","no","yes","576","legacy","59","59","3","C:/Users/jessi/Downloads/subject-5208254.csv","legacy","Lentiform Loewenfeld","3.3.7","yes","yes","600bd7cfb6416f0113b04181","602110864497cf011d9c0822","0","f","NA","space","return","space","space","f","690","NA","2301","4307","1039","15866","690","2","legacy","1024","2","48000","-16","task","5208254","even","NA","19769","24075","21772","161543","5752","11104","10063","162048","127442","161541","162048","161415","24075","162741","18127","160915","5698","152759","Lexical Decision Task","55","48647","64","yes","1024"
"3.276537627","9.15","5","trap","word","86.15384615384616","86.15384615384616","757.9230769230769","757.9230769230769","black","no","legacy","legacy","legacy","0","uniform","1","undefined","undefined","undefined","1","j","0","0","0","0","64","0","0","0","64","0","60","64","60","0","60","3","64","0","64","Sun Feb 21 21:24:35 2021","The main experiment item","yes","Lexical_Decision_Task.osexp","C:\Users\jessi\Downloads","no","Andale Mono","no","18","no","white","no","yes","576","legacy","60","60","3","C:/Users/jessi/Downloads/subject-5208254.csv","legacy","Lentiform Loewenfeld","3.3.7","yes","yes","600bd7cfb6416f0113b04181","602110864497cf011d9c0822","0","j","NA","space","return","space","space","j","618","NA","2301","4307","1039","15866","618","2","legacy","1024","2","48000","-16","task","5208254","even","NA","19769","24075","21772","163385","5752","11104","10063","163888","127442","163383","163889","163253","24075","164509","18127","162753","5698","152759","Lexical Decision Task","56","49265","65","yes","1024"
"2.705007959","6.01","4","wept","word","84.84848484848484","84.84848484848484","756.1666666666666","756.1666666666666","black","no","legacy","legacy","legacy","0","uniform","0","undefined","undefined","undefined","0","j","0","0","0","0","65","0","0","0","65","0","61","65","61","0","61","3","65","0","65","Sun Feb 21 21:24:35 2021","The main experiment item","yes","Lexical_Decision_Task.osexp","C:\Users\jessi\Downloads","no","Andale Mono","no","18","no","white","no","yes","576","legacy","61","61","3","C:/Users/jessi/Downloads/subject-5208254.csv","legacy","Lentiform Loewenfeld","3.3.7","yes","yes","600bd7cfb6416f0113b04181","602110864497cf011d9c0822","0","f","NA","space","return","space","space","f","642","NA","2301","4307","1039","15866","642","2","legacy","1024","2","48000","-16","task","5208254","even","NA","19769","24075","21772","165131","5752","11104","10063","165634","127442","165129","165634","165021","24075","166279","18127","164521","5698","152759","Lexical Decision Task","56","49907","66","yes","1024"
"3.372543801","9.24","8","coat","word","85.07462686567165","85.07462686567165","754.4477611940298","754.4477611940298","black","no","legacy","legacy","legacy","0","uniform","1","undefined","undefined","undefined","1","j","0","0","0","0","66","0","0","0","66","0","62","66","62","0","62","3","66","0","66","Sun Feb 21 21:24:35 2021","The main experiment item","yes","Lexical_Decision_Task.osexp","C:\Users\jessi\Downloads","no","Andale Mono","no","18","no","white","no","yes","576","legacy","62","62","3","C:/Users/jessi/Downloads/subject-5208254.csv","legacy","Lentiform Loewenfeld","3.3.7","yes","yes","600bd7cfb6416f0113b04181","602110864497cf011d9c0822","0","j","NA","space","return","space","space","j","641","NA","2301","4307","1039","15866","641","2","legacy","1024","2","48000","-16","task","5208254","even","NA","19769","24075","21772","167954","5752","11104","10063","168458","127442","167950","168458","167790","24075","169102","18127","164521","5698","166290","Lexical Decision Task","57","50548","67","yes","1024"
"3.263399331","0","8","cour","non-word","85.29411764705883","85.29411764705883","752.8529411764706","752.8529411764706","black","no","legacy","legacy","legacy","0","uniform","1","undefined","undefined","undefined","1","f","0","0","0","0","67","0","0","0","67","0","63","67","63","0","63","3","67","0","67","Sun Feb 21 21:24:35 2021","The main experiment item","yes","Lexical_Decision_Task.osexp","C:\Users\jessi\Downloads","no","Andale Mono","no","18","no","white","no","yes","576","legacy","63","63","3","C:/Users/jessi/Downloads/subject-5208254.csv","legacy","Lentiform Loewenfeld","3.3.7","yes","yes","600bd7cfb6416f0113b04181","602110864497cf011d9c0822","0","f","NA","space","return","space","space","f","646","NA","2301","4307","1039","15866","646","2","legacy","1024","2","48000","-16","task","5208254","even","NA","19769","24075","21772","169752","5752","11104","10063","170256","127442","169750","170256","169614","24075","170905","18127","169114","5698","166290","Lexical Decision Task","58","51194","68","yes","1024"
"3.274543461","7.46","7","scar","word","85.5072463768116","85.5072463768116","752.1594202898551","752.1594202898551","black","no","legacy","legacy","legacy","0","uniform","1","undefined","undefined","undefined","1","j","0","0","0","0","68","0","0","0","68","0","64","68","64","0","64","3","68","0","68","Sun Feb 21 21:24:35 2021","The main experiment item","yes","Lexical_Decision_Task.osexp","C:\Users\jessi\Downloads","no","Andale Mono","no","18","no","white","no","yes","576","legacy","64","64","3","C:/Users/jessi/Downloads/subject-5208254.csv","legacy","Lentiform Loewenfeld","3.3.7","yes","yes","600bd7cfb6416f0113b04181","602110864497cf011d9c0822","0","j","NA","space","return","space","space","j","705","NA","2301","4307","1039","15866","705","2","legacy","1024","2","48000","-16","task","5208254","even","NA","19769","24075","21772","171551","5752","11104","10063","172054","127442","171549","172054","171417","24075","172762","18127","170917","5698","166290","Lexical Decision Task","59","51899","69","yes","1024"
"3.248054965","7.86","5","glow","word","85.71428571428571","85.71428571428571","748.6571428571428","748.6571428571428","black","no","legacy","legacy","legacy","0","uniform","1","undefined","undefined","undefined","1","j","0","0","0","0","69","0","0","0","69","0","65","69","65","0","65","3","69","0","69","Sun Feb 21 21:24:35 2021","The main experiment item","yes","Lexical_Decision_Task.osexp","C:\Users\jessi\Downloads","no","Andale Mono","no","18","no","white","no","yes","576","legacy","65","65","3","C:/Users/jessi/Downloads/subject-5208254.csv","legacy","Lentiform Loewenfeld","3.3.7","yes","yes","600bd7cfb6416f0113b04181","602110864497cf011d9c0822","0","j","NA","space","return","space","space","j","507","NA","2301","4307","1039","15866","507","2","legacy","1024","2","48000","-16","task","5208254","even","NA","19769","24075","21772","173407","5752","11104","10063","173911","127442","173405","173911","173274","24075","174422","18127","172774","5698","166290","Lexical Decision Task","60","52406","70","yes","1024"
"2.880623071","0","9","curp","non-word","85.91549295774648","85.91549295774648","746.9577464788732","746.9577464788732","black","no","legacy","legacy","legacy","0","uniform","1","undefined","undefined","undefined","1","f","0","0","0","0","70","0","0","0","70","0","66","70","66","0","66","3","70","0","70","Sun Feb 21 21:24:35 2021","The main experiment item","yes","Lexical_Decision_Task.osexp","C:\Users\jessi\Downloads","no","Andale Mono","no","18","no","white","no","yes","576","legacy","66","66","3","C:/Users/jessi/Downloads/subject-5208254.csv","legacy","Lentiform Loewenfeld","3.3.7","yes","yes","600bd7cfb6416f0113b04181","602110864497cf011d9c0822","0","f","NA","space","return","space","space","f","628","NA","2301","4307","1039","15866","628","2","legacy","1024","2","48000","-16","task","5208254","even","NA","19769","24075","21772","175061","5752","11104","10063","175565","127442","175059","175565","174933","24075","176196","18127","174433","5698","166290","Lexical Decision Task","61","53034","71","yes","1024"
"3.460446784","0","5","dess","non-word","86.11111111111111","86.11111111111111","748.7638888888889","748.7638888888889","black","no","legacy","legacy","legacy","0","uniform","1","undefined","undefined","undefined","1","f","0","0","0","0","71","0","0","0","71","0","67","71","67","0","67","3","71","0","71","Sun Feb 21 21:24:35 2021","The main experiment item","yes","Lexical_Decision_Task.osexp","C:\Users\jessi\Downloads","no","Andale Mono","no","18","no","white","no","yes","576","legacy","67","67","3","C:/Users/jessi/Downloads/subject-5208254.csv","legacy","Lentiform Loewenfeld","3.3.7","yes","yes","600bd7cfb6416f0113b04181","602110864497cf011d9c0822","0","f","NA","space","return","space","space","f","877","NA","2301","4307","1039","15866","877","2","legacy","1024","2","48000","-16","task","5208254","even","NA","19769","24075","21772","176843","5752","11104","10063","177346","127442","176841","177346","176709","24075","178225","18127","176209","5698","166290","Lexical Decision Task","62","53911","72","yes","1024"
"3.443783828","7.65","3","verb","word","86.3013698630137","86.3013698630137","748.6575342465753","748.6575342465753","black","no","legacy","legacy","legacy","0","uniform","1","undefined","undefined","undefined","1","j","0","0","0","0","72","0","0","0","72","0","68","72","68","0","68","3","72","0","72","Sun Feb 21 21:24:35 2021","The main experiment item","yes","Lexical_Decision_Task.osexp","C:\Users\jessi\Downloads","no","Andale Mono","no","18","no","white","no","yes","576","legacy","68","68","3","C:/Users/jessi/Downloads/subject-5208254.csv","legacy","Lentiform Loewenfeld","3.3.7","yes","yes","600bd7cfb6416f0113b04181","602110864497cf011d9c0822","0","j","NA","space","return","space","space","j","741","NA","2301","4307","1039","15866","741","2","legacy","1024","2","48000","-16","task","5208254","even","NA","19769","24075","21772","178866","5752","11104","10063","179370","127442","178864","179370","178737","24075","180115","18127","178236","5698","166290","Lexical Decision Task","63","54652","73","yes","1024"
"3.209246849","0","7","slem","non-word","86.48648648648648","86.48648648648648","747.6486486486486","747.6486486486486","black","no","legacy","legacy","legacy","0","uniform","1","undefined","undefined","undefined","1","f","0","0","0","0","73","0","0","0","73","0","69","73","69","0","69","3","73","0","73","Sun Feb 21 21:24:35 2021","The main experiment item","yes","Lexical_Decision_Task.osexp","C:\Users\jessi\Downloads","no","Andale Mono","no","18","no","white","no","yes","576","legacy","69","69","3","C:/Users/jessi/Downloads/subject-5208254.csv","legacy","Lentiform Loewenfeld","3.3.7","yes","yes","600bd7cfb6416f0113b04181","602110864497cf011d9c0822","0","f","NA","space","return","space","space","f","674","NA","2301","4307","1039","15866","674","2","legacy","1024","2","48000","-16","task","5208254","even","NA","19769","24075","21772","180754","5752","11104","10063","181257","127442","180752","181257","180627","24075","181934","18127","180126","5698","166290","Lexical Decision Task","64","55326","74","yes","1024"
"2.899092422","7.27","6","snag","word","86.66666666666667","86.66666666666667","746.6533333333333","746.6533333333333","black","no","legacy","legacy","legacy","0","uniform","1","undefined","undefined","undefined","1","j","0","0","0","0","74","0","0","0","74","0","70","74","70","0","70","3","74","0","74","Sun Feb 21 21:24:35 2021","The main experiment item","yes","Lexical_Decision_Task.osexp","C:\Users\jessi\Downloads","no","Andale Mono","no","18","no","white","no","yes","576","legacy","70","70","3","C:/Users/jessi/Downloads/subject-5208254.csv","legacy","Lentiform Loewenfeld","3.3.7","yes","yes","600bd7cfb6416f0113b04181","602110864497cf011d9c0822","0","j","NA","space","return","space","space","j","673","NA","2301","4307","1039","15866","673","2","legacy","1024","2","48000","-16","task","5208254","even","NA","19769","24075","21772","182573","5752","11104","10063","183076","127442","182572","183077","182445","24075","183753","18127","181945","5698","166290","Lexical Decision Task","65","55999","75","yes","1024"
"3.068433376","8.09","2","bulb","word","86.84210526315789","86.84210526315789","744.9473684210526","744.9473684210526","black","no","legacy","legacy","legacy","0","uniform","1","undefined","undefined","undefined","1","j","0","0","0","0","75","0","0","0","75","0","71","75","71","0","71","3","75","0","75","Sun Feb 21 21:24:35 2021","The main experiment item","yes","Lexical_Decision_Task.osexp","C:\Users\jessi\Downloads","no","Andale Mono","no","18","no","white","no","yes","576","legacy","71","71","3","C:/Users/jessi/Downloads/subject-5208254.csv","legacy","Lentiform Loewenfeld","3.3.7","yes","yes","600bd7cfb6416f0113b04181","602110864497cf011d9c0822","0","j","NA","space","return","space","space","j","617","NA","2301","4307","1039","15866","617","2","legacy","1024","2","48000","-16","task","5208254","even","NA","19769","24075","21772","184397","5752","11104","10063","184901","127442","184395","184901","184265","24075","185521","18127","183765","5698","166290","Lexical Decision Task","66","56616","76","yes","1024"
"2.897810299","0","5","glur","non-word","87.01298701298701","87.01298701298701","744.5974025974026","744.5974025974026","black","no","legacy","legacy","legacy","0","uniform","1","undefined","undefined","undefined","1","f","0","0","0","0","76","0","0","0","76","0","72","76","72","0","72","3","76","0","76","Sun Feb 21 21:24:35 2021","The main experiment item","yes","Lexical_Decision_Task.osexp","C:\Users\jessi\Downloads","no","Andale Mono","no","18","no","white","no","yes","576","legacy","72","72","3","C:/Users/jessi/Downloads/subject-5208254.csv","legacy","Lentiform Loewenfeld","3.3.7","yes","yes","600bd7cfb6416f0113b04181","602110864497cf011d9c0822","0","f","NA","space","return","space","space","f","718","NA","2301","4307","1039","15866","718","2","legacy","1024","2","48000","-16","task","5208254","even","NA","19769","24075","21772","186154","5752","11104","10063","186657","127442","186152","186658","186034","24075","187378","18127","185534","5698","166290","Lexical Decision Task","67","57334","77","yes","1024"
"2.821076612","0","4","lult","non-word","87.17948717948718","87.17948717948718","744.4871794871794","744.4871794871794","black","no","legacy","legacy","legacy","0","uniform","1","undefined","undefined","undefined","1","f","0","0","0","0","77","0","0","0","77","0","73","77","73","0","73","3","77","0","77","Sun Feb 21 21:24:35 2021","The main experiment item","yes","Lexical_Decision_Task.osexp","C:\Users\jessi\Downloads","no","Andale Mono","no","18","no","white","no","yes","576","legacy","73","73","3","C:/Users/jessi/Downloads/subject-5208254.csv","legacy","Lentiform Loewenfeld","3.3.7","yes","yes","600bd7cfb6416f0113b04181","602110864497cf011d9c0822","0","f","NA","space","return","space","space","f","736","NA","2301","4307","1039","15866","736","2","legacy","1024","2","48000","-16","task","5208254","even","NA","19769","24075","21772","188010","5752","11104","10063","188514","127442","188008","188514","187890","24075","189253","18127","187390","5698","166290","Lexical Decision Task","68","58070","78","yes","1024"
"2.594027722","9.08","8","skip","word","87.34177215189874","87.34177215189874","742.873417721519","742.873417721519","black","no","legacy","legacy","legacy","0","uniform","1","undefined","undefined","undefined","1","j","0","0","0","0","78","0","0","0","78","0","74","78","74","0","74","3","78","0","78","Sun Feb 21 21:24:35 2021","The main experiment item","yes","Lexical_Decision_Task.osexp","C:\Users\jessi\Downloads","no","Andale Mono","no","18","no","white","no","yes","576","legacy","74","74","3","C:/Users/jessi/Downloads/subject-5208254.csv","legacy","Lentiform Loewenfeld","3.3.7","yes","yes","600bd7cfb6416f0113b04181","602110864497cf011d9c0822","0","j","NA","space","return","space","space","j","617","NA","2301","4307","1039","15866","617","2","legacy","1024","2","48000","-16","task","5208254","even","NA","19769","24075","21772","189899","5752","11104","10063","190403","127442","189897","190403","189764","24075","191023","18127","189264","5698","166290","Lexical Decision Task","69","58687","79","yes","1024"
"3.316948329","0","1","besc","non-word","87.5","87.5","740.2","740.2","black","no","legacy","legacy","legacy","0","uniform","1","undefined","undefined","undefined","1","f","0","0","0","0","79","0","0","0","79","0","75","79","75","0","75","3","79","0","79","Sun Feb 21 21:24:35 2021","The main experiment item","yes","Lexical_Decision_Task.osexp","C:\Users\jessi\Downloads","no","Andale Mono","no","18","no","white","no","yes","576","legacy","75","75","3","C:/Users/jessi/Downloads/subject-5208254.csv","legacy","Lentiform Loewenfeld","3.3.7","yes","yes","600bd7cfb6416f0113b04181","602110864497cf011d9c0822","0","f","NA","space","return","space","space","f","529","NA","2301","4307","1039","15866","529","2","legacy","1024","2","48000","-16","task","5208254","even","NA","19769","24075","21772","191672","5752","11104","10063","192175","127442","191670","192176","191535","24075","192708","18127","191035","5698","166290","Lexical Decision Task","70","59216","80","yes","1024"
"2.895974732","6.65","5","sift","word","86.41975308641975","86.41975308641975","739.6666666666666","739.6666666666666","black","no","legacy","legacy","legacy","0","uniform","0","undefined","undefined","undefined","0","j","0","0","0","0","80","0","0","0","80","0","76","80","76","0","76","3","80","0","80","Sun Feb 21 21:24:35 2021","The main experiment item","yes","Lexical_Decision_Task.osexp","C:\Users\jessi\Downloads","no","Andale Mono","no","18","no","white","no","yes","576","legacy","76","76","3","C:/Users/jessi/Downloads/subject-5208254.csv","legacy","Lentiform Loewenfeld","3.3.7","yes","yes","600bd7cfb6416f0113b04181","602110864497cf011d9c0822","0","f","NA","space","return","space","space","f","697","NA","2301","4307","1039","15866","697","2","legacy","1024","2","48000","-16","task","5208254","even","NA","19769","24075","21772","193349","5752","11104","10063","193851","127442","193347","193853","193220","24075","194553","18127","192720","5698","166290","Lexical Decision Task","70","59913","81","yes","1024"
"2.893578687","8.69","3","surf","word","86.58536585365853","86.58536585365853","737.7073170731708","737.7073170731708","black","no","legacy","legacy","legacy","0","uniform","1","undefined","undefined","undefined","1","j","0","0","0","0","81","0","0","0","81","0","77","81","77","0","77","3","81","0","81","Sun Feb 21 21:24:35 2021","The main experiment item","yes","Lexical_Decision_Task.osexp","C:\Users\jessi\Downloads","no","Andale Mono","no","18","no","white","no","yes","576","legacy","77","77","3","C:/Users/jessi/Downloads/subject-5208254.csv","legacy","Lentiform Loewenfeld","3.3.7","yes","yes","600bd7cfb6416f0113b04181","602110864497cf011d9c0822","0","j","NA","space","return","space","space","j","579","NA","2301","4307","1039","15866","579","2","legacy","1024","2","48000","-16","task","5208254","even","NA","19769","24075","21772","196195","5752","11104","10063","196698","127442","196194","196698","196065","24075","197282","18127","192720","5698","194565","Lexical Decision Task","71","60492","82","yes","1024"
"3.481012421","8.34","5","teen","word","86.74698795180723","86.74698795180723","734.9638554216867","734.9638554216867","black","no","legacy","legacy","legacy","0","uniform","1","undefined","undefined","undefined","1","j","0","0","0","0","82","0","0","0","82","0","78","82","78","0","78","3","82","0","82","Sun Feb 21 21:24:35 2021","The main experiment item","yes","Lexical_Decision_Task.osexp","C:\Users\jessi\Downloads","no","Andale Mono","no","18","no","white","no","yes","576","legacy","78","78","3","C:/Users/jessi/Downloads/subject-5208254.csv","legacy","Lentiform Loewenfeld","3.3.7","yes","yes","600bd7cfb6416f0113b04181","602110864497cf011d9c0822","0","j","NA","space","return","space","space","j","510","NA","2301","4307","1039","15866","510","2","legacy","1024","2","48000","-16","task","5208254","even","NA","19769","24075","21772","197929","5752","11104","10063","198433","127442","197927","198433","197793","24075","198947","18127","197293","5698","194565","Lexical Decision Task","72","61002","83","yes","1024"
"3.131833513","7.66","4","limb","word","86.9047619047619","86.9047619047619","732.202380952381","732.202380952381","black","no","legacy","legacy","legacy","0","uniform","1","undefined","undefined","undefined","1","j","0","0","0","0","83","0","0","0","83","0","79","83","79","0","79","3","83","0","83","Sun Feb 21 21:24:35 2021","The main experiment item","yes","Lexical_Decision_Task.osexp","C:\Users\jessi\Downloads","no","Andale Mono","no","18","no","white","no","yes","576","legacy","79","79","3","C:/Users/jessi/Downloads/subject-5208254.csv","legacy","Lentiform Loewenfeld","3.3.7","yes","yes","600bd7cfb6416f0113b04181","602110864497cf011d9c0822","0","j","NA","space","return","space","space","j","503","NA","2301","4307","1039","15866","503","2","legacy","1024","2","48000","-16","task","5208254","even","NA","19769","24075","21772","199586","5752","11104","10063","200090","127442","199584","200090","199459","24075","200596","18127","198959","5698","194565","Lexical Decision Task","73","61505","84","yes","1024"
"2.842815106","7.86","8","lump","word","87.05882352941177","87.05882352941177","729.0588235294117","729.0588235294117","black","no","legacy","legacy","legacy","0","uniform","1","undefined","undefined","undefined","1","j","0","0","0","0","84","0","0","0","84","0","80","84","80","0","80","3","84","0","84","Sun Feb 21 21:24:35 2021","The main experiment item","yes","Lexical_Decision_Task.osexp","C:\Users\jessi\Downloads","no","Andale Mono","no","18","no","white","no","yes","576","legacy","80","80","3","C:/Users/jessi/Downloads/subject-5208254.csv","legacy","Lentiform Loewenfeld","3.3.7","yes","yes","600bd7cfb6416f0113b04181","602110864497cf011d9c0822","0","j","NA","space","return","space","space","j","465","NA","2301","4307","1039","15866","465","2","legacy","1024","2","48000","-16","task","5208254","even","NA","19769","24075","21772","201239","5752","11104","10063","201743","127442","201237","201743","201108","24075","202212","18127","200608","5698","194565","Lexical Decision Task","74","61970","85","yes","1024"
"2.807758206","6.25","4","hurl","word","87.20930232558139","87.20930232558139","729.4418604651163","729.4418604651163","black","no","legacy","legacy","legacy","0","uniform","1","undefined","undefined","undefined","1","j","0","0","0","0","85","0","0","0","85","0","81","85","81","0","81","3","85","0","85","Sun Feb 21 21:24:35 2021","The main experiment item","yes","Lexical_Decision_Task.osexp","C:\Users\jessi\Downloads","no","Andale Mono","no","18","no","white","no","yes","576","legacy","81","81","3","C:/Users/jessi/Downloads/subject-5208254.csv","legacy","Lentiform Loewenfeld","3.3.7","yes","yes","600bd7cfb6416f0113b04181","602110864497cf011d9c0822","0","j","NA","space","return","space","space","j","762","NA","2301","4307","1039","15866","762","2","legacy","1024","2","48000","-16","task","5208254","even","NA","19769","24075","21772","202857","5752","11104","10063","203361","127442","202855","203361","202721","24075","204127","18127","202221","5698","194565","Lexical Decision Task","75","62732","86","yes","1024"
"2.953276337","6.32","4","thaw","word","87.35632183908046","87.35632183908046","728.5862068965517","728.5862068965517","black","no","legacy","legacy","legacy","0","uniform","1","undefined","undefined","undefined","1","j","0","0","0","0","86","0","0","0","86","0","82","86","82","0","82","3","86","0","86","Sun Feb 21 21:24:35 2021","The main experiment item","yes","Lexical_Decision_Task.osexp","C:\Users\jessi\Downloads","no","Andale Mono","no","18","no","white","no","yes","576","legacy","82","82","3","C:/Users/jessi/Downloads/subject-5208254.csv","legacy","Lentiform Loewenfeld","3.3.7","yes","yes","600bd7cfb6416f0113b04181","602110864497cf011d9c0822","0","j","NA","space","return","space","space","j","655","NA","2301","4307","1039","15866","655","2","legacy","1024","2","48000","-16","task","5208254","even","NA","19769","24075","21772","204769","5752","11104","10063","205272","127442","204768","205273","204639","24075","205932","18127","204139","5698","194565","Lexical Decision Task","76","63387","87","yes","1024"
"3.302475237","0","7","leel","non-word","87.5","87.5","726.8295454545455","726.8295454545455","black","no","legacy","legacy","legacy","0","uniform","1","undefined","undefined","undefined","1","f","0","0","0","0","87","0","0","0","87","0","83","87","83","0","83","3","87","0","87","Sun Feb 21 21:24:35 2021","The main experiment item","yes","Lexical_Decision_Task.osexp","C:\Users\jessi\Downloads","no","Andale Mono","no","18","no","white","no","yes","576","legacy","83","83","3","C:/Users/jessi/Downloads/subject-5208254.csv","legacy","Lentiform Loewenfeld","3.3.7","yes","yes","600bd7cfb6416f0113b04181","602110864497cf011d9c0822","0","f","NA","space","return","space","space","f","574","NA","2301","4307","1039","15866","574","2","legacy","1024","2","48000","-16","task","5208254","even","NA","19769","24075","21772","206570","5752","11104","10063","207073","127442","206568","207074","206444","24075","207652","18127","205944","5698","194565","Lexical Decision Task","77","63961","88","yes","1024"
"3.384413096","10.15","3","glad","word","87.64044943820225","87.64044943820225","724.9325842696629","724.9325842696629","black","no","legacy","legacy","legacy","0","uniform","1","undefined","undefined","undefined","1","j","0","0","0","0","88","0","0","0","88","0","84","88","84","0","84","3","88","0","88","Sun Feb 21 21:24:35 2021","The main experiment item","yes","Lexical_Decision_Task.osexp","C:\Users\jessi\Downloads","no","Andale Mono","no","18","no","white","no","yes","576","legacy","84","84","3","C:/Users/jessi/Downloads/subject-5208254.csv","legacy","Lentiform Loewenfeld","3.3.7","yes","yes","600bd7cfb6416f0113b04181","602110864497cf011d9c0822","0","j","NA","space","return","space","space","j","558","NA","2301","4307","1039","15866","558","2","legacy","1024","2","48000","-16","task","5208254","even","NA","19769","24075","21772","208299","5752","11104","10063","208802","127442","208297","208802","208165","24075","209363","18127","207665","5698","194565","Lexical Decision Task","78","64519","89","yes","1024"
"2.664328519","0","4","plux","non-word","87.77777777777777","87.77777777777777","724.1555555555556","724.1555555555556","black","no","legacy","legacy","legacy","0","uniform","1","undefined","undefined","undefined","1","f","0","0","0","0","89","0","0","0","89","0","85","89","85","0","85","3","89","0","89","Sun Feb 21 21:24:35 2021","The main experiment item","yes","Lexical_Decision_Task.osexp","C:\Users\jessi\Downloads","no","Andale Mono","no","18","no","white","no","yes","576","legacy","85","85","3","C:/Users/jessi/Downloads/subject-5208254.csv","legacy","Lentiform Loewenfeld","3.3.7","yes","yes","600bd7cfb6416f0113b04181","602110864497cf011d9c0822","0","f","NA","space","return","space","space","f","655","NA","2301","4307","1039","15866","655","2","legacy","1024","2","48000","-16","task","5208254","even","NA","19769","24075","21772","210036","5752","11104","10063","210540","127442","210033","210540","209874","24075","211198","18127","209374","5698","194565","Lexical Decision Task","79","65174","90","yes","1024"
"3.067193647","6.73","6","raft","word","87.91208791208791","87.91208791208791","723.2197802197802","723.2197802197802","black","no","legacy","legacy","legacy","0","uniform","1","undefined","undefined","undefined","1","j","0","0","0","0","90","0","0","0","90","0","86","90","86","0","86","3","90","0","90","Sun Feb 21 21:24:35 2021","The main experiment item","yes","Lexical_Decision_Task.osexp","C:\Users\jessi\Downloads","no","Andale Mono","no","18","no","white","no","yes","576","legacy","86","86","3","C:/Users/jessi/Downloads/subject-5208254.csv","legacy","Lentiform Loewenfeld","3.3.7","yes","yes","600bd7cfb6416f0113b04181","602110864497cf011d9c0822","0","j","NA","space","return","space","space","j","639","NA","2301","4307","1039","15866","639","2","legacy","1024","2","48000","-16","task","5208254","even","NA","19769","24075","21772","211840","5752","11104","10063","212344","127442","211837","212344","211709","24075","212987","18127","211209","5698","194565","Lexical Decision Task","80","65813","91","yes","1024"
"2.793790385","5.67","9","swab","word","88.04347826086956","88.04347826086956","721.4130434782609","721.4130434782609","black","no","legacy","legacy","legacy","0","uniform","1","undefined","undefined","undefined","1","j","0","0","0","0","91","0","0","0","91","0","87","91","87","0","87","3","91","0","91","Sun Feb 21 21:24:35 2021","The main experiment item","yes","Lexical_Decision_Task.osexp","C:\Users\jessi\Downloads","no","Andale Mono","no","18","no","white","no","yes","576","legacy","87","87","3","C:/Users/jessi/Downloads/subject-5208254.csv","legacy","Lentiform Loewenfeld","3.3.7","yes","yes","600bd7cfb6416f0113b04181","602110864497cf011d9c0822","0","j","NA","space","return","space","space","j","557","NA","2301","4307","1039","15866","557","2","legacy","1024","2","48000","-16","task","5208254","even","NA","19769","24075","21772","213626","5752","11104","10063","214129","127442","213624","214130","213500","24075","214691","18127","213000","5698","194565","Lexical Decision Task","81","66370","92","yes","1024"
"3.149629599","0","2","cleb","non-word","88.17204301075269","88.17204301075269","720.0752688172043","720.0752688172043","black","no","legacy","legacy","legacy","0","uniform","1","undefined","undefined","undefined","1","f","0","0","0","0","92","0","0","0","92","0","88","92","88","0","88","3","92","0","92","Sun Feb 21 21:24:35 2021","The main experiment item","yes","Lexical_Decision_Task.osexp","C:\Users\jessi\Downloads","no","Andale Mono","no","18","no","white","no","yes","576","legacy","88","88","3","C:/Users/jessi/Downloads/subject-5208254.csv","legacy","Lentiform Loewenfeld","3.3.7","yes","yes","600bd7cfb6416f0113b04181","602110864497cf011d9c0822","0","f","NA","space","return","space","space","f","597","NA","2301","4307","1039","15866","597","2","legacy","1024","2","48000","-16","task","5208254","even","NA","19769","24075","21772","215333","5752","11104","10063","215836","127442","215332","215837","215203","24075","216438","18127","214703","5698","194565","Lexical Decision Task","82","66967","93","yes","1024"
"3.010582609","0","2","drod","non-word","87.23404255319149","87.23404255319149","720.2234042553191","720.2234042553191","black","no","legacy","legacy","legacy","0","uniform","0","undefined","undefined","undefined","0","f","0","0","0","0","93","0","0","0","93","0","89","93","89","0","89","3","93","0","93","Sun Feb 21 21:24:35 2021","The main experiment item","yes","Lexical_Decision_Task.osexp","C:\Users\jessi\Downloads","no","Andale Mono","no","18","no","white","no","yes","576","legacy","89","89","3","C:/Users/jessi/Downloads/subject-5208254.csv","legacy","Lentiform Loewenfeld","3.3.7","yes","yes","600bd7cfb6416f0113b04181","602110864497cf011d9c0822","0","j","NA","space","return","space","space","j","734","NA","2301","4307","1039","15866","734","2","legacy","1024","2","48000","-16","task","5208254","even","NA","19769","24075","21772","217077","5752","11104","10063","217580","127442","217075","217581","216950","24075","218319","18127","216450","5698","194565","Lexical Decision Task","82","67701","94","yes","1024"
"3.261341392","5.08","8","reek","word","87.36842105263158","87.36842105263158","722.0421052631579","722.0421052631579","black","no","legacy","legacy","legacy","0","uniform","1","undefined","undefined","undefined","1","j","0","0","0","0","94","0","0","0","94","0","90","94","90","0","90","3","94","0","94","Sun Feb 21 21:24:35 2021","The main experiment item","yes","Lexical_Decision_Task.osexp","C:\Users\jessi\Downloads","no","Andale Mono","no","18","no","white","no","yes","576","legacy","90","90","3","C:/Users/jessi/Downloads/subject-5208254.csv","legacy","Lentiform Loewenfeld","3.3.7","yes","yes","600bd7cfb6416f0113b04181","602110864497cf011d9c0822","0","j","NA","space","return","space","space","j","893","NA","2301","4307","1039","15866","893","2","legacy","1024","2","48000","-16","task","5208254","even","NA","19769","24075","21772","219971","5752","11104","10063","220475","127442","219969","220475","219831","24075","221372","18127","216450","5698","218331","Lexical Decision Task","83","68594","95","yes","1024"
"2.990042563","6.64","9","plow","word","87.5","87.5","720.3229166666666","720.3229166666666","black","no","legacy","legacy","legacy","0","uniform","1","undefined","undefined","undefined","1","j","0","0","0","0","95","0","0","0","95","0","91","95","91","0","91","3","95","0","95","Sun Feb 21 21:24:35 2021","The main experiment item","yes","Lexical_Decision_Task.osexp","C:\Users\jessi\Downloads","no","Andale Mono","no","18","no","white","no","yes","576","legacy","91","91","3","C:/Users/jessi/Downloads/subject-5208254.csv","legacy","Lentiform Loewenfeld","3.3.7","yes","yes","600bd7cfb6416f0113b04181","602110864497cf011d9c0822","0","j","NA","space","return","space","space","j","557","NA","2301","4307","1039","15866","557","2","legacy","1024","2","48000","-16","task","5208254","even","NA","19769","24075","21772","222024","5752","11104","10063","222528","127442","222022","222529","221884","24075","223092","18127","221384","5698","218331","Lexical Decision Task","84","69151","96","yes","1024"
"2.82129731","6.72","5","plum","word","87.62886597938144","87.62886597938144","718.3711340206186","718.3711340206186","black","no","legacy","legacy","legacy","0","uniform","1","undefined","undefined","undefined","1","j","0","0","0","0","96","0","0","0","96","0","92","96","92","0","92","3","96","0","96","Sun Feb 21 21:24:35 2021","The main experiment item","yes","Lexical_Decision_Task.osexp","C:\Users\jessi\Downloads","no","Andale Mono","no","18","no","white","no","yes","576","legacy","92","92","3","C:/Users/jessi/Downloads/subject-5208254.csv","legacy","Lentiform Loewenfeld","3.3.7","yes","yes","600bd7cfb6416f0113b04181","602110864497cf011d9c0822","0","j","NA","space","return","space","space","j","531","NA","2301","4307","1039","15866","531","2","legacy","1024","2","48000","-16","task","5208254","even","NA","19769","24075","21772","223736","5752","11104","10063","224239","127442","223734","224239","223604","24075","224773","18127","223104","5698","218331","Lexical Decision Task","85","69682","97","yes","1024"
"2.708989954","9.28","9","bowl","word","87.75510204081633","87.75510204081633","715.969387755102","715.969387755102","black","no","legacy","legacy","legacy","0","uniform","1","undefined","undefined","undefined","1","j","0","0","0","0","97","0","0","0","97","0","93","97","93","0","93","3","97","0","97","Sun Feb 21 21:24:35 2021","The main experiment item","yes","Lexical_Decision_Task.osexp","C:\Users\jessi\Downloads","no","Andale Mono","no","18","no","white","no","yes","576","legacy","93","93","3","C:/Users/jessi/Downloads/subject-5208254.csv","legacy","Lentiform Loewenfeld","3.3.7","yes","yes","600bd7cfb6416f0113b04181","602110864497cf011d9c0822","0","j","NA","space","return","space","space","j","483","NA","2301","4307","1039","15866","483","2","legacy","1024","2","48000","-16","task","5208254","even","NA","19769","24075","21772","225426","5752","11104","10063","225930","127442","225424","225930","225285","24075","226416","18127","224785","5698","218331","Lexical Decision Task","86","70165","98","yes","1024"
"3.22685757","9.99","7","roll","word","87.87878787878788","87.87878787878788","713.5959595959596","713.5959595959596","black","no","legacy","legacy","legacy","0","uniform","1","undefined","undefined","undefined","1","j","0","0","0","0","98","0","0","0","98","0","94","98","94","0","94","3","98","0","98","Sun Feb 21 21:24:35 2021","The main experiment item","yes","Lexical_Decision_Task.osexp","C:\Users\jessi\Downloads","no","Andale Mono","no","18","no","white","no","yes","576","legacy","94","94","3","C:/Users/jessi/Downloads/subject-5208254.csv","legacy","Lentiform Loewenfeld","3.3.7","yes","yes","600bd7cfb6416f0113b04181","602110864497cf011d9c0822","0","j","NA","space","return","space","space","j","481","NA","2301","4307","1039","15866","481","2","legacy","1024","2","48000","-16","task","5208254","even","NA","19769","24075","21772","227054","5752","11104","10063","227558","127442","227053","227559","226927","24075","228043","18127","226427","5698","218331","Lexical Decision Task","87","70646","99","yes","1024"
"2.9737419","7.69","7","claw","word","88","88","710.47","710.47","black","no","legacy","legacy","legacy","0","uniform","1","undefined","undefined","undefined","1","j","0","0","0","0","99","0","0","0","99","0","95","99","95","0","95","3","99","0","99","Sun Feb 21 21:24:35 2021","The main experiment item","yes","Lexical_Decision_Task.osexp","C:\Users\jessi\Downloads","no","Andale Mono","no","18","no","white","no","yes","576","legacy","95","95","3","C:/Users/jessi/Downloads/subject-5208254.csv","legacy","Lentiform Loewenfeld","3.3.7","yes","yes","600bd7cfb6416f0113b04181","602110864497cf011d9c0822","0","j","NA","space","return","space","space","j","401","NA","2301","4307","1039","15866","401","2","legacy","1024","2","48000","-16","task","5208254","even","NA","19769","24075","21772","228728","5752","11104","10063","229232","127442","228725","229232","228556","24075","229636","18127","228056","5698","218331","Lexical Decision Task","88","71047","100","yes","1024"
