"Log_BG","Log_Freq_HAL","Ortho_N","Stimulus","Type","acc","accuracy","average_response_time","avg_rt","background","bidi","canvas_backend","clock_backend","color_backend","compensation","coordinates","correct","correct_Experimental_intro","correct_Introduction","correct_Practice_intro","correct_experimenter_kb","correct_response","count_End_Of_Experiment","count_End_Of_Practice","count_Experimental_Loop","count_Experimental_intro","count_Fixation","count_Introduction","count_Practice_Loop","count_Practice_intro","count_Stimulus","count_block_break_feedback","count_experimental_sequence","count_experimenter_kb","count_increment_trial_count","count_init_trial_count","count_logger","count_practice_sequence","count_right","count_task","count_wrong","datetime","description","disable_garbage_collection","experiment_file","experiment_path","font_bold","font_family","font_italic","font_size","font_underline","foreground","form_clicks","fullscreen","height","keyboard_backend","live_row","live_row_Experimental_Loop","live_row_Practice_Loop","logfile","mouse_backend","opensesame_codename","opensesame_version","osf_always_upload_data","osf_always_upload_experiment","osf_datanode_id","osf_id","repeat_cycle","response","response_End_Of_Experiment","response_Experimental_intro","response_Introduction","response_Practice_intro","response_block_break_feedback","response_experimenter_kb","response_time","response_time_End_Of_Experiment","response_time_Experimental_intro","response_time_Introduction","response_time_Practice_intro","response_time_block_break_feedback","response_time_experimenter_kb","round_decimals","sampler_backend","sound_buf_size","sound_channels","sound_freq","sound_sample_size","start","subject_nr","subject_parity","time_End_Of_Experiment","time_End_Of_Practice","time_Experimental_Loop","time_Experimental_intro","time_Fixation","time_Introduction","time_Practice_Loop","time_Practice_intro","time_Stimulus","time_block_break_feedback","time_experimental_sequence","time_experimenter_kb","time_increment_trial_count","time_init_trial_count","time_logger","time_practice_sequence","time_right","time_task","time_wrong","title","total_correct","total_response_time","total_responses","uniform_coordinates","width"
"3.216517684","10.87","3","film","word","100","100","1050.6","1050.6","black","no","legacy","legacy","legacy","0","uniform","1","undefined","undefined","undefined","1","j","0","0","0","0","4","0","0","0","4","NA","0","4","0","0","0","3","4","0","4","Wed Feb 17 11:39:21 2021","The main experiment item","yes","Lexical_Decision_Task.osexp","C:/Users/Chloe","no","Andale Mono","no","18","no","white","no","no","576","legacy","0","0","3","C:/Users/Chloe/subject-5226091.csv","legacy","Lentiform Loewenfeld","3.3.7","yes","yes","600bd7cfb6416f0113b04181","602110864497cf011d9c0822","0","j","NA","k","k","k","NA","j","953","NA","3008","14551","6124","NA","953","2","legacy","1024","2","48000","-16","task","5226091","odd","NA","32107","37119","34110","37170","2667","23349","17225","37672","NA","37168","37673","NA","37119","38626","30092","31559","2664","NA","Lexical Decision Task","5","5253","5","yes","1024"
"2.892836167","10.01","5","soft","word","100","100","1159.3333333333333","1159.3333333333333","black","no","legacy","legacy","legacy","0","uniform","1","undefined","undefined","undefined","1","j","0","0","0","0","5","0","0","0","5","NA","1","5","1","0","1","3","5","0","5","Wed Feb 17 11:39:21 2021","The main experiment item","yes","Lexical_Decision_Task.osexp","C:/Users/Chloe","no","Andale Mono","no","18","no","white","no","no","576","legacy","1","1","3","C:/Users/Chloe/subject-5226091.csv","legacy","Lentiform Loewenfeld","3.3.7","yes","yes","600bd7cfb6416f0113b04181","602110864497cf011d9c0822","0","j","NA","k","k","k","NA","j","1703","NA","3008","14551","6124","NA","1703","2","legacy","1024","2","48000","-16","task","5226091","odd","NA","32107","37119","34110","39268","2667","23349","17225","39770","NA","39266","39770","39148","37119","41474","30092","38648","2664","NA","Lexical Decision Task","6","6956","6","yes","1024"
"3.194328374","9.42","6","harm","word","100","100","1107.4285714285713","1107.4285714285713","black","no","legacy","legacy","legacy","0","uniform","1","undefined","undefined","undefined","1","j","0","0","0","0","6","0","0","0","6","NA","2","6","2","0","2","3","6","0","6","Wed Feb 17 11:39:21 2021","The main experiment item","yes","Lexical_Decision_Task.osexp","C:/Users/Chloe","no","Andale Mono","no","18","no","white","no","no","576","legacy","2","2","3","C:/Users/Chloe/subject-5226091.csv","legacy","Lentiform Loewenfeld","3.3.7","yes","yes","600bd7cfb6416f0113b04181","602110864497cf011d9c0822","0","j","NA","k","k","k","NA","j","796","NA","3008","14551","6124","NA","796","2","legacy","1024","2","48000","-16","task","5226091","odd","NA","32107","37119","34110","42082","2667","23349","17225","42584","NA","42081","42585","41991","37119","43382","30092","41490","2664","NA","Lexical Decision Task","7","7752","7","yes","1024"
"3.384413096","10.15","3","glad","word","100","100","1053.625","1053.625","black","no","legacy","legacy","legacy","0","uniform","1","undefined","undefined","undefined","1","j","0","0","0","0","7","0","0","0","7","NA","3","7","3","0","3","3","7","0","7","Wed Feb 17 11:39:21 2021","The main experiment item","yes","Lexical_Decision_Task.osexp","C:/Users/Chloe","no","Andale Mono","no","18","no","white","no","no","576","legacy","3","3","3","C:/Users/Chloe/subject-5226091.csv","legacy","Lentiform Loewenfeld","3.3.7","yes","yes","600bd7cfb6416f0113b04181","602110864497cf011d9c0822","0","j","NA","k","k","k","NA","j","677","NA","3008","14551","6124","NA","677","2","legacy","1024","2","48000","-16","task","5226091","odd","NA","32107","37119","34110","43971","2667","23349","17225","44472","NA","43968","44472","43898","37119","45149","30092","43398","2664","NA","Lexical Decision Task","8","8429","8","yes","1024"
"2.873320602","0","4","lurg","non-word","100","100","1024.2222222222222","1024.2222222222222","black","no","legacy","legacy","legacy","0","uniform","1","undefined","undefined","undefined","1","f","0","0","0","0","8","0","0","0","8","NA","4","8","4","0","4","3","8","0","8","Wed Feb 17 11:39:21 2021","The main experiment item","yes","Lexical_Decision_Task.osexp","C:/Users/Chloe","no","Andale Mono","no","18","no","white","no","no","576","legacy","4","4","3","C:/Users/Chloe/subject-5226091.csv","legacy","Lentiform Loewenfeld","3.3.7","yes","yes","600bd7cfb6416f0113b04181","602110864497cf011d9c0822","0","f","NA","k","k","k","NA","f","789","NA","3008","14551","6124","NA","789","2","legacy","1024","2","48000","-16","task","5226091","odd","NA","32107","37119","34110","45730","2667","23349","17225","46232","NA","45728","46232","45662","37119","47021","30092","45162","2664","NA","Lexical Decision Task","9","9218","9","yes","1024"
"3.368162872","0","4","ferk","non-word","100","100","995.6","995.6","black","no","legacy","legacy","legacy","0","uniform","1","undefined","undefined","undefined","1","f","0","0","0","0","9","0","0","0","9","NA","5","9","5","0","5","3","9","0","9","Wed Feb 17 11:39:21 2021","The main experiment item","yes","Lexical_Decision_Task.osexp","C:/Users/Chloe","no","Andale Mono","no","18","no","white","no","no","576","legacy","5","5","3","C:/Users/Chloe/subject-5226091.csv","legacy","Lentiform Loewenfeld","3.3.7","yes","yes","600bd7cfb6416f0113b04181","602110864497cf011d9c0822","0","f","NA","k","k","k","NA","f","738","NA","3008","14551","6124","NA","738","2","legacy","1024","2","48000","-16","task","5226091","odd","NA","32107","37119","34110","47614","2667","23349","17225","48116","NA","47612","48117","47540","37119","48856","30092","47040","2664","NA","Lexical Decision Task","10","9956","10","yes","1024"
"2.953276337","6.32","4","thaw","word","100","100","978","978","black","no","legacy","legacy","legacy","0","uniform","1","undefined","undefined","undefined","1","j","0","0","0","0","10","0","0","0","10","NA","6","10","6","0","6","3","10","0","10","Wed Feb 17 11:39:21 2021","The main experiment item","yes","Lexical_Decision_Task.osexp","C:/Users/Chloe","no","Andale Mono","no","18","no","white","no","no","576","legacy","6","6","3","C:/Users/Chloe/subject-5226091.csv","legacy","Lentiform Loewenfeld","3.3.7","yes","yes","600bd7cfb6416f0113b04181","602110864497cf011d9c0822","0","j","NA","k","k","k","NA","j","802","NA","3008","14551","6124","NA","802","2","legacy","1024","2","48000","-16","task","5226091","odd","NA","32107","37119","34110","49494","2667","23349","17225","49996","NA","49491","49996","49375","37119","50798","30092","48874","2664","NA","Lexical Decision Task","11","10758","11","yes","1024"
"3.303771854","0","9","dath","non-word","100","100","974.9166666666666","974.9166666666666","black","no","legacy","legacy","legacy","0","uniform","1","undefined","undefined","undefined","1","f","0","0","0","0","11","0","0","0","11","NA","7","11","7","0","7","3","11","0","11","Wed Feb 17 11:39:21 2021","The main experiment item","yes","Lexical_Decision_Task.osexp","C:/Users/Chloe","no","Andale Mono","no","18","no","white","no","no","576","legacy","7","7","3","C:/Users/Chloe/subject-5226091.csv","legacy","Lentiform Loewenfeld","3.3.7","yes","yes","600bd7cfb6416f0113b04181","602110864497cf011d9c0822","0","f","NA","k","k","k","NA","f","941","NA","3008","14551","6124","NA","941","2","legacy","1024","2","48000","-16","task","5226091","odd","NA","32107","37119","34110","51447","2667","23349","17225","51949","NA","51445","51949","51307","37119","52891","30092","50807","2664","NA","Lexical Decision Task","12","11699","12","yes","1024"
"3.068433376","8.09","2","bulb","word","100","100","958.3076923076923","958.3076923076923","black","no","legacy","legacy","legacy","0","uniform","1","undefined","undefined","undefined","1","j","0","0","0","0","12","0","0","0","12","NA","8","12","8","0","8","3","12","0","12","Wed Feb 17 11:39:21 2021","The main experiment item","yes","Lexical_Decision_Task.osexp","C:/Users/Chloe","no","Andale Mono","no","18","no","white","no","no","576","legacy","8","8","3","C:/Users/Chloe/subject-5226091.csv","legacy","Lentiform Loewenfeld","3.3.7","yes","yes","600bd7cfb6416f0113b04181","602110864497cf011d9c0822","0","j","NA","k","k","k","NA","j","759","NA","3008","14551","6124","NA","759","2","legacy","1024","2","48000","-16","task","5226091","odd","NA","32107","37119","34110","53555","2667","23349","17225","54057","NA","53553","54057","53408","37119","54816","30092","52908","2664","NA","Lexical Decision Task","13","12458","13","yes","1024"
"2.843025032","0","9","pusk","non-word","100","100","956.2142857142857","956.2142857142857","black","no","legacy","legacy","legacy","0","uniform","1","undefined","undefined","undefined","1","f","0","0","0","0","13","0","0","0","13","NA","9","13","9","0","9","3","13","0","13","Wed Feb 17 11:39:21 2021","The main experiment item","yes","Lexical_Decision_Task.osexp","C:/Users/Chloe","no","Andale Mono","no","18","no","white","no","no","576","legacy","9","9","3","C:/Users/Chloe/subject-5226091.csv","legacy","Lentiform Loewenfeld","3.3.7","yes","yes","600bd7cfb6416f0113b04181","602110864497cf011d9c0822","0","f","NA","k","k","k","NA","f","929","NA","3008","14551","6124","NA","929","2","legacy","1024","2","48000","-16","task","5226091","odd","NA","32107","37119","34110","55443","2667","23349","17225","55946","NA","55440","55946","55327","37119","56875","30092","54827","2664","NA","Lexical Decision Task","14","13387","14","yes","1024"
"2.980306438","0","7","slun","non-word","100","100","957.4666666666667","957.4666666666667","black","no","legacy","legacy","legacy","0","uniform","1","undefined","undefined","undefined","1","f","0","0","0","0","14","0","0","0","14","NA","10","14","10","0","10","3","14","0","14","Wed Feb 17 11:39:21 2021","The main experiment item","yes","Lexical_Decision_Task.osexp","C:/Users/Chloe","no","Andale Mono","no","18","no","white","no","no","576","legacy","10","10","3","C:/Users/Chloe/subject-5226091.csv","legacy","Lentiform Loewenfeld","3.3.7","yes","yes","600bd7cfb6416f0113b04181","602110864497cf011d9c0822","0","f","NA","k","k","k","NA","f","975","NA","3008","14551","6124","NA","975","2","legacy","1024","2","48000","-16","task","5226091","odd","NA","32107","37119","34110","57510","2667","23349","17225","58012","NA","57508","58012","57393","37119","58988","30092","56893","2664","NA","Lexical Decision Task","15","14362","15","yes","1024"
"3.230789326","5.38","5","prim","word","100","100","966","966","black","no","legacy","legacy","legacy","0","uniform","1","undefined","undefined","undefined","1","j","0","0","0","0","15","0","0","0","15","NA","11","15","11","0","11","3","15","0","15","Wed Feb 17 11:39:21 2021","The main experiment item","yes","Lexical_Decision_Task.osexp","C:/Users/Chloe","no","Andale Mono","no","18","no","white","no","no","576","legacy","11","11","3","C:/Users/Chloe/subject-5226091.csv","legacy","Lentiform Loewenfeld","3.3.7","yes","yes","600bd7cfb6416f0113b04181","602110864497cf011d9c0822","0","j","NA","k","k","k","NA","j","1094","NA","3008","14551","6124","NA","1094","2","legacy","1024","2","48000","-16","task","5226091","odd","NA","32107","37119","34110","59611","2667","23349","17225","60113","NA","59608","60114","59506","37119","61208","30092","59006","2664","NA","Lexical Decision Task","16","15456","16","yes","1024"
"3.302475237","0","7","leel","non-word","100","100","973.7058823529412","973.7058823529412","black","no","legacy","legacy","legacy","0","uniform","1","undefined","undefined","undefined","1","f","0","0","0","0","16","0","0","0","16","NA","12","16","12","0","12","3","16","0","16","Wed Feb 17 11:39:21 2021","The main experiment item","yes","Lexical_Decision_Task.osexp","C:/Users/Chloe","no","Andale Mono","no","18","no","white","no","no","576","legacy","12","12","3","C:/Users/Chloe/subject-5226091.csv","legacy","Lentiform Loewenfeld","3.3.7","yes","yes","600bd7cfb6416f0113b04181","602110864497cf011d9c0822","0","f","NA","k","k","k","NA","f","1097","NA","3008","14551","6124","NA","1097","2","legacy","1024","2","48000","-16","task","5226091","odd","NA","32107","37119","34110","61874","2667","23349","17225","62376","NA","61871","62376","61718","37119","63473","30092","61218","2664","NA","Lexical Decision Task","17","16553","17","yes","1024"
"3.347850856","10.51","2","rich","word","100","100","953.2777777777778","953.2777777777778","black","no","legacy","legacy","legacy","0","uniform","1","undefined","undefined","undefined","1","j","0","0","0","0","17","0","0","0","17","NA","13","17","13","0","13","3","17","0","17","Wed Feb 17 11:39:21 2021","The main experiment item","yes","Lexical_Decision_Task.osexp","C:/Users/Chloe","no","Andale Mono","no","18","no","white","no","no","576","legacy","13","13","3","C:/Users/Chloe/subject-5226091.csv","legacy","Lentiform Loewenfeld","3.3.7","yes","yes","600bd7cfb6416f0113b04181","602110864497cf011d9c0822","0","j","NA","k","k","k","NA","j","606","NA","3008","14551","6124","NA","606","2","legacy","1024","2","48000","-16","task","5226091","odd","NA","32107","37119","34110","64114","2667","23349","17225","64616","NA","64111","64616","63991","37119","65223","30092","63490","2664","NA","Lexical Decision Task","18","17159","18","yes","1024"
"2.952953801","0","8","clax","non-word","100","100","946.9473684210526","946.9473684210526","black","no","legacy","legacy","legacy","0","uniform","1","undefined","undefined","undefined","1","f","0","0","0","0","18","0","0","0","18","NA","14","18","14","0","14","3","18","0","18","Wed Feb 17 11:39:21 2021","The main experiment item","yes","Lexical_Decision_Task.osexp","C:/Users/Chloe","no","Andale Mono","no","18","no","white","no","no","576","legacy","14","14","3","C:/Users/Chloe/subject-5226091.csv","legacy","Lentiform Loewenfeld","3.3.7","yes","yes","600bd7cfb6416f0113b04181","602110864497cf011d9c0822","0","f","NA","k","k","k","NA","f","833","NA","3008","14551","6124","NA","833","2","legacy","1024","2","48000","-16","task","5226091","odd","NA","32107","37119","34110","65837","2667","23349","17225","66339","NA","65835","66339","65733","37119","67173","30092","65233","2664","NA","Lexical Decision Task","19","17992","19","yes","1024"
"2.898725182","0","7","turl","non-word","100","100","943.1","943.1","black","no","legacy","legacy","legacy","0","uniform","1","undefined","undefined","undefined","1","f","0","0","0","0","19","0","0","0","19","NA","15","19","15","0","15","3","19","0","19","Wed Feb 17 11:39:21 2021","The main experiment item","yes","Lexical_Decision_Task.osexp","C:/Users/Chloe","no","Andale Mono","no","18","no","white","no","no","576","legacy","15","15","3","C:/Users/Chloe/subject-5226091.csv","legacy","Lentiform Loewenfeld","3.3.7","yes","yes","600bd7cfb6416f0113b04181","602110864497cf011d9c0822","0","f","NA","k","k","k","NA","f","870","NA","3008","14551","6124","NA","870","2","legacy","1024","2","48000","-16","task","5226091","odd","NA","32107","37119","34110","67772","2667","23349","17225","68276","NA","67771","68276","67684","37119","69147","30092","67183","2664","NA","Lexical Decision Task","20","18862","20","yes","1024"
"2.807758206","6.25","4","hurl","word","100","100","927.047619047619","927.047619047619","black","no","legacy","legacy","legacy","0","uniform","1","undefined","undefined","undefined","1","j","0","0","0","0","20","0","0","0","20","NA","16","20","16","0","16","3","20","0","20","Wed Feb 17 11:39:21 2021","The main experiment item","yes","Lexical_Decision_Task.osexp","C:/Users/Chloe","no","Andale Mono","no","18","no","white","no","no","576","legacy","16","16","3","C:/Users/Chloe/subject-5226091.csv","legacy","Lentiform Loewenfeld","3.3.7","yes","yes","600bd7cfb6416f0113b04181","602110864497cf011d9c0822","0","j","NA","k","k","k","NA","j","606","NA","3008","14551","6124","NA","606","2","legacy","1024","2","48000","-16","task","5226091","odd","NA","32107","37119","34110","69744","2667","23349","17225","70246","NA","69742","70246","69656","37119","70853","30092","69156","2664","NA","Lexical Decision Task","21","19468","21","yes","1024"
"2.821076612","0","4","lult","non-word","100","100","913.6818181818181","913.6818181818181","black","no","legacy","legacy","legacy","0","uniform","1","undefined","undefined","undefined","1","f","0","0","0","0","21","0","0","0","21","NA","17","21","17","0","17","3","21","0","21","Wed Feb 17 11:39:21 2021","The main experiment item","yes","Lexical_Decision_Task.osexp","C:/Users/Chloe","no","Andale Mono","no","18","no","white","no","no","576","legacy","17","17","3","C:/Users/Chloe/subject-5226091.csv","legacy","Lentiform Loewenfeld","3.3.7","yes","yes","600bd7cfb6416f0113b04181","602110864497cf011d9c0822","0","f","NA","k","k","k","NA","f","633","NA","3008","14551","6124","NA","633","2","legacy","1024","2","48000","-16","task","5226091","odd","NA","32107","37119","34110","71456","2667","23349","17225","71958","NA","71454","71958","71363","37119","72591","30092","70863","2664","NA","Lexical Decision Task","22","20101","22","yes","1024"
"2.897810299","0","5","glur","non-word","100","100","901.9130434782609","901.9130434782609","black","no","legacy","legacy","legacy","0","uniform","1","undefined","undefined","undefined","1","f","0","0","0","0","22","0","0","0","22","NA","18","22","18","0","18","3","22","0","22","Wed Feb 17 11:39:21 2021","The main experiment item","yes","Lexical_Decision_Task.osexp","C:/Users/Chloe","no","Andale Mono","no","18","no","white","no","no","576","legacy","18","18","3","C:/Users/Chloe/subject-5226091.csv","legacy","Lentiform Loewenfeld","3.3.7","yes","yes","600bd7cfb6416f0113b04181","602110864497cf011d9c0822","0","f","NA","k","k","k","NA","f","643","NA","3008","14551","6124","NA","643","2","legacy","1024","2","48000","-16","task","5226091","odd","NA","32107","37119","34110","73193","2667","23349","17225","73695","NA","73191","73696","73101","37119","74339","30092","72601","2664","NA","Lexical Decision Task","23","20744","23","yes","1024"
"3.049218023","7.4","9","robe","word","100","100","886.0416666666666","886.0416666666666","black","no","legacy","legacy","legacy","0","uniform","1","undefined","undefined","undefined","1","j","0","0","0","0","23","0","0","0","23","NA","19","23","19","0","19","3","23","0","23","Wed Feb 17 11:39:21 2021","The main experiment item","yes","Lexical_Decision_Task.osexp","C:/Users/Chloe","no","Andale Mono","no","18","no","white","no","no","576","legacy","19","19","3","C:/Users/Chloe/subject-5226091.csv","legacy","Lentiform Loewenfeld","3.3.7","yes","yes","600bd7cfb6416f0113b04181","602110864497cf011d9c0822","0","j","NA","k","k","k","NA","j","521","NA","3008","14551","6124","NA","521","2","legacy","1024","2","48000","-16","task","5226091","odd","NA","32107","37119","34110","74967","2667","23349","17225","75469","NA","74965","75469","74857","37119","75991","30092","74357","2664","NA","Lexical Decision Task","24","21265","24","yes","1024"
"2.82129731","6.72","5","plum","word","100","100","878.04","878.04","black","no","legacy","legacy","legacy","0","uniform","1","undefined","undefined","undefined","1","j","0","0","0","0","24","0","0","0","24","NA","20","24","20","0","20","3","24","0","24","Wed Feb 17 11:39:21 2021","The main experiment item","yes","Lexical_Decision_Task.osexp","C:/Users/Chloe","no","Andale Mono","no","18","no","white","no","no","576","legacy","20","20","3","C:/Users/Chloe/subject-5226091.csv","legacy","Lentiform Loewenfeld","3.3.7","yes","yes","600bd7cfb6416f0113b04181","602110864497cf011d9c0822","0","j","NA","k","k","k","NA","j","686","NA","3008","14551","6124","NA","686","2","legacy","1024","2","48000","-16","task","5226091","odd","NA","32107","37119","34110","76602","2667","23349","17225","77104","NA","76600","77105","76502","37119","77792","30092","76002","2664","NA","Lexical Decision Task","25","21951","25","yes","1024"
"3.16326079","0","5","parg","non-word","100","100","873.6153846153846","873.6153846153846","black","no","legacy","legacy","legacy","0","uniform","1","undefined","undefined","undefined","1","f","0","0","0","0","25","0","0","0","25","NA","21","25","21","0","21","3","25","0","25","Wed Feb 17 11:39:21 2021","The main experiment item","yes","Lexical_Decision_Task.osexp","C:/Users/Chloe","no","Andale Mono","no","18","no","white","no","no","576","legacy","21","21","3","C:/Users/Chloe/subject-5226091.csv","legacy","Lentiform Loewenfeld","3.3.7","yes","yes","600bd7cfb6416f0113b04181","602110864497cf011d9c0822","0","f","NA","k","k","k","NA","f","763","NA","3008","14551","6124","NA","763","2","legacy","1024","2","48000","-16","task","5226091","odd","NA","32107","37119","34110","78398","2667","23349","17225","78900","NA","78396","78900","78303","37119","79664","30092","77803","2664","NA","Lexical Decision Task","26","22714","26","yes","1024"
"3.14849993","10.75","7","hour","word","100","100","876.4814814814815","876.4814814814815","black","no","legacy","legacy","legacy","0","uniform","1","undefined","undefined","undefined","1","j","0","0","0","0","26","0","0","0","26","NA","22","26","22","0","22","3","26","0","26","Wed Feb 17 11:39:21 2021","The main experiment item","yes","Lexical_Decision_Task.osexp","C:/Users/Chloe","no","Andale Mono","no","18","no","white","no","no","576","legacy","22","22","3","C:/Users/Chloe/subject-5226091.csv","legacy","Lentiform Loewenfeld","3.3.7","yes","yes","600bd7cfb6416f0113b04181","602110864497cf011d9c0822","0","j","NA","k","k","k","NA","j","951","NA","3008","14551","6124","NA","951","2","legacy","1024","2","48000","-16","task","5226091","odd","NA","32107","37119","34110","80274","2667","23349","17225","80776","NA","80272","80776","80173","37119","81728","30092","79673","2664","NA","Lexical Decision Task","27","23665","27","yes","1024"
"3.077974404","10.41","8","tool","word","100","100","877.6785714285714","877.6785714285714","black","no","legacy","legacy","legacy","0","uniform","1","undefined","undefined","undefined","1","j","0","0","0","0","27","0","0","0","27","NA","23","27","23","0","23","3","27","0","27","Wed Feb 17 11:39:21 2021","The main experiment item","yes","Lexical_Decision_Task.osexp","C:/Users/Chloe","no","Andale Mono","no","18","no","white","no","no","576","legacy","23","23","3","C:/Users/Chloe/subject-5226091.csv","legacy","Lentiform Loewenfeld","3.3.7","yes","yes","600bd7cfb6416f0113b04181","602110864497cf011d9c0822","0","j","NA","k","k","k","NA","j","910","NA","3008","14551","6124","NA","910","2","legacy","1024","2","48000","-16","task","5226091","odd","NA","32107","37119","34110","82337","2667","23349","17225","82839","NA","82335","82839","82246","37119","83750","30092","81746","2664","NA","Lexical Decision Task","28","24575","28","yes","1024"
"2.668385917","5.48","4","twig","word","100","100","867.448275862069","867.448275862069","black","no","legacy","legacy","legacy","0","uniform","1","undefined","undefined","undefined","1","j","0","0","0","0","28","0","0","0","28","NA","24","28","24","0","24","3","28","0","28","Wed Feb 17 11:39:21 2021","The main experiment item","yes","Lexical_Decision_Task.osexp","C:/Users/Chloe","no","Andale Mono","no","18","no","white","no","no","576","legacy","24","24","3","C:/Users/Chloe/subject-5226091.csv","legacy","Lentiform Loewenfeld","3.3.7","yes","yes","600bd7cfb6416f0113b04181","602110864497cf011d9c0822","0","j","NA","k","k","k","NA","j","581","NA","3008","14551","6124","NA","581","2","legacy","1024","2","48000","-16","task","5226091","odd","NA","32107","37119","34110","84345","2667","23349","17225","84847","NA","84343","84847","84261","37119","85428","30092","83761","2664","NA","Lexical Decision Task","29","25156","29","yes","1024"
"3.043885998","0","9","gome","non-word","100","100","870.0666666666667","870.0666666666667","black","no","legacy","legacy","legacy","0","uniform","1","undefined","undefined","undefined","1","f","0","0","0","0","29","0","0","0","29","NA","25","29","25","0","25","3","29","0","29","Wed Feb 17 11:39:21 2021","The main experiment item","yes","Lexical_Decision_Task.osexp","C:/Users/Chloe","no","Andale Mono","no","18","no","white","no","no","576","legacy","25","25","3","C:/Users/Chloe/subject-5226091.csv","legacy","Lentiform Loewenfeld","3.3.7","yes","yes","600bd7cfb6416f0113b04181","602110864497cf011d9c0822","0","f","NA","k","k","k","NA","f","946","NA","3008","14551","6124","NA","946","2","legacy","1024","2","48000","-16","task","5226091","odd","NA","32107","37119","34110","86039","2667","23349","17225","86541","NA","86037","86541","85946","37119","87488","30092","85446","2664","NA","Lexical Decision Task","30","26102","30","yes","1024"
"2.67699827","0","6","hulf","non-word","100","100","863.7096774193549","863.7096774193549","black","no","legacy","legacy","legacy","0","uniform","1","undefined","undefined","undefined","1","f","0","0","0","0","30","0","0","0","30","NA","26","30","26","0","26","3","30","0","30","Wed Feb 17 11:39:21 2021","The main experiment item","yes","Lexical_Decision_Task.osexp","C:/Users/Chloe","no","Andale Mono","no","18","no","white","no","no","576","legacy","26","26","3","C:/Users/Chloe/subject-5226091.csv","legacy","Lentiform Loewenfeld","3.3.7","yes","yes","600bd7cfb6416f0113b04181","602110864497cf011d9c0822","0","f","NA","k","k","k","NA","f","673","NA","3008","14551","6124","NA","673","2","legacy","1024","2","48000","-16","task","5226091","odd","NA","32107","37119","34110","88085","2667","23349","17225","88587","NA","88084","88587","88005","37119","89261","30092","87505","2664","NA","Lexical Decision Task","31","26775","31","yes","1024"
"3.382617311","0","4","pret","non-word","96.875","96.875","862.5","862.5","black","no","legacy","legacy","legacy","0","uniform","0","undefined","undefined","undefined","0","f","0","0","0","0","31","0","0","0","31","NA","27","31","27","0","27","3","31","0","31","Wed Feb 17 11:39:21 2021","The main experiment item","yes","Lexical_Decision_Task.osexp","C:/Users/Chloe","no","Andale Mono","no","18","no","white","no","no","576","legacy","27","27","3","C:/Users/Chloe/subject-5226091.csv","legacy","Lentiform Loewenfeld","3.3.7","yes","yes","600bd7cfb6416f0113b04181","602110864497cf011d9c0822","0","j","NA","k","k","k","NA","j","825","NA","3008","14551","6124","NA","825","2","legacy","1024","2","48000","-16","task","5226091","odd","NA","32107","37119","34110","89865","2667","23349","17225","90367","NA","89863","90367","89769","37119","91192","30092","89269","2664","NA","Lexical Decision Task","31","27600","32","yes","1024"
"2.884795364","0","6","flob","non-word","96.96969696969697","96.96969696969697","865.6363636363636","865.6363636363636","black","no","legacy","legacy","legacy","0","uniform","1","undefined","undefined","undefined","1","f","0","0","0","0","32","0","0","0","32","NA","28","32","28","0","28","3","32","0","32","Wed Feb 17 11:39:21 2021","The main experiment item","yes","Lexical_Decision_Task.osexp","C:/Users/Chloe","no","Andale Mono","no","18","no","white","no","no","576","legacy","28","28","3","C:/Users/Chloe/subject-5226091.csv","legacy","Lentiform Loewenfeld","3.3.7","yes","yes","600bd7cfb6416f0113b04181","602110864497cf011d9c0822","0","f","NA","k","k","k","NA","f","966","NA","3008","14551","6124","NA","966","2","legacy","1024","2","48000","-16","task","5226091","odd","NA","32107","37119","34110","92811","2667","23349","17225","93313","NA","92808","93314","92703","37119","94281","30092","89269","2664","91203","Lexical Decision Task","32","28566","33","yes","1024"
"3.062080345","0","6","tomp","non-word","97.05882352941177","97.05882352941177","863.6176470588235","863.6176470588235","black","no","legacy","legacy","legacy","0","uniform","1","undefined","undefined","undefined","1","f","0","0","0","0","33","0","0","0","33","NA","29","33","29","0","29","3","33","0","33","Wed Feb 17 11:39:21 2021","The main experiment item","yes","Lexical_Decision_Task.osexp","C:/Users/Chloe","no","Andale Mono","no","18","no","white","no","no","576","legacy","29","29","3","C:/Users/Chloe/subject-5226091.csv","legacy","Lentiform Loewenfeld","3.3.7","yes","yes","600bd7cfb6416f0113b04181","602110864497cf011d9c0822","0","f","NA","k","k","k","NA","f","797","NA","3008","14551","6124","NA","797","2","legacy","1024","2","48000","-16","task","5226091","odd","NA","32107","37119","34110","94910","2667","23349","17225","95412","NA","94908","95412","94798","37119","96210","30092","94298","2664","91203","Lexical Decision Task","33","29363","34","yes","1024"
"2.819763221","0","2","durp","non-word","97.14285714285714","97.14285714285714","857.0857142857143","857.0857142857143","black","no","legacy","legacy","legacy","0","uniform","1","undefined","undefined","undefined","1","f","0","0","0","0","34","0","0","0","34","NA","30","34","30","0","30","3","34","0","34","Wed Feb 17 11:39:21 2021","The main experiment item","yes","Lexical_Decision_Task.osexp","C:/Users/Chloe","no","Andale Mono","no","18","no","white","no","no","576","legacy","30","30","3","C:/Users/Chloe/subject-5226091.csv","legacy","Lentiform Loewenfeld","3.3.7","yes","yes","600bd7cfb6416f0113b04181","602110864497cf011d9c0822","0","f","NA","k","k","k","NA","f","635","NA","3008","14551","6124","NA","635","2","legacy","1024","2","48000","-16","task","5226091","odd","NA","32107","37119","34110","96810","2667","23349","17225","97313","NA","96808","97313","96719","37119","97949","30092","96219","2664","91203","Lexical Decision Task","34","29998","35","yes","1024"
"2.809559715","8.44","4","volt","word","97.22222222222223","97.22222222222223","851.6388888888889","851.6388888888889","black","no","legacy","legacy","legacy","0","uniform","1","undefined","undefined","undefined","1","j","0","0","0","0","35","0","0","0","35","NA","31","35","31","0","31","3","35","0","35","Wed Feb 17 11:39:21 2021","The main experiment item","yes","Lexical_Decision_Task.osexp","C:/Users/Chloe","no","Andale Mono","no","18","no","white","no","no","576","legacy","31","31","3","C:/Users/Chloe/subject-5226091.csv","legacy","Lentiform Loewenfeld","3.3.7","yes","yes","600bd7cfb6416f0113b04181","602110864497cf011d9c0822","0","j","NA","k","k","k","NA","j","661","NA","3008","14551","6124","NA","661","2","legacy","1024","2","48000","-16","task","5226091","odd","NA","32107","37119","34110","98577","2667","23349","17225","99079","NA","98575","99079","98467","37119","99741","30092","97967","2664","91203","Lexical Decision Task","35","30659","36","yes","1024"
"3.081107167","0","6","chot","non-word","97.29729729729729","97.29729729729729","847.4324324324324","847.4324324324324","black","no","legacy","legacy","legacy","0","uniform","1","undefined","undefined","undefined","1","f","0","0","0","0","36","0","0","0","36","NA","32","36","32","0","32","3","36","0","36","Wed Feb 17 11:39:21 2021","The main experiment item","yes","Lexical_Decision_Task.osexp","C:/Users/Chloe","no","Andale Mono","no","18","no","white","no","no","576","legacy","32","32","3","C:/Users/Chloe/subject-5226091.csv","legacy","Lentiform Loewenfeld","3.3.7","yes","yes","600bd7cfb6416f0113b04181","602110864497cf011d9c0822","0","f","NA","k","k","k","NA","f","696","NA","3008","14551","6124","NA","696","2","legacy","1024","2","48000","-16","task","5226091","odd","NA","32107","37119","34110","100389","2667","23349","17225","100891","NA","100387","100891","100251","37119","101588","30092","99751","2664","91203","Lexical Decision Task","36","31355","37","yes","1024"
"3.090140555","5.81","8","pout","word","97.36842105263158","97.36842105263158","847.1578947368421","847.1578947368421","black","no","legacy","legacy","legacy","0","uniform","1","undefined","undefined","undefined","1","j","0","0","0","0","37","0","0","0","37","NA","33","37","33","0","33","3","37","0","37","Wed Feb 17 11:39:21 2021","The main experiment item","yes","Lexical_Decision_Task.osexp","C:/Users/Chloe","no","Andale Mono","no","18","no","white","no","no","576","legacy","33","33","3","C:/Users/Chloe/subject-5226091.csv","legacy","Lentiform Loewenfeld","3.3.7","yes","yes","600bd7cfb6416f0113b04181","602110864497cf011d9c0822","0","j","NA","k","k","k","NA","j","837","NA","3008","14551","6124","NA","837","2","legacy","1024","2","48000","-16","task","5226091","odd","NA","32107","37119","34110","102195","2667","23349","17225","102697","NA","102193","102697","102106","37119","103535","30092","101606","2664","91203","Lexical Decision Task","37","32192","38","yes","1024"
"3.481012421","8.34","5","teen","word","97.43589743589743","97.43589743589743","842.7435897435897","842.7435897435897","black","no","legacy","legacy","legacy","0","uniform","1","undefined","undefined","undefined","1","j","0","0","0","0","38","0","0","0","38","NA","34","38","34","0","34","3","38","0","38","Wed Feb 17 11:39:21 2021","The main experiment item","yes","Lexical_Decision_Task.osexp","C:/Users/Chloe","no","Andale Mono","no","18","no","white","no","no","576","legacy","34","34","3","C:/Users/Chloe/subject-5226091.csv","legacy","Lentiform Loewenfeld","3.3.7","yes","yes","600bd7cfb6416f0113b04181","602110864497cf011d9c0822","0","j","NA","k","k","k","NA","j","675","NA","3008","14551","6124","NA","675","2","legacy","1024","2","48000","-16","task","5226091","odd","NA","32107","37119","34110","104156","2667","23349","17225","104658","NA","104154","104658","104052","37119","105334","30092","103552","2664","91203","Lexical Decision Task","38","32867","39","yes","1024"
"2.714888338","0","3","brug","non-word","97.5","97.5","840.975","840.975","black","no","legacy","legacy","legacy","0","uniform","1","undefined","undefined","undefined","1","f","0","0","0","0","39","0","0","0","39","NA","35","39","35","0","35","3","39","0","39","Wed Feb 17 11:39:21 2021","The main experiment item","yes","Lexical_Decision_Task.osexp","C:/Users/Chloe","no","Andale Mono","no","18","no","white","no","no","576","legacy","35","35","3","C:/Users/Chloe/subject-5226091.csv","legacy","Lentiform Loewenfeld","3.3.7","yes","yes","600bd7cfb6416f0113b04181","602110864497cf011d9c0822","0","f","NA","k","k","k","NA","f","772","NA","3008","14551","6124","NA","772","2","legacy","1024","2","48000","-16","task","5226091","odd","NA","32107","37119","34110","105950","2667","23349","17225","106452","NA","105948","106453","105852","37119","107225","30092","105352","2664","91203","Lexical Decision Task","39","33639","40","yes","1024"
"2.594027722","9.08","8","skip","word","97.5609756097561","97.5609756097561","832.1463414634146","832.1463414634146","black","no","legacy","legacy","legacy","0","uniform","1","undefined","undefined","undefined","1","j","0","0","0","0","40","0","0","0","40","NA","36","40","36","0","36","3","40","0","40","Wed Feb 17 11:39:21 2021","The main experiment item","yes","Lexical_Decision_Task.osexp","C:/Users/Chloe","no","Andale Mono","no","18","no","white","no","no","576","legacy","36","36","3","C:/Users/Chloe/subject-5226091.csv","legacy","Lentiform Loewenfeld","3.3.7","yes","yes","600bd7cfb6416f0113b04181","602110864497cf011d9c0822","0","j","NA","k","k","k","NA","j","479","NA","3008","14551","6124","NA","479","2","legacy","1024","2","48000","-16","task","5226091","odd","NA","32107","37119","34110","107810","2667","23349","17225","108312","NA","107809","108312","107742","37119","108792","30092","107242","2664","91203","Lexical Decision Task","40","34118","41","yes","1024"
"2.709837904","6.85","8","skim","word","97.61904761904762","97.61904761904762","826.8095238095239","826.8095238095239","black","no","legacy","legacy","legacy","0","uniform","1","undefined","undefined","undefined","1","j","0","0","0","0","41","0","0","0","41","NA","37","41","37","0","37","3","41","0","41","Wed Feb 17 11:39:21 2021","The main experiment item","yes","Lexical_Decision_Task.osexp","C:/Users/Chloe","no","Andale Mono","no","18","no","white","no","no","576","legacy","37","37","3","C:/Users/Chloe/subject-5226091.csv","legacy","Lentiform Loewenfeld","3.3.7","yes","yes","600bd7cfb6416f0113b04181","602110864497cf011d9c0822","0","j","NA","k","k","k","NA","j","608","NA","3008","14551","6124","NA","608","2","legacy","1024","2","48000","-16","task","5226091","odd","NA","32107","37119","34110","109437","2667","23349","17225","109939","NA","109434","109939","109309","37119","110548","30092","108809","2664","91203","Lexical Decision Task","41","34726","42","yes","1024"
"3.168890155","0","6","thet","non-word","97.67441860465117","97.67441860465117","821.7906976744187","821.7906976744187","black","no","legacy","legacy","legacy","0","uniform","1","undefined","undefined","undefined","1","f","0","0","0","0","42","0","0","0","42","NA","38","42","38","0","38","3","42","0","42","Wed Feb 17 11:39:21 2021","The main experiment item","yes","Lexical_Decision_Task.osexp","C:/Users/Chloe","no","Andale Mono","no","18","no","white","no","no","576","legacy","38","38","3","C:/Users/Chloe/subject-5226091.csv","legacy","Lentiform Loewenfeld","3.3.7","yes","yes","600bd7cfb6416f0113b04181","602110864497cf011d9c0822","0","f","NA","k","k","k","NA","f","611","NA","3008","14551","6124","NA","611","2","legacy","1024","2","48000","-16","task","5226091","odd","NA","32107","37119","34110","111161","2667","23349","17225","111663","NA","111159","111664","111067","37119","112276","30092","110567","2664","91203","Lexical Decision Task","42","35337","43","yes","1024"
"3.374137706","10.21","4","tree","word","97.72727272727273","97.72727272727273","815.8409090909091","815.8409090909091","black","no","legacy","legacy","legacy","0","uniform","1","undefined","undefined","undefined","1","j","0","0","0","0","43","0","0","0","43","NA","39","43","39","0","39","3","43","0","43","Wed Feb 17 11:39:21 2021","The main experiment item","yes","Lexical_Decision_Task.osexp","C:/Users/Chloe","no","Andale Mono","no","18","no","white","no","no","576","legacy","39","39","3","C:/Users/Chloe/subject-5226091.csv","legacy","Lentiform Loewenfeld","3.3.7","yes","yes","600bd7cfb6416f0113b04181","602110864497cf011d9c0822","0","j","NA","k","k","k","NA","j","560","NA","3008","14551","6124","NA","560","2","legacy","1024","2","48000","-16","task","5226091","odd","NA","32107","37119","34110","112922","2667","23349","17225","113424","NA","112920","113424","112794","37119","113985","30092","112294","2664","91203","Lexical Decision Task","43","35897","44","yes","1024"
"3.168400243","9.12","6","horn","word","97.77777777777777","97.77777777777777","819.9555555555555","819.9555555555555","black","no","legacy","legacy","legacy","0","uniform","1","undefined","undefined","undefined","1","j","0","0","0","0","44","0","0","0","44","NA","40","44","40","0","40","3","44","0","44","Wed Feb 17 11:39:21 2021","The main experiment item","yes","Lexical_Decision_Task.osexp","C:/Users/Chloe","no","Andale Mono","no","18","no","white","no","no","576","legacy","40","40","3","C:/Users/Chloe/subject-5226091.csv","legacy","Lentiform Loewenfeld","3.3.7","yes","yes","600bd7cfb6416f0113b04181","602110864497cf011d9c0822","0","j","NA","k","k","k","NA","j","1001","NA","3008","14551","6124","NA","1001","2","legacy","1024","2","48000","-16","task","5226091","odd","NA","32107","37119","34110","114596","2667","23349","17225","115098","NA","114594","115098","114503","37119","116100","30092","114003","2664","91203","Lexical Decision Task","44","36898","45","yes","1024"
"2.893578687","8.69","3","surf","word","97.82608695652173","97.82608695652173","821.9347826086956","821.9347826086956","black","no","legacy","legacy","legacy","0","uniform","1","undefined","undefined","undefined","1","j","0","0","0","0","45","0","0","0","45","NA","41","45","41","0","41","3","45","0","45","Wed Feb 17 11:39:21 2021","The main experiment item","yes","Lexical_Decision_Task.osexp","C:/Users/Chloe","no","Andale Mono","no","18","no","white","no","no","576","legacy","41","41","3","C:/Users/Chloe/subject-5226091.csv","legacy","Lentiform Loewenfeld","3.3.7","yes","yes","600bd7cfb6416f0113b04181","602110864497cf011d9c0822","0","j","NA","k","k","k","NA","j","911","NA","3008","14551","6124","NA","911","2","legacy","1024","2","48000","-16","task","5226091","odd","NA","32107","37119","34110","116708","2667","23349","17225","117210","NA","116706","117210","116610","37119","118122","30092","116110","2664","91203","Lexical Decision Task","45","37809","46","yes","1024"
"3.274157849","0","8","leet","non-word","97.87234042553192","97.87234042553192","819.4255319148937","819.4255319148937","black","no","legacy","legacy","legacy","0","uniform","1","undefined","undefined","undefined","1","f","0","0","0","0","46","0","0","0","46","NA","42","46","42","0","42","3","46","0","46","Wed Feb 17 11:39:21 2021","The main experiment item","yes","Lexical_Decision_Task.osexp","C:/Users/Chloe","no","Andale Mono","no","18","no","white","no","no","576","legacy","42","42","3","C:/Users/Chloe/subject-5226091.csv","legacy","Lentiform Loewenfeld","3.3.7","yes","yes","600bd7cfb6416f0113b04181","602110864497cf011d9c0822","0","f","NA","k","k","k","NA","f","704","NA","3008","14551","6124","NA","704","2","legacy","1024","2","48000","-16","task","5226091","odd","NA","32107","37119","34110","118722","2667","23349","17225","119224","NA","118720","119224","118638","37119","119929","30092","118138","2664","91203","Lexical Decision Task","46","38513","47","yes","1024"
"3.372543801","9.24","8","coat","word","97.91666666666667","97.91666666666667","814.0833333333334","814.0833333333334","black","no","legacy","legacy","legacy","0","uniform","1","undefined","undefined","undefined","1","j","0","0","0","0","47","0","0","0","47","NA","43","47","43","0","43","3","47","0","47","Wed Feb 17 11:39:21 2021","The main experiment item","yes","Lexical_Decision_Task.osexp","C:/Users/Chloe","no","Andale Mono","no","18","no","white","no","no","576","legacy","43","43","3","C:/Users/Chloe/subject-5226091.csv","legacy","Lentiform Loewenfeld","3.3.7","yes","yes","600bd7cfb6416f0113b04181","602110864497cf011d9c0822","0","j","NA","k","k","k","NA","j","563","NA","3008","14551","6124","NA","563","2","legacy","1024","2","48000","-16","task","5226091","odd","NA","32107","37119","34110","120505","2667","23349","17225","121007","NA","120504","121007","120438","37119","121571","30092","119938","2664","91203","Lexical Decision Task","47","39076","48","yes","1024"
"2.924968096","0","4","phim","non-word","97.95918367346938","97.95918367346938","811","811","black","no","legacy","legacy","legacy","0","uniform","1","undefined","undefined","undefined","1","f","0","0","0","0","48","0","0","0","48","NA","44","48","44","0","44","3","48","0","48","Wed Feb 17 11:39:21 2021","The main experiment item","yes","Lexical_Decision_Task.osexp","C:/Users/Chloe","no","Andale Mono","no","18","no","white","no","no","576","legacy","44","44","3","C:/Users/Chloe/subject-5226091.csv","legacy","Lentiform Loewenfeld","3.3.7","yes","yes","600bd7cfb6416f0113b04181","602110864497cf011d9c0822","0","f","NA","k","k","k","NA","f","663","NA","3008","14551","6124","NA","663","2","legacy","1024","2","48000","-16","task","5226091","odd","NA","32107","37119","34110","122210","2667","23349","17225","122712","NA","122203","122712","122080","37119","123377","30092","121580","2664","91203","Lexical Decision Task","48","39739","49","yes","1024"
"3.208978517","10.33","4","fish","word","98","98","811.62","811.62","black","no","legacy","legacy","legacy","0","uniform","1","undefined","undefined","undefined","1","j","0","0","0","0","49","0","0","0","49","NA","45","49","45","0","45","3","49","0","49","Wed Feb 17 11:39:21 2021","The main experiment item","yes","Lexical_Decision_Task.osexp","C:/Users/Chloe","no","Andale Mono","no","18","no","white","no","no","576","legacy","45","45","3","C:/Users/Chloe/subject-5226091.csv","legacy","Lentiform Loewenfeld","3.3.7","yes","yes","600bd7cfb6416f0113b04181","602110864497cf011d9c0822","0","j","NA","k","k","k","NA","j","842","NA","3008","14551","6124","NA","842","2","legacy","1024","2","48000","-16","task","5226091","odd","NA","32107","37119","34110","123983","2667","23349","17225","124486","NA","123981","124486","123895","37119","125328","30092","123395","2664","91203","Lexical Decision Task","49","40581","50","yes","1024"
"3.066077331","0","7","vorn","non-word","98.03921568627452","98.03921568627452","814.5294117647059","814.5294117647059","black","no","legacy","legacy","legacy","0","uniform","1","undefined","undefined","undefined","1","f","0","0","0","0","50","0","0","0","50","NA","46","50","46","0","46","3","50","0","50","Wed Feb 17 11:39:21 2021","The main experiment item","yes","Lexical_Decision_Task.osexp","C:/Users/Chloe","no","Andale Mono","no","18","no","white","no","no","576","legacy","46","46","3","C:/Users/Chloe/subject-5226091.csv","legacy","Lentiform Loewenfeld","3.3.7","yes","yes","600bd7cfb6416f0113b04181","602110864497cf011d9c0822","0","f","NA","k","k","k","NA","f","960","NA","3008","14551","6124","NA","960","2","legacy","1024","2","48000","-16","task","5226091","odd","NA","32107","37119","34110","125956","2667","23349","17225","126458","NA","125953","126458","125849","37119","127419","30092","125349","2664","91203","Lexical Decision Task","50","41541","51","yes","1024"
"2.68604012","0","4","pumb","non-word","96.15384615384616","96.15384615384616","818.5769230769231","818.5769230769231","black","no","legacy","legacy","legacy","0","uniform","0","undefined","undefined","undefined","0","f","0","0","0","0","51","0","0","0","51","NA","47","51","47","0","47","3","51","0","51","Wed Feb 17 11:39:21 2021","The main experiment item","yes","Lexical_Decision_Task.osexp","C:/Users/Chloe","no","Andale Mono","no","18","no","white","no","no","576","legacy","47","47","3","C:/Users/Chloe/subject-5226091.csv","legacy","Lentiform Loewenfeld","3.3.7","yes","yes","600bd7cfb6416f0113b04181","602110864497cf011d9c0822","0","j","NA","k","k","k","NA","j","1025","NA","3008","14551","6124","NA","1025","2","legacy","1024","2","48000","-16","task","5226091","odd","NA","32107","37119","34110","128036","2667","23349","17225","128538","NA","128033","128538","127935","37119","129564","30092","127435","2664","91203","Lexical Decision Task","50","42566","52","yes","1024"
"3.039414119","0","9","meep","non-word","96.22641509433963","96.22641509433963","828.2830188679245","828.2830188679245","black","no","legacy","legacy","legacy","0","uniform","1","undefined","undefined","undefined","1","f","0","0","0","0","52","0","0","0","52","NA","48","52","48","0","48","3","52","0","52","Wed Feb 17 11:39:21 2021","The main experiment item","yes","Lexical_Decision_Task.osexp","C:/Users/Chloe","no","Andale Mono","no","18","no","white","no","no","576","legacy","48","48","3","C:/Users/Chloe/subject-5226091.csv","legacy","Lentiform Loewenfeld","3.3.7","yes","yes","600bd7cfb6416f0113b04181","602110864497cf011d9c0822","0","f","NA","k","k","k","NA","f","1333","NA","3008","14551","6124","NA","1333","2","legacy","1024","2","48000","-16","task","5226091","odd","NA","32107","37119","34110","131165","2667","23349","17225","131667","NA","131163","131667","131074","37119","133001","30092","127435","2664","129573","Lexical Decision Task","51","43899","53","yes","1024"
"3.474361976","5.24","6","veer","word","94.44444444444444","94.44444444444444","841.1666666666666","841.1666666666666","black","no","legacy","legacy","legacy","0","uniform","0","undefined","undefined","undefined","0","j","0","0","0","0","53","0","0","0","53","NA","49","53","49","0","49","3","53","0","53","Wed Feb 17 11:39:21 2021","The main experiment item","yes","Lexical_Decision_Task.osexp","C:/Users/Chloe","no","Andale Mono","no","18","no","white","no","no","576","legacy","49","49","3","C:/Users/Chloe/subject-5226091.csv","legacy","Lentiform Loewenfeld","3.3.7","yes","yes","600bd7cfb6416f0113b04181","602110864497cf011d9c0822","0","f","NA","k","k","k","NA","f","1524","NA","3008","14551","6124","NA","1524","2","legacy","1024","2","48000","-16","task","5226091","odd","NA","32107","37119","34110","133619","2667","23349","17225","134121","NA","133617","134121","133519","37119","135646","30092","133019","2664","129573","Lexical Decision Task","51","45423","54","yes","1024"
"2.983324025","9.56","2","debt","word","94.54545454545455","94.54545454545455","840.4545454545455","840.4545454545455","black","no","legacy","legacy","legacy","0","uniform","1","undefined","undefined","undefined","1","j","0","0","0","0","54","0","0","0","54","0","50","54","50","0","50","3","54","0","54","Wed Feb 17 11:39:21 2021","The main experiment item","yes","Lexical_Decision_Task.osexp","C:/Users/Chloe","no","Andale Mono","no","18","no","white","no","no","576","legacy","50","50","3","C:/Users/Chloe/subject-5226091.csv","legacy","Lentiform Loewenfeld","3.3.7","yes","yes","600bd7cfb6416f0113b04181","602110864497cf011d9c0822","0","j","NA","k","k","k","k","j","802","NA","3008","14551","6124","38397","802","2","legacy","1024","2","48000","-16","task","5226091","odd","NA","32107","37119","34110","175678","2667","23349","17225","176191","137226","175677","176191","137156","37119","176994","30092","133019","2664","135656","Lexical Decision Task","52","46225","55","yes","1024"
"2.979548375","8.71","4","soup","word","94.64285714285714","94.64285714285714","834.7321428571429","834.7321428571429","black","no","legacy","legacy","legacy","0","uniform","1","undefined","undefined","undefined","1","j","0","0","0","0","55","0","0","0","55","0","51","55","51","0","51","3","55","0","55","Wed Feb 17 11:39:21 2021","The main experiment item","yes","Lexical_Decision_Task.osexp","C:/Users/Chloe","no","Andale Mono","no","18","no","white","no","no","576","legacy","51","51","3","C:/Users/Chloe/subject-5226091.csv","legacy","Lentiform Loewenfeld","3.3.7","yes","yes","600bd7cfb6416f0113b04181","602110864497cf011d9c0822","0","j","NA","k","k","k","k","j","520","NA","3008","14551","6124","38397","520","2","legacy","1024","2","48000","-16","task","5226091","odd","NA","32107","37119","34110","177609","2667","23349","17225","178111","137226","177607","178111","177503","37119","178632","30092","177003","2664","135656","Lexical Decision Task","53","46745","56","yes","1024"
"2.7084209","0","8","vump","non-word","94.73684210526316","94.73684210526316","829.4561403508771","829.4561403508771","black","no","legacy","legacy","legacy","0","uniform","1","undefined","undefined","undefined","1","f","0","0","0","0","56","0","0","0","56","0","52","56","52","0","52","3","56","0","56","Wed Feb 17 11:39:21 2021","The main experiment item","yes","Lexical_Decision_Task.osexp","C:/Users/Chloe","no","Andale Mono","no","18","no","white","no","no","576","legacy","52","52","3","C:/Users/Chloe/subject-5226091.csv","legacy","Lentiform Loewenfeld","3.3.7","yes","yes","600bd7cfb6416f0113b04181","602110864497cf011d9c0822","0","f","NA","k","k","k","k","f","534","NA","3008","14551","6124","38397","534","2","legacy","1024","2","48000","-16","task","5226091","odd","NA","32107","37119","34110","179241","2667","23349","17225","179743","137226","179239","179744","179149","37119","180279","30092","178649","2664","135656","Lexical Decision Task","54","47279","57","yes","1024"
"2.664011697","8.19","4","hawk","word","93.10344827586206","93.10344827586206","822.2586206896551","822.2586206896551","black","no","legacy","legacy","legacy","0","uniform","0","undefined","undefined","undefined","0","j","0","0","0","0","57","0","0","0","57","0","53","57","53","0","53","3","57","0","57","Wed Feb 17 11:39:21 2021","The main experiment item","yes","Lexical_Decision_Task.osexp","C:/Users/Chloe","no","Andale Mono","no","18","no","white","no","no","576","legacy","53","53","3","C:/Users/Chloe/subject-5226091.csv","legacy","Lentiform Loewenfeld","3.3.7","yes","yes","600bd7cfb6416f0113b04181","602110864497cf011d9c0822","0","f","NA","k","k","k","k","f","412","NA","3008","14551","6124","38397","412","2","legacy","1024","2","48000","-16","task","5226091","odd","NA","32107","37119","34110","180890","2667","23349","17225","181394","137226","180888","181394","180796","37119","181807","30092","180296","2664","135656","Lexical Decision Task","54","47691","58","yes","1024"
"2.814027728","8.2","4","foam","word","93.22033898305085","93.22033898305085","816.8305084745763","816.8305084745763","black","no","legacy","legacy","legacy","0","uniform","1","undefined","undefined","undefined","1","j","0","0","0","0","58","0","0","0","58","0","54","58","54","0","54","3","58","0","58","Wed Feb 17 11:39:21 2021","The main experiment item","yes","Lexical_Decision_Task.osexp","C:/Users/Chloe","no","Andale Mono","no","18","no","white","no","no","576","legacy","54","54","3","C:/Users/Chloe/subject-5226091.csv","legacy","Lentiform Loewenfeld","3.3.7","yes","yes","600bd7cfb6416f0113b04181","602110864497cf011d9c0822","0","j","NA","k","k","k","k","j","502","NA","3008","14551","6124","38397","502","2","legacy","1024","2","48000","-16","task","5226091","odd","NA","32107","37119","34110","183461","2667","23349","17225","183963","137226","183458","183964","183318","37119","184467","30092","180296","2664","181818","Lexical Decision Task","55","48193","59","yes","1024"
"2.990042563","6.64","9","plow","word","93.33333333333333","93.33333333333333","817.35","817.35","black","no","legacy","legacy","legacy","0","uniform","1","undefined","undefined","undefined","1","j","0","0","0","0","59","0","0","0","59","0","55","59","55","0","55","3","59","0","59","Wed Feb 17 11:39:21 2021","The main experiment item","yes","Lexical_Decision_Task.osexp","C:/Users/Chloe","no","Andale Mono","no","18","no","white","no","no","576","legacy","55","55","3","C:/Users/Chloe/subject-5226091.csv","legacy","Lentiform Loewenfeld","3.3.7","yes","yes","600bd7cfb6416f0113b04181","602110864497cf011d9c0822","0","j","NA","k","k","k","k","j","848","NA","3008","14551","6124","38397","848","2","legacy","1024","2","48000","-16","task","5226091","odd","NA","32107","37119","34110","185086","2667","23349","17225","185588","137226","185084","185588","184992","37119","186437","30092","184492","2664","181818","Lexical Decision Task","56","49041","60","yes","1024"
"3.159867847","5.98","5","brim","word","93.44262295081967","93.44262295081967","812.688524590164","812.688524590164","black","no","legacy","legacy","legacy","0","uniform","1","undefined","undefined","undefined","1","j","0","0","0","0","60","0","0","0","60","0","56","60","56","0","56","3","60","0","60","Wed Feb 17 11:39:21 2021","The main experiment item","yes","Lexical_Decision_Task.osexp","C:/Users/Chloe","no","Andale Mono","no","18","no","white","no","no","576","legacy","56","56","3","C:/Users/Chloe/subject-5226091.csv","legacy","Lentiform Loewenfeld","3.3.7","yes","yes","600bd7cfb6416f0113b04181","602110864497cf011d9c0822","0","j","NA","k","k","k","k","j","533","NA","3008","14551","6124","38397","533","2","legacy","1024","2","48000","-16","task","5226091","odd","NA","32107","37119","34110","187037","2667","23349","17225","187539","137226","187034","187539","186942","37119","188073","30092","186442","2664","181818","Lexical Decision Task","57","49574","61","yes","1024"
"2.9737419","7.69","7","claw","word","93.54838709677419","93.54838709677419","807","807","black","no","legacy","legacy","legacy","0","uniform","1","undefined","undefined","undefined","1","j","0","0","0","0","61","0","0","0","61","0","57","61","57","0","57","3","61","0","61","Wed Feb 17 11:39:21 2021","The main experiment item","yes","Lexical_Decision_Task.osexp","C:/Users/Chloe","no","Andale Mono","no","18","no","white","no","no","576","legacy","57","57","3","C:/Users/Chloe/subject-5226091.csv","legacy","Lentiform Loewenfeld","3.3.7","yes","yes","600bd7cfb6416f0113b04181","602110864497cf011d9c0822","0","j","NA","k","k","k","k","j","460","NA","3008","14551","6124","38397","460","2","legacy","1024","2","48000","-16","task","5226091","odd","NA","32107","37119","34110","188728","2667","23349","17225","189230","137226","188725","189230","188584","37119","189691","30092","188084","2664","181818","Lexical Decision Task","58","50034","62","yes","1024"
"3.15462682","0","6","noal","non-word","93.65079365079364","93.65079365079364","805.5238095238095","805.5238095238095","black","no","legacy","legacy","legacy","0","uniform","1","undefined","undefined","undefined","1","f","0","0","0","0","62","0","0","0","62","0","58","62","58","0","58","3","62","0","62","Wed Feb 17 11:39:21 2021","The main experiment item","yes","Lexical_Decision_Task.osexp","C:/Users/Chloe","no","Andale Mono","no","18","no","white","no","no","576","legacy","58","58","3","C:/Users/Chloe/subject-5226091.csv","legacy","Lentiform Loewenfeld","3.3.7","yes","yes","600bd7cfb6416f0113b04181","602110864497cf011d9c0822","0","f","NA","k","k","k","k","f","714","NA","3008","14551","6124","38397","714","2","legacy","1024","2","48000","-16","task","5226091","odd","NA","32107","37119","34110","190302","2667","23349","17225","190803","137226","190300","190803","190214","37119","191519","30092","189714","2664","181818","Lexical Decision Task","59","50748","63","yes","1024"
"2.845304797","0","6","buct","non-word","93.75","93.75","804","804","black","no","legacy","legacy","legacy","0","uniform","1","undefined","undefined","undefined","1","f","0","0","0","0","63","0","0","0","63","0","59","63","59","0","59","3","63","0","63","Wed Feb 17 11:39:21 2021","The main experiment item","yes","Lexical_Decision_Task.osexp","C:/Users/Chloe","no","Andale Mono","no","18","no","white","no","no","576","legacy","59","59","3","C:/Users/Chloe/subject-5226091.csv","legacy","Lentiform Loewenfeld","3.3.7","yes","yes","600bd7cfb6416f0113b04181","602110864497cf011d9c0822","0","f","NA","k","k","k","k","f","708","NA","3008","14551","6124","38397","708","2","legacy","1024","2","48000","-16","task","5226091","odd","NA","32107","37119","34110","192140","2667","23349","17225","192642","137226","192137","192642","192024","37119","193351","30092","191524","2664","181818","Lexical Decision Task","60","51456","64","yes","1024"
"3.531734309","0","6","lerd","non-word","93.84615384615384","93.84615384615384","801.0307692307692","801.0307692307692","black","no","legacy","legacy","legacy","0","uniform","1","undefined","undefined","undefined","1","f","0","0","0","0","64","0","0","0","64","0","60","64","60","0","60","3","64","0","64","Wed Feb 17 11:39:21 2021","The main experiment item","yes","Lexical_Decision_Task.osexp","C:/Users/Chloe","no","Andale Mono","no","18","no","white","no","no","576","legacy","60","60","3","C:/Users/Chloe/subject-5226091.csv","legacy","Lentiform Loewenfeld","3.3.7","yes","yes","600bd7cfb6416f0113b04181","602110864497cf011d9c0822","0","f","NA","k","k","k","k","f","611","NA","3008","14551","6124","38397","611","2","legacy","1024","2","48000","-16","task","5226091","odd","NA","32107","37119","34110","193965","2667","23349","17225","194467","137226","193962","194467","193866","37119","195080","30092","193360","2664","181818","Lexical Decision Task","61","52067","65","yes","1024"
"2.907588697","8.91","9","mood","word","93.93939393939394","93.93939393939394","796.9090909090909","796.9090909090909","black","no","legacy","legacy","legacy","0","uniform","1","undefined","undefined","undefined","1","j","0","0","0","0","65","0","0","0","65","0","61","65","61","0","61","3","65","0","65","Wed Feb 17 11:39:21 2021","The main experiment item","yes","Lexical_Decision_Task.osexp","C:/Users/Chloe","no","Andale Mono","no","18","no","white","no","no","576","legacy","61","61","3","C:/Users/Chloe/subject-5226091.csv","legacy","Lentiform Loewenfeld","3.3.7","yes","yes","600bd7cfb6416f0113b04181","602110864497cf011d9c0822","0","j","NA","k","k","k","k","j","529","NA","3008","14551","6124","38397","529","2","legacy","1024","2","48000","-16","task","5226091","odd","NA","32107","37119","34110","195707","2667","23349","17225","196209","137226","195705","196209","195597","37119","196739","30092","195097","2664","181818","Lexical Decision Task","62","52596","66","yes","1024"
"2.794720352","0","9","koot","non-word","94.02985074626865","94.02985074626865","795","795","black","no","legacy","legacy","legacy","0","uniform","1","undefined","undefined","undefined","1","f","0","0","0","0","66","0","0","0","66","0","62","66","62","0","62","3","66","0","66","Wed Feb 17 11:39:21 2021","The main experiment item","yes","Lexical_Decision_Task.osexp","C:/Users/Chloe","no","Andale Mono","no","18","no","white","no","no","576","legacy","62","62","3","C:/Users/Chloe/subject-5226091.csv","legacy","Lentiform Loewenfeld","3.3.7","yes","yes","600bd7cfb6416f0113b04181","602110864497cf011d9c0822","0","f","NA","k","k","k","k","f","669","NA","3008","14551","6124","38397","669","2","legacy","1024","2","48000","-16","task","5226091","odd","NA","32107","37119","34110","197343","2667","23349","17225","197846","137226","197341","197846","197249","37119","198516","30092","196749","2664","181818","Lexical Decision Task","63","53265","67","yes","1024"
"2.728085817","10.02","9","bike","word","94.11764705882354","94.11764705882354","791.6911764705883","791.6911764705883","black","no","legacy","legacy","legacy","0","uniform","1","undefined","undefined","undefined","1","j","0","0","0","0","67","0","0","0","67","0","63","67","63","0","63","3","67","0","67","Wed Feb 17 11:39:21 2021","The main experiment item","yes","Lexical_Decision_Task.osexp","C:/Users/Chloe","no","Andale Mono","no","18","no","white","no","no","576","legacy","63","63","3","C:/Users/Chloe/subject-5226091.csv","legacy","Lentiform Loewenfeld","3.3.7","yes","yes","600bd7cfb6416f0113b04181","602110864497cf011d9c0822","0","j","NA","k","k","k","k","j","570","NA","3008","14551","6124","38397","570","2","legacy","1024","2","48000","-16","task","5226091","odd","NA","32107","37119","34110","199166","2667","23349","17225","199668","137226","199164","199668","199033","37119","200239","30092","198533","2664","181818","Lexical Decision Task","64","53835","68","yes","1024"
"2.6599162","0","2","saff","non-word","94.20289855072464","94.20289855072464","789.7536231884058","789.7536231884058","black","no","legacy","legacy","legacy","0","uniform","1","undefined","undefined","undefined","1","f","0","0","0","0","68","0","0","0","68","0","64","68","64","0","64","3","68","0","68","Wed Feb 17 11:39:21 2021","The main experiment item","yes","Lexical_Decision_Task.osexp","C:/Users/Chloe","no","Andale Mono","no","18","no","white","no","no","576","legacy","64","64","3","C:/Users/Chloe/subject-5226091.csv","legacy","Lentiform Loewenfeld","3.3.7","yes","yes","600bd7cfb6416f0113b04181","602110864497cf011d9c0822","0","f","NA","k","k","k","k","f","658","NA","3008","14551","6124","38397","658","2","legacy","1024","2","48000","-16","task","5226091","odd","NA","32107","37119","34110","200845","2667","23349","17225","201347","137226","200843","201347","200756","37119","202005","30092","200256","2664","181818","Lexical Decision Task","65","54493","69","yes","1024"
"3.153104174","10.89","6","door","word","94.28571428571429","94.28571428571429","791.0285714285715","791.0285714285715","black","no","legacy","legacy","legacy","0","uniform","1","undefined","undefined","undefined","1","j","0","0","0","0","69","0","0","0","69","0","65","69","65","0","65","3","69","0","69","Wed Feb 17 11:39:21 2021","The main experiment item","yes","Lexical_Decision_Task.osexp","C:/Users/Chloe","no","Andale Mono","no","18","no","white","no","no","576","legacy","65","65","3","C:/Users/Chloe/subject-5226091.csv","legacy","Lentiform Loewenfeld","3.3.7","yes","yes","600bd7cfb6416f0113b04181","602110864497cf011d9c0822","0","j","NA","k","k","k","k","j","879","NA","3008","14551","6124","38397","879","2","legacy","1024","2","48000","-16","task","5226091","odd","NA","32107","37119","34110","202604","2667","23349","17225","203107","137226","202602","203107","202515","37119","203987","30092","202015","2664","181818","Lexical Decision Task","66","55372","70","yes","1024"
"3.067070856","9.39","3","loud","word","94.36619718309859","94.36619718309859","788.7605633802817","788.7605633802817","black","no","legacy","legacy","legacy","0","uniform","1","undefined","undefined","undefined","1","j","0","0","0","0","70","0","0","0","70","0","66","70","66","0","66","3","70","0","70","Wed Feb 17 11:39:21 2021","The main experiment item","yes","Lexical_Decision_Task.osexp","C:/Users/Chloe","no","Andale Mono","no","18","no","white","no","no","576","legacy","66","66","3","C:/Users/Chloe/subject-5226091.csv","legacy","Lentiform Loewenfeld","3.3.7","yes","yes","600bd7cfb6416f0113b04181","602110864497cf011d9c0822","0","j","NA","k","k","k","k","j","630","NA","3008","14551","6124","38397","630","2","legacy","1024","2","48000","-16","task","5226091","odd","NA","32107","37119","34110","204610","2667","23349","17225","205112","137226","204608","205112","204504","37119","205743","30092","204004","2664","181818","Lexical Decision Task","67","56002","71","yes","1024"
"3.443783828","7.65","3","verb","word","94.44444444444444","94.44444444444444","786.1944444444445","786.1944444444445","black","no","legacy","legacy","legacy","0","uniform","1","undefined","undefined","undefined","1","j","0","0","0","0","71","0","0","0","71","0","67","71","67","0","67","3","71","0","71","Wed Feb 17 11:39:21 2021","The main experiment item","yes","Lexical_Decision_Task.osexp","C:/Users/Chloe","no","Andale Mono","no","18","no","white","no","no","576","legacy","67","67","3","C:/Users/Chloe/subject-5226091.csv","legacy","Lentiform Loewenfeld","3.3.7","yes","yes","600bd7cfb6416f0113b04181","602110864497cf011d9c0822","0","j","NA","k","k","k","k","j","604","NA","3008","14551","6124","38397","604","2","legacy","1024","2","48000","-16","task","5226091","odd","NA","32107","37119","34110","206364","2667","23349","17225","206866","137226","206361","206867","206261","37119","207472","30092","205761","2664","181818","Lexical Decision Task","68","56606","72","yes","1024"
"2.69019608","9.01","2","myth","word","94.52054794520548","94.52054794520548","783.7123287671233","783.7123287671233","black","no","legacy","legacy","legacy","0","uniform","1","undefined","undefined","undefined","1","j","0","0","0","0","72","0","0","0","72","0","68","72","68","0","68","3","72","0","72","Wed Feb 17 11:39:21 2021","The main experiment item","yes","Lexical_Decision_Task.osexp","C:/Users/Chloe","no","Andale Mono","no","18","no","white","no","no","576","legacy","68","68","3","C:/Users/Chloe/subject-5226091.csv","legacy","Lentiform Loewenfeld","3.3.7","yes","yes","600bd7cfb6416f0113b04181","602110864497cf011d9c0822","0","j","NA","k","k","k","k","j","605","NA","3008","14551","6124","38397","605","2","legacy","1024","2","48000","-16","task","5226091","odd","NA","32107","37119","34110","208093","2667","23349","17225","208595","137226","208091","208595","207990","37119","209202","30092","207490","2664","181818","Lexical Decision Task","69","57211","73","yes","1024"
"2.713490543","0","3","feps","non-word","94.5945945945946","94.5945945945946","781.0540540540541","781.0540540540541","black","no","legacy","legacy","legacy","0","uniform","1","undefined","undefined","undefined","1","f","0","0","0","0","73","0","0","0","73","0","69","73","69","0","69","3","73","0","73","Wed Feb 17 11:39:21 2021","The main experiment item","yes","Lexical_Decision_Task.osexp","C:/Users/Chloe","no","Andale Mono","no","18","no","white","no","no","576","legacy","69","69","3","C:/Users/Chloe/subject-5226091.csv","legacy","Lentiform Loewenfeld","3.3.7","yes","yes","600bd7cfb6416f0113b04181","602110864497cf011d9c0822","0","f","NA","k","k","k","k","f","587","NA","3008","14551","6124","38397","587","2","legacy","1024","2","48000","-16","task","5226091","odd","NA","32107","37119","34110","209832","2667","23349","17225","210335","137226","209830","210335","209719","37119","210924","30092","209219","2664","181818","Lexical Decision Task","70","57798","74","yes","1024"
"2.616654026","9.37","5","gift","word","94.66666666666667","94.66666666666667","780.5866666666667","780.5866666666667","black","no","legacy","legacy","legacy","0","uniform","1","undefined","undefined","undefined","1","j","0","0","0","0","74","0","0","0","74","0","70","74","70","0","70","3","74","0","74","Wed Feb 17 11:39:21 2021","The main experiment item","yes","Lexical_Decision_Task.osexp","C:/Users/Chloe","no","Andale Mono","no","18","no","white","no","no","576","legacy","70","70","3","C:/Users/Chloe/subject-5226091.csv","legacy","Lentiform Loewenfeld","3.3.7","yes","yes","600bd7cfb6416f0113b04181","602110864497cf011d9c0822","0","j","NA","k","k","k","k","j","746","NA","3008","14551","6124","38397","746","2","legacy","1024","2","48000","-16","task","5226091","odd","NA","32107","37119","34110","211544","2667","23349","17225","212046","137226","211541","212046","211441","37119","212793","30092","210941","2664","181818","Lexical Decision Task","71","58544","75","yes","1024"
"3.397302518","7.01","2","knit","word","94.73684210526316","94.73684210526316","786.5131578947369","786.5131578947369","black","no","legacy","legacy","legacy","0","uniform","1","undefined","undefined","undefined","1","j","0","0","0","0","75","0","0","0","75","0","71","75","71","0","71","3","75","0","75","Wed Feb 17 11:39:21 2021","The main experiment item","yes","Lexical_Decision_Task.osexp","C:/Users/Chloe","no","Andale Mono","no","18","no","white","no","no","576","legacy","71","71","3","C:/Users/Chloe/subject-5226091.csv","legacy","Lentiform Loewenfeld","3.3.7","yes","yes","600bd7cfb6416f0113b04181","602110864497cf011d9c0822","0","j","NA","k","k","k","k","j","1231","NA","3008","14551","6124","38397","1231","2","legacy","1024","2","48000","-16","task","5226091","odd","NA","32107","37119","34110","213422","2667","23349","17225","213924","137226","213420","213924","213311","37119","215156","30092","212810","2664","181818","Lexical Decision Task","72","59775","76","yes","1024"
"3.031408464","0","7","drow","non-word","94.8051948051948","94.8051948051948","791.7142857142857","791.7142857142857","black","no","legacy","legacy","legacy","0","uniform","1","undefined","undefined","undefined","1","f","0","0","0","0","76","0","0","0","76","0","72","76","72","0","72","3","76","0","76","Wed Feb 17 11:39:21 2021","The main experiment item","yes","Lexical_Decision_Task.osexp","C:/Users/Chloe","no","Andale Mono","no","18","no","white","no","no","576","legacy","72","72","3","C:/Users/Chloe/subject-5226091.csv","legacy","Lentiform Loewenfeld","3.3.7","yes","yes","600bd7cfb6416f0113b04181","602110864497cf011d9c0822","0","f","NA","k","k","k","k","f","1187","NA","3008","14551","6124","38397","1187","2","legacy","1024","2","48000","-16","task","5226091","odd","NA","32107","37119","34110","215811","2667","23349","17225","216313","137226","215808","216314","215673","37119","217502","30092","215173","2664","181818","Lexical Decision Task","73","60962","77","yes","1024"
"3.165936429","0","7","leps","non-word","94.87179487179488","94.87179487179488","790.2948717948718","790.2948717948718","black","no","legacy","legacy","legacy","0","uniform","1","undefined","undefined","undefined","1","f","0","0","0","0","77","0","0","0","77","0","73","77","73","0","73","3","77","0","77","Wed Feb 17 11:39:21 2021","The main experiment item","yes","Lexical_Decision_Task.osexp","C:/Users/Chloe","no","Andale Mono","no","18","no","white","no","no","576","legacy","73","73","3","C:/Users/Chloe/subject-5226091.csv","legacy","Lentiform Loewenfeld","3.3.7","yes","yes","600bd7cfb6416f0113b04181","602110864497cf011d9c0822","0","f","NA","k","k","k","k","f","681","NA","3008","14551","6124","38397","681","2","legacy","1024","2","48000","-16","task","5226091","odd","NA","32107","37119","34110","218100","2667","23349","17225","218602","137226","218098","218602","218012","37119","219284","30092","217512","2664","181818","Lexical Decision Task","74","61643","78","yes","1024"
"3.156347201","0","8","lasp","non-word","94.9367088607595","94.9367088607595","790.0379746835443","790.0379746835443","black","no","legacy","legacy","legacy","0","uniform","1","undefined","undefined","undefined","1","f","0","0","0","0","78","0","0","0","78","0","74","78","74","0","74","3","78","0","78","Wed Feb 17 11:39:21 2021","The main experiment item","yes","Lexical_Decision_Task.osexp","C:/Users/Chloe","no","Andale Mono","no","18","no","white","no","no","576","legacy","74","74","3","C:/Users/Chloe/subject-5226091.csv","legacy","Lentiform Loewenfeld","3.3.7","yes","yes","600bd7cfb6416f0113b04181","602110864497cf011d9c0822","0","f","NA","k","k","k","k","f","770","NA","3008","14551","6124","38397","770","2","legacy","1024","2","48000","-16","task","5226091","odd","NA","32107","37119","34110","219880","2667","23349","17225","220382","137226","219878","220382","219788","37119","221153","30092","219288","2664","181818","Lexical Decision Task","75","62413","79","yes","1024"
"2.675164031","8.57","6","glue","word","95","95","787.5","787.5","black","no","legacy","legacy","legacy","0","uniform","1","undefined","undefined","undefined","1","j","0","0","0","0","79","0","0","0","79","0","75","79","75","0","75","3","79","0","79","Wed Feb 17 11:39:21 2021","The main experiment item","yes","Lexical_Decision_Task.osexp","C:/Users/Chloe","no","Andale Mono","no","18","no","white","no","no","576","legacy","75","75","3","C:/Users/Chloe/subject-5226091.csv","legacy","Lentiform Loewenfeld","3.3.7","yes","yes","600bd7cfb6416f0113b04181","602110864497cf011d9c0822","0","j","NA","k","k","k","k","j","587","NA","3008","14551","6124","38397","587","2","legacy","1024","2","48000","-16","task","5226091","odd","NA","32107","37119","34110","221768","2667","23349","17225","222271","137226","221765","222271","221671","37119","222860","30092","221171","2664","181818","Lexical Decision Task","76","63000","80","yes","1024"
"3.067193647","6.73","6","raft","word","95.06172839506173","95.06172839506173","787.2345679012345","787.2345679012345","black","no","legacy","legacy","legacy","0","uniform","1","undefined","undefined","undefined","1","j","0","0","0","0","80","0","0","0","80","0","76","80","76","0","76","3","80","0","80","Wed Feb 17 11:39:21 2021","The main experiment item","yes","Lexical_Decision_Task.osexp","C:/Users/Chloe","no","Andale Mono","no","18","no","white","no","no","576","legacy","76","76","3","C:/Users/Chloe/subject-5226091.csv","legacy","Lentiform Loewenfeld","3.3.7","yes","yes","600bd7cfb6416f0113b04181","602110864497cf011d9c0822","0","j","NA","k","k","k","k","j","766","NA","3008","14551","6124","38397","766","2","legacy","1024","2","48000","-16","task","5226091","odd","NA","32107","37119","34110","223492","2667","23349","17225","223994","137226","223489","223994","223377","37119","224761","30092","222877","2664","181818","Lexical Decision Task","77","63766","81","yes","1024"
"3.174641193","0","3","ramb","non-word","95.1219512195122","95.1219512195122","793.7439024390244","793.7439024390244","black","no","legacy","legacy","legacy","0","uniform","1","undefined","undefined","undefined","1","f","0","0","0","0","81","0","0","0","81","0","77","81","77","0","77","3","81","0","81","Wed Feb 17 11:39:21 2021","The main experiment item","yes","Lexical_Decision_Task.osexp","C:/Users/Chloe","no","Andale Mono","no","18","no","white","no","no","576","legacy","77","77","3","C:/Users/Chloe/subject-5226091.csv","legacy","Lentiform Loewenfeld","3.3.7","yes","yes","600bd7cfb6416f0113b04181","602110864497cf011d9c0822","0","f","NA","k","k","k","k","f","1321","NA","3008","14551","6124","38397","1321","2","legacy","1024","2","48000","-16","task","5226091","odd","NA","32107","37119","34110","225376","2667","23349","17225","225878","137226","225374","225878","225279","37119","227201","30092","224779","2664","181818","Lexical Decision Task","78","65087","82","yes","1024"
"2.719886232","7.98","2","quiz","word","95.18072289156626","95.18072289156626","792.0240963855422","792.0240963855422","black","no","legacy","legacy","legacy","0","uniform","1","undefined","undefined","undefined","1","j","0","0","0","0","82","0","0","0","82","0","78","82","78","0","78","3","82","0","82","Wed Feb 17 11:39:21 2021","The main experiment item","yes","Lexical_Decision_Task.osexp","C:/Users/Chloe","no","Andale Mono","no","18","no","white","no","no","576","legacy","78","78","3","C:/Users/Chloe/subject-5226091.csv","legacy","Lentiform Loewenfeld","3.3.7","yes","yes","600bd7cfb6416f0113b04181","602110864497cf011d9c0822","0","j","NA","k","k","k","k","j","651","NA","3008","14551","6124","38397","651","2","legacy","1024","2","48000","-16","task","5226091","odd","NA","32107","37119","34110","227825","2667","23349","17225","228327","137226","227823","228327","227710","37119","228979","30092","227210","2664","181818","Lexical Decision Task","79","65738","83","yes","1024"
"3.529815197","0","3","lerm","non-word","95.23809523809524","95.23809523809524","789.9285714285714","789.9285714285714","black","no","legacy","legacy","legacy","0","uniform","1","undefined","undefined","undefined","1","f","0","0","0","0","83","0","0","0","83","0","79","83","79","0","79","3","83","0","83","Wed Feb 17 11:39:21 2021","The main experiment item","yes","Lexical_Decision_Task.osexp","C:/Users/Chloe","no","Andale Mono","no","18","no","white","no","no","576","legacy","79","79","3","C:/Users/Chloe/subject-5226091.csv","legacy","Lentiform Loewenfeld","3.3.7","yes","yes","600bd7cfb6416f0113b04181","602110864497cf011d9c0822","0","f","NA","k","k","k","k","f","616","NA","3008","14551","6124","38397","616","2","legacy","1024","2","48000","-16","task","5226091","odd","NA","32107","37119","34110","229597","2667","23349","17225","230099","137226","229595","230099","229496","37119","230716","30092","228996","2664","181818","Lexical Decision Task","80","66354","84","yes","1024"
"3.259832699","0","9","flar","non-word","95.29411764705883","95.29411764705883","787.4","787.4","black","no","legacy","legacy","legacy","0","uniform","1","undefined","undefined","undefined","1","f","0","0","0","0","84","0","0","0","84","0","80","84","80","0","80","3","84","0","84","Wed Feb 17 11:39:21 2021","The main experiment item","yes","Lexical_Decision_Task.osexp","C:/Users/Chloe","no","Andale Mono","no","18","no","white","no","no","576","legacy","80","80","3","C:/Users/Chloe/subject-5226091.csv","legacy","Lentiform Loewenfeld","3.3.7","yes","yes","600bd7cfb6416f0113b04181","602110864497cf011d9c0822","0","f","NA","k","k","k","k","f","575","NA","3008","14551","6124","38397","575","2","legacy","1024","2","48000","-16","task","5226091","odd","NA","32107","37119","34110","231335","2667","23349","17225","231837","137226","231332","231837","231233","37119","232414","30092","230733","2664","181818","Lexical Decision Task","81","66929","85","yes","1024"
"3.197740804","6.74","3","ache","word","95.34883720930233","95.34883720930233","789.4069767441861","789.4069767441861","black","no","legacy","legacy","legacy","0","uniform","1","undefined","undefined","undefined","1","j","0","0","0","0","85","0","0","0","85","0","81","85","81","0","81","3","85","0","85","Wed Feb 17 11:39:21 2021","The main experiment item","yes","Lexical_Decision_Task.osexp","C:/Users/Chloe","no","Andale Mono","no","18","no","white","no","no","576","legacy","81","81","3","C:/Users/Chloe/subject-5226091.csv","legacy","Lentiform Loewenfeld","3.3.7","yes","yes","600bd7cfb6416f0113b04181","602110864497cf011d9c0822","0","j","NA","k","k","k","k","j","960","NA","3008","14551","6124","38397","960","2","legacy","1024","2","48000","-16","task","5226091","odd","NA","32107","37119","34110","233052","2667","23349","17225","233554","137226","233050","233554","232942","37119","234515","30092","232442","2664","181818","Lexical Decision Task","82","67889","86","yes","1024"
"2.664328519","0","4","plux","non-word","95.40229885057471","95.40229885057471","788.6781609195402","788.6781609195402","black","no","legacy","legacy","legacy","0","uniform","1","undefined","undefined","undefined","1","f","0","0","0","0","86","0","0","0","86","0","82","86","82","0","82","3","86","0","86","Wed Feb 17 11:39:21 2021","The main experiment item","yes","Lexical_Decision_Task.osexp","C:/Users/Chloe","no","Andale Mono","no","18","no","white","no","no","576","legacy","82","82","3","C:/Users/Chloe/subject-5226091.csv","legacy","Lentiform Loewenfeld","3.3.7","yes","yes","600bd7cfb6416f0113b04181","602110864497cf011d9c0822","0","f","NA","k","k","k","k","f","726","NA","3008","14551","6124","38397","726","2","legacy","1024","2","48000","-16","task","5226091","odd","NA","32107","37119","34110","235144","2667","23349","17225","235646","137226","235142","235646","235041","37119","236373","30092","234541","2664","181818","Lexical Decision Task","83","68615","87","yes","1024"
"3.031812271","6.52","3","gulp","word","95.45454545454545","95.45454545454545","788.5909090909091","788.5909090909091","black","no","legacy","legacy","legacy","0","uniform","1","undefined","undefined","undefined","1","j","0","0","0","0","87","0","0","0","87","0","83","87","83","0","83","3","87","0","87","Wed Feb 17 11:39:21 2021","The main experiment item","yes","Lexical_Decision_Task.osexp","C:/Users/Chloe","no","Andale Mono","no","18","no","white","no","no","576","legacy","83","83","3","C:/Users/Chloe/subject-5226091.csv","legacy","Lentiform Loewenfeld","3.3.7","yes","yes","600bd7cfb6416f0113b04181","602110864497cf011d9c0822","0","j","NA","k","k","k","k","j","781","NA","3008","14551","6124","38397","781","2","legacy","1024","2","48000","-16","task","5226091","odd","NA","32107","37119","34110","236988","2667","23349","17225","237490","137226","236986","237490","236882","37119","238272","30092","236382","2664","181818","Lexical Decision Task","84","69396","88","yes","1024"
"3.119255889","6.63","2","itch","word","94.38202247191012","94.38202247191012","786.4157303370787","786.4157303370787","black","no","legacy","legacy","legacy","0","uniform","0","undefined","undefined","undefined","0","j","0","0","0","0","88","0","0","0","88","0","84","88","84","0","84","3","88","0","88","Wed Feb 17 11:39:21 2021","The main experiment item","yes","Lexical_Decision_Task.osexp","C:/Users/Chloe","no","Andale Mono","no","18","no","white","no","no","576","legacy","84","84","3","C:/Users/Chloe/subject-5226091.csv","legacy","Lentiform Loewenfeld","3.3.7","yes","yes","600bd7cfb6416f0113b04181","602110864497cf011d9c0822","0","f","NA","k","k","k","k","f","595","NA","3008","14551","6124","38397","595","2","legacy","1024","2","48000","-16","task","5226091","odd","NA","32107","37119","34110","238908","2667","23349","17225","239410","137226","238907","239410","238790","37119","240007","30092","238290","2664","181818","Lexical Decision Task","84","69991","89","yes","1024"
"3.134602053","0","8","jart","non-word","94.44444444444444","94.44444444444444","788.1111111111111","788.1111111111111","black","no","legacy","legacy","legacy","0","uniform","1","undefined","undefined","undefined","1","f","0","0","0","0","89","0","0","0","89","0","85","89","85","0","85","3","89","0","89","Wed Feb 17 11:39:21 2021","The main experiment item","yes","Lexical_Decision_Task.osexp","C:/Users/Chloe","no","Andale Mono","no","18","no","white","no","no","576","legacy","85","85","3","C:/Users/Chloe/subject-5226091.csv","legacy","Lentiform Loewenfeld","3.3.7","yes","yes","600bd7cfb6416f0113b04181","602110864497cf011d9c0822","0","f","NA","k","k","k","k","f","939","NA","3008","14551","6124","38397","939","2","legacy","1024","2","48000","-16","task","5226091","odd","NA","32107","37119","34110","241625","2667","23349","17225","242127","137226","241623","242127","241525","37119","243067","30092","238290","2664","240025","Lexical Decision Task","85","70930","90","yes","1024"
"3.261341392","5.08","8","reek","word","93.4065934065934","93.4065934065934","786.5054945054945","786.5054945054945","black","no","legacy","legacy","legacy","0","uniform","0","undefined","undefined","undefined","0","j","0","0","0","0","90","0","0","0","90","0","86","90","86","0","86","3","90","0","90","Wed Feb 17 11:39:21 2021","The main experiment item","yes","Lexical_Decision_Task.osexp","C:/Users/Chloe","no","Andale Mono","no","18","no","white","no","no","576","legacy","86","86","3","C:/Users/Chloe/subject-5226091.csv","legacy","Lentiform Loewenfeld","3.3.7","yes","yes","600bd7cfb6416f0113b04181","602110864497cf011d9c0822","0","f","NA","k","k","k","k","f","642","NA","3008","14551","6124","38397","642","2","legacy","1024","2","48000","-16","task","5226091","odd","NA","32107","37119","34110","243681","2667","23349","17225","244184","137226","243679","244184","243584","37119","244827","30092","243084","2664","240025","Lexical Decision Task","85","71572","91","yes","1024"
"3.282244367","0","6","fute","non-word","93.47826086956522","93.47826086956522","789.2282608695652","789.2282608695652","black","no","legacy","legacy","legacy","0","uniform","1","undefined","undefined","undefined","1","f","0","0","0","0","91","0","0","0","91","0","87","91","87","0","87","3","91","0","91","Wed Feb 17 11:39:21 2021","The main experiment item","yes","Lexical_Decision_Task.osexp","C:/Users/Chloe","no","Andale Mono","no","18","no","white","no","no","576","legacy","87","87","3","C:/Users/Chloe/subject-5226091.csv","legacy","Lentiform Loewenfeld","3.3.7","yes","yes","600bd7cfb6416f0113b04181","602110864497cf011d9c0822","0","f","NA","k","k","k","k","f","1037","NA","3008","14551","6124","38397","1037","2","legacy","1024","2","48000","-16","task","5226091","odd","NA","32107","37119","34110","246454","2667","23349","17225","246972","137226","246452","246972","246346","37119","248016","30092","243084","2664","244845","Lexical Decision Task","86","72609","92","yes","1024"
"3.440331212","7.35","6","stew","word","93.54838709677419","93.54838709677419","788.494623655914","788.494623655914","black","no","legacy","legacy","legacy","0","uniform","1","undefined","undefined","undefined","1","j","0","0","0","0","92","0","0","0","92","0","88","92","88","0","88","3","92","0","92","Wed Feb 17 11:39:21 2021","The main experiment item","yes","Lexical_Decision_Task.osexp","C:/Users/Chloe","no","Andale Mono","no","18","no","white","no","no","576","legacy","88","88","3","C:/Users/Chloe/subject-5226091.csv","legacy","Lentiform Loewenfeld","3.3.7","yes","yes","600bd7cfb6416f0113b04181","602110864497cf011d9c0822","0","j","NA","k","k","k","k","j","721","NA","3008","14551","6124","38397","721","2","legacy","1024","2","48000","-16","task","5226091","odd","NA","32107","37119","34110","248632","2667","23349","17225","249134","137226","248630","249134","248541","37119","249857","30092","248041","2664","244845","Lexical Decision Task","87","73330","93","yes","1024"
"2.778633532","0","3","jurp","non-word","93.61702127659575","93.61702127659575","787.6489361702128","787.6489361702128","black","no","legacy","legacy","legacy","0","uniform","1","undefined","undefined","undefined","1","f","0","0","0","0","93","0","0","0","93","0","89","93","89","0","89","3","93","0","93","Wed Feb 17 11:39:21 2021","The main experiment item","yes","Lexical_Decision_Task.osexp","C:/Users/Chloe","no","Andale Mono","no","18","no","white","no","no","576","legacy","89","89","3","C:/Users/Chloe/subject-5226091.csv","legacy","Lentiform Loewenfeld","3.3.7","yes","yes","600bd7cfb6416f0113b04181","602110864497cf011d9c0822","0","f","NA","k","k","k","k","f","709","NA","3008","14551","6124","38397","709","2","legacy","1024","2","48000","-16","task","5226091","odd","NA","32107","37119","34110","250474","2667","23349","17225","250976","137226","250471","250976","250374","37119","251687","30092","249874","2664","244845","Lexical Decision Task","88","74039","94","yes","1024"
"3.307211407","6.07","7","honk","word","93.6842105263158","93.6842105263158","791.4842105263158","791.4842105263158","black","no","legacy","legacy","legacy","0","uniform","1","undefined","undefined","undefined","1","j","0","0","0","0","94","0","0","0","94","0","90","94","90","0","90","3","94","0","94","Wed Feb 17 11:39:21 2021","The main experiment item","yes","Lexical_Decision_Task.osexp","C:/Users/Chloe","no","Andale Mono","no","18","no","white","no","no","576","legacy","90","90","3","C:/Users/Chloe/subject-5226091.csv","legacy","Lentiform Loewenfeld","3.3.7","yes","yes","600bd7cfb6416f0113b04181","602110864497cf011d9c0822","0","j","NA","k","k","k","k","j","1152","NA","3008","14551","6124","38397","1152","2","legacy","1024","2","48000","-16","task","5226091","odd","NA","32107","37119","34110","252298","2667","23349","17225","252800","137226","252296","252801","252191","37119","253954","30092","251691","2664","244845","Lexical Decision Task","89","75191","95","yes","1024"
"3.102203805","7.21","3","drip","word","93.75","93.75","790.7395833333334","790.7395833333334","black","no","legacy","legacy","legacy","0","uniform","1","undefined","undefined","undefined","1","j","0","0","0","0","95","0","0","0","95","0","91","95","91","0","91","3","95","0","95","Wed Feb 17 11:39:21 2021","The main experiment item","yes","Lexical_Decision_Task.osexp","C:/Users/Chloe","no","Andale Mono","no","18","no","white","no","no","576","legacy","91","91","3","C:/Users/Chloe/subject-5226091.csv","legacy","Lentiform Loewenfeld","3.3.7","yes","yes","600bd7cfb6416f0113b04181","602110864497cf011d9c0822","0","j","NA","k","k","k","k","j","720","NA","3008","14551","6124","38397","720","2","legacy","1024","2","48000","-16","task","5226091","odd","NA","32107","37119","34110","254578","2667","23349","17225","255080","137226","254576","255080","254472","37119","255801","30092","253972","2664","244845","Lexical Decision Task","90","75911","96","yes","1024"
"2.972819734","0","4","scew","non-word","93.81443298969072","93.81443298969072","790.3505154639175","790.3505154639175","black","no","legacy","legacy","legacy","0","uniform","1","undefined","undefined","undefined","1","f","0","0","0","0","96","0","0","0","96","0","92","96","92","0","92","3","96","0","96","Wed Feb 17 11:39:21 2021","The main experiment item","yes","Lexical_Decision_Task.osexp","C:/Users/Chloe","no","Andale Mono","no","18","no","white","no","no","576","legacy","92","92","3","C:/Users/Chloe/subject-5226091.csv","legacy","Lentiform Loewenfeld","3.3.7","yes","yes","600bd7cfb6416f0113b04181","602110864497cf011d9c0822","0","f","NA","k","k","k","k","f","753","NA","3008","14551","6124","38397","753","2","legacy","1024","2","48000","-16","task","5226091","odd","NA","32107","37119","34110","256472","2667","23349","17225","256974","137226","256469","256975","256318","37119","257730","30092","255818","2664","244845","Lexical Decision Task","91","76664","97","yes","1024"
"2.899638141","0","3","hapt","non-word","93.87755102040816","93.87755102040816","789.0102040816327","789.0102040816327","black","no","legacy","legacy","legacy","0","uniform","1","undefined","undefined","undefined","1","f","0","0","0","0","97","0","0","0","97","0","93","97","93","0","93","3","97","0","97","Wed Feb 17 11:39:21 2021","The main experiment item","yes","Lexical_Decision_Task.osexp","C:/Users/Chloe","no","Andale Mono","no","18","no","white","no","no","576","legacy","93","93","3","C:/Users/Chloe/subject-5226091.csv","legacy","Lentiform Loewenfeld","3.3.7","yes","yes","600bd7cfb6416f0113b04181","602110864497cf011d9c0822","0","f","NA","k","k","k","k","f","659","NA","3008","14551","6124","38397","659","2","legacy","1024","2","48000","-16","task","5226091","odd","NA","32107","37119","34110","258349","2667","23349","17225","258851","137226","258347","258851","258247","37119","259511","30092","257747","2664","244845","Lexical Decision Task","92","77323","98","yes","1024"
"3.121778632","0","9","sark","non-word","93.93939393939394","93.93939393939394","786.5757575757576","786.5757575757576","black","no","legacy","legacy","legacy","0","uniform","1","undefined","undefined","undefined","1","f","0","0","0","0","98","0","0","0","98","0","94","98","94","0","94","3","98","0","98","Wed Feb 17 11:39:21 2021","The main experiment item","yes","Lexical_Decision_Task.osexp","C:/Users/Chloe","no","Andale Mono","no","18","no","white","no","no","576","legacy","94","94","3","C:/Users/Chloe/subject-5226091.csv","legacy","Lentiform Loewenfeld","3.3.7","yes","yes","600bd7cfb6416f0113b04181","602110864497cf011d9c0822","0","f","NA","k","k","k","k","f","548","NA","3008","14551","6124","38397","548","2","legacy","1024","2","48000","-16","task","5226091","odd","NA","32107","37119","34110","260141","2667","23349","17225","260643","137226","260139","260643","260034","37119","261193","30092","259534","2664","244845","Lexical Decision Task","93","77871","99","yes","1024"
"3.22685757","9.99","7","roll","word","94","94","784.47","784.47","black","no","legacy","legacy","legacy","0","uniform","1","undefined","undefined","undefined","1","j","0","0","0","0","99","0","0","0","99","0","95","99","95","0","95","3","99","0","99","Wed Feb 17 11:39:21 2021","The main experiment item","yes","Lexical_Decision_Task.osexp","C:/Users/Chloe","no","Andale Mono","no","18","no","white","no","no","576","legacy","95","95","3","C:/Users/Chloe/subject-5226091.csv","legacy","Lentiform Loewenfeld","3.3.7","yes","yes","600bd7cfb6416f0113b04181","602110864497cf011d9c0822","0","j","NA","k","k","k","k","j","576","NA","3008","14551","6124","38397","576","2","legacy","1024","2","48000","-16","task","5226091","odd","NA","32107","37119","34110","261823","2667","23349","17225","262325","137226","261821","262325","261710","37119","262904","30092","261210","2664","244845","Lexical Decision Task","94","78447","100","yes","1024"
"2.696356389","0","1","pizz","non-word","94.05940594059406","94.05940594059406","788.8514851485148","788.8514851485148","black","no","legacy","legacy","legacy","0","uniform","1","undefined","undefined","undefined","1","f","0","0","0","0","100","0","0","0","100","0","96","100","96","0","96","3","100","0","100","Wed Feb 17 11:39:21 2021","The main experiment item","yes","Lexical_Decision_Task.osexp","C:/Users/Chloe","no","Andale Mono","no","18","no","white","no","no","576","legacy","96","96","3","C:/Users/Chloe/subject-5226091.csv","legacy","Lentiform Loewenfeld","3.3.7","yes","yes","600bd7cfb6416f0113b04181","602110864497cf011d9c0822","0","f","NA","k","k","k","k","f","1227","NA","3008","14551","6124","38397","1227","2","legacy","1024","2","48000","-16","task","5226091","odd","NA","32107","37119","34110","263522","2667","23349","17225","264024","137226","263520","264024","263422","37119","265253","30092","262922","2664","244845","Lexical Decision Task","95","79674","101","yes","1024"
"3.100255637","0","6","brax","non-word","94.11764705882354","94.11764705882354","787.156862745098","787.156862745098","black","no","legacy","legacy","legacy","0","uniform","1","undefined","undefined","undefined","1","f","0","0","0","0","101","0","0","0","101","0","97","101","97","0","97","3","101","0","101","Wed Feb 17 11:39:21 2021","The main experiment item","yes","Lexical_Decision_Task.osexp","C:/Users/Chloe","no","Andale Mono","no","18","no","white","no","no","576","legacy","97","97","3","C:/Users/Chloe/subject-5226091.csv","legacy","Lentiform Loewenfeld","3.3.7","yes","yes","600bd7cfb6416f0113b04181","602110864497cf011d9c0822","0","f","NA","k","k","k","k","f","616","NA","3008","14551","6124","38397","616","2","legacy","1024","2","48000","-16","task","5226091","odd","NA","32107","37119","34110","265931","2667","23349","17225","266434","137226","265928","266434","265779","37119","267052","30092","265270","2664","244845","Lexical Decision Task","96","80290","102","yes","1024"
"2.95456409","0","4","taud","non-word","94.1747572815534","94.1747572815534","785.3786407766991","785.3786407766991","black","no","legacy","legacy","legacy","0","uniform","1","undefined","undefined","undefined","1","f","0","0","0","0","102","0","0","0","102","0","98","102","98","0","98","3","102","0","102","Wed Feb 17 11:39:21 2021","The main experiment item","yes","Lexical_Decision_Task.osexp","C:/Users/Chloe","no","Andale Mono","no","18","no","white","no","no","576","legacy","98","98","3","C:/Users/Chloe/subject-5226091.csv","legacy","Lentiform Loewenfeld","3.3.7","yes","yes","600bd7cfb6416f0113b04181","602110864497cf011d9c0822","0","f","NA","k","k","k","k","f","604","NA","3008","14551","6124","38397","604","2","legacy","1024","2","48000","-16","task","5226091","odd","NA","32107","37119","34110","267673","2667","23349","17225","268175","137226","267671","268175","267563","37119","268780","30092","267063","2664","244845","Lexical Decision Task","97","80894","103","yes","1024"
"2.698387659","6.66","7","skid","word","94.23076923076923","94.23076923076923","782.8365384615385","782.8365384615385","black","no","legacy","legacy","legacy","0","uniform","1","undefined","undefined","undefined","1","j","0","0","0","0","103","0","0","0","103","0","99","103","99","0","99","3","103","0","103","Wed Feb 17 11:39:21 2021","The main experiment item","yes","Lexical_Decision_Task.osexp","C:/Users/Chloe","no","Andale Mono","no","18","no","white","no","no","576","legacy","99","99","3","C:/Users/Chloe/subject-5226091.csv","legacy","Lentiform Loewenfeld","3.3.7","yes","yes","600bd7cfb6416f0113b04181","602110864497cf011d9c0822","0","j","NA","k","k","k","k","j","521","NA","3008","14551","6124","38397","521","2","legacy","1024","2","48000","-16","task","5226091","odd","NA","32107","37119","34110","269388","2667","23349","17225","269890","137226","269386","269890","269289","37119","270412","30092","268789","2664","244845","Lexical Decision Task","98","81415","104","yes","1024"
