"Log_BG","Log_Freq_HAL","Ortho_N","Stimulus","Type","acc","accuracy","average_response_time","avg_rt","background","bidi","canvas_backend","clock_backend","color_backend","compensation","coordinates","correct","correct_Experimental_intro","correct_Introduction","correct_Practice_intro","correct_experimenter_kb","correct_response","count_End_Of_Experiment","count_End_Of_Practice","count_Experimental_Loop","count_Experimental_intro","count_Fixation","count_Introduction","count_Practice_Loop","count_Practice_intro","count_Stimulus","count_block_break_feedback","count_experimental_sequence","count_experimenter_kb","count_increment_trial_count","count_init_trial_count","count_logger","count_practice_sequence","count_right","count_task","count_wrong","datetime","description","disable_garbage_collection","experiment_file","experiment_path","font_bold","font_family","font_italic","font_size","font_underline","foreground","form_clicks","fullscreen","height","keyboard_backend","live_row","live_row_Experimental_Loop","live_row_Practice_Loop","logfile","mouse_backend","opensesame_codename","opensesame_version","osf_always_upload_data","osf_always_upload_experiment","osf_datanode_id","osf_id","repeat_cycle","response","response_End_Of_Experiment","response_Experimental_intro","response_Introduction","response_Practice_intro","response_block_break_feedback","response_experimenter_kb","response_time","response_time_End_Of_Experiment","response_time_Experimental_intro","response_time_Introduction","response_time_Practice_intro","response_time_block_break_feedback","response_time_experimenter_kb","round_decimals","sampler_backend","sound_buf_size","sound_channels","sound_freq","sound_sample_size","start","subject_nr","subject_parity","time_End_Of_Experiment","time_End_Of_Practice","time_Experimental_Loop","time_Experimental_intro","time_Fixation","time_Introduction","time_Practice_Loop","time_Practice_intro","time_Stimulus","time_block_break_feedback","time_experimental_sequence","time_experimenter_kb","time_increment_trial_count","time_init_trial_count","time_logger","time_practice_sequence","time_right","time_task","time_wrong","title","total_correct","total_response_time","total_responses","uniform_coordinates","width"
"3.039414119","0","9","meep","non-word","80","80","1830.4","1830.4","black","no","legacy","legacy","legacy","0","uniform","1","undefined","undefined","undefined","1","f","0","0","0","0","4","0","0","0","4","NA","0","4","0","0","0","3","4","0","4","Wed Feb 17 11:19:06 2021","The main experiment item","yes","Lexical_Decision_Task.osexp","D:/","no","Andale Mono","no","18","no","white","no","yes","576","legacy","0","0","3","D:/subject-5205757.csv","legacy","Lentiform Loewenfeld","3.3.7","yes","yes","600bd7cfb6416f0113b04181","602110864497cf011d9c0822","0","f","NA","return","return","return","NA","f","1720","NA","8504","37814","61241","NA","1720","2","legacy","1024","2","48000","-16","task","5205757","odd","NA","119690","130197","121691","130235","7818","106879","45636","130737","NA","130233","130737","NA","130197","132457","117984","119164","7805","110514","Lexical Decision Task","4","9152","5","yes","1024"
"3.14849993","10.75","7","hour","word","83.33333333333333","83.33333333333333","1645.1666666666667","1645.1666666666667","black","no","legacy","legacy","legacy","0","uniform","1","undefined","undefined","undefined","1","j","0","0","0","0","5","0","0","0","5","NA","1","5","1","0","1","3","5","0","5","Wed Feb 17 11:19:06 2021","The main experiment item","yes","Lexical_Decision_Task.osexp","D:/","no","Andale Mono","no","18","no","white","no","yes","576","legacy","1","1","3","D:/subject-5205757.csv","legacy","Lentiform Loewenfeld","3.3.7","yes","yes","600bd7cfb6416f0113b04181","602110864497cf011d9c0822","0","j","NA","return","return","return","NA","j","719","NA","8504","37814","61241","NA","719","2","legacy","1024","2","48000","-16","task","5205757","odd","NA","119690","130197","121691","133173","7818","106879","45636","133675","NA","133172","133675","133075","130197","134395","117984","132575","7805","110514","Lexical Decision Task","5","9871","6","yes","1024"
"3.443783828","7.65","3","verb","word","85.71428571428571","85.71428571428571","1526.5714285714287","1526.5714285714287","black","no","legacy","legacy","legacy","0","uniform","1","undefined","undefined","undefined","1","j","0","0","0","0","6","0","0","0","6","NA","2","6","2","0","2","3","6","0","6","Wed Feb 17 11:19:06 2021","The main experiment item","yes","Lexical_Decision_Task.osexp","D:/","no","Andale Mono","no","18","no","white","no","yes","576","legacy","2","2","3","D:/subject-5205757.csv","legacy","Lentiform Loewenfeld","3.3.7","yes","yes","600bd7cfb6416f0113b04181","602110864497cf011d9c0822","0","j","NA","return","return","return","NA","j","815","NA","8504","37814","61241","NA","815","2","legacy","1024","2","48000","-16","task","5205757","odd","NA","119690","130197","121691","134994","7818","106879","45636","135496","NA","134991","135496","134918","130197","136312","117984","134418","7805","110514","Lexical Decision Task","6","10686","7","yes","1024"
"2.868644438","10.52","4","town","word","87.5","87.5","1405.75","1405.75","black","no","legacy","legacy","legacy","0","uniform","1","undefined","undefined","undefined","1","j","0","0","0","0","7","0","0","0","7","NA","3","7","3","0","3","3","7","0","7","Wed Feb 17 11:19:06 2021","The main experiment item","yes","Lexical_Decision_Task.osexp","D:/","no","Andale Mono","no","18","no","white","no","yes","576","legacy","3","3","3","D:/subject-5205757.csv","legacy","Lentiform Loewenfeld","3.3.7","yes","yes","600bd7cfb6416f0113b04181","602110864497cf011d9c0822","0","j","NA","return","return","return","NA","j","560","NA","8504","37814","61241","NA","560","2","legacy","1024","2","48000","-16","task","5205757","odd","NA","119690","130197","121691","136898","7818","106879","45636","137399","NA","136897","137400","136821","130197","137961","117984","136321","7805","110514","Lexical Decision Task","7","11246","8","yes","1024"
"3.028977705","0","7","frow","non-word","77.77777777777777","77.77777777777777","1356.5555555555557","1356.5555555555557","black","no","legacy","legacy","legacy","0","uniform","0","undefined","undefined","undefined","0","f","0","0","0","0","8","0","0","0","8","NA","4","8","4","0","4","3","8","0","8","Wed Feb 17 11:19:06 2021","The main experiment item","yes","Lexical_Decision_Task.osexp","D:/","no","Andale Mono","no","18","no","white","no","yes","576","legacy","4","4","3","D:/subject-5205757.csv","legacy","Lentiform Loewenfeld","3.3.7","yes","yes","600bd7cfb6416f0113b04181","602110864497cf011d9c0822","0","j","NA","return","return","return","NA","j","963","NA","8504","37814","61241","NA","963","2","legacy","1024","2","48000","-16","task","5205757","odd","NA","119690","130197","121691","138536","7818","106879","45636","139037","NA","138534","139037","138470","130197","140001","117984","137970","7805","110514","Lexical Decision Task","7","12209","9","yes","1024"
"2.907588697","8.91","9","mood","word","80","80","1288.2","1288.2","black","no","legacy","legacy","legacy","0","uniform","1","undefined","undefined","undefined","1","j","0","0","0","0","9","0","0","0","9","NA","5","9","5","0","5","3","9","0","9","Wed Feb 17 11:19:06 2021","The main experiment item","yes","Lexical_Decision_Task.osexp","D:/","no","Andale Mono","no","18","no","white","no","yes","576","legacy","5","5","3","D:/subject-5205757.csv","legacy","Lentiform Loewenfeld","3.3.7","yes","yes","600bd7cfb6416f0113b04181","602110864497cf011d9c0822","0","j","NA","return","return","return","NA","j","673","NA","8504","37814","61241","NA","673","2","legacy","1024","2","48000","-16","task","5205757","odd","NA","119690","130197","121691","141577","7818","106879","45636","142079","NA","141575","142079","141509","130197","142753","117984","137970","7805","140009","Lexical Decision Task","8","12882","10","yes","1024"
"2.709837904","6.85","8","skim","word","72.72727272727273","72.72727272727273","1443.8181818181818","1443.8181818181818","black","no","legacy","legacy","legacy","0","uniform","0","undefined","undefined","undefined","0","j","0","0","0","0","10","0","0","0","10","NA","6","10","6","0","6","3","10","0","10","Wed Feb 17 11:19:06 2021","The main experiment item","yes","Lexical_Decision_Task.osexp","D:/","no","Andale Mono","no","18","no","white","no","yes","576","legacy","6","6","3","D:/subject-5205757.csv","legacy","Lentiform Loewenfeld","3.3.7","yes","yes","600bd7cfb6416f0113b04181","602110864497cf011d9c0822","0","None","NA","return","return","return","NA","None","3000","NA","8504","37814","61241","NA","3000","2","legacy","1024","2","48000","-16","task","5205757","odd","NA","119690","130197","121691","143320","7818","106879","45636","143822","NA","143318","143822","143258","130197","146822","117984","142758","7805","140009","Lexical Decision Task","8","15882","11","yes","1024"
"3.299579929","0","2","flis","non-word","75","75","1407","1407","black","no","legacy","legacy","legacy","0","uniform","1","undefined","undefined","undefined","1","f","0","0","0","0","11","0","0","0","11","NA","7","11","7","0","7","3","11","0","11","Wed Feb 17 11:19:06 2021","The main experiment item","yes","Lexical_Decision_Task.osexp","D:/","no","Andale Mono","no","18","no","white","no","yes","576","legacy","7","7","3","D:/subject-5205757.csv","legacy","Lentiform Loewenfeld","3.3.7","yes","yes","600bd7cfb6416f0113b04181","602110864497cf011d9c0822","0","f","NA","return","return","return","NA","f","1002","NA","8504","37814","61241","NA","1002","2","legacy","1024","2","48000","-16","task","5205757","odd","NA","119690","130197","121691","148390","7818","106879","45636","148891","NA","148388","148891","148328","130197","149894","117984","142758","7805","146828","Lexical Decision Task","9","16884","12","yes","1024"
"3.208172527","10.27","7","deck","word","76.92307692307692","76.92307692307692","1360.7692307692307","1360.7692307692307","black","no","legacy","legacy","legacy","0","uniform","1","undefined","undefined","undefined","1","j","0","0","0","0","12","0","0","0","12","NA","8","12","8","0","8","3","12","0","12","Wed Feb 17 11:19:06 2021","The main experiment item","yes","Lexical_Decision_Task.osexp","D:/","no","Andale Mono","no","18","no","white","no","yes","576","legacy","8","8","3","D:/subject-5205757.csv","legacy","Lentiform Loewenfeld","3.3.7","yes","yes","600bd7cfb6416f0113b04181","602110864497cf011d9c0822","0","j","NA","return","return","return","NA","j","806","NA","8504","37814","61241","NA","806","2","legacy","1024","2","48000","-16","task","5205757","odd","NA","119690","130197","121691","150474","7818","106879","45636","150976","NA","150472","150976","150403","130197","151783","117984","149903","7805","146828","Lexical Decision Task","10","17690","13","yes","1024"
"3.088136089","8.32","9","worm","word","78.57142857142857","78.57142857142857","1307.0714285714287","1307.0714285714287","black","no","legacy","legacy","legacy","0","uniform","1","undefined","undefined","undefined","1","j","0","0","0","0","13","0","0","0","13","NA","9","13","9","0","9","3","13","0","13","Wed Feb 17 11:19:06 2021","The main experiment item","yes","Lexical_Decision_Task.osexp","D:/","no","Andale Mono","no","18","no","white","no","yes","576","legacy","9","9","3","D:/subject-5205757.csv","legacy","Lentiform Loewenfeld","3.3.7","yes","yes","600bd7cfb6416f0113b04181","602110864497cf011d9c0822","0","j","NA","return","return","return","NA","j","609","NA","8504","37814","61241","NA","609","2","legacy","1024","2","48000","-16","task","5205757","odd","NA","119690","130197","121691","152350","7818","106879","45636","152851","NA","152348","152851","152289","130197","153460","117984","151789","7805","146828","Lexical Decision Task","11","18299","14","yes","1024"
"3.149629599","0","2","cleb","non-word","73.33333333333333","73.33333333333333","1291.6","1291.6","black","no","legacy","legacy","legacy","0","uniform","0","undefined","undefined","undefined","0","f","0","0","0","0","14","0","0","0","14","NA","10","14","10","0","10","3","14","0","14","Wed Feb 17 11:19:06 2021","The main experiment item","yes","Lexical_Decision_Task.osexp","D:/","no","Andale Mono","no","18","no","white","no","yes","576","legacy","10","10","3","D:/subject-5205757.csv","legacy","Lentiform Loewenfeld","3.3.7","yes","yes","600bd7cfb6416f0113b04181","602110864497cf011d9c0822","0","j","NA","return","return","return","NA","j","1075","NA","8504","37814","61241","NA","1075","2","legacy","1024","2","48000","-16","task","5205757","odd","NA","119690","130197","121691","154023","7818","106879","45636","154524","NA","154021","154525","153965","130197","155600","117984","153465","7805","146828","Lexical Decision Task","11","19374","15","yes","1024"
"2.807758206","6.25","4","hurl","word","75","75","1264.25","1264.25","black","no","legacy","legacy","legacy","0","uniform","1","undefined","undefined","undefined","1","j","0","0","0","0","15","0","0","0","15","NA","11","15","11","0","11","3","15","0","15","Wed Feb 17 11:19:06 2021","The main experiment item","yes","Lexical_Decision_Task.osexp","D:/","no","Andale Mono","no","18","no","white","no","yes","576","legacy","11","11","3","D:/subject-5205757.csv","legacy","Lentiform Loewenfeld","3.3.7","yes","yes","600bd7cfb6416f0113b04181","602110864497cf011d9c0822","0","j","NA","return","return","return","NA","j","854","NA","8504","37814","61241","NA","854","2","legacy","1024","2","48000","-16","task","5205757","odd","NA","119690","130197","121691","157169","7818","106879","45636","157670","NA","157167","157670","157109","130197","158525","117984","153465","7805","155609","Lexical Decision Task","12","20228","16","yes","1024"
"2.812467698","0","7","hafe","non-word","76.47058823529412","76.47058823529412","1250.8235294117646","1250.8235294117646","black","no","legacy","legacy","legacy","0","uniform","1","undefined","undefined","undefined","1","f","0","0","0","0","16","0","0","0","16","NA","12","16","12","0","12","3","16","0","16","Wed Feb 17 11:19:06 2021","The main experiment item","yes","Lexical_Decision_Task.osexp","D:/","no","Andale Mono","no","18","no","white","no","yes","576","legacy","12","12","3","D:/subject-5205757.csv","legacy","Lentiform Loewenfeld","3.3.7","yes","yes","600bd7cfb6416f0113b04181","602110864497cf011d9c0822","0","f","NA","return","return","return","NA","f","1036","NA","8504","37814","61241","NA","1036","2","legacy","1024","2","48000","-16","task","5205757","odd","NA","119690","130197","121691","159092","7818","106879","45636","159594","NA","159090","159594","159031","130197","160631","117984","158531","7805","155609","Lexical Decision Task","13","21264","17","yes","1024"
"3.194328374","9.42","6","harm","word","77.77777777777777","77.77777777777777","1225.2777777777778","1225.2777777777778","black","no","legacy","legacy","legacy","0","uniform","1","undefined","undefined","undefined","1","j","0","0","0","0","17","0","0","0","17","NA","13","17","13","0","13","3","17","0","17","Wed Feb 17 11:19:06 2021","The main experiment item","yes","Lexical_Decision_Task.osexp","D:/","no","Andale Mono","no","18","no","white","no","yes","576","legacy","13","13","3","D:/subject-5205757.csv","legacy","Lentiform Loewenfeld","3.3.7","yes","yes","600bd7cfb6416f0113b04181","602110864497cf011d9c0822","0","j","NA","return","return","return","NA","j","791","NA","8504","37814","61241","NA","791","2","legacy","1024","2","48000","-16","task","5205757","odd","NA","119690","130197","121691","161199","7818","106879","45636","161700","NA","161197","161700","161139","130197","162492","117984","160639","7805","155609","Lexical Decision Task","14","22055","18","yes","1024"
"2.728085817","10.02","9","bike","word","78.94736842105263","78.94736842105263","1197.5263157894738","1197.5263157894738","black","no","legacy","legacy","legacy","0","uniform","1","undefined","undefined","undefined","1","j","0","0","0","0","18","0","0","0","18","NA","14","18","14","0","14","3","18","0","18","Wed Feb 17 11:19:06 2021","The main experiment item","yes","Lexical_Decision_Task.osexp","D:/","no","Andale Mono","no","18","no","white","no","yes","576","legacy","14","14","3","D:/subject-5205757.csv","legacy","Lentiform Loewenfeld","3.3.7","yes","yes","600bd7cfb6416f0113b04181","602110864497cf011d9c0822","0","j","NA","return","return","return","NA","j","698","NA","8504","37814","61241","NA","698","2","legacy","1024","2","48000","-16","task","5205757","odd","NA","119690","130197","121691","163057","7818","106879","45636","163558","NA","163055","163558","162997","130197","164257","117984","162497","7805","155609","Lexical Decision Task","15","22753","19","yes","1024"
"3.156347201","0","8","lasp","non-word","75","75","1213.35","1213.35","black","no","legacy","legacy","legacy","0","uniform","0","undefined","undefined","undefined","0","f","0","0","0","0","19","0","0","0","19","NA","15","19","15","0","15","3","19","0","19","Wed Feb 17 11:19:06 2021","The main experiment item","yes","Lexical_Decision_Task.osexp","D:/","no","Andale Mono","no","18","no","white","no","yes","576","legacy","15","15","3","D:/subject-5205757.csv","legacy","Lentiform Loewenfeld","3.3.7","yes","yes","600bd7cfb6416f0113b04181","602110864497cf011d9c0822","0","j","NA","return","return","return","NA","j","1514","NA","8504","37814","61241","NA","1514","2","legacy","1024","2","48000","-16","task","5205757","odd","NA","119690","130197","121691","164847","7818","106879","45636","165348","NA","164844","165348","164786","130197","166864","117984","164286","7805","155609","Lexical Decision Task","15","24267","20","yes","1024"
"3.174641193","0","3","ramb","non-word","76.19047619047619","76.19047619047619","1208.904761904762","1208.904761904762","black","no","legacy","legacy","legacy","0","uniform","1","undefined","undefined","undefined","1","f","0","0","0","0","20","0","0","0","20","NA","16","20","16","0","16","3","20","0","20","Wed Feb 17 11:19:06 2021","The main experiment item","yes","Lexical_Decision_Task.osexp","D:/","no","Andale Mono","no","18","no","white","no","yes","576","legacy","16","16","3","D:/subject-5205757.csv","legacy","Lentiform Loewenfeld","3.3.7","yes","yes","600bd7cfb6416f0113b04181","602110864497cf011d9c0822","0","f","NA","return","return","return","NA","f","1120","NA","8504","37814","61241","NA","1120","2","legacy","1024","2","48000","-16","task","5205757","odd","NA","119690","130197","121691","168442","7818","106879","45636","168944","NA","168440","168944","168380","130197","170065","117984","164286","7805","166880","Lexical Decision Task","16","25387","21","yes","1024"
"2.953276337","6.32","4","thaw","word","77.27272727272727","77.27272727272727","1194.909090909091","1194.909090909091","black","no","legacy","legacy","legacy","0","uniform","1","undefined","undefined","undefined","1","j","0","0","0","0","21","0","0","0","21","NA","17","21","17","0","17","3","21","0","21","Wed Feb 17 11:19:06 2021","The main experiment item","yes","Lexical_Decision_Task.osexp","D:/","no","Andale Mono","no","18","no","white","no","yes","576","legacy","17","17","3","D:/subject-5205757.csv","legacy","Lentiform Loewenfeld","3.3.7","yes","yes","600bd7cfb6416f0113b04181","602110864497cf011d9c0822","0","j","NA","return","return","return","NA","j","901","NA","8504","37814","61241","NA","901","2","legacy","1024","2","48000","-16","task","5205757","odd","NA","119690","130197","121691","170632","7818","106879","45636","171135","NA","170631","171135","170574","130197","172037","117984","170074","7805","166880","Lexical Decision Task","17","26288","22","yes","1024"
"2.996511672","0","7","hoil","non-word","78.26086956521739","78.26086956521739","1191.6521739130435","1191.6521739130435","black","no","legacy","legacy","legacy","0","uniform","1","undefined","undefined","undefined","1","f","0","0","0","0","22","0","0","0","22","NA","18","22","18","0","18","3","22","0","22","Wed Feb 17 11:19:06 2021","The main experiment item","yes","Lexical_Decision_Task.osexp","D:/","no","Andale Mono","no","18","no","white","no","yes","576","legacy","18","18","3","D:/subject-5205757.csv","legacy","Lentiform Loewenfeld","3.3.7","yes","yes","600bd7cfb6416f0113b04181","602110864497cf011d9c0822","0","f","NA","return","return","return","NA","f","1120","NA","8504","37814","61241","NA","1120","2","legacy","1024","2","48000","-16","task","5205757","odd","NA","119690","130197","121691","172605","7818","106879","45636","173106","NA","172603","173106","172547","130197","174227","117984","172047","7805","166880","Lexical Decision Task","18","27408","23","yes","1024"
"3.529815197","0","3","lerm","non-word","79.16666666666667","79.16666666666667","1172.9583333333333","1172.9583333333333","black","no","legacy","legacy","legacy","0","uniform","1","undefined","undefined","undefined","1","f","0","0","0","0","23","0","0","0","23","NA","19","23","19","0","19","3","23","0","23","Wed Feb 17 11:19:06 2021","The main experiment item","yes","Lexical_Decision_Task.osexp","D:/","no","Andale Mono","no","18","no","white","no","yes","576","legacy","19","19","3","D:/subject-5205757.csv","legacy","Lentiform Loewenfeld","3.3.7","yes","yes","600bd7cfb6416f0113b04181","602110864497cf011d9c0822","0","f","NA","return","return","return","NA","f","743","NA","8504","37814","61241","NA","743","2","legacy","1024","2","48000","-16","task","5205757","odd","NA","119690","130197","121691","174795","7818","106879","45636","175296","NA","174793","175296","174737","130197","176041","117984","174236","7805","166880","Lexical Decision Task","19","28151","24","yes","1024"
"2.705007959","6.01","4","wept","word","76","76","1199.76","1199.76","black","no","legacy","legacy","legacy","0","uniform","0","undefined","undefined","undefined","0","j","0","0","0","0","24","0","0","0","24","NA","20","24","20","0","20","3","24","0","24","Wed Feb 17 11:19:06 2021","The main experiment item","yes","Lexical_Decision_Task.osexp","D:/","no","Andale Mono","no","18","no","white","no","yes","576","legacy","20","20","3","D:/subject-5205757.csv","legacy","Lentiform Loewenfeld","3.3.7","yes","yes","600bd7cfb6416f0113b04181","602110864497cf011d9c0822","0","f","NA","return","return","return","NA","f","1843","NA","8504","37814","61241","NA","1843","2","legacy","1024","2","48000","-16","task","5205757","odd","NA","119690","130197","121691","176612","7818","106879","45636","177113","NA","176610","177114","176550","130197","178958","117984","176050","7805","166880","Lexical Decision Task","19","29994","25","yes","1024"
"3.119255889","6.63","2","itch","word","76.92307692307692","76.92307692307692","1207.7692307692307","1207.7692307692307","black","no","legacy","legacy","legacy","0","uniform","1","undefined","undefined","undefined","1","j","0","0","0","0","25","0","0","0","25","NA","21","25","21","0","21","3","25","0","25","Wed Feb 17 11:19:06 2021","The main experiment item","yes","Lexical_Decision_Task.osexp","D:/","no","Andale Mono","no","18","no","white","no","yes","576","legacy","21","21","3","D:/subject-5205757.csv","legacy","Lentiform Loewenfeld","3.3.7","yes","yes","600bd7cfb6416f0113b04181","602110864497cf011d9c0822","0","j","NA","return","return","return","NA","j","1408","NA","8504","37814","61241","NA","1408","2","legacy","1024","2","48000","-16","task","5205757","odd","NA","119690","130197","121691","180525","7818","106879","45636","181027","NA","180524","181027","180467","130197","182437","117984","176050","7805","178967","Lexical Decision Task","20","31402","26","yes","1024"
"2.698387659","6.66","7","skid","word","77.77777777777777","77.77777777777777","1187.4814814814815","1187.4814814814815","black","no","legacy","legacy","legacy","0","uniform","1","undefined","undefined","undefined","1","j","0","0","0","0","26","0","0","0","26","NA","22","26","22","0","22","3","26","0","26","Wed Feb 17 11:19:06 2021","The main experiment item","yes","Lexical_Decision_Task.osexp","D:/","no","Andale Mono","no","18","no","white","no","yes","576","legacy","22","22","3","D:/subject-5205757.csv","legacy","Lentiform Loewenfeld","3.3.7","yes","yes","600bd7cfb6416f0113b04181","602110864497cf011d9c0822","0","j","NA","return","return","return","NA","j","660","NA","8504","37814","61241","NA","660","2","legacy","1024","2","48000","-16","task","5205757","odd","NA","119690","130197","121691","183005","7818","106879","45636","183506","NA","183003","183506","182946","130197","184167","117984","182446","7805","178967","Lexical Decision Task","21","32062","27","yes","1024"
"3.195807436","0","6","stup","non-word","75","75","1198.107142857143","1198.107142857143","black","no","legacy","legacy","legacy","0","uniform","0","undefined","undefined","undefined","0","f","0","0","0","0","27","0","0","0","27","NA","23","27","23","0","23","3","27","0","27","Wed Feb 17 11:19:06 2021","The main experiment item","yes","Lexical_Decision_Task.osexp","D:/","no","Andale Mono","no","18","no","white","no","yes","576","legacy","23","23","3","D:/subject-5205757.csv","legacy","Lentiform Loewenfeld","3.3.7","yes","yes","600bd7cfb6416f0113b04181","602110864497cf011d9c0822","0","j","NA","return","return","return","NA","j","1485","NA","8504","37814","61241","NA","1485","2","legacy","1024","2","48000","-16","task","5205757","odd","NA","119690","130197","121691","184731","7818","106879","45636","185233","NA","184728","185234","184672","130197","186719","117984","184172","7805","178967","Lexical Decision Task","21","33547","28","yes","1024"
"3.066077331","0","7","vorn","non-word","75.86206896551724","75.86206896551724","1199.4827586206898","1199.4827586206898","black","no","legacy","legacy","legacy","0","uniform","1","undefined","undefined","undefined","1","f","0","0","0","0","28","0","0","0","28","NA","24","28","24","0","24","3","28","0","28","Wed Feb 17 11:19:06 2021","The main experiment item","yes","Lexical_Decision_Task.osexp","D:/","no","Andale Mono","no","18","no","white","no","yes","576","legacy","24","24","3","D:/subject-5205757.csv","legacy","Lentiform Loewenfeld","3.3.7","yes","yes","600bd7cfb6416f0113b04181","602110864497cf011d9c0822","0","f","NA","return","return","return","NA","f","1238","NA","8504","37814","61241","NA","1238","2","legacy","1024","2","48000","-16","task","5205757","odd","NA","119690","130197","121691","188292","7818","106879","45636","188793","NA","188290","188793","188229","130197","190033","117984","184172","7805","186729","Lexical Decision Task","22","34785","29","yes","1024"
"3.363486562","6.93","9","lush","word","76.66666666666667","76.66666666666667","1212.6666666666667","1212.6666666666667","black","no","legacy","legacy","legacy","0","uniform","1","undefined","undefined","undefined","1","j","0","0","0","0","29","0","0","0","29","NA","25","29","25","0","25","3","29","0","29","Wed Feb 17 11:19:06 2021","The main experiment item","yes","Lexical_Decision_Task.osexp","D:/","no","Andale Mono","no","18","no","white","no","yes","576","legacy","25","25","3","D:/subject-5205757.csv","legacy","Lentiform Loewenfeld","3.3.7","yes","yes","600bd7cfb6416f0113b04181","602110864497cf011d9c0822","0","j","NA","return","return","return","NA","j","1595","NA","8504","37814","61241","NA","1595","2","legacy","1024","2","48000","-16","task","5205757","odd","NA","119690","130197","121691","190603","7818","106879","45636","191105","NA","190602","191106","190543","130197","192701","117984","190043","7805","186729","Lexical Decision Task","23","36380","30","yes","1024"
"3.384413096","10.15","3","glad","word","77.41935483870968","77.41935483870968","1197.516129032258","1197.516129032258","black","no","legacy","legacy","legacy","0","uniform","1","undefined","undefined","undefined","1","j","0","0","0","0","30","0","0","0","30","NA","26","30","26","0","26","3","30","0","30","Wed Feb 17 11:19:06 2021","The main experiment item","yes","Lexical_Decision_Task.osexp","D:/","no","Andale Mono","no","18","no","white","no","yes","576","legacy","26","26","3","D:/subject-5205757.csv","legacy","Lentiform Loewenfeld","3.3.7","yes","yes","600bd7cfb6416f0113b04181","602110864497cf011d9c0822","0","j","NA","return","return","return","NA","j","743","NA","8504","37814","61241","NA","743","2","legacy","1024","2","48000","-16","task","5205757","odd","NA","119690","130197","121691","193271","7818","106879","45636","193773","NA","193270","193773","193212","130197","194517","117984","192712","7805","186729","Lexical Decision Task","24","37123","31","yes","1024"
"2.64476673","0","5","moft","non-word","78.125","78.125","1187.125","1187.125","black","no","legacy","legacy","legacy","0","uniform","1","undefined","undefined","undefined","1","f","0","0","0","0","31","0","0","0","31","NA","27","31","27","0","27","3","31","0","31","Wed Feb 17 11:19:06 2021","The main experiment item","yes","Lexical_Decision_Task.osexp","D:/","no","Andale Mono","no","18","no","white","no","yes","576","legacy","27","27","3","D:/subject-5205757.csv","legacy","Lentiform Loewenfeld","3.3.7","yes","yes","600bd7cfb6416f0113b04181","602110864497cf011d9c0822","0","f","NA","return","return","return","NA","f","865","NA","8504","37814","61241","NA","865","2","legacy","1024","2","48000","-16","task","5205757","odd","NA","119690","130197","121691","195090","7818","106879","45636","195591","NA","195088","195592","195030","130197","196461","117984","194530","7805","186729","Lexical Decision Task","25","37988","32","yes","1024"
"2.80048796","0","8","pife","non-word","78.78787878787878","78.78787878787878","1180.030303030303","1180.030303030303","black","no","legacy","legacy","legacy","0","uniform","1","undefined","undefined","undefined","1","f","0","0","0","0","32","0","0","0","32","NA","28","32","28","0","28","3","32","0","32","Wed Feb 17 11:19:06 2021","The main experiment item","yes","Lexical_Decision_Task.osexp","D:/","no","Andale Mono","no","18","no","white","no","yes","576","legacy","28","28","3","D:/subject-5205757.csv","legacy","Lentiform Loewenfeld","3.3.7","yes","yes","600bd7cfb6416f0113b04181","602110864497cf011d9c0822","0","f","NA","return","return","return","NA","f","953","NA","8504","37814","61241","NA","953","2","legacy","1024","2","48000","-16","task","5205757","odd","NA","119690","130197","121691","197030","7818","106879","45636","197531","NA","197028","197531","196971","130197","198485","117984","196470","7805","186729","Lexical Decision Task","26","38941","33","yes","1024"
"2.6599162","0","6","flug","non-word","76.47058823529412","76.47058823529412","1164.7941176470588","1164.7941176470588","black","no","legacy","legacy","legacy","0","uniform","0","undefined","undefined","undefined","0","f","0","0","0","0","33","0","0","0","33","NA","29","33","29","0","29","3","33","0","33","Wed Feb 17 11:19:06 2021","The main experiment item","yes","Lexical_Decision_Task.osexp","D:/","no","Andale Mono","no","18","no","white","no","yes","576","legacy","29","29","3","D:/subject-5205757.csv","legacy","Lentiform Loewenfeld","3.3.7","yes","yes","600bd7cfb6416f0113b04181","602110864497cf011d9c0822","0","j","NA","return","return","return","NA","j","662","NA","8504","37814","61241","NA","662","2","legacy","1024","2","48000","-16","task","5205757","odd","NA","119690","130197","121691","199052","7818","106879","45636","199555","NA","199051","199555","198995","130197","200218","117984","198495","7805","186729","Lexical Decision Task","26","39603","34","yes","1024"
"3.102203805","7.21","3","drip","word","77.14285714285714","77.14285714285714","1154.2857142857142","1154.2857142857142","black","no","legacy","legacy","legacy","0","uniform","1","undefined","undefined","undefined","1","j","0","0","0","0","34","0","0","0","34","NA","30","34","30","0","30","3","34","0","34","Wed Feb 17 11:19:06 2021","The main experiment item","yes","Lexical_Decision_Task.osexp","D:/","no","Andale Mono","no","18","no","white","no","yes","576","legacy","30","30","3","D:/subject-5205757.csv","legacy","Lentiform Loewenfeld","3.3.7","yes","yes","600bd7cfb6416f0113b04181","602110864497cf011d9c0822","0","j","NA","return","return","return","NA","j","797","NA","8504","37814","61241","NA","797","2","legacy","1024","2","48000","-16","task","5205757","odd","NA","119690","130197","121691","201791","7818","106879","45636","202293","NA","201789","202293","201728","130197","203091","117984","198495","7805","200228","Lexical Decision Task","27","40400","35","yes","1024"
"2.892836167","10.01","5","soft","word","77.77777777777777","77.77777777777777","1141.0277777777778","1141.0277777777778","black","no","legacy","legacy","legacy","0","uniform","1","undefined","undefined","undefined","1","j","0","0","0","0","35","0","0","0","35","NA","31","35","31","0","31","3","35","0","35","Wed Feb 17 11:19:06 2021","The main experiment item","yes","Lexical_Decision_Task.osexp","D:/","no","Andale Mono","no","18","no","white","no","yes","576","legacy","31","31","3","D:/subject-5205757.csv","legacy","Lentiform Loewenfeld","3.3.7","yes","yes","600bd7cfb6416f0113b04181","602110864497cf011d9c0822","0","j","NA","return","return","return","NA","j","677","NA","8504","37814","61241","NA","677","2","legacy","1024","2","48000","-16","task","5205757","odd","NA","119690","130197","121691","203662","7818","106879","45636","204164","NA","203661","204164","203603","130197","204842","117984","203103","7805","200228","Lexical Decision Task","28","41077","36","yes","1024"
"2.68604012","0","4","pumb","non-word","75.67567567567568","75.67567567567568","1141.7027027027027","1141.7027027027027","black","no","legacy","legacy","legacy","0","uniform","0","undefined","undefined","undefined","0","f","0","0","0","0","36","0","0","0","36","NA","32","36","32","0","32","3","36","0","36","Wed Feb 17 11:19:06 2021","The main experiment item","yes","Lexical_Decision_Task.osexp","D:/","no","Andale Mono","no","18","no","white","no","yes","576","legacy","32","32","3","D:/subject-5205757.csv","legacy","Lentiform Loewenfeld","3.3.7","yes","yes","600bd7cfb6416f0113b04181","602110864497cf011d9c0822","0","j","NA","return","return","return","NA","j","1166","NA","8504","37814","61241","NA","1166","2","legacy","1024","2","48000","-16","task","5205757","odd","NA","119690","130197","121691","205411","7818","106879","45636","205912","NA","205409","205912","205352","130197","207080","117984","204852","7805","200228","Lexical Decision Task","28","42243","37","yes","1024"
"3.261341392","5.08","8","reek","word","73.6842105263158","73.6842105263158","1133.421052631579","1133.421052631579","black","no","legacy","legacy","legacy","0","uniform","0","undefined","undefined","undefined","0","j","0","0","0","0","37","0","0","0","37","NA","33","37","33","0","33","3","37","0","37","Wed Feb 17 11:19:06 2021","The main experiment item","yes","Lexical_Decision_Task.osexp","D:/","no","Andale Mono","no","18","no","white","no","yes","576","legacy","33","33","3","D:/subject-5205757.csv","legacy","Lentiform Loewenfeld","3.3.7","yes","yes","600bd7cfb6416f0113b04181","602110864497cf011d9c0822","0","f","NA","return","return","return","NA","f","827","NA","8504","37814","61241","NA","827","2","legacy","1024","2","48000","-16","task","5205757","odd","NA","119690","130197","121691","208646","7818","106879","45636","209147","NA","208645","209147","208589","130197","209975","117984","204852","7805","207089","Lexical Decision Task","28","43070","38","yes","1024"
"3.031408464","0","7","drow","non-word","71.7948717948718","71.7948717948718","1122.2307692307693","1122.2307692307693","black","no","legacy","legacy","legacy","0","uniform","0","undefined","undefined","undefined","0","f","0","0","0","0","38","0","0","0","38","NA","34","38","34","0","34","3","38","0","38","Wed Feb 17 11:19:06 2021","The main experiment item","yes","Lexical_Decision_Task.osexp","D:/","no","Andale Mono","no","18","no","white","no","yes","576","legacy","34","34","3","D:/subject-5205757.csv","legacy","Lentiform Loewenfeld","3.3.7","yes","yes","600bd7cfb6416f0113b04181","602110864497cf011d9c0822","0","j","NA","return","return","return","NA","j","697","NA","8504","37814","61241","NA","697","2","legacy","1024","2","48000","-16","task","5205757","odd","NA","119690","130197","121691","211548","7818","106879","45636","212049","NA","211546","212049","211487","130197","212747","117984","204852","7805","209987","Lexical Decision Task","28","43767","39","yes","1024"
"2.8162413","0","5","nusk","non-word","70","70","1118.875","1118.875","black","no","legacy","legacy","legacy","0","uniform","0","undefined","undefined","undefined","0","f","0","0","0","0","39","0","0","0","39","NA","35","39","35","0","35","3","39","0","39","Wed Feb 17 11:19:06 2021","The main experiment item","yes","Lexical_Decision_Task.osexp","D:/","no","Andale Mono","no","18","no","white","no","yes","576","legacy","35","35","3","D:/subject-5205757.csv","legacy","Lentiform Loewenfeld","3.3.7","yes","yes","600bd7cfb6416f0113b04181","602110864497cf011d9c0822","0","j","NA","return","return","return","NA","j","988","NA","8504","37814","61241","NA","988","2","legacy","1024","2","48000","-16","task","5205757","odd","NA","119690","130197","121691","214314","7818","106879","45636","214816","NA","214312","214816","214256","130197","215805","117984","204852","7805","212755","Lexical Decision Task","28","44755","40","yes","1024"
"2.799799878","0","4","ciff","non-word","70.73170731707317","70.73170731707317","1122.4634146341464","1122.4634146341464","black","no","legacy","legacy","legacy","0","uniform","1","undefined","undefined","undefined","1","f","0","0","0","0","40","0","0","0","40","NA","36","40","36","0","36","3","40","0","40","Wed Feb 17 11:19:06 2021","The main experiment item","yes","Lexical_Decision_Task.osexp","D:/","no","Andale Mono","no","18","no","white","no","yes","576","legacy","36","36","3","D:/subject-5205757.csv","legacy","Lentiform Loewenfeld","3.3.7","yes","yes","600bd7cfb6416f0113b04181","602110864497cf011d9c0822","0","f","NA","return","return","return","NA","f","1266","NA","8504","37814","61241","NA","1266","2","legacy","1024","2","48000","-16","task","5205757","odd","NA","119690","130197","121691","217373","7818","106879","45636","217875","NA","217371","217875","217316","130197","219142","117984","204852","7805","215816","Lexical Decision Task","29","46021","41","yes","1024"
"3.049218023","7.4","9","robe","word","69.04761904761905","69.04761904761905","1167.1666666666667","1167.1666666666667","black","no","legacy","legacy","legacy","0","uniform","0","undefined","undefined","undefined","0","j","0","0","0","0","41","0","0","0","41","NA","37","41","37","0","37","3","41","0","41","Wed Feb 17 11:19:06 2021","The main experiment item","yes","Lexical_Decision_Task.osexp","D:/","no","Andale Mono","no","18","no","white","no","yes","576","legacy","37","37","3","D:/subject-5205757.csv","legacy","Lentiform Loewenfeld","3.3.7","yes","yes","600bd7cfb6416f0113b04181","602110864497cf011d9c0822","0","None","NA","return","return","return","NA","None","3000","NA","8504","37814","61241","NA","3000","2","legacy","1024","2","48000","-16","task","5205757","odd","NA","119690","130197","121691","219712","7818","106879","45636","220213","NA","219710","220213","219651","130197","223213","117984","219151","7805","215816","Lexical Decision Task","29","49021","42","yes","1024"
"2.82129731","6.72","5","plum","word","69.76744186046511","69.76744186046511","1160.4418604651162","1160.4418604651162","black","no","legacy","legacy","legacy","0","uniform","1","undefined","undefined","undefined","1","j","0","0","0","0","42","0","0","0","42","NA","38","42","38","0","38","3","42","0","42","Wed Feb 17 11:19:06 2021","The main experiment item","yes","Lexical_Decision_Task.osexp","D:/","no","Andale Mono","no","18","no","white","no","yes","576","legacy","38","38","3","D:/subject-5205757.csv","legacy","Lentiform Loewenfeld","3.3.7","yes","yes","600bd7cfb6416f0113b04181","602110864497cf011d9c0822","0","j","NA","return","return","return","NA","j","878","NA","8504","37814","61241","NA","878","2","legacy","1024","2","48000","-16","task","5205757","odd","NA","119690","130197","121691","224794","7818","106879","45636","225295","NA","224792","225296","224724","130197","226175","117984","219151","7805","223223","Lexical Decision Task","30","49899","43","yes","1024"
"3.274543461","7.46","7","scar","word","70.45454545454545","70.45454545454545","1176.2954545454545","1176.2954545454545","black","no","legacy","legacy","legacy","0","uniform","1","undefined","undefined","undefined","1","j","0","0","0","0","43","0","0","0","43","NA","39","43","39","0","39","3","43","0","43","Wed Feb 17 11:19:06 2021","The main experiment item","yes","Lexical_Decision_Task.osexp","D:/","no","Andale Mono","no","18","no","white","no","yes","576","legacy","39","39","3","D:/subject-5205757.csv","legacy","Lentiform Loewenfeld","3.3.7","yes","yes","600bd7cfb6416f0113b04181","602110864497cf011d9c0822","0","j","NA","return","return","return","NA","j","1858","NA","8504","37814","61241","NA","1858","2","legacy","1024","2","48000","-16","task","5205757","odd","NA","119690","130197","121691","226743","7818","106879","45636","227245","NA","226741","227245","226685","130197","229103","117984","226185","7805","223223","Lexical Decision Task","31","51757","44","yes","1024"
"2.695770526","7.34","6","pawn","word","71.11111111111111","71.11111111111111","1167.7555555555555","1167.7555555555555","black","no","legacy","legacy","legacy","0","uniform","1","undefined","undefined","undefined","1","j","0","0","0","0","44","0","0","0","44","NA","40","44","40","0","40","3","44","0","44","Wed Feb 17 11:19:06 2021","The main experiment item","yes","Lexical_Decision_Task.osexp","D:/","no","Andale Mono","no","18","no","white","no","yes","576","legacy","40","40","3","D:/subject-5205757.csv","legacy","Lentiform Loewenfeld","3.3.7","yes","yes","600bd7cfb6416f0113b04181","602110864497cf011d9c0822","0","j","NA","return","return","return","NA","j","792","NA","8504","37814","61241","NA","792","2","legacy","1024","2","48000","-16","task","5205757","odd","NA","119690","130197","121691","229672","7818","106879","45636","230173","NA","229671","230173","229613","130197","230965","117984","229113","7805","223223","Lexical Decision Task","32","52549","45","yes","1024"
"2.898725182","0","7","turl","non-word","71.73913043478261","71.73913043478261","1161.0217391304348","1161.0217391304348","black","no","legacy","legacy","legacy","0","uniform","1","undefined","undefined","undefined","1","f","0","0","0","0","45","0","0","0","45","NA","41","45","41","0","41","3","45","0","45","Wed Feb 17 11:19:06 2021","The main experiment item","yes","Lexical_Decision_Task.osexp","D:/","no","Andale Mono","no","18","no","white","no","yes","576","legacy","41","41","3","D:/subject-5205757.csv","legacy","Lentiform Loewenfeld","3.3.7","yes","yes","600bd7cfb6416f0113b04181","602110864497cf011d9c0822","0","f","NA","return","return","return","NA","f","858","NA","8504","37814","61241","NA","858","2","legacy","1024","2","48000","-16","task","5205757","odd","NA","119690","130197","121691","231535","7818","106879","45636","232036","NA","231533","232036","231475","130197","232895","117984","230975","7805","223223","Lexical Decision Task","33","53407","46","yes","1024"
"3.276537627","9.15","5","trap","word","72.34042553191489","72.34042553191489","1191.9148936170213","1191.9148936170213","black","no","legacy","legacy","legacy","0","uniform","1","undefined","undefined","undefined","1","j","0","0","0","0","46","0","0","0","46","NA","42","46","42","0","42","3","46","0","46","Wed Feb 17 11:19:06 2021","The main experiment item","yes","Lexical_Decision_Task.osexp","D:/","no","Andale Mono","no","18","no","white","no","yes","576","legacy","42","42","3","D:/subject-5205757.csv","legacy","Lentiform Loewenfeld","3.3.7","yes","yes","600bd7cfb6416f0113b04181","602110864497cf011d9c0822","0","j","NA","return","return","return","NA","j","2613","NA","8504","37814","61241","NA","2613","2","legacy","1024","2","48000","-16","task","5205757","odd","NA","119690","130197","121691","233465","7818","106879","45636","233967","NA","233463","233967","233406","130197","236581","117984","232906","7805","223223","Lexical Decision Task","34","56020","47","yes","1024"
"3.010582609","0","2","drod","non-word","72.91666666666667","72.91666666666667","1183","1183","black","no","legacy","legacy","legacy","0","uniform","1","undefined","undefined","undefined","1","f","0","0","0","0","47","0","0","0","47","NA","43","47","43","0","43","3","47","0","47","Wed Feb 17 11:19:06 2021","The main experiment item","yes","Lexical_Decision_Task.osexp","D:/","no","Andale Mono","no","18","no","white","no","yes","576","legacy","43","43","3","D:/subject-5205757.csv","legacy","Lentiform Loewenfeld","3.3.7","yes","yes","600bd7cfb6416f0113b04181","602110864497cf011d9c0822","0","f","NA","return","return","return","NA","f","764","NA","8504","37814","61241","NA","764","2","legacy","1024","2","48000","-16","task","5205757","odd","NA","119690","130197","121691","237150","7818","106879","45636","237651","NA","237149","237651","237090","130197","238416","117984","236590","7805","223223","Lexical Decision Task","35","56784","48","yes","1024"
"2.971428938","9.86","7","spot","word","73.46938775510205","73.46938775510205","1172.469387755102","1172.469387755102","black","no","legacy","legacy","legacy","0","uniform","1","undefined","undefined","undefined","1","j","0","0","0","0","48","0","0","0","48","NA","44","48","44","0","44","3","48","0","48","Wed Feb 17 11:19:06 2021","The main experiment item","yes","Lexical_Decision_Task.osexp","D:/","no","Andale Mono","no","18","no","white","no","yes","576","legacy","44","44","3","D:/subject-5205757.csv","legacy","Lentiform Loewenfeld","3.3.7","yes","yes","600bd7cfb6416f0113b04181","602110864497cf011d9c0822","0","j","NA","return","return","return","NA","j","667","NA","8504","37814","61241","NA","667","2","legacy","1024","2","48000","-16","task","5205757","odd","NA","119690","130197","121691","238981","7818","106879","45636","239483","NA","238979","239483","238921","130197","240151","117984","238421","7805","223223","Lexical Decision Task","36","57451","49","yes","1024"
"2.7084209","0","8","vump","non-word","74","74","1179.32","1179.32","black","no","legacy","legacy","legacy","0","uniform","1","undefined","undefined","undefined","1","f","0","0","0","0","49","0","0","0","49","NA","45","49","45","0","45","3","49","0","49","Wed Feb 17 11:19:06 2021","The main experiment item","yes","Lexical_Decision_Task.osexp","D:/","no","Andale Mono","no","18","no","white","no","yes","576","legacy","45","45","3","D:/subject-5205757.csv","legacy","Lentiform Loewenfeld","3.3.7","yes","yes","600bd7cfb6416f0113b04181","602110864497cf011d9c0822","0","f","NA","return","return","return","NA","f","1515","NA","8504","37814","61241","NA","1515","2","legacy","1024","2","48000","-16","task","5205757","odd","NA","119690","130197","121691","240721","7818","106879","45636","241222","NA","240719","241222","240660","130197","242738","117984","240160","7805","223223","Lexical Decision Task","37","58966","50","yes","1024"
"3.378276681","6.39","8","bran","word","72.54901960784314","72.54901960784314","1215.0196078431372","1215.0196078431372","black","no","legacy","legacy","legacy","0","uniform","0","undefined","undefined","undefined","0","j","0","0","0","0","50","0","0","0","50","NA","46","50","46","0","46","3","50","0","50","Wed Feb 17 11:19:06 2021","The main experiment item","yes","Lexical_Decision_Task.osexp","D:/","no","Andale Mono","no","18","no","white","no","yes","576","legacy","46","46","3","D:/subject-5205757.csv","legacy","Lentiform Loewenfeld","3.3.7","yes","yes","600bd7cfb6416f0113b04181","602110864497cf011d9c0822","0","None","NA","return","return","return","NA","None","3000","NA","8504","37814","61241","NA","3000","2","legacy","1024","2","48000","-16","task","5205757","odd","NA","119690","130197","121691","243307","7818","106879","45636","243808","NA","243305","243808","243248","130197","246809","117984","242748","7805","223223","Lexical Decision Task","37","61966","51","yes","1024"
"2.819763221","0","2","durp","non-word","73.07692307692308","73.07692307692308","1208.673076923077","1208.673076923077","black","no","legacy","legacy","legacy","0","uniform","1","undefined","undefined","undefined","1","f","0","0","0","0","51","0","0","0","51","NA","47","51","47","0","47","3","51","0","51","Wed Feb 17 11:19:06 2021","The main experiment item","yes","Lexical_Decision_Task.osexp","D:/","no","Andale Mono","no","18","no","white","no","yes","576","legacy","47","47","3","D:/subject-5205757.csv","legacy","Lentiform Loewenfeld","3.3.7","yes","yes","600bd7cfb6416f0113b04181","602110864497cf011d9c0822","0","f","NA","return","return","return","NA","f","885","NA","8504","37814","61241","NA","885","2","legacy","1024","2","48000","-16","task","5205757","odd","NA","119690","130197","121691","248379","7818","106879","45636","248880","NA","248377","248880","248318","130197","249766","117984","242748","7805","246818","Lexical Decision Task","38","62851","52","yes","1024"
"3.257359335","8","6","brew","word","73.58490566037736","73.58490566037736","1199.2075471698113","1199.2075471698113","black","no","legacy","legacy","legacy","0","uniform","1","undefined","undefined","undefined","1","j","0","0","0","0","52","0","0","0","52","NA","48","52","48","0","48","3","52","0","52","Wed Feb 17 11:19:06 2021","The main experiment item","yes","Lexical_Decision_Task.osexp","D:/","no","Andale Mono","no","18","no","white","no","yes","576","legacy","48","48","3","D:/subject-5205757.csv","legacy","Lentiform Loewenfeld","3.3.7","yes","yes","600bd7cfb6416f0113b04181","602110864497cf011d9c0822","0","j","NA","return","return","return","NA","j","707","NA","8504","37814","61241","NA","707","2","legacy","1024","2","48000","-16","task","5205757","odd","NA","119690","130197","121691","250329","7818","106879","45636","250831","NA","250327","250831","250270","130197","251539","117984","249770","7805","246818","Lexical Decision Task","39","63558","53","yes","1024"
"2.972357144","0","5","dasp","non-word","72.22222222222223","72.22222222222223","1210.7777777777778","1210.7777777777778","black","no","legacy","legacy","legacy","0","uniform","0","undefined","undefined","undefined","0","f","0","0","0","0","53","0","0","0","53","NA","49","53","49","0","49","3","53","0","53","Wed Feb 17 11:19:06 2021","The main experiment item","yes","Lexical_Decision_Task.osexp","D:/","no","Andale Mono","no","18","no","white","no","yes","576","legacy","49","49","3","D:/subject-5205757.csv","legacy","Lentiform Loewenfeld","3.3.7","yes","yes","600bd7cfb6416f0113b04181","602110864497cf011d9c0822","0","j","NA","return","return","return","NA","j","1824","NA","8504","37814","61241","NA","1824","2","legacy","1024","2","48000","-16","task","5205757","odd","NA","119690","130197","121691","252110","7818","106879","45636","252611","NA","252108","252611","252049","130197","254436","117984","251549","7805","246818","Lexical Decision Task","39","65382","54","yes","1024"
"2.744553742","0","2","nawk","non-word","72.72727272727273","72.72727272727273","1200.2363636363636","1200.2363636363636","black","no","legacy","legacy","legacy","0","uniform","1","undefined","undefined","undefined","1","f","0","0","0","0","54","0","0","0","54","0","50","54","50","0","50","3","54","0","54","Wed Feb 17 11:19:06 2021","The main experiment item","yes","Lexical_Decision_Task.osexp","D:/","no","Andale Mono","no","18","no","white","no","yes","576","legacy","50","50","3","D:/subject-5205757.csv","legacy","Lentiform Loewenfeld","3.3.7","yes","yes","600bd7cfb6416f0113b04181","602110864497cf011d9c0822","0","f","NA","return","return","return","j","f","631","NA","8504","37814","61241","7817","631","2","legacy","1024","2","48000","-16","task","5205757","odd","NA","119690","130197","121691","263864","7818","106879","45636","264365","255985","263862","264366","255946","130197","264998","117984","251549","7805","254446","Lexical Decision Task","40","66013","55","yes","1024"
"3.303771854","0","9","dath","non-word","71.42857142857143","71.42857142857143","1205.267857142857","1205.267857142857","black","no","legacy","legacy","legacy","0","uniform","0","undefined","undefined","undefined","0","f","0","0","0","0","55","0","0","0","55","0","51","55","51","0","51","3","55","0","55","Wed Feb 17 11:19:06 2021","The main experiment item","yes","Lexical_Decision_Task.osexp","D:/","no","Andale Mono","no","18","no","white","no","yes","576","legacy","51","51","3","D:/subject-5205757.csv","legacy","Lentiform Loewenfeld","3.3.7","yes","yes","600bd7cfb6416f0113b04181","602110864497cf011d9c0822","0","j","NA","return","return","return","j","j","1482","NA","8504","37814","61241","7817","1482","2","legacy","1024","2","48000","-16","task","5205757","odd","NA","119690","130197","121691","265564","7818","106879","45636","266066","255985","265562","266066","265507","130197","267550","117984","265007","7805","254446","Lexical Decision Task","40","67495","56","yes","1024"
"2.696356389","0","1","pizz","non-word","71.9298245614035","71.9298245614035","1197.982456140351","1197.982456140351","black","no","legacy","legacy","legacy","0","uniform","1","undefined","undefined","undefined","1","f","0","0","0","0","56","0","0","0","56","0","52","56","52","0","52","3","56","0","56","Wed Feb 17 11:19:06 2021","The main experiment item","yes","Lexical_Decision_Task.osexp","D:/","no","Andale Mono","no","18","no","white","no","yes","576","legacy","52","52","3","D:/subject-5205757.csv","legacy","Lentiform Loewenfeld","3.3.7","yes","yes","600bd7cfb6416f0113b04181","602110864497cf011d9c0822","0","f","NA","return","return","return","j","f","790","NA","8504","37814","61241","7817","790","2","legacy","1024","2","48000","-16","task","5205757","odd","NA","119690","130197","121691","269116","7818","106879","45636","269617","255985","269114","269617","269055","130197","270408","117984","265007","7805","267555","Lexical Decision Task","41","68285","57","yes","1024"
"3.168890155","0","6","thet","non-word","72.41379310344827","72.41379310344827","1193.5","1193.5","black","no","legacy","legacy","legacy","0","uniform","1","undefined","undefined","undefined","1","f","0","0","0","0","57","0","0","0","57","0","53","57","53","0","53","3","57","0","57","Wed Feb 17 11:19:06 2021","The main experiment item","yes","Lexical_Decision_Task.osexp","D:/","no","Andale Mono","no","18","no","white","no","yes","576","legacy","53","53","3","D:/subject-5205757.csv","legacy","Lentiform Loewenfeld","3.3.7","yes","yes","600bd7cfb6416f0113b04181","602110864497cf011d9c0822","0","f","NA","return","return","return","j","f","938","NA","8504","37814","61241","7817","938","2","legacy","1024","2","48000","-16","task","5205757","odd","NA","119690","130197","121691","270976","7818","106879","45636","271477","255985","270974","271477","270919","130197","272417","117984","270419","7805","267555","Lexical Decision Task","42","69223","58","yes","1024"
"3.705778213","0","6","stin","non-word","72.88135593220339","72.88135593220339","1186.1864406779662","1186.1864406779662","black","no","legacy","legacy","legacy","0","uniform","1","undefined","undefined","undefined","1","f","0","0","0","0","58","0","0","0","58","0","54","58","54","0","54","3","58","0","58","Wed Feb 17 11:19:06 2021","The main experiment item","yes","Lexical_Decision_Task.osexp","D:/","no","Andale Mono","no","18","no","white","no","yes","576","legacy","54","54","3","D:/subject-5205757.csv","legacy","Lentiform Loewenfeld","3.3.7","yes","yes","600bd7cfb6416f0113b04181","602110864497cf011d9c0822","0","f","NA","return","return","return","j","f","762","NA","8504","37814","61241","7817","762","2","legacy","1024","2","48000","-16","task","5205757","odd","NA","119690","130197","121691","272988","7818","106879","45636","273489","255985","272986","273489","272927","130197","274252","117984","272427","7805","267555","Lexical Decision Task","43","69985","59","yes","1024"
"3.372543801","9.24","8","coat","word","73.33333333333333","73.33333333333333","1176.8833333333334","1176.8833333333334","black","no","legacy","legacy","legacy","0","uniform","1","undefined","undefined","undefined","1","j","0","0","0","0","59","0","0","0","59","0","55","59","55","0","55","3","59","0","59","Wed Feb 17 11:19:06 2021","The main experiment item","yes","Lexical_Decision_Task.osexp","D:/","no","Andale Mono","no","18","no","white","no","yes","576","legacy","55","55","3","D:/subject-5205757.csv","legacy","Lentiform Loewenfeld","3.3.7","yes","yes","600bd7cfb6416f0113b04181","602110864497cf011d9c0822","0","j","NA","return","return","return","j","j","628","NA","8504","37814","61241","7817","628","2","legacy","1024","2","48000","-16","task","5205757","odd","NA","119690","130197","121691","274827","7818","106879","45636","275328","255985","274826","275328","274767","130197","275958","117984","274267","7805","267555","Lexical Decision Task","44","70613","60","yes","1024"
"3.131833513","7.66","4","limb","word","73.77049180327869","73.77049180327869","1169.032786885246","1169.032786885246","black","no","legacy","legacy","legacy","0","uniform","1","undefined","undefined","undefined","1","j","0","0","0","0","60","0","0","0","60","0","56","60","56","0","56","3","60","0","60","Wed Feb 17 11:19:06 2021","The main experiment item","yes","Lexical_Decision_Task.osexp","D:/","no","Andale Mono","no","18","no","white","no","yes","576","legacy","56","56","3","D:/subject-5205757.csv","legacy","Lentiform Loewenfeld","3.3.7","yes","yes","600bd7cfb6416f0113b04181","602110864497cf011d9c0822","0","j","NA","return","return","return","j","j","698","NA","8504","37814","61241","7817","698","2","legacy","1024","2","48000","-16","task","5205757","odd","NA","119690","130197","121691","276527","7818","106879","45636","277028","255985","276526","277028","276468","130197","277727","117984","275968","7805","267555","Lexical Decision Task","45","71311","61","yes","1024"
"3.492014979","0","9","yine","non-word","74.19354838709677","74.19354838709677","1162.0806451612902","1162.0806451612902","black","no","legacy","legacy","legacy","0","uniform","1","undefined","undefined","undefined","1","f","0","0","0","0","61","0","0","0","61","0","57","61","57","0","57","3","61","0","61","Wed Feb 17 11:19:06 2021","The main experiment item","yes","Lexical_Decision_Task.osexp","D:/","no","Andale Mono","no","18","no","white","no","yes","576","legacy","57","57","3","D:/subject-5205757.csv","legacy","Lentiform Loewenfeld","3.3.7","yes","yes","600bd7cfb6416f0113b04181","602110864497cf011d9c0822","0","f","NA","return","return","return","j","f","738","NA","8504","37814","61241","7817","738","2","legacy","1024","2","48000","-16","task","5205757","odd","NA","119690","130197","121691","278298","7818","106879","45636","278799","255985","278294","278799","278237","130197","279539","117984","277737","7805","267555","Lexical Decision Task","46","72049","62","yes","1024"
"2.576725172","0","8","gowl","non-word","73.01587301587301","73.01587301587301","1158.2380952380952","1158.2380952380952","black","no","legacy","legacy","legacy","0","uniform","0","undefined","undefined","undefined","0","f","0","0","0","0","62","0","0","0","62","0","58","62","58","0","58","3","62","0","62","Wed Feb 17 11:19:06 2021","The main experiment item","yes","Lexical_Decision_Task.osexp","D:/","no","Andale Mono","no","18","no","white","no","yes","576","legacy","58","58","3","D:/subject-5205757.csv","legacy","Lentiform Loewenfeld","3.3.7","yes","yes","600bd7cfb6416f0113b04181","602110864497cf011d9c0822","0","j","NA","return","return","return","j","j","920","NA","8504","37814","61241","7817","920","2","legacy","1024","2","48000","-16","task","5205757","odd","NA","119690","130197","121691","280105","7818","106879","45636","280606","255985","280103","280606","280048","130197","281528","117984","279548","7805","267555","Lexical Decision Task","46","72969","63","yes","1024"
"2.9737419","7.69","7","claw","word","73.4375","73.4375","1150.03125","1150.03125","black","no","legacy","legacy","legacy","0","uniform","1","undefined","undefined","undefined","1","j","0","0","0","0","63","0","0","0","63","0","59","63","59","0","59","3","63","0","63","Wed Feb 17 11:19:06 2021","The main experiment item","yes","Lexical_Decision_Task.osexp","D:/","no","Andale Mono","no","18","no","white","no","yes","576","legacy","59","59","3","D:/subject-5205757.csv","legacy","Lentiform Loewenfeld","3.3.7","yes","yes","600bd7cfb6416f0113b04181","602110864497cf011d9c0822","0","j","NA","return","return","return","j","j","633","NA","8504","37814","61241","7817","633","2","legacy","1024","2","48000","-16","task","5205757","odd","NA","119690","130197","121691","283101","7818","106879","45636","283602","255985","283100","283602","283040","130197","284237","117984","279548","7805","281540","Lexical Decision Task","47","73602","64","yes","1024"
"3.368162872","0","4","ferk","non-word","73.84615384615384","73.84615384615384","1144.9076923076923","1144.9076923076923","black","no","legacy","legacy","legacy","0","uniform","1","undefined","undefined","undefined","1","f","0","0","0","0","64","0","0","0","64","0","60","64","60","0","60","3","64","0","64","Wed Feb 17 11:19:06 2021","The main experiment item","yes","Lexical_Decision_Task.osexp","D:/","no","Andale Mono","no","18","no","white","no","yes","576","legacy","60","60","3","D:/subject-5205757.csv","legacy","Lentiform Loewenfeld","3.3.7","yes","yes","600bd7cfb6416f0113b04181","602110864497cf011d9c0822","0","f","NA","return","return","return","j","f","817","NA","8504","37814","61241","7817","817","2","legacy","1024","2","48000","-16","task","5205757","odd","NA","119690","130197","121691","284806","7818","106879","45636","285307","255985","284804","285307","284748","130197","286125","117984","284247","7805","281540","Lexical Decision Task","48","74419","65","yes","1024"
"3.29439347","8.6","9","wand","word","72.72727272727273","72.72727272727273","1141.621212121212","1141.621212121212","black","no","legacy","legacy","legacy","0","uniform","0","undefined","undefined","undefined","0","j","0","0","0","0","65","0","0","0","65","0","61","65","61","0","61","3","65","0","65","Wed Feb 17 11:19:06 2021","The main experiment item","yes","Lexical_Decision_Task.osexp","D:/","no","Andale Mono","no","18","no","white","no","yes","576","legacy","61","61","3","D:/subject-5205757.csv","legacy","Lentiform Loewenfeld","3.3.7","yes","yes","600bd7cfb6416f0113b04181","602110864497cf011d9c0822","0","f","NA","return","return","return","j","f","928","NA","8504","37814","61241","7817","928","2","legacy","1024","2","48000","-16","task","5205757","odd","NA","119690","130197","121691","286699","7818","106879","45636","287200","255985","286695","287200","286637","130197","288129","117984","286137","7805","281540","Lexical Decision Task","48","75347","66","yes","1024"
"3.218535505","7.85","7","goat","word","73.13432835820896","73.13432835820896","1134.8507462686566","1134.8507462686566","black","no","legacy","legacy","legacy","0","uniform","1","undefined","undefined","undefined","1","j","0","0","0","0","66","0","0","0","66","0","62","66","62","0","62","3","66","0","66","Wed Feb 17 11:19:06 2021","The main experiment item","yes","Lexical_Decision_Task.osexp","D:/","no","Andale Mono","no","18","no","white","no","yes","576","legacy","62","62","3","D:/subject-5205757.csv","legacy","Lentiform Loewenfeld","3.3.7","yes","yes","600bd7cfb6416f0113b04181","602110864497cf011d9c0822","0","j","NA","return","return","return","j","j","688","NA","8504","37814","61241","7817","688","2","legacy","1024","2","48000","-16","task","5205757","odd","NA","119690","130197","121691","289699","7818","106879","45636","290200","255985","289697","290200","289639","130197","290889","117984","286137","7805","288139","Lexical Decision Task","49","76035","67","yes","1024"
"2.755364069","7.72","2","hoax","word","73.52941176470588","73.52941176470588","1132.5882352941176","1132.5882352941176","black","no","legacy","legacy","legacy","0","uniform","1","undefined","undefined","undefined","1","j","0","0","0","0","67","0","0","0","67","0","63","67","63","0","63","3","67","0","67","Wed Feb 17 11:19:06 2021","The main experiment item","yes","Lexical_Decision_Task.osexp","D:/","no","Andale Mono","no","18","no","white","no","yes","576","legacy","63","63","3","D:/subject-5205757.csv","legacy","Lentiform Loewenfeld","3.3.7","yes","yes","600bd7cfb6416f0113b04181","602110864497cf011d9c0822","0","j","NA","return","return","return","j","j","981","NA","8504","37814","61241","7817","981","2","legacy","1024","2","48000","-16","task","5205757","odd","NA","119690","130197","121691","291455","7818","106879","45636","291958","255985","291455","291958","291398","130197","292940","117984","290898","7805","288139","Lexical Decision Task","50","77016","68","yes","1024"
"3.347850856","10.51","2","rich","word","73.91304347826087","73.91304347826087","1126.231884057971","1126.231884057971","black","no","legacy","legacy","legacy","0","uniform","1","undefined","undefined","undefined","1","j","0","0","0","0","68","0","0","0","68","0","64","68","64","0","64","3","68","0","68","Wed Feb 17 11:19:06 2021","The main experiment item","yes","Lexical_Decision_Task.osexp","D:/","no","Andale Mono","no","18","no","white","no","yes","576","legacy","64","64","3","D:/subject-5205757.csv","legacy","Lentiform Loewenfeld","3.3.7","yes","yes","600bd7cfb6416f0113b04181","602110864497cf011d9c0822","0","j","NA","return","return","return","j","j","694","NA","8504","37814","61241","7817","694","2","legacy","1024","2","48000","-16","task","5205757","odd","NA","119690","130197","121691","293523","7818","106879","45636","294025","255985","293519","294025","293449","130197","294721","117984","292949","7805","288139","Lexical Decision Task","51","77710","69","yes","1024"
"3.105055783","0","2","norp","non-word","72.85714285714286","72.85714285714286","1153","1153","black","no","legacy","legacy","legacy","0","uniform","0","undefined","undefined","undefined","0","f","0","0","0","0","69","0","0","0","69","0","65","69","65","0","65","3","69","0","69","Wed Feb 17 11:19:06 2021","The main experiment item","yes","Lexical_Decision_Task.osexp","D:/","no","Andale Mono","no","18","no","white","no","yes","576","legacy","65","65","3","D:/subject-5205757.csv","legacy","Lentiform Loewenfeld","3.3.7","yes","yes","600bd7cfb6416f0113b04181","602110864497cf011d9c0822","0","None","NA","return","return","return","j","None","3000","NA","8504","37814","61241","7817","3000","2","legacy","1024","2","48000","-16","task","5205757","odd","NA","119690","130197","121691","295291","7818","106879","45636","295792","255985","295290","295792","295230","130197","298792","117984","294730","7805","288139","Lexical Decision Task","51","80710","70","yes","1024"
"2.880623071","0","9","curp","non-word","71.83098591549296","71.83098591549296","1148.3239436619717","1148.3239436619717","black","no","legacy","legacy","legacy","0","uniform","0","undefined","undefined","undefined","0","f","0","0","0","0","70","0","0","0","70","0","66","70","66","0","66","3","70","0","70","Wed Feb 17 11:19:06 2021","The main experiment item","yes","Lexical_Decision_Task.osexp","D:/","no","Andale Mono","no","18","no","white","no","yes","576","legacy","66","66","3","D:/subject-5205757.csv","legacy","Lentiform Loewenfeld","3.3.7","yes","yes","600bd7cfb6416f0113b04181","602110864497cf011d9c0822","0","j","NA","return","return","return","j","j","821","NA","8504","37814","61241","7817","821","2","legacy","1024","2","48000","-16","task","5205757","odd","NA","119690","130197","121691","300359","7818","106879","45636","300860","255985","300358","300860","300301","130197","301682","117984","294730","7805","298801","Lexical Decision Task","51","81531","71","yes","1024"
"3.230789326","5.38","5","prim","word","70.83333333333333","70.83333333333333","1147.9027777777778","1147.9027777777778","black","no","legacy","legacy","legacy","0","uniform","0","undefined","undefined","undefined","0","j","0","0","0","0","71","0","0","0","71","0","67","71","67","0","67","3","71","0","71","Wed Feb 17 11:19:06 2021","The main experiment item","yes","Lexical_Decision_Task.osexp","D:/","no","Andale Mono","no","18","no","white","no","yes","576","legacy","67","67","3","D:/subject-5205757.csv","legacy","Lentiform Loewenfeld","3.3.7","yes","yes","600bd7cfb6416f0113b04181","602110864497cf011d9c0822","0","f","NA","return","return","return","j","f","1118","NA","8504","37814","61241","7817","1118","2","legacy","1024","2","48000","-16","task","5205757","odd","NA","119690","130197","121691","303252","7818","106879","45636","303753","255985","303251","303754","303191","130197","304873","117984","294730","7805","301691","Lexical Decision Task","51","82649","72","yes","1024"
"3.16326079","0","5","parg","non-word","71.23287671232876","71.23287671232876","1144.5616438356165","1144.5616438356165","black","no","legacy","legacy","legacy","0","uniform","1","undefined","undefined","undefined","1","f","0","0","0","0","72","0","0","0","72","0","68","72","68","0","68","3","72","0","72","Wed Feb 17 11:19:06 2021","The main experiment item","yes","Lexical_Decision_Task.osexp","D:/","no","Andale Mono","no","18","no","white","no","yes","576","legacy","68","68","3","D:/subject-5205757.csv","legacy","Lentiform Loewenfeld","3.3.7","yes","yes","600bd7cfb6416f0113b04181","602110864497cf011d9c0822","0","f","NA","return","return","return","j","f","904","NA","8504","37814","61241","7817","904","2","legacy","1024","2","48000","-16","task","5205757","odd","NA","119690","130197","121691","306444","7818","106879","45636","306945","255985","306442","306945","306383","130197","307850","117984","294730","7805","304883","Lexical Decision Task","52","83553","73","yes","1024"
"3.197740804","6.74","3","ache","word","71.62162162162163","71.62162162162163","1153.1216216216217","1153.1216216216217","black","no","legacy","legacy","legacy","0","uniform","1","undefined","undefined","undefined","1","j","0","0","0","0","73","0","0","0","73","0","69","73","69","0","69","3","73","0","73","Wed Feb 17 11:19:06 2021","The main experiment item","yes","Lexical_Decision_Task.osexp","D:/","no","Andale Mono","no","18","no","white","no","yes","576","legacy","69","69","3","D:/subject-5205757.csv","legacy","Lentiform Loewenfeld","3.3.7","yes","yes","600bd7cfb6416f0113b04181","602110864497cf011d9c0822","0","j","NA","return","return","return","j","j","1778","NA","8504","37814","61241","7817","1778","2","legacy","1024","2","48000","-16","task","5205757","odd","NA","119690","130197","121691","308423","7818","106879","45636","308925","255985","308422","308925","308361","130197","310703","117984","307860","7805","304883","Lexical Decision Task","53","85331","74","yes","1024"
"2.664011697","8.19","4","hawk","word","72","72","1155.7066666666667","1155.7066666666667","black","no","legacy","legacy","legacy","0","uniform","1","undefined","undefined","undefined","1","j","0","0","0","0","74","0","0","0","74","0","70","74","70","0","70","3","74","0","74","Wed Feb 17 11:19:06 2021","The main experiment item","yes","Lexical_Decision_Task.osexp","D:/","no","Andale Mono","no","18","no","white","no","yes","576","legacy","70","70","3","D:/subject-5205757.csv","legacy","Lentiform Loewenfeld","3.3.7","yes","yes","600bd7cfb6416f0113b04181","602110864497cf011d9c0822","0","j","NA","return","return","return","j","j","1347","NA","8504","37814","61241","7817","1347","2","legacy","1024","2","48000","-16","task","5205757","odd","NA","119690","130197","121691","311273","7818","106879","45636","311774","255985","311271","311774","311214","130197","313122","117984","310714","7805","304883","Lexical Decision Task","54","86678","75","yes","1024"
"2.814027728","8.2","4","foam","word","72.36842105263158","72.36842105263158","1153.3815789473683","1153.3815789473683","black","no","legacy","legacy","legacy","0","uniform","1","undefined","undefined","undefined","1","j","0","0","0","0","75","0","0","0","75","0","71","75","71","0","71","3","75","0","75","Wed Feb 17 11:19:06 2021","The main experiment item","yes","Lexical_Decision_Task.osexp","D:/","no","Andale Mono","no","18","no","white","no","yes","576","legacy","71","71","3","D:/subject-5205757.csv","legacy","Lentiform Loewenfeld","3.3.7","yes","yes","600bd7cfb6416f0113b04181","602110864497cf011d9c0822","0","j","NA","return","return","return","j","j","979","NA","8504","37814","61241","7817","979","2","legacy","1024","2","48000","-16","task","5205757","odd","NA","119690","130197","121691","313690","7818","106879","45636","314190","255985","313688","314190","313632","130197","315170","117984","313132","7805","304883","Lexical Decision Task","55","87657","76","yes","1024"
"3.302475237","0","7","leel","non-word","71.42857142857143","71.42857142857143","1160.5194805194806","1160.5194805194806","black","no","legacy","legacy","legacy","0","uniform","0","undefined","undefined","undefined","0","f","0","0","0","0","76","0","0","0","76","0","72","76","72","0","72","3","76","0","76","Wed Feb 17 11:19:06 2021","The main experiment item","yes","Lexical_Decision_Task.osexp","D:/","no","Andale Mono","no","18","no","white","no","yes","576","legacy","72","72","3","D:/subject-5205757.csv","legacy","Lentiform Loewenfeld","3.3.7","yes","yes","600bd7cfb6416f0113b04181","602110864497cf011d9c0822","0","j","NA","return","return","return","j","j","1703","NA","8504","37814","61241","7817","1703","2","legacy","1024","2","48000","-16","task","5205757","odd","NA","119690","130197","121691","315742","7818","106879","45636","316244","255985","315739","316244","315680","130197","317947","117984","315180","7805","304883","Lexical Decision Task","55","89360","77","yes","1024"
"2.746890964","9.67","3","plug","word","71.7948717948718","71.7948717948718","1154.9358974358975","1154.9358974358975","black","no","legacy","legacy","legacy","0","uniform","1","undefined","undefined","undefined","1","j","0","0","0","0","77","0","0","0","77","0","73","77","73","0","73","3","77","0","77","Wed Feb 17 11:19:06 2021","The main experiment item","yes","Lexical_Decision_Task.osexp","D:/","no","Andale Mono","no","18","no","white","no","yes","576","legacy","73","73","3","D:/subject-5205757.csv","legacy","Lentiform Loewenfeld","3.3.7","yes","yes","600bd7cfb6416f0113b04181","602110864497cf011d9c0822","0","j","NA","return","return","return","j","j","725","NA","8504","37814","61241","7817","725","2","legacy","1024","2","48000","-16","task","5205757","odd","NA","119690","130197","121691","319512","7818","106879","45636","320014","255985","319511","320014","319454","130197","320740","117984","315180","7805","317953","Lexical Decision Task","56","90085","78","yes","1024"
"3.159867847","5.98","5","brim","word","70.88607594936708","70.88607594936708","1175.4430379746836","1175.4430379746836","black","no","legacy","legacy","legacy","0","uniform","0","undefined","undefined","undefined","0","j","0","0","0","0","78","0","0","0","78","0","74","78","74","0","74","3","78","0","78","Wed Feb 17 11:19:06 2021","The main experiment item","yes","Lexical_Decision_Task.osexp","D:/","no","Andale Mono","no","18","no","white","no","yes","576","legacy","74","74","3","D:/subject-5205757.csv","legacy","Lentiform Loewenfeld","3.3.7","yes","yes","600bd7cfb6416f0113b04181","602110864497cf011d9c0822","0","f","NA","return","return","return","j","f","2775","NA","8504","37814","61241","7817","2775","2","legacy","1024","2","48000","-16","task","5205757","odd","NA","119690","130197","121691","321309","7818","106879","45636","321810","255985","321307","321810","321249","130197","324586","117984","320749","7805","317953","Lexical Decision Task","56","92860","79","yes","1024"
"2.67699827","0","6","hulf","non-word","70","70","1182.225","1182.225","black","no","legacy","legacy","legacy","0","uniform","0","undefined","undefined","undefined","0","f","0","0","0","0","79","0","0","0","79","0","75","79","75","0","75","3","79","0","79","Wed Feb 17 11:19:06 2021","The main experiment item","yes","Lexical_Decision_Task.osexp","D:/","no","Andale Mono","no","18","no","white","no","yes","576","legacy","75","75","3","D:/subject-5205757.csv","legacy","Lentiform Loewenfeld","3.3.7","yes","yes","600bd7cfb6416f0113b04181","602110864497cf011d9c0822","0","j","NA","return","return","return","j","j","1718","NA","8504","37814","61241","7817","1718","2","legacy","1024","2","48000","-16","task","5205757","odd","NA","119690","130197","121691","326154","7818","106879","45636","326656","255985","326152","326656","326096","130197","328375","117984","320749","7805","324596","Lexical Decision Task","56","94578","80","yes","1024"
"3.137775856","7.39","5","comb","word","70.37037037037037","70.37037037037037","1176.8395061728395","1176.8395061728395","black","no","legacy","legacy","legacy","0","uniform","1","undefined","undefined","undefined","1","j","0","0","0","0","80","0","0","0","80","0","76","80","76","0","76","3","80","0","80","Wed Feb 17 11:19:06 2021","The main experiment item","yes","Lexical_Decision_Task.osexp","D:/","no","Andale Mono","no","18","no","white","no","yes","576","legacy","76","76","3","D:/subject-5205757.csv","legacy","Lentiform Loewenfeld","3.3.7","yes","yes","600bd7cfb6416f0113b04181","602110864497cf011d9c0822","0","j","NA","return","return","return","j","j","746","NA","8504","37814","61241","7817","746","2","legacy","1024","2","48000","-16","task","5205757","odd","NA","119690","130197","121691","329945","7818","106879","45636","330447","255985","329943","330447","329885","130197","331194","117984","320749","7805","328385","Lexical Decision Task","57","95324","81","yes","1024"
"2.972819734","0","4","scew","non-word","69.51219512195122","69.51219512195122","1172.1097560975609","1172.1097560975609","black","no","legacy","legacy","legacy","0","uniform","0","undefined","undefined","undefined","0","f","0","0","0","0","81","0","0","0","81","0","77","81","77","0","77","3","81","0","81","Wed Feb 17 11:19:06 2021","The main experiment item","yes","Lexical_Decision_Task.osexp","D:/","no","Andale Mono","no","18","no","white","no","yes","576","legacy","77","77","3","D:/subject-5205757.csv","legacy","Lentiform Loewenfeld","3.3.7","yes","yes","600bd7cfb6416f0113b04181","602110864497cf011d9c0822","0","j","NA","return","return","return","j","j","789","NA","8504","37814","61241","7817","789","2","legacy","1024","2","48000","-16","task","5205757","odd","NA","119690","130197","121691","331757","7818","106879","45636","332258","255985","331755","332258","331698","130197","333048","117984","331198","7805","328385","Lexical Decision Task","57","96113","82","yes","1024"
"3.274157849","0","8","leet","non-word","69.87951807228916","69.87951807228916","1167.4096385542168","1167.4096385542168","black","no","legacy","legacy","legacy","0","uniform","1","undefined","undefined","undefined","1","f","0","0","0","0","82","0","0","0","82","0","78","82","78","0","78","3","82","0","82","Wed Feb 17 11:19:06 2021","The main experiment item","yes","Lexical_Decision_Task.osexp","D:/","no","Andale Mono","no","18","no","white","no","yes","576","legacy","78","78","3","D:/subject-5205757.csv","legacy","Lentiform Loewenfeld","3.3.7","yes","yes","600bd7cfb6416f0113b04181","602110864497cf011d9c0822","0","f","NA","return","return","return","j","f","782","NA","8504","37814","61241","7817","782","2","legacy","1024","2","48000","-16","task","5205757","odd","NA","119690","130197","121691","334615","7818","106879","45636","335116","255985","334613","335116","334558","130197","335899","117984","331198","7805","333058","Lexical Decision Task","58","96895","83","yes","1024"
"3.316948329","0","1","besc","non-word","70.23809523809524","70.23809523809524","1161.3690476190477","1161.3690476190477","black","no","legacy","legacy","legacy","0","uniform","1","undefined","undefined","undefined","1","f","0","0","0","0","83","0","0","0","83","0","79","83","79","0","79","3","83","0","83","Wed Feb 17 11:19:06 2021","The main experiment item","yes","Lexical_Decision_Task.osexp","D:/","no","Andale Mono","no","18","no","white","no","yes","576","legacy","79","79","3","D:/subject-5205757.csv","legacy","Lentiform Loewenfeld","3.3.7","yes","yes","600bd7cfb6416f0113b04181","602110864497cf011d9c0822","0","f","NA","return","return","return","j","f","660","NA","8504","37814","61241","7817","660","2","legacy","1024","2","48000","-16","task","5205757","odd","NA","119690","130197","121691","336468","7818","106879","45636","336969","255985","336466","336969","336409","130197","337629","117984","335909","7805","333058","Lexical Decision Task","59","97555","84","yes","1024"
"2.713490543","0","3","feps","non-word","70.58823529411765","70.58823529411765","1156.2117647058824","1156.2117647058824","black","no","legacy","legacy","legacy","0","uniform","1","undefined","undefined","undefined","1","f","0","0","0","0","84","0","0","0","84","0","80","84","80","0","80","3","84","0","84","Wed Feb 17 11:19:06 2021","The main experiment item","yes","Lexical_Decision_Task.osexp","D:/","no","Andale Mono","no","18","no","white","no","yes","576","legacy","80","80","3","D:/subject-5205757.csv","legacy","Lentiform Loewenfeld","3.3.7","yes","yes","600bd7cfb6416f0113b04181","602110864497cf011d9c0822","0","f","NA","return","return","return","j","f","723","NA","8504","37814","61241","7817","723","2","legacy","1024","2","48000","-16","task","5205757","odd","NA","119690","130197","121691","338197","7818","106879","45636","338698","255985","338196","338698","338139","130197","339422","117984","337639","7805","333058","Lexical Decision Task","60","98278","85","yes","1024"
"3.481012421","8.34","5","teen","word","70.93023255813954","70.93023255813954","1153.8720930232557","1153.8720930232557","black","no","legacy","legacy","legacy","0","uniform","1","undefined","undefined","undefined","1","j","0","0","0","0","85","0","0","0","85","0","81","85","81","0","81","3","85","0","85","Wed Feb 17 11:19:06 2021","The main experiment item","yes","Lexical_Decision_Task.osexp","D:/","no","Andale Mono","no","18","no","white","no","yes","576","legacy","81","81","3","D:/subject-5205757.csv","legacy","Lentiform Loewenfeld","3.3.7","yes","yes","600bd7cfb6416f0113b04181","602110864497cf011d9c0822","0","j","NA","return","return","return","j","j","955","NA","8504","37814","61241","7817","955","2","legacy","1024","2","48000","-16","task","5205757","odd","NA","119690","130197","121691","339986","7818","106879","45636","340487","255985","339982","340487","339926","130197","341444","117984","339426","7805","333058","Lexical Decision Task","61","99233","86","yes","1024"
"3.208978517","10.33","4","fish","word","71.26436781609195","71.26436781609195","1147.6091954022988","1147.6091954022988","black","no","legacy","legacy","legacy","0","uniform","1","undefined","undefined","undefined","1","j","0","0","0","0","86","0","0","0","86","0","82","86","82","0","82","3","86","0","86","Wed Feb 17 11:19:06 2021","The main experiment item","yes","Lexical_Decision_Task.osexp","D:/","no","Andale Mono","no","18","no","white","no","yes","576","legacy","82","82","3","D:/subject-5205757.csv","legacy","Lentiform Loewenfeld","3.3.7","yes","yes","600bd7cfb6416f0113b04181","602110864497cf011d9c0822","0","j","NA","return","return","return","j","j","609","NA","8504","37814","61241","7817","609","2","legacy","1024","2","48000","-16","task","5205757","odd","NA","119690","130197","121691","342018","7818","106879","45636","342519","255985","342013","342519","341955","130197","343129","117984","341455","7805","333058","Lexical Decision Task","62","99842","87","yes","1024"
"3.374198258","0","8","vist","non-word","70.45454545454545","70.45454545454545","1141.6477272727273","1141.6477272727273","black","no","legacy","legacy","legacy","0","uniform","0","undefined","undefined","undefined","0","f","0","0","0","0","87","0","0","0","87","0","83","87","83","0","83","3","87","0","87","Wed Feb 17 11:19:06 2021","The main experiment item","yes","Lexical_Decision_Task.osexp","D:/","no","Andale Mono","no","18","no","white","no","yes","576","legacy","83","83","3","D:/subject-5205757.csv","legacy","Lentiform Loewenfeld","3.3.7","yes","yes","600bd7cfb6416f0113b04181","602110864497cf011d9c0822","0","j","NA","return","return","return","j","j","623","NA","8504","37814","61241","7817","623","2","legacy","1024","2","48000","-16","task","5205757","odd","NA","119690","130197","121691","343705","7818","106879","45636","344207","255985","343703","344207","343643","130197","344830","117984","343143","7805","333058","Lexical Decision Task","62","100465","88","yes","1024"
"3.067193647","6.73","6","raft","word","70.78651685393258","70.78651685393258","1136.9101123595506","1136.9101123595506","black","no","legacy","legacy","legacy","0","uniform","1","undefined","undefined","undefined","1","j","0","0","0","0","88","0","0","0","88","0","84","88","84","0","84","3","88","0","88","Wed Feb 17 11:19:06 2021","The main experiment item","yes","Lexical_Decision_Task.osexp","D:/","no","Andale Mono","no","18","no","white","no","yes","576","legacy","84","84","3","D:/subject-5205757.csv","legacy","Lentiform Loewenfeld","3.3.7","yes","yes","600bd7cfb6416f0113b04181","602110864497cf011d9c0822","0","j","NA","return","return","return","j","j","720","NA","8504","37814","61241","7817","720","2","legacy","1024","2","48000","-16","task","5205757","odd","NA","119690","130197","121691","346401","7818","106879","45636","346902","255985","346398","346902","346340","130197","347623","117984","343143","7805","344840","Lexical Decision Task","63","101185","89","yes","1024"
"2.695481676","0","7","goke","non-word","71.11111111111111","71.11111111111111","1133.0333333333333","1133.0333333333333","black","no","legacy","legacy","legacy","0","uniform","1","undefined","undefined","undefined","1","f","0","0","0","0","89","0","0","0","89","0","85","89","85","0","85","3","89","0","89","Wed Feb 17 11:19:06 2021","The main experiment item","yes","Lexical_Decision_Task.osexp","D:/","no","Andale Mono","no","18","no","white","no","yes","576","legacy","85","85","3","D:/subject-5205757.csv","legacy","Lentiform Loewenfeld","3.3.7","yes","yes","600bd7cfb6416f0113b04181","602110864497cf011d9c0822","0","f","NA","return","return","return","j","f","788","NA","8504","37814","61241","7817","788","2","legacy","1024","2","48000","-16","task","5205757","odd","NA","119690","130197","121691","348196","7818","106879","45636","348697","255985","348195","348697","348135","130197","349486","117984","347635","7805","344840","Lexical Decision Task","64","101973","90","yes","1024"
"2.980911938","7.15","7","hoop","word","71.42857142857143","71.42857142857143","1128.5824175824175","1128.5824175824175","black","no","legacy","legacy","legacy","0","uniform","1","undefined","undefined","undefined","1","j","0","0","0","0","90","0","0","0","90","0","86","90","86","0","86","3","90","0","90","Wed Feb 17 11:19:06 2021","The main experiment item","yes","Lexical_Decision_Task.osexp","D:/","no","Andale Mono","no","18","no","white","no","yes","576","legacy","86","86","3","D:/subject-5205757.csv","legacy","Lentiform Loewenfeld","3.3.7","yes","yes","600bd7cfb6416f0113b04181","602110864497cf011d9c0822","0","j","NA","return","return","return","j","j","728","NA","8504","37814","61241","7817","728","2","legacy","1024","2","48000","-16","task","5205757","odd","NA","119690","130197","121691","350054","7818","106879","45636","350555","255985","350052","350555","349996","130197","351284","117984","349496","7805","344840","Lexical Decision Task","65","102701","91","yes","1024"
"3.248054965","7.86","5","glow","word","71.73913043478261","71.73913043478261","1122.8152173913043","1122.8152173913043","black","no","legacy","legacy","legacy","0","uniform","1","undefined","undefined","undefined","1","j","0","0","0","0","91","0","0","0","91","0","87","91","87","0","87","3","91","0","91","Wed Feb 17 11:19:06 2021","The main experiment item","yes","Lexical_Decision_Task.osexp","D:/","no","Andale Mono","no","18","no","white","no","yes","576","legacy","87","87","3","D:/subject-5205757.csv","legacy","Lentiform Loewenfeld","3.3.7","yes","yes","600bd7cfb6416f0113b04181","602110864497cf011d9c0822","0","j","NA","return","return","return","j","j","598","NA","8504","37814","61241","7817","598","2","legacy","1024","2","48000","-16","task","5205757","odd","NA","119690","130197","121691","351863","7818","106879","45636","352365","255985","351861","352365","351795","130197","352964","117984","351294","7805","344840","Lexical Decision Task","66","103299","92","yes","1024"
"3.259832699","0","9","flar","non-word","72.04301075268818","72.04301075268818","1118.5483870967741","1118.5483870967741","black","no","legacy","legacy","legacy","0","uniform","1","undefined","undefined","undefined","1","f","0","0","0","0","92","0","0","0","92","0","88","92","88","0","88","3","92","0","92","Wed Feb 17 11:19:06 2021","The main experiment item","yes","Lexical_Decision_Task.osexp","D:/","no","Andale Mono","no","18","no","white","no","yes","576","legacy","88","88","3","D:/subject-5205757.csv","legacy","Lentiform Loewenfeld","3.3.7","yes","yes","600bd7cfb6416f0113b04181","602110864497cf011d9c0822","0","f","NA","return","return","return","j","f","726","NA","8504","37814","61241","7817","726","2","legacy","1024","2","48000","-16","task","5205757","odd","NA","119690","130197","121691","353531","7818","106879","45636","354034","255985","353530","354034","353474","130197","354764","117984","352974","7805","344840","Lexical Decision Task","67","104025","93","yes","1024"
"3.100255637","0","6","brax","non-word","72.34042553191489","72.34042553191489","1113.5212765957447","1113.5212765957447","black","no","legacy","legacy","legacy","0","uniform","1","undefined","undefined","undefined","1","f","0","0","0","0","93","0","0","0","93","0","89","93","89","0","89","3","93","0","93","Wed Feb 17 11:19:06 2021","The main experiment item","yes","Lexical_Decision_Task.osexp","D:/","no","Andale Mono","no","18","no","white","no","yes","576","legacy","89","89","3","D:/subject-5205757.csv","legacy","Lentiform Loewenfeld","3.3.7","yes","yes","600bd7cfb6416f0113b04181","602110864497cf011d9c0822","0","f","NA","return","return","return","j","f","646","NA","8504","37814","61241","7817","646","2","legacy","1024","2","48000","-16","task","5205757","odd","NA","119690","130197","121691","355335","7818","106879","45636","355837","255985","355333","355837","355276","130197","356488","117984","354776","7805","344840","Lexical Decision Task","68","104671","94","yes","1024"
"3.382617311","0","4","pret","non-word","71.57894736842105","71.57894736842105","1116.3684210526317","1116.3684210526317","black","no","legacy","legacy","legacy","0","uniform","0","undefined","undefined","undefined","0","f","0","0","0","0","94","0","0","0","94","0","90","94","90","0","90","3","94","0","94","Wed Feb 17 11:19:06 2021","The main experiment item","yes","Lexical_Decision_Task.osexp","D:/","no","Andale Mono","no","18","no","white","no","yes","576","legacy","90","90","3","D:/subject-5205757.csv","legacy","Lentiform Loewenfeld","3.3.7","yes","yes","600bd7cfb6416f0113b04181","602110864497cf011d9c0822","0","j","NA","return","return","return","j","j","1384","NA","8504","37814","61241","7817","1384","2","legacy","1024","2","48000","-16","task","5205757","odd","NA","119690","130197","121691","357058","7818","106879","45636","357559","255985","357056","357559","356997","130197","358944","117984","356497","7805","344840","Lexical Decision Task","68","106055","95","yes","1024"
"3.252447662","9.67","9","boat","word","71.875","71.875","1111.53125","1111.53125","black","no","legacy","legacy","legacy","0","uniform","1","undefined","undefined","undefined","1","j","0","0","0","0","95","0","0","0","95","0","91","95","91","0","91","3","95","0","95","Wed Feb 17 11:19:06 2021","The main experiment item","yes","Lexical_Decision_Task.osexp","D:/","no","Andale Mono","no","18","no","white","no","yes","576","legacy","91","91","3","D:/subject-5205757.csv","legacy","Lentiform Loewenfeld","3.3.7","yes","yes","600bd7cfb6416f0113b04181","602110864497cf011d9c0822","0","j","NA","return","return","return","j","j","652","NA","8504","37814","61241","7817","652","2","legacy","1024","2","48000","-16","task","5205757","odd","NA","119690","130197","121691","360513","7818","106879","45636","361015","255985","360511","361015","360454","130197","361668","117984","356497","7805","358953","Lexical Decision Task","69","106707","96","yes","1024"
"3.094121596","0","8","fode","non-word","72.16494845360825","72.16494845360825","1107.8762886597938","1107.8762886597938","black","no","legacy","legacy","legacy","0","uniform","1","undefined","undefined","undefined","1","f","0","0","0","0","96","0","0","0","96","0","92","96","92","0","92","3","96","0","96","Wed Feb 17 11:19:06 2021","The main experiment item","yes","Lexical_Decision_Task.osexp","D:/","no","Andale Mono","no","18","no","white","no","yes","576","legacy","92","92","3","D:/subject-5205757.csv","legacy","Lentiform Loewenfeld","3.3.7","yes","yes","600bd7cfb6416f0113b04181","602110864497cf011d9c0822","0","f","NA","return","return","return","j","f","757","NA","8504","37814","61241","7817","757","2","legacy","1024","2","48000","-16","task","5205757","odd","NA","119690","130197","121691","362239","7818","106879","45636","362740","255985","362237","362740","362178","130197","363498","117984","361678","7805","358953","Lexical Decision Task","70","107464","97","yes","1024"
"3.153001286","8.7","5","palm","word","72.44897959183673","72.44897959183673","1102.1632653061224","1102.1632653061224","black","no","legacy","legacy","legacy","0","uniform","1","undefined","undefined","undefined","1","j","0","0","0","0","97","0","0","0","97","0","93","97","93","0","93","3","97","0","97","Wed Feb 17 11:19:06 2021","The main experiment item","yes","Lexical_Decision_Task.osexp","D:/","no","Andale Mono","no","18","no","white","no","yes","576","legacy","93","93","3","D:/subject-5205757.csv","legacy","Lentiform Loewenfeld","3.3.7","yes","yes","600bd7cfb6416f0113b04181","602110864497cf011d9c0822","0","j","NA","return","return","return","j","j","548","NA","8504","37814","61241","7817","548","2","legacy","1024","2","48000","-16","task","5205757","odd","NA","119690","130197","121691","364068","7818","106879","45636","364569","255985","364067","364569","364008","130197","365118","117984","363508","7805","358953","Lexical Decision Task","71","108012","98","yes","1024"
"2.937852093","0","7","bamp","non-word","71.71717171717172","71.71717171717172","1098.060606060606","1098.060606060606","black","no","legacy","legacy","legacy","0","uniform","0","undefined","undefined","undefined","0","f","0","0","0","0","98","0","0","0","98","0","94","98","94","0","94","3","98","0","98","Wed Feb 17 11:19:06 2021","The main experiment item","yes","Lexical_Decision_Task.osexp","D:/","no","Andale Mono","no","18","no","white","no","yes","576","legacy","94","94","3","D:/subject-5205757.csv","legacy","Lentiform Loewenfeld","3.3.7","yes","yes","600bd7cfb6416f0113b04181","602110864497cf011d9c0822","0","j","NA","return","return","return","j","j","696","NA","8504","37814","61241","7817","696","2","legacy","1024","2","48000","-16","task","5205757","odd","NA","119690","130197","121691","365685","7818","106879","45636","366186","255985","365684","366186","365627","130197","366885","117984","365127","7805","358953","Lexical Decision Task","71","108708","99","yes","1024"
"2.68604012","0","3","mulb","non-word","72","72","1095.26","1095.26","black","no","legacy","legacy","legacy","0","uniform","1","undefined","undefined","undefined","1","f","0","0","0","0","99","0","0","0","99","0","95","99","95","0","95","3","99","0","99","Wed Feb 17 11:19:06 2021","The main experiment item","yes","Lexical_Decision_Task.osexp","D:/","no","Andale Mono","no","18","no","white","no","yes","576","legacy","95","95","3","D:/subject-5205757.csv","legacy","Lentiform Loewenfeld","3.3.7","yes","yes","600bd7cfb6416f0113b04181","602110864497cf011d9c0822","0","f","NA","return","return","return","j","f","818","NA","8504","37814","61241","7817","818","2","legacy","1024","2","48000","-16","task","5205757","odd","NA","119690","130197","121691","368456","7818","106879","45636","368957","255985","368454","368957","368395","130197","369776","117984","365127","7805","366895","Lexical Decision Task","72","109526","100","yes","1024"
"3.488597715","0","9","nain","non-word","72.27722772277228","72.27722772277228","1092.3168316831684","1092.3168316831684","black","no","legacy","legacy","legacy","0","uniform","1","undefined","undefined","undefined","1","f","0","0","0","0","100","0","0","0","100","0","96","100","96","0","96","3","100","0","100","Wed Feb 17 11:19:06 2021","The main experiment item","yes","Lexical_Decision_Task.osexp","D:/","no","Andale Mono","no","18","no","white","no","yes","576","legacy","96","96","3","D:/subject-5205757.csv","legacy","Lentiform Loewenfeld","3.3.7","yes","yes","600bd7cfb6416f0113b04181","602110864497cf011d9c0822","0","f","NA","return","return","return","j","f","798","NA","8504","37814","61241","7817","798","2","legacy","1024","2","48000","-16","task","5205757","odd","NA","119690","130197","121691","370349","7818","106879","45636","370850","255985","370347","370850","370289","130197","371649","117984","369789","7805","366895","Lexical Decision Task","73","110324","101","yes","1024"
"3.153104174","10.89","6","door","word","72.54901960784314","72.54901960784314","1087.9607843137255","1087.9607843137255","black","no","legacy","legacy","legacy","0","uniform","1","undefined","undefined","undefined","1","j","0","0","0","0","101","0","0","0","101","0","97","101","97","0","97","3","101","0","101","Wed Feb 17 11:19:06 2021","The main experiment item","yes","Lexical_Decision_Task.osexp","D:/","no","Andale Mono","no","18","no","white","no","yes","576","legacy","97","97","3","D:/subject-5205757.csv","legacy","Lentiform Loewenfeld","3.3.7","yes","yes","600bd7cfb6416f0113b04181","602110864497cf011d9c0822","0","j","NA","return","return","return","j","j","648","NA","8504","37814","61241","7817","648","2","legacy","1024","2","48000","-16","task","5205757","odd","NA","119690","130197","121691","372217","7818","106879","45636","372719","255985","372216","372719","372158","130197","373368","117984","371658","7805","366895","Lexical Decision Task","74","110972","102","yes","1024"
"3.307211407","6.07","7","honk","word","72.81553398058253","72.81553398058253","1086.1456310679612","1086.1456310679612","black","no","legacy","legacy","legacy","0","uniform","1","undefined","undefined","undefined","1","j","0","0","0","0","102","0","0","0","102","0","98","102","98","0","98","3","102","0","102","Wed Feb 17 11:19:06 2021","The main experiment item","yes","Lexical_Decision_Task.osexp","D:/","no","Andale Mono","no","18","no","white","no","yes","576","legacy","98","98","3","D:/subject-5205757.csv","legacy","Lentiform Loewenfeld","3.3.7","yes","yes","600bd7cfb6416f0113b04181","602110864497cf011d9c0822","0","j","NA","return","return","return","j","j","901","NA","8504","37814","61241","7817","901","2","legacy","1024","2","48000","-16","task","5205757","odd","NA","119690","130197","121691","373931","7818","106879","45636","374433","255985","373928","374433","373872","130197","375336","117984","373372","7805","366895","Lexical Decision Task","75","111873","103","yes","1024"
