"Log_BG","Log_Freq_HAL","Ortho_N","Stimulus","Type","acc","accuracy","average_response_time","avg_rt","background","bidi","canvas_backend","clock_backend","color_backend","compensation","coordinates","correct","correct_Experimental_intro","correct_Introduction","correct_Practice_intro","correct_experimenter_kb","correct_response","count_End_Of_Experiment","count_End_Of_Practice","count_Experimental_Loop","count_Experimental_intro","count_Fixation","count_Introduction","count_Practice_Loop","count_Practice_intro","count_Stimulus","count_block_break_feedback","count_experimental_sequence","count_experimenter_kb","count_increment_trial_count","count_init_trial_count","count_logger","count_practice_sequence","count_right","count_task","count_wrong","datetime","description","disable_garbage_collection","experiment_file","experiment_path","font_bold","font_family","font_italic","font_size","font_underline","foreground","form_clicks","fullscreen","height","keyboard_backend","live_row","live_row_Experimental_Loop","live_row_Practice_Loop","logfile","mouse_backend","opensesame_codename","opensesame_version","osf_always_upload_data","osf_always_upload_experiment","osf_datanode_id","osf_id","repeat_cycle","response","response_End_Of_Experiment","response_Experimental_intro","response_Introduction","response_Practice_intro","response_block_break_feedback","response_experimenter_kb","response_time","response_time_End_Of_Experiment","response_time_Experimental_intro","response_time_Introduction","response_time_Practice_intro","response_time_block_break_feedback","response_time_experimenter_kb","round_decimals","sampler_backend","sound_buf_size","sound_channels","sound_freq","sound_sample_size","start","subject_nr","subject_parity","time_End_Of_Experiment","time_End_Of_Practice","time_Experimental_Loop","time_Experimental_intro","time_Fixation","time_Introduction","time_Practice_Loop","time_Practice_intro","time_Stimulus","time_block_break_feedback","time_experimental_sequence","time_experimenter_kb","time_increment_trial_count","time_init_trial_count","time_logger","time_practice_sequence","time_right","time_task","time_wrong","title","total_correct","total_response_time","total_responses","uniform_coordinates","width"
"2.794720352","0","9","koot","non-word","80","80","1782","1782","black","no","legacy","legacy","legacy","0","uniform","1","undefined","undefined","undefined","1","f","0","0","0","0","4","0","0","0","4","NA","0","4","0","0","0","3","4","0","4","Wed Feb 17 11:59:44 2021","The main experiment item","yes","Lexical_Decision_Task.osexp","C:/CAL","no","Andale Mono","no","18","no","white","no","yes","576","legacy","0","0","3","C:/CAL/subject-5212465.csv","legacy","Lentiform Loewenfeld","3.3.7","yes","yes","600bd7cfb6416f0113b04181","602110864497cf011d9c0822","0","f","NA","space","space","space","NA","f","2187","NA","7953","10903","7268","NA","2187","2","legacy","1024","2","48000","-16","task","5212465","odd","NA","37680","47638","39684","47693","7368","25543","18275","48196","NA","47691","48196","NA","47638","50384","35590","37152","7346","29169","Lexical Decision Task","4","8910","5","yes","1024"
"3.363486562","6.93","9","lush","word","83.33333333333333","83.33333333333333","1661.5","1661.5","black","no","legacy","legacy","legacy","0","uniform","1","undefined","undefined","undefined","1","j","0","0","0","0","5","0","0","0","5","NA","1","5","1","0","1","3","5","0","5","Wed Feb 17 11:59:44 2021","The main experiment item","yes","Lexical_Decision_Task.osexp","C:/CAL","no","Andale Mono","no","18","no","white","no","yes","576","legacy","1","1","3","C:/CAL/subject-5212465.csv","legacy","Lentiform Loewenfeld","3.3.7","yes","yes","600bd7cfb6416f0113b04181","602110864497cf011d9c0822","0","j","NA","space","space","space","NA","j","1059","NA","7953","10903","7268","NA","1059","2","legacy","1024","2","48000","-16","task","5212465","odd","NA","37680","47638","39684","51030","7368","25543","18275","51531","NA","51028","51531","50900","47638","52591","35590","50400","7346","29169","Lexical Decision Task","5","9969","6","yes","1024"
"3.216517684","10.87","3","film","word","85.71428571428571","85.71428571428571","1544.5714285714287","1544.5714285714287","black","no","legacy","legacy","legacy","0","uniform","1","undefined","undefined","undefined","1","j","0","0","0","0","6","0","0","0","6","NA","2","6","2","0","2","3","6","0","6","Wed Feb 17 11:59:44 2021","The main experiment item","yes","Lexical_Decision_Task.osexp","C:/CAL","no","Andale Mono","no","18","no","white","no","yes","576","legacy","2","2","3","C:/CAL/subject-5212465.csv","legacy","Lentiform Loewenfeld","3.3.7","yes","yes","600bd7cfb6416f0113b04181","602110864497cf011d9c0822","0","j","NA","space","space","space","NA","j","843","NA","7953","10903","7268","NA","843","2","legacy","1024","2","48000","-16","task","5212465","odd","NA","37680","47638","39684","53179","7368","25543","18275","53680","NA","53177","53680","53101","47638","54523","35590","52601","7346","29169","Lexical Decision Task","6","10812","7","yes","1024"
"2.803231716","5.26","3","kiln","word","75","75","1627.25","1627.25","black","no","legacy","legacy","legacy","0","uniform","0","undefined","undefined","undefined","0","j","0","0","0","0","7","0","0","0","7","NA","3","7","3","0","3","3","7","0","7","Wed Feb 17 11:59:44 2021","The main experiment item","yes","Lexical_Decision_Task.osexp","C:/CAL","no","Andale Mono","no","18","no","white","no","yes","576","legacy","3","3","3","C:/CAL/subject-5212465.csv","legacy","Lentiform Loewenfeld","3.3.7","yes","yes","600bd7cfb6416f0113b04181","602110864497cf011d9c0822","0","f","NA","space","space","space","NA","f","2206","NA","7953","10903","7268","NA","2206","2","legacy","1024","2","48000","-16","task","5212465","odd","NA","37680","47638","39684","55104","7368","25543","18275","55605","NA","55102","55605","55027","47638","57812","35590","54527","7346","29169","Lexical Decision Task","6","13018","8","yes","1024"
"3.105055783","0","2","norp","non-word","66.66666666666667","66.66666666666667","1779.7777777777778","1779.7777777777778","black","no","legacy","legacy","legacy","0","uniform","0","undefined","undefined","undefined","0","f","0","0","0","0","8","0","0","0","8","NA","4","8","4","0","4","3","8","0","8","Wed Feb 17 11:59:44 2021","The main experiment item","yes","Lexical_Decision_Task.osexp","C:/CAL","no","Andale Mono","no","18","no","white","no","yes","576","legacy","4","4","3","C:/CAL/subject-5212465.csv","legacy","Lentiform Loewenfeld","3.3.7","yes","yes","600bd7cfb6416f0113b04181","602110864497cf011d9c0822","0","None","NA","space","space","space","NA","None","3000","NA","7953","10903","7268","NA","3000","2","legacy","1024","2","48000","-16","task","5212465","odd","NA","37680","47638","39684","59403","7368","25543","18275","59906","NA","59401","59907","59323","47638","62907","35590","54527","7346","57822","Lexical Decision Task","6","16018","9","yes","1024"
"3.261341392","5.08","8","reek","word","60","60","1731.4","1731.4","black","no","legacy","legacy","legacy","0","uniform","0","undefined","undefined","undefined","0","j","0","0","0","0","9","0","0","0","9","NA","5","9","5","0","5","3","9","0","9","Wed Feb 17 11:59:44 2021","The main experiment item","yes","Lexical_Decision_Task.osexp","C:/CAL","no","Andale Mono","no","18","no","white","no","yes","576","legacy","5","5","3","C:/CAL/subject-5212465.csv","legacy","Lentiform Loewenfeld","3.3.7","yes","yes","600bd7cfb6416f0113b04181","602110864497cf011d9c0822","0","f","NA","space","space","space","NA","f","1296","NA","7953","10903","7268","NA","1296","2","legacy","1024","2","48000","-16","task","5212465","odd","NA","37680","47638","39684","64499","7368","25543","18275","65002","NA","64497","65002","64417","47638","66299","35590","54527","7346","62917","Lexical Decision Task","6","17314","10","yes","1024"
"2.972357144","0","5","dasp","non-word","54.54545454545455","54.54545454545455","1729.3636363636363","1729.3636363636363","black","no","legacy","legacy","legacy","0","uniform","0","undefined","undefined","undefined","0","f","0","0","0","0","10","0","0","0","10","NA","6","10","6","0","6","3","10","0","10","Wed Feb 17 11:59:44 2021","The main experiment item","yes","Lexical_Decision_Task.osexp","C:/CAL","no","Andale Mono","no","18","no","white","no","yes","576","legacy","6","6","3","C:/CAL/subject-5212465.csv","legacy","Lentiform Loewenfeld","3.3.7","yes","yes","600bd7cfb6416f0113b04181","602110864497cf011d9c0822","0","j","NA","space","space","space","NA","j","1709","NA","7953","10903","7268","NA","1709","2","legacy","1024","2","48000","-16","task","5212465","odd","NA","37680","47638","39684","67892","7368","25543","18275","68395","NA","67890","68396","67810","47638","70106","35590","54527","7346","66310","Lexical Decision Task","6","19023","11","yes","1024"
"3.102203805","7.21","3","drip","word","58.333333333333336","58.333333333333336","1722.75","1722.75","black","no","legacy","legacy","legacy","0","uniform","1","undefined","undefined","undefined","1","j","0","0","0","0","11","0","0","0","11","NA","7","11","7","0","7","3","11","0","11","Wed Feb 17 11:59:44 2021","The main experiment item","yes","Lexical_Decision_Task.osexp","C:/CAL","no","Andale Mono","no","18","no","white","no","yes","576","legacy","7","7","3","C:/CAL/subject-5212465.csv","legacy","Lentiform Loewenfeld","3.3.7","yes","yes","600bd7cfb6416f0113b04181","602110864497cf011d9c0822","0","j","NA","space","space","space","NA","j","1650","NA","7953","10903","7268","NA","1650","2","legacy","1024","2","48000","-16","task","5212465","odd","NA","37680","47638","39684","71689","7368","25543","18275","72191","NA","71687","72192","71610","47638","73843","35590","54527","7346","70110","Lexical Decision Task","7","20673","12","yes","1024"
"2.708989954","9.28","9","bowl","word","61.53846153846154","61.53846153846154","1642.3076923076924","1642.3076923076924","black","no","legacy","legacy","legacy","0","uniform","1","undefined","undefined","undefined","1","j","0","0","0","0","12","0","0","0","12","NA","8","12","8","0","8","3","12","0","12","Wed Feb 17 11:59:44 2021","The main experiment item","yes","Lexical_Decision_Task.osexp","C:/CAL","no","Andale Mono","no","18","no","white","no","yes","576","legacy","8","8","3","C:/CAL/subject-5212465.csv","legacy","Lentiform Loewenfeld","3.3.7","yes","yes","600bd7cfb6416f0113b04181","602110864497cf011d9c0822","0","j","NA","space","space","space","NA","j","677","NA","7953","10903","7268","NA","677","2","legacy","1024","2","48000","-16","task","5212465","odd","NA","37680","47638","39684","74433","7368","25543","18275","74934","NA","74431","74934","74353","47638","75612","35590","73853","7346","70110","Lexical Decision Task","8","21350","13","yes","1024"
"2.695481676","0","7","goke","non-word","64.28571428571429","64.28571428571429","1646.142857142857","1646.142857142857","black","no","legacy","legacy","legacy","0","uniform","1","undefined","undefined","undefined","1","f","0","0","0","0","13","0","0","0","13","NA","9","13","9","0","9","3","13","0","13","Wed Feb 17 11:59:44 2021","The main experiment item","yes","Lexical_Decision_Task.osexp","C:/CAL","no","Andale Mono","no","18","no","white","no","yes","576","legacy","9","9","3","C:/CAL/subject-5212465.csv","legacy","Lentiform Loewenfeld","3.3.7","yes","yes","600bd7cfb6416f0113b04181","602110864497cf011d9c0822","0","f","NA","space","space","space","NA","f","1696","NA","7953","10903","7268","NA","1696","2","legacy","1024","2","48000","-16","task","5212465","odd","NA","37680","47638","39684","76203","7368","25543","18275","76706","NA","76201","76706","76123","47638","78403","35590","75623","7346","70110","Lexical Decision Task","9","23046","14","yes","1024"
"3.303771854","0","9","dath","non-word","60","60","1623.0666666666666","1623.0666666666666","black","no","legacy","legacy","legacy","0","uniform","0","undefined","undefined","undefined","0","f","0","0","0","0","14","0","0","0","14","NA","10","14","10","0","10","3","14","0","14","Wed Feb 17 11:59:44 2021","The main experiment item","yes","Lexical_Decision_Task.osexp","C:/CAL","no","Andale Mono","no","18","no","white","no","yes","576","legacy","10","10","3","C:/CAL/subject-5212465.csv","legacy","Lentiform Loewenfeld","3.3.7","yes","yes","600bd7cfb6416f0113b04181","602110864497cf011d9c0822","0","j","NA","space","space","space","NA","j","1300","NA","7953","10903","7268","NA","1300","2","legacy","1024","2","48000","-16","task","5212465","odd","NA","37680","47638","39684","78985","7368","25543","18275","79486","NA","78983","79486","78908","47638","80787","35590","78408","7346","70110","Lexical Decision Task","9","24346","15","yes","1024"
"3.529815197","0","3","lerm","non-word","56.25","56.25","1612.1875","1612.1875","black","no","legacy","legacy","legacy","0","uniform","0","undefined","undefined","undefined","0","f","0","0","0","0","15","0","0","0","15","NA","11","15","11","0","11","3","15","0","15","Wed Feb 17 11:59:44 2021","The main experiment item","yes","Lexical_Decision_Task.osexp","C:/CAL","no","Andale Mono","no","18","no","white","no","yes","576","legacy","11","11","3","C:/CAL/subject-5212465.csv","legacy","Lentiform Loewenfeld","3.3.7","yes","yes","600bd7cfb6416f0113b04181","602110864497cf011d9c0822","0","j","NA","space","space","space","NA","j","1449","NA","7953","10903","7268","NA","1449","2","legacy","1024","2","48000","-16","task","5212465","odd","NA","37680","47638","39684","82376","7368","25543","18275","82879","NA","82374","82879","82297","47638","84329","35590","78408","7346","80797","Lexical Decision Task","9","25795","16","yes","1024"
"2.986323777","10.85","8","ship","word","58.8235294117647","58.8235294117647","1554.764705882353","1554.764705882353","black","no","legacy","legacy","legacy","0","uniform","1","undefined","undefined","undefined","1","j","0","0","0","0","16","0","0","0","16","NA","12","16","12","0","12","3","16","0","16","Wed Feb 17 11:59:44 2021","The main experiment item","yes","Lexical_Decision_Task.osexp","C:/CAL","no","Andale Mono","no","18","no","white","no","yes","576","legacy","12","12","3","C:/CAL/subject-5212465.csv","legacy","Lentiform Loewenfeld","3.3.7","yes","yes","600bd7cfb6416f0113b04181","602110864497cf011d9c0822","0","j","NA","space","space","space","NA","j","636","NA","7953","10903","7268","NA","636","2","legacy","1024","2","48000","-16","task","5212465","odd","NA","37680","47638","39684","85920","7368","25543","18275","86423","NA","85918","86424","85840","47638","87061","35590","78408","7346","84340","Lexical Decision Task","10","26431","17","yes","1024"
"2.838639236","0","4","furg","non-word","55.55555555555556","55.55555555555556","1582.111111111111","1582.111111111111","black","no","legacy","legacy","legacy","0","uniform","0","undefined","undefined","undefined","0","f","0","0","0","0","17","0","0","0","17","NA","13","17","13","0","13","3","17","0","17","Wed Feb 17 11:59:44 2021","The main experiment item","yes","Lexical_Decision_Task.osexp","C:/CAL","no","Andale Mono","no","18","no","white","no","yes","576","legacy","13","13","3","C:/CAL/subject-5212465.csv","legacy","Lentiform Loewenfeld","3.3.7","yes","yes","600bd7cfb6416f0113b04181","602110864497cf011d9c0822","0","j","NA","space","space","space","NA","j","2047","NA","7953","10903","7268","NA","2047","2","legacy","1024","2","48000","-16","task","5212465","odd","NA","37680","47638","39684","87652","7368","25543","18275","88154","NA","87650","88154","87571","47638","90201","35590","87071","7346","84340","Lexical Decision Task","10","28478","18","yes","1024"
"3.474361976","5.24","6","veer","word","52.63157894736842","52.63157894736842","1595","1595","black","no","legacy","legacy","legacy","0","uniform","0","undefined","undefined","undefined","0","j","0","0","0","0","18","0","0","0","18","NA","14","18","14","0","14","3","18","0","18","Wed Feb 17 11:59:44 2021","The main experiment item","yes","Lexical_Decision_Task.osexp","C:/CAL","no","Andale Mono","no","18","no","white","no","yes","576","legacy","14","14","3","C:/CAL/subject-5212465.csv","legacy","Lentiform Loewenfeld","3.3.7","yes","yes","600bd7cfb6416f0113b04181","602110864497cf011d9c0822","0","f","NA","space","space","space","NA","f","1827","NA","7953","10903","7268","NA","1827","2","legacy","1024","2","48000","-16","task","5212465","odd","NA","37680","47638","39684","91793","7368","25543","18275","92296","NA","91791","92296","91712","47638","94124","35590","87071","7346","90212","Lexical Decision Task","10","30305","19","yes","1024"
"2.755364069","7.72","2","hoax","word","55","55","1571.1","1571.1","black","no","legacy","legacy","legacy","0","uniform","1","undefined","undefined","undefined","1","j","0","0","0","0","19","0","0","0","19","NA","15","19","15","0","15","3","19","0","19","Wed Feb 17 11:59:44 2021","The main experiment item","yes","Lexical_Decision_Task.osexp","C:/CAL","no","Andale Mono","no","18","no","white","no","yes","576","legacy","15","15","3","C:/CAL/subject-5212465.csv","legacy","Lentiform Loewenfeld","3.3.7","yes","yes","600bd7cfb6416f0113b04181","602110864497cf011d9c0822","0","j","NA","space","space","space","NA","j","1117","NA","7953","10903","7268","NA","1117","2","legacy","1024","2","48000","-16","task","5212465","odd","NA","37680","47638","39684","95718","7368","25543","18275","96222","NA","95716","96222","95635","47638","97340","35590","87071","7346","94135","Lexical Decision Task","11","31422","20","yes","1024"
"3.156347201","0","8","lasp","non-word","52.38095238095238","52.38095238095238","1596.7619047619048","1596.7619047619048","black","no","legacy","legacy","legacy","0","uniform","0","undefined","undefined","undefined","0","f","0","0","0","0","20","0","0","0","20","NA","16","20","16","0","16","3","20","0","20","Wed Feb 17 11:59:44 2021","The main experiment item","yes","Lexical_Decision_Task.osexp","C:/CAL","no","Andale Mono","no","18","no","white","no","yes","576","legacy","16","16","3","C:/CAL/subject-5212465.csv","legacy","Lentiform Loewenfeld","3.3.7","yes","yes","600bd7cfb6416f0113b04181","602110864497cf011d9c0822","0","j","NA","space","space","space","NA","j","2110","NA","7953","10903","7268","NA","2110","2","legacy","1024","2","48000","-16","task","5212465","odd","NA","37680","47638","39684","97924","7368","25543","18275","98425","NA","97922","98425","97850","47638","100536","35590","97350","7346","94135","Lexical Decision Task","11","33532","21","yes","1024"
"2.897810299","0","5","glur","non-word","54.54545454545455","54.54545454545455","1564.8636363636363","1564.8636363636363","black","no","legacy","legacy","legacy","0","uniform","1","undefined","undefined","undefined","1","f","0","0","0","0","21","0","0","0","21","NA","17","21","17","0","17","3","21","0","21","Wed Feb 17 11:59:44 2021","The main experiment item","yes","Lexical_Decision_Task.osexp","C:/CAL","no","Andale Mono","no","18","no","white","no","yes","576","legacy","17","17","3","C:/CAL/subject-5212465.csv","legacy","Lentiform Loewenfeld","3.3.7","yes","yes","600bd7cfb6416f0113b04181","602110864497cf011d9c0822","0","f","NA","space","space","space","NA","f","895","NA","7953","10903","7268","NA","895","2","legacy","1024","2","48000","-16","task","5212465","odd","NA","37680","47638","39684","102126","7368","25543","18275","102630","NA","102125","102631","102047","47638","103526","35590","97350","7346","100547","Lexical Decision Task","12","34427","22","yes","1024"
"3.088136089","8.32","9","worm","word","56.52173913043478","56.52173913043478","1524.695652173913","1524.695652173913","black","no","legacy","legacy","legacy","0","uniform","1","undefined","undefined","undefined","1","j","0","0","0","0","22","0","0","0","22","NA","18","22","18","0","18","3","22","0","22","Wed Feb 17 11:59:44 2021","The main experiment item","yes","Lexical_Decision_Task.osexp","C:/CAL","no","Andale Mono","no","18","no","white","no","yes","576","legacy","18","18","3","C:/CAL/subject-5212465.csv","legacy","Lentiform Loewenfeld","3.3.7","yes","yes","600bd7cfb6416f0113b04181","602110864497cf011d9c0822","0","j","NA","space","space","space","NA","j","641","NA","7953","10903","7268","NA","641","2","legacy","1024","2","48000","-16","task","5212465","odd","NA","37680","47638","39684","104118","7368","25543","18275","104620","NA","104116","104620","104038","47638","105262","35590","103538","7346","100547","Lexical Decision Task","13","35068","23","yes","1024"
"2.696356389","0","1","pizz","non-word","58.333333333333336","58.333333333333336","1518.3333333333333","1518.3333333333333","black","no","legacy","legacy","legacy","0","uniform","1","undefined","undefined","undefined","1","f","0","0","0","0","23","0","0","0","23","NA","19","23","19","0","19","3","23","0","23","Wed Feb 17 11:59:44 2021","The main experiment item","yes","Lexical_Decision_Task.osexp","C:/CAL","no","Andale Mono","no","18","no","white","no","yes","576","legacy","19","19","3","C:/CAL/subject-5212465.csv","legacy","Lentiform Loewenfeld","3.3.7","yes","yes","600bd7cfb6416f0113b04181","602110864497cf011d9c0822","0","f","NA","space","space","space","NA","f","1372","NA","7953","10903","7268","NA","1372","2","legacy","1024","2","48000","-16","task","5212465","odd","NA","37680","47638","39684","105851","7368","25543","18275","106354","NA","105849","106354","105773","47638","107727","35590","105273","7346","100547","Lexical Decision Task","14","36440","24","yes","1024"
"2.67699827","0","6","hulf","non-word","60","60","1502.44","1502.44","black","no","legacy","legacy","legacy","0","uniform","1","undefined","undefined","undefined","1","f","0","0","0","0","24","0","0","0","24","NA","20","24","20","0","20","3","24","0","24","Wed Feb 17 11:59:44 2021","The main experiment item","yes","Lexical_Decision_Task.osexp","C:/CAL","no","Andale Mono","no","18","no","white","no","yes","576","legacy","20","20","3","C:/CAL/subject-5212465.csv","legacy","Lentiform Loewenfeld","3.3.7","yes","yes","600bd7cfb6416f0113b04181","602110864497cf011d9c0822","0","f","NA","space","space","space","NA","f","1121","NA","7953","10903","7268","NA","1121","2","legacy","1024","2","48000","-16","task","5212465","odd","NA","37680","47638","39684","108315","7368","25543","18275","108816","NA","108313","108817","108239","47638","109938","35590","107739","7346","100547","Lexical Decision Task","15","37561","25","yes","1024"
"3.311895072","0","9","gung","non-word","61.53846153846154","61.53846153846154","1486.7307692307693","1486.7307692307693","black","no","legacy","legacy","legacy","0","uniform","1","undefined","undefined","undefined","1","f","0","0","0","0","25","0","0","0","25","NA","21","25","21","0","21","3","25","0","25","Wed Feb 17 11:59:44 2021","The main experiment item","yes","Lexical_Decision_Task.osexp","C:/CAL","no","Andale Mono","no","18","no","white","no","yes","576","legacy","21","21","3","C:/CAL/subject-5212465.csv","legacy","Lentiform Loewenfeld","3.3.7","yes","yes","600bd7cfb6416f0113b04181","602110864497cf011d9c0822","0","f","NA","space","space","space","NA","f","1094","NA","7953","10903","7268","NA","1094","2","legacy","1024","2","48000","-16","task","5212465","odd","NA","37680","47638","39684","110524","7368","25543","18275","111025","NA","110522","111025","110449","47638","112120","35590","109949","7346","100547","Lexical Decision Task","16","38655","26","yes","1024"
"2.80048796","0","8","pife","non-word","62.96296296296296","62.96296296296296","1481.6666666666667","1481.6666666666667","black","no","legacy","legacy","legacy","0","uniform","1","undefined","undefined","undefined","1","f","0","0","0","0","26","0","0","0","26","NA","22","26","22","0","22","3","26","0","26","Wed Feb 17 11:59:44 2021","The main experiment item","yes","Lexical_Decision_Task.osexp","C:/CAL","no","Andale Mono","no","18","no","white","no","yes","576","legacy","22","22","3","C:/CAL/subject-5212465.csv","legacy","Lentiform Loewenfeld","3.3.7","yes","yes","600bd7cfb6416f0113b04181","602110864497cf011d9c0822","0","f","NA","space","space","space","NA","f","1350","NA","7953","10903","7268","NA","1350","2","legacy","1024","2","48000","-16","task","5212465","odd","NA","37680","47638","39684","112707","7368","25543","18275","113208","NA","112705","113209","112631","47638","114560","35590","112131","7346","100547","Lexical Decision Task","17","40005","27","yes","1024"
"3.064581521","5.51","6","cask","word","60.714285714285715","60.714285714285715","1504.2142857142858","1504.2142857142858","black","no","legacy","legacy","legacy","0","uniform","0","undefined","undefined","undefined","0","j","0","0","0","0","27","0","0","0","27","NA","23","27","23","0","23","3","27","0","27","Wed Feb 17 11:59:44 2021","The main experiment item","yes","Lexical_Decision_Task.osexp","C:/CAL","no","Andale Mono","no","18","no","white","no","yes","576","legacy","23","23","3","C:/CAL/subject-5212465.csv","legacy","Lentiform Loewenfeld","3.3.7","yes","yes","600bd7cfb6416f0113b04181","602110864497cf011d9c0822","0","f","NA","space","space","space","NA","f","2113","NA","7953","10903","7268","NA","2113","2","legacy","1024","2","48000","-16","task","5212465","odd","NA","37680","47638","39684","115146","7368","25543","18275","115650","NA","115144","115650","115071","47638","117764","35590","114570","7346","100547","Lexical Decision Task","17","42118","28","yes","1024"
"3.153001286","8.7","5","palm","word","62.06896551724138","62.06896551724138","1480.1724137931035","1480.1724137931035","black","no","legacy","legacy","legacy","0","uniform","1","undefined","undefined","undefined","1","j","0","0","0","0","28","0","0","0","28","NA","24","28","24","0","24","3","28","0","28","Wed Feb 17 11:59:44 2021","The main experiment item","yes","Lexical_Decision_Task.osexp","C:/CAL","no","Andale Mono","no","18","no","white","no","yes","576","legacy","24","24","3","C:/CAL/subject-5212465.csv","legacy","Lentiform Loewenfeld","3.3.7","yes","yes","600bd7cfb6416f0113b04181","602110864497cf011d9c0822","0","j","NA","space","space","space","NA","j","807","NA","7953","10903","7268","NA","807","2","legacy","1024","2","48000","-16","task","5212465","odd","NA","37680","47638","39684","119355","7368","25543","18275","119859","NA","119354","119859","119275","47638","120667","35590","114570","7346","117775","Lexical Decision Task","18","42925","29","yes","1024"
"3.043885998","0","9","gome","non-word","63.333333333333336","63.333333333333336","1489.1","1489.1","black","no","legacy","legacy","legacy","0","uniform","1","undefined","undefined","undefined","1","f","0","0","0","0","29","0","0","0","29","NA","25","29","25","0","25","3","29","0","29","Wed Feb 17 11:59:44 2021","The main experiment item","yes","Lexical_Decision_Task.osexp","C:/CAL","no","Andale Mono","no","18","no","white","no","yes","576","legacy","25","25","3","C:/CAL/subject-5212465.csv","legacy","Lentiform Loewenfeld","3.3.7","yes","yes","600bd7cfb6416f0113b04181","602110864497cf011d9c0822","0","f","NA","space","space","space","NA","f","1748","NA","7953","10903","7268","NA","1748","2","legacy","1024","2","48000","-16","task","5212465","odd","NA","37680","47638","39684","121254","7368","25543","18275","121757","NA","121252","121757","121178","47638","123506","35590","120678","7346","117775","Lexical Decision Task","19","44673","30","yes","1024"
"2.746890964","9.67","3","plug","word","64.51612903225806","64.51612903225806","1462.2903225806451","1462.2903225806451","black","no","legacy","legacy","legacy","0","uniform","1","undefined","undefined","undefined","1","j","0","0","0","0","30","0","0","0","30","NA","26","30","26","0","26","3","30","0","30","Wed Feb 17 11:59:44 2021","The main experiment item","yes","Lexical_Decision_Task.osexp","C:/CAL","no","Andale Mono","no","18","no","white","no","yes","576","legacy","26","26","3","C:/CAL/subject-5212465.csv","legacy","Lentiform Loewenfeld","3.3.7","yes","yes","600bd7cfb6416f0113b04181","602110864497cf011d9c0822","0","j","NA","space","space","space","NA","j","658","NA","7953","10903","7268","NA","658","2","legacy","1024","2","48000","-16","task","5212465","odd","NA","37680","47638","39684","124093","7368","25543","18275","124595","NA","124091","124595","124018","47638","125254","35590","123517","7346","117775","Lexical Decision Task","20","45331","31","yes","1024"
"3.1430148","7.92","8","bald","word","65.625","65.625","1438.6875","1438.6875","black","no","legacy","legacy","legacy","0","uniform","1","undefined","undefined","undefined","1","j","0","0","0","0","31","0","0","0","31","NA","27","31","27","0","27","3","31","0","31","Wed Feb 17 11:59:44 2021","The main experiment item","yes","Lexical_Decision_Task.osexp","C:/CAL","no","Andale Mono","no","18","no","white","no","yes","576","legacy","27","27","3","C:/CAL/subject-5212465.csv","legacy","Lentiform Loewenfeld","3.3.7","yes","yes","600bd7cfb6416f0113b04181","602110864497cf011d9c0822","0","j","NA","space","space","space","NA","j","707","NA","7953","10903","7268","NA","707","2","legacy","1024","2","48000","-16","task","5212465","odd","NA","37680","47638","39684","125840","7368","25543","18275","126341","NA","125838","126341","125765","47638","127049","35590","125265","7346","117775","Lexical Decision Task","21","46038","32","yes","1024"
"2.86332286","6.71","2","feud","word","63.63636363636363","63.63636363636363","1437.4545454545455","1437.4545454545455","black","no","legacy","legacy","legacy","0","uniform","0","undefined","undefined","undefined","0","j","0","0","0","0","32","0","0","0","32","NA","28","32","28","0","28","3","32","0","32","Wed Feb 17 11:59:44 2021","The main experiment item","yes","Lexical_Decision_Task.osexp","C:/CAL","no","Andale Mono","no","18","no","white","no","yes","576","legacy","28","28","3","C:/CAL/subject-5212465.csv","legacy","Lentiform Loewenfeld","3.3.7","yes","yes","600bd7cfb6416f0113b04181","602110864497cf011d9c0822","0","f","NA","space","space","space","NA","f","1398","NA","7953","10903","7268","NA","1398","2","legacy","1024","2","48000","-16","task","5212465","odd","NA","37680","47638","39684","127635","7368","25543","18275","128139","NA","127633","128139","127560","47638","129537","35590","127060","7346","117775","Lexical Decision Task","21","47436","33","yes","1024"
"3.153104174","10.89","6","door","word","64.70588235294117","64.70588235294117","1423.0294117647059","1423.0294117647059","black","no","legacy","legacy","legacy","0","uniform","1","undefined","undefined","undefined","1","j","0","0","0","0","33","0","0","0","33","NA","29","33","29","0","29","3","33","0","33","Wed Feb 17 11:59:44 2021","The main experiment item","yes","Lexical_Decision_Task.osexp","C:/CAL","no","Andale Mono","no","18","no","white","no","yes","576","legacy","29","29","3","C:/CAL/subject-5212465.csv","legacy","Lentiform Loewenfeld","3.3.7","yes","yes","600bd7cfb6416f0113b04181","602110864497cf011d9c0822","0","j","NA","space","space","space","NA","j","947","NA","7953","10903","7268","NA","947","2","legacy","1024","2","48000","-16","task","5212465","odd","NA","37680","47638","39684","131123","7368","25543","18275","131626","NA","131121","131626","131042","47638","132574","35590","127060","7346","129542","Lexical Decision Task","22","48383","34","yes","1024"
"2.937852093","0","7","bamp","non-word","65.71428571428571","65.71428571428571","1457.942857142857","1457.942857142857","black","no","legacy","legacy","legacy","0","uniform","1","undefined","undefined","undefined","1","f","0","0","0","0","34","0","0","0","34","NA","30","34","30","0","30","3","34","0","34","Wed Feb 17 11:59:44 2021","The main experiment item","yes","Lexical_Decision_Task.osexp","C:/CAL","no","Andale Mono","no","18","no","white","no","yes","576","legacy","30","30","3","C:/CAL/subject-5212465.csv","legacy","Lentiform Loewenfeld","3.3.7","yes","yes","600bd7cfb6416f0113b04181","602110864497cf011d9c0822","0","f","NA","space","space","space","NA","f","2645","NA","7953","10903","7268","NA","2645","2","legacy","1024","2","48000","-16","task","5212465","odd","NA","37680","47638","39684","133163","7368","25543","18275","133665","NA","133162","133665","133086","47638","136311","35590","132586","7346","129542","Lexical Decision Task","23","51028","35","yes","1024"
"2.809559715","8.44","4","volt","word","66.66666666666667","66.66666666666667","1450.0833333333333","1450.0833333333333","black","no","legacy","legacy","legacy","0","uniform","1","undefined","undefined","undefined","1","j","0","0","0","0","35","0","0","0","35","NA","31","35","31","0","31","3","35","0","35","Wed Feb 17 11:59:44 2021","The main experiment item","yes","Lexical_Decision_Task.osexp","C:/CAL","no","Andale Mono","no","18","no","white","no","yes","576","legacy","31","31","3","C:/CAL/subject-5212465.csv","legacy","Lentiform Loewenfeld","3.3.7","yes","yes","600bd7cfb6416f0113b04181","602110864497cf011d9c0822","0","j","NA","space","space","space","NA","j","1175","NA","7953","10903","7268","NA","1175","2","legacy","1024","2","48000","-16","task","5212465","odd","NA","37680","47638","39684","136902","7368","25543","18275","137404","NA","136900","137404","136822","47638","138580","35590","136322","7346","129542","Lexical Decision Task","24","52203","36","yes","1024"
"2.920123326","7.43","4","duel","word","67.56756756756756","67.56756756756756","1429.8108108108108","1429.8108108108108","black","no","legacy","legacy","legacy","0","uniform","1","undefined","undefined","undefined","1","j","0","0","0","0","36","0","0","0","36","NA","32","36","32","0","32","3","36","0","36","Wed Feb 17 11:59:44 2021","The main experiment item","yes","Lexical_Decision_Task.osexp","C:/CAL","no","Andale Mono","no","18","no","white","no","yes","576","legacy","32","32","3","C:/CAL/subject-5212465.csv","legacy","Lentiform Loewenfeld","3.3.7","yes","yes","600bd7cfb6416f0113b04181","602110864497cf011d9c0822","0","j","NA","space","space","space","NA","j","700","NA","7953","10903","7268","NA","700","2","legacy","1024","2","48000","-16","task","5212465","odd","NA","37680","47638","39684","139167","7368","25543","18275","139668","NA","139166","139668","139090","47638","140368","35590","138590","7346","129542","Lexical Decision Task","25","52903","37","yes","1024"
"2.793790385","5.67","9","swab","word","68.42105263157895","68.42105263157895","1422.4736842105262","1422.4736842105262","black","no","legacy","legacy","legacy","0","uniform","1","undefined","undefined","undefined","1","j","0","0","0","0","37","0","0","0","37","NA","33","37","33","0","33","3","37","0","37","Wed Feb 17 11:59:44 2021","The main experiment item","yes","Lexical_Decision_Task.osexp","C:/CAL","no","Andale Mono","no","18","no","white","no","yes","576","legacy","33","33","3","C:/CAL/subject-5212465.csv","legacy","Lentiform Loewenfeld","3.3.7","yes","yes","600bd7cfb6416f0113b04181","602110864497cf011d9c0822","0","j","NA","space","space","space","NA","j","1151","NA","7953","10903","7268","NA","1151","2","legacy","1024","2","48000","-16","task","5212465","odd","NA","37680","47638","39684","140955","7368","25543","18275","141458","NA","140954","141458","140879","47638","142610","35590","140379","7346","129542","Lexical Decision Task","26","54054","38","yes","1024"
"2.6599162","0","2","saff","non-word","69.23076923076923","69.23076923076923","1419.8461538461538","1419.8461538461538","black","no","legacy","legacy","legacy","0","uniform","1","undefined","undefined","undefined","1","f","0","0","0","0","38","0","0","0","38","NA","34","38","34","0","34","3","38","0","38","Wed Feb 17 11:59:44 2021","The main experiment item","yes","Lexical_Decision_Task.osexp","C:/CAL","no","Andale Mono","no","18","no","white","no","yes","576","legacy","34","34","3","C:/CAL/subject-5212465.csv","legacy","Lentiform Loewenfeld","3.3.7","yes","yes","600bd7cfb6416f0113b04181","602110864497cf011d9c0822","0","f","NA","space","space","space","NA","f","1320","NA","7953","10903","7268","NA","1320","2","legacy","1024","2","48000","-16","task","5212465","odd","NA","37680","47638","39684","143199","7368","25543","18275","143701","NA","143197","143701","143120","47638","145022","35590","142620","7346","129542","Lexical Decision Task","27","55374","39","yes","1024"
"2.983324025","9.56","2","debt","word","70","70","1404.475","1404.475","black","no","legacy","legacy","legacy","0","uniform","1","undefined","undefined","undefined","1","j","0","0","0","0","39","0","0","0","39","NA","35","39","35","0","35","3","39","0","39","Wed Feb 17 11:59:44 2021","The main experiment item","yes","Lexical_Decision_Task.osexp","C:/CAL","no","Andale Mono","no","18","no","white","no","yes","576","legacy","35","35","3","C:/CAL/subject-5212465.csv","legacy","Lentiform Loewenfeld","3.3.7","yes","yes","600bd7cfb6416f0113b04181","602110864497cf011d9c0822","0","j","NA","space","space","space","NA","j","805","NA","7953","10903","7268","NA","805","2","legacy","1024","2","48000","-16","task","5212465","odd","NA","37680","47638","39684","145610","7368","25543","18275","146111","NA","145608","146112","145534","47638","146918","35590","145034","7346","129542","Lexical Decision Task","28","56179","40","yes","1024"
"3.299579929","0","2","flis","non-word","70.73170731707317","70.73170731707317","1401.878048780488","1401.878048780488","black","no","legacy","legacy","legacy","0","uniform","1","undefined","undefined","undefined","1","f","0","0","0","0","40","0","0","0","40","NA","36","40","36","0","36","3","40","0","40","Wed Feb 17 11:59:44 2021","The main experiment item","yes","Lexical_Decision_Task.osexp","C:/CAL","no","Andale Mono","no","18","no","white","no","yes","576","legacy","36","36","3","C:/CAL/subject-5212465.csv","legacy","Lentiform Loewenfeld","3.3.7","yes","yes","600bd7cfb6416f0113b04181","602110864497cf011d9c0822","0","f","NA","space","space","space","NA","f","1298","NA","7953","10903","7268","NA","1298","2","legacy","1024","2","48000","-16","task","5212465","odd","NA","37680","47638","39684","147505","7368","25543","18275","148007","NA","147503","148007","147429","47638","149306","35590","146929","7346","129542","Lexical Decision Task","29","57477","41","yes","1024"
"3.159867847","5.98","5","brim","word","69.04761904761905","69.04761904761905","1395.1190476190477","1395.1190476190477","black","no","legacy","legacy","legacy","0","uniform","0","undefined","undefined","undefined","0","j","0","0","0","0","41","0","0","0","41","NA","37","41","37","0","37","3","41","0","41","Wed Feb 17 11:59:44 2021","The main experiment item","yes","Lexical_Decision_Task.osexp","C:/CAL","no","Andale Mono","no","18","no","white","no","yes","576","legacy","37","37","3","C:/CAL/subject-5212465.csv","legacy","Lentiform Loewenfeld","3.3.7","yes","yes","600bd7cfb6416f0113b04181","602110864497cf011d9c0822","0","f","NA","space","space","space","NA","f","1118","NA","7953","10903","7268","NA","1118","2","legacy","1024","2","48000","-16","task","5212465","odd","NA","37680","47638","39684","149899","7368","25543","18275","150401","NA","149898","150401","149817","47638","151520","35590","149317","7346","129542","Lexical Decision Task","29","58595","42","yes","1024"
"3.091901331","0","9","nipe","non-word","69.76744186046511","69.76744186046511","1383.906976744186","1383.906976744186","black","no","legacy","legacy","legacy","0","uniform","1","undefined","undefined","undefined","1","f","0","0","0","0","42","0","0","0","42","NA","38","42","38","0","38","3","42","0","42","Wed Feb 17 11:59:44 2021","The main experiment item","yes","Lexical_Decision_Task.osexp","C:/CAL","no","Andale Mono","no","18","no","white","no","yes","576","legacy","38","38","3","C:/CAL/subject-5212465.csv","legacy","Lentiform Loewenfeld","3.3.7","yes","yes","600bd7cfb6416f0113b04181","602110864497cf011d9c0822","0","f","NA","space","space","space","NA","f","913","NA","7953","10903","7268","NA","913","2","legacy","1024","2","48000","-16","task","5212465","odd","NA","37680","47638","39684","153121","7368","25543","18275","153625","NA","153119","153626","153031","47638","154540","35590","149317","7346","151531","Lexical Decision Task","30","59508","43","yes","1024"
"3.081107167","0","6","chot","non-word","70.45454545454545","70.45454545454545","1375.0454545454545","1375.0454545454545","black","no","legacy","legacy","legacy","0","uniform","1","undefined","undefined","undefined","1","f","0","0","0","0","43","0","0","0","43","NA","39","43","39","0","39","3","43","0","43","Wed Feb 17 11:59:44 2021","The main experiment item","yes","Lexical_Decision_Task.osexp","C:/CAL","no","Andale Mono","no","18","no","white","no","yes","576","legacy","39","39","3","C:/CAL/subject-5212465.csv","legacy","Lentiform Loewenfeld","3.3.7","yes","yes","600bd7cfb6416f0113b04181","602110864497cf011d9c0822","0","f","NA","space","space","space","NA","f","994","NA","7953","10903","7268","NA","994","2","legacy","1024","2","48000","-16","task","5212465","odd","NA","37680","47638","39684","155128","7368","25543","18275","155630","NA","155126","155630","155050","47638","156625","35590","154550","7346","151531","Lexical Decision Task","31","60502","44","yes","1024"
"2.966923697","5.4","2","fume","word","71.11111111111111","71.11111111111111","1361.1777777777777","1361.1777777777777","black","no","legacy","legacy","legacy","0","uniform","1","undefined","undefined","undefined","1","j","0","0","0","0","44","0","0","0","44","NA","40","44","40","0","40","3","44","0","44","Wed Feb 17 11:59:44 2021","The main experiment item","yes","Lexical_Decision_Task.osexp","C:/CAL","no","Andale Mono","no","18","no","white","no","yes","576","legacy","40","40","3","C:/CAL/subject-5212465.csv","legacy","Lentiform Loewenfeld","3.3.7","yes","yes","600bd7cfb6416f0113b04181","602110864497cf011d9c0822","0","j","NA","space","space","space","NA","j","751","NA","7953","10903","7268","NA","751","2","legacy","1024","2","48000","-16","task","5212465","odd","NA","37680","47638","39684","157211","7368","25543","18275","157712","NA","157209","157712","157136","47638","158464","35590","156635","7346","151531","Lexical Decision Task","32","61253","45","yes","1024"
"3.049218023","7.4","9","robe","word","71.73913043478261","71.73913043478261","1375.0869565217392","1375.0869565217392","black","no","legacy","legacy","legacy","0","uniform","1","undefined","undefined","undefined","1","j","0","0","0","0","45","0","0","0","45","NA","41","45","41","0","41","3","45","0","45","Wed Feb 17 11:59:44 2021","The main experiment item","yes","Lexical_Decision_Task.osexp","C:/CAL","no","Andale Mono","no","18","no","white","no","yes","576","legacy","41","41","3","C:/CAL/subject-5212465.csv","legacy","Lentiform Loewenfeld","3.3.7","yes","yes","600bd7cfb6416f0113b04181","602110864497cf011d9c0822","0","j","NA","space","space","space","NA","j","2001","NA","7953","10903","7268","NA","2001","2","legacy","1024","2","48000","-16","task","5212465","odd","NA","37680","47638","39684","159042","7368","25543","18275","159543","NA","159040","159543","158968","47638","161545","35590","158468","7346","151531","Lexical Decision Task","33","63254","46","yes","1024"
"3.197740804","6.74","3","ache","word","72.34042553191489","72.34042553191489","1364.9574468085107","1364.9574468085107","black","no","legacy","legacy","legacy","0","uniform","1","undefined","undefined","undefined","1","j","0","0","0","0","46","0","0","0","46","NA","42","46","42","0","42","3","46","0","46","Wed Feb 17 11:59:44 2021","The main experiment item","yes","Lexical_Decision_Task.osexp","C:/CAL","no","Andale Mono","no","18","no","white","no","yes","576","legacy","42","42","3","C:/CAL/subject-5212465.csv","legacy","Lentiform Loewenfeld","3.3.7","yes","yes","600bd7cfb6416f0113b04181","602110864497cf011d9c0822","0","j","NA","space","space","space","NA","j","899","NA","7953","10903","7268","NA","899","2","legacy","1024","2","48000","-16","task","5212465","odd","NA","37680","47638","39684","162133","7368","25543","18275","162635","NA","162131","162635","162055","47638","163536","35590","161555","7346","151531","Lexical Decision Task","34","64153","47","yes","1024"
"3.368162872","0","4","ferk","non-word","72.91666666666667","72.91666666666667","1368.8333333333333","1368.8333333333333","black","no","legacy","legacy","legacy","0","uniform","1","undefined","undefined","undefined","1","f","0","0","0","0","47","0","0","0","47","NA","43","47","43","0","43","3","47","0","47","Wed Feb 17 11:59:44 2021","The main experiment item","yes","Lexical_Decision_Task.osexp","C:/CAL","no","Andale Mono","no","18","no","white","no","yes","576","legacy","43","43","3","C:/CAL/subject-5212465.csv","legacy","Lentiform Loewenfeld","3.3.7","yes","yes","600bd7cfb6416f0113b04181","602110864497cf011d9c0822","0","f","NA","space","space","space","NA","f","1551","NA","7953","10903","7268","NA","1551","2","legacy","1024","2","48000","-16","task","5212465","odd","NA","37680","47638","39684","164122","7368","25543","18275","164623","NA","164120","164623","164046","47638","166175","35590","163546","7346","151531","Lexical Decision Task","35","65704","48","yes","1024"
"3.120025233","0","2","nyst","non-word","73.46938775510205","73.46938775510205","1359.3469387755101","1359.3469387755101","black","no","legacy","legacy","legacy","0","uniform","1","undefined","undefined","undefined","1","f","0","0","0","0","48","0","0","0","48","NA","44","48","44","0","44","3","48","0","48","Wed Feb 17 11:59:44 2021","The main experiment item","yes","Lexical_Decision_Task.osexp","C:/CAL","no","Andale Mono","no","18","no","white","no","yes","576","legacy","44","44","3","C:/CAL/subject-5212465.csv","legacy","Lentiform Loewenfeld","3.3.7","yes","yes","600bd7cfb6416f0113b04181","602110864497cf011d9c0822","0","f","NA","space","space","space","NA","f","904","NA","7953","10903","7268","NA","904","2","legacy","1024","2","48000","-16","task","5212465","odd","NA","37680","47638","39684","166764","7368","25543","18275","167266","NA","166762","167266","166687","47638","168172","35590","166187","7346","151531","Lexical Decision Task","36","66608","49","yes","1024"
"2.807758206","6.25","4","hurl","word","72","72","1348.98","1348.98","black","no","legacy","legacy","legacy","0","uniform","0","undefined","undefined","undefined","0","j","0","0","0","0","49","0","0","0","49","NA","45","49","45","0","45","3","49","0","49","Wed Feb 17 11:59:44 2021","The main experiment item","yes","Lexical_Decision_Task.osexp","C:/CAL","no","Andale Mono","no","18","no","white","no","yes","576","legacy","45","45","3","C:/CAL/subject-5212465.csv","legacy","Lentiform Loewenfeld","3.3.7","yes","yes","600bd7cfb6416f0113b04181","602110864497cf011d9c0822","0","f","NA","space","space","space","NA","f","841","NA","7953","10903","7268","NA","841","2","legacy","1024","2","48000","-16","task","5212465","odd","NA","37680","47638","39684","168763","7368","25543","18275","169264","NA","168761","169265","168684","47638","170107","35590","168184","7346","151531","Lexical Decision Task","36","67449","50","yes","1024"
"3.531734309","0","6","lerd","non-word","70.58823529411765","70.58823529411765","1342.3529411764705","1342.3529411764705","black","no","legacy","legacy","legacy","0","uniform","0","undefined","undefined","undefined","0","f","0","0","0","0","50","0","0","0","50","NA","46","50","46","0","46","3","50","0","50","Wed Feb 17 11:59:44 2021","The main experiment item","yes","Lexical_Decision_Task.osexp","C:/CAL","no","Andale Mono","no","18","no","white","no","yes","576","legacy","46","46","3","C:/CAL/subject-5212465.csv","legacy","Lentiform Loewenfeld","3.3.7","yes","yes","600bd7cfb6416f0113b04181","602110864497cf011d9c0822","0","j","NA","space","space","space","NA","j","1011","NA","7953","10903","7268","NA","1011","2","legacy","1024","2","48000","-16","task","5212465","odd","NA","37680","47638","39684","171697","7368","25543","18275","172200","NA","171695","172200","171618","47638","173213","35590","168184","7346","170118","Lexical Decision Task","36","68460","51","yes","1024"
"3.440331212","7.35","6","stew","word","71.15384615384616","71.15384615384616","1331.2307692307693","1331.2307692307693","black","no","legacy","legacy","legacy","0","uniform","1","undefined","undefined","undefined","1","j","0","0","0","0","51","0","0","0","51","NA","47","51","47","0","47","3","51","0","51","Wed Feb 17 11:59:44 2021","The main experiment item","yes","Lexical_Decision_Task.osexp","C:/CAL","no","Andale Mono","no","18","no","white","no","yes","576","legacy","47","47","3","C:/CAL/subject-5212465.csv","legacy","Lentiform Loewenfeld","3.3.7","yes","yes","600bd7cfb6416f0113b04181","602110864497cf011d9c0822","0","j","NA","space","space","space","NA","j","764","NA","7953","10903","7268","NA","764","2","legacy","1024","2","48000","-16","task","5212465","odd","NA","37680","47638","39684","174809","7368","25543","18275","175310","NA","174808","175311","174725","47638","176076","35590","168184","7346","173225","Lexical Decision Task","37","69224","52","yes","1024"
"3.218535505","7.85","7","goat","word","71.69811320754717","71.69811320754717","1317.132075471698","1317.132075471698","black","no","legacy","legacy","legacy","0","uniform","1","undefined","undefined","undefined","1","j","0","0","0","0","52","0","0","0","52","NA","48","52","48","0","48","3","52","0","52","Wed Feb 17 11:59:44 2021","The main experiment item","yes","Lexical_Decision_Task.osexp","C:/CAL","no","Andale Mono","no","18","no","white","no","yes","576","legacy","48","48","3","C:/CAL/subject-5212465.csv","legacy","Lentiform Loewenfeld","3.3.7","yes","yes","600bd7cfb6416f0113b04181","602110864497cf011d9c0822","0","j","NA","space","space","space","NA","j","584","NA","7953","10903","7268","NA","584","2","legacy","1024","2","48000","-16","task","5212465","odd","NA","37680","47638","39684","176680","7368","25543","18275","177182","NA","176678","177182","176581","47638","177767","35590","176081","7346","173225","Lexical Decision Task","38","69808","53","yes","1024"
"2.594027722","9.08","8","skip","word","72.22222222222223","72.22222222222223","1310.7222222222222","1310.7222222222222","black","no","legacy","legacy","legacy","0","uniform","1","undefined","undefined","undefined","1","j","0","0","0","0","53","0","0","0","53","NA","49","53","49","0","49","3","53","0","53","Wed Feb 17 11:59:44 2021","The main experiment item","yes","Lexical_Decision_Task.osexp","C:/CAL","no","Andale Mono","no","18","no","white","no","yes","576","legacy","49","49","3","C:/CAL/subject-5212465.csv","legacy","Lentiform Loewenfeld","3.3.7","yes","yes","600bd7cfb6416f0113b04181","602110864497cf011d9c0822","0","j","NA","space","space","space","NA","j","971","NA","7953","10903","7268","NA","971","2","legacy","1024","2","48000","-16","task","5212465","odd","NA","37680","47638","39684","178356","7368","25543","18275","178857","NA","178354","178857","178278","47638","179829","35590","177778","7346","173225","Lexical Decision Task","39","70779","54","yes","1024"
"2.952953801","0","8","clax","non-word","72.72727272727273","72.72727272727273","1304.9818181818182","1304.9818181818182","black","no","legacy","legacy","legacy","0","uniform","1","undefined","undefined","undefined","1","f","0","0","0","0","54","0","0","0","54","0","50","54","50","0","50","3","54","0","54","Wed Feb 17 11:59:44 2021","The main experiment item","yes","Lexical_Decision_Task.osexp","C:/CAL","no","Andale Mono","no","18","no","white","no","yes","576","legacy","50","50","3","C:/CAL/subject-5212465.csv","legacy","Lentiform Loewenfeld","3.3.7","yes","yes","600bd7cfb6416f0113b04181","602110864497cf011d9c0822","0","f","NA","space","space","space","space","f","995","NA","7953","10903","7268","3827","995","2","legacy","1024","2","48000","-16","task","5212465","odd","NA","37680","47638","39684","184302","7368","25543","18275","184805","180390","184300","184805","180341","47638","185801","35590","179841","7346","173225","Lexical Decision Task","40","71774","55","yes","1024"
"3.374137706","10.21","4","tree","word","73.21428571428571","73.21428571428571","1292.625","1292.625","black","no","legacy","legacy","legacy","0","uniform","1","undefined","undefined","undefined","1","j","0","0","0","0","55","0","0","0","55","0","51","55","51","0","51","3","55","0","55","Wed Feb 17 11:59:44 2021","The main experiment item","yes","Lexical_Decision_Task.osexp","C:/CAL","no","Andale Mono","no","18","no","white","no","yes","576","legacy","51","51","3","C:/CAL/subject-5212465.csv","legacy","Lentiform Loewenfeld","3.3.7","yes","yes","600bd7cfb6416f0113b04181","602110864497cf011d9c0822","0","j","NA","space","space","space","space","j","613","NA","7953","10903","7268","3827","613","2","legacy","1024","2","48000","-16","task","5212465","odd","NA","37680","47638","39684","186391","7368","25543","18275","186892","180390","186389","186893","186312","47638","187508","35590","185811","7346","173225","Lexical Decision Task","41","72387","56","yes","1024"
"3.149629599","0","2","cleb","non-word","73.6842105263158","73.6842105263158","1286.0526315789473","1286.0526315789473","black","no","legacy","legacy","legacy","0","uniform","1","undefined","undefined","undefined","1","f","0","0","0","0","56","0","0","0","56","0","52","56","52","0","52","3","56","0","56","Wed Feb 17 11:59:44 2021","The main experiment item","yes","Lexical_Decision_Task.osexp","C:/CAL","no","Andale Mono","no","18","no","white","no","yes","576","legacy","52","52","3","C:/CAL/subject-5212465.csv","legacy","Lentiform Loewenfeld","3.3.7","yes","yes","600bd7cfb6416f0113b04181","602110864497cf011d9c0822","0","f","NA","space","space","space","space","f","918","NA","7953","10903","7268","3827","918","2","legacy","1024","2","48000","-16","task","5212465","odd","NA","37680","47638","39684","188095","7368","25543","18275","188598","180390","188093","188598","188018","47638","189517","35590","187518","7346","173225","Lexical Decision Task","42","73305","57","yes","1024"
"3.307211407","6.07","7","honk","word","74.13793103448276","74.13793103448276","1274.655172413793","1274.655172413793","black","no","legacy","legacy","legacy","0","uniform","1","undefined","undefined","undefined","1","j","0","0","0","0","57","0","0","0","57","0","53","57","53","0","53","3","57","0","57","Wed Feb 17 11:59:44 2021","The main experiment item","yes","Lexical_Decision_Task.osexp","C:/CAL","no","Andale Mono","no","18","no","white","no","yes","576","legacy","53","53","3","C:/CAL/subject-5212465.csv","legacy","Lentiform Loewenfeld","3.3.7","yes","yes","600bd7cfb6416f0113b04181","602110864497cf011d9c0822","0","j","NA","space","space","space","space","j","625","NA","7953","10903","7268","3827","625","2","legacy","1024","2","48000","-16","task","5212465","odd","NA","37680","47638","39684","190106","7368","25543","18275","190607","180390","190104","190608","190029","47638","191234","35590","189529","7346","173225","Lexical Decision Task","43","73930","58","yes","1024"
"2.69019608","9.01","2","myth","word","74.57627118644068","74.57627118644068","1264.2881355932204","1264.2881355932204","black","no","legacy","legacy","legacy","0","uniform","1","undefined","undefined","undefined","1","j","0","0","0","0","58","0","0","0","58","0","54","58","54","0","54","3","58","0","58","Wed Feb 17 11:59:44 2021","The main experiment item","yes","Lexical_Decision_Task.osexp","C:/CAL","no","Andale Mono","no","18","no","white","no","yes","576","legacy","54","54","3","C:/CAL/subject-5212465.csv","legacy","Lentiform Loewenfeld","3.3.7","yes","yes","600bd7cfb6416f0113b04181","602110864497cf011d9c0822","0","j","NA","space","space","space","space","j","663","NA","7953","10903","7268","3827","663","2","legacy","1024","2","48000","-16","task","5212465","odd","NA","37680","47638","39684","191820","7368","25543","18275","192323","180390","191819","192323","191745","47638","192987","35590","191245","7346","173225","Lexical Decision Task","44","74593","59","yes","1024"
"3.077974404","10.41","8","tool","word","75","75","1252.9166666666667","1252.9166666666667","black","no","legacy","legacy","legacy","0","uniform","1","undefined","undefined","undefined","1","j","0","0","0","0","59","0","0","0","59","0","55","59","55","0","55","3","59","0","59","Wed Feb 17 11:59:44 2021","The main experiment item","yes","Lexical_Decision_Task.osexp","C:/CAL","no","Andale Mono","no","18","no","white","no","yes","576","legacy","55","55","3","C:/CAL/subject-5212465.csv","legacy","Lentiform Loewenfeld","3.3.7","yes","yes","600bd7cfb6416f0113b04181","602110864497cf011d9c0822","0","j","NA","space","space","space","space","j","582","NA","7953","10903","7268","3827","582","2","legacy","1024","2","48000","-16","task","5212465","odd","NA","37680","47638","39684","193581","7368","25543","18275","194082","180390","193579","194083","193503","47638","194666","35590","193003","7346","173225","Lexical Decision Task","45","75175","60","yes","1024"
"3.119255889","6.63","2","itch","word","75.40983606557377","75.40983606557377","1243.016393442623","1243.016393442623","black","no","legacy","legacy","legacy","0","uniform","1","undefined","undefined","undefined","1","j","0","0","0","0","60","0","0","0","60","0","56","60","56","0","56","3","60","0","60","Wed Feb 17 11:59:44 2021","The main experiment item","yes","Lexical_Decision_Task.osexp","C:/CAL","no","Andale Mono","no","18","no","white","no","yes","576","legacy","56","56","3","C:/CAL/subject-5212465.csv","legacy","Lentiform Loewenfeld","3.3.7","yes","yes","600bd7cfb6416f0113b04181","602110864497cf011d9c0822","0","j","NA","space","space","space","space","j","649","NA","7953","10903","7268","3827","649","2","legacy","1024","2","48000","-16","task","5212465","odd","NA","37680","47638","39684","195264","7368","25543","18275","195766","180390","195261","195766","195178","47638","196416","35590","194677","7346","173225","Lexical Decision Task","46","75824","61","yes","1024"
"2.873320602","0","4","lurg","non-word","75.80645161290323","75.80645161290323","1236.4354838709678","1236.4354838709678","black","no","legacy","legacy","legacy","0","uniform","1","undefined","undefined","undefined","1","f","0","0","0","0","61","0","0","0","61","0","57","61","57","0","57","3","61","0","61","Wed Feb 17 11:59:44 2021","The main experiment item","yes","Lexical_Decision_Task.osexp","C:/CAL","no","Andale Mono","no","18","no","white","no","yes","576","legacy","57","57","3","C:/CAL/subject-5212465.csv","legacy","Lentiform Loewenfeld","3.3.7","yes","yes","600bd7cfb6416f0113b04181","602110864497cf011d9c0822","0","f","NA","space","space","space","space","f","835","NA","7953","10903","7268","3827","835","2","legacy","1024","2","48000","-16","task","5212465","odd","NA","37680","47638","39684","197005","7368","25543","18275","197507","180390","197003","197507","196928","47638","198343","35590","196428","7346","173225","Lexical Decision Task","47","76659","62","yes","1024"
"2.953276337","6.32","4","thaw","word","74.60317460317461","74.60317460317461","1239.4285714285713","1239.4285714285713","black","no","legacy","legacy","legacy","0","uniform","0","undefined","undefined","undefined","0","j","0","0","0","0","62","0","0","0","62","0","58","62","58","0","58","3","62","0","62","Wed Feb 17 11:59:44 2021","The main experiment item","yes","Lexical_Decision_Task.osexp","C:/CAL","no","Andale Mono","no","18","no","white","no","yes","576","legacy","58","58","3","C:/CAL/subject-5212465.csv","legacy","Lentiform Loewenfeld","3.3.7","yes","yes","600bd7cfb6416f0113b04181","602110864497cf011d9c0822","0","f","NA","space","space","space","space","f","1425","NA","7953","10903","7268","3827","1425","2","legacy","1024","2","48000","-16","task","5212465","odd","NA","37680","47638","39684","198930","7368","25543","18275","199431","180390","198928","199431","198854","47638","200857","35590","198354","7346","173225","Lexical Decision Task","47","78084","63","yes","1024"
"2.858136002","0","4","phip","non-word","75","75","1232.78125","1232.78125","black","no","legacy","legacy","legacy","0","uniform","1","undefined","undefined","undefined","1","f","0","0","0","0","63","0","0","0","63","0","59","63","59","0","59","3","63","0","63","Wed Feb 17 11:59:44 2021","The main experiment item","yes","Lexical_Decision_Task.osexp","C:/CAL","no","Andale Mono","no","18","no","white","no","yes","576","legacy","59","59","3","C:/CAL/subject-5212465.csv","legacy","Lentiform Loewenfeld","3.3.7","yes","yes","600bd7cfb6416f0113b04181","602110864497cf011d9c0822","0","f","NA","space","space","space","space","f","814","NA","7953","10903","7268","3827","814","2","legacy","1024","2","48000","-16","task","5212465","odd","NA","37680","47638","39684","202449","7368","25543","18275","202951","180390","202448","202952","202368","47638","203768","35590","198354","7346","200868","Lexical Decision Task","48","78898","64","yes","1024"
"3.16326079","0","5","parg","non-word","75.38461538461539","75.38461538461539","1249.1692307692308","1249.1692307692308","black","no","legacy","legacy","legacy","0","uniform","1","undefined","undefined","undefined","1","f","0","0","0","0","64","0","0","0","64","0","60","64","60","0","60","3","64","0","64","Wed Feb 17 11:59:44 2021","The main experiment item","yes","Lexical_Decision_Task.osexp","C:/CAL","no","Andale Mono","no","18","no","white","no","yes","576","legacy","60","60","3","C:/CAL/subject-5212465.csv","legacy","Lentiform Loewenfeld","3.3.7","yes","yes","600bd7cfb6416f0113b04181","602110864497cf011d9c0822","0","f","NA","space","space","space","space","f","2298","NA","7953","10903","7268","3827","2298","2","legacy","1024","2","48000","-16","task","5212465","odd","NA","37680","47638","39684","204356","7368","25543","18275","204857","180390","204354","204858","204278","47638","207158","35590","203778","7346","200868","Lexical Decision Task","49","81196","65","yes","1024"
"2.705007959","6.01","4","wept","word","75.75757575757575","75.75757575757575","1247.2424242424242","1247.2424242424242","black","no","legacy","legacy","legacy","0","uniform","1","undefined","undefined","undefined","1","j","0","0","0","0","65","0","0","0","65","0","61","65","61","0","61","3","65","0","65","Wed Feb 17 11:59:44 2021","The main experiment item","yes","Lexical_Decision_Task.osexp","C:/CAL","no","Andale Mono","no","18","no","white","no","yes","576","legacy","61","61","3","C:/CAL/subject-5212465.csv","legacy","Lentiform Loewenfeld","3.3.7","yes","yes","600bd7cfb6416f0113b04181","602110864497cf011d9c0822","0","j","NA","space","space","space","space","j","1122","NA","7953","10903","7268","3827","1122","2","legacy","1024","2","48000","-16","task","5212465","odd","NA","37680","47638","39684","207746","7368","25543","18275","208247","180390","207744","208247","207669","47638","209371","35590","207168","7346","200868","Lexical Decision Task","50","82318","66","yes","1024"
"2.664328519","0","4","plux","non-word","76.11940298507463","76.11940298507463","1256.1492537313434","1256.1492537313434","black","no","legacy","legacy","legacy","0","uniform","1","undefined","undefined","undefined","1","f","0","0","0","0","66","0","0","0","66","0","62","66","62","0","62","3","66","0","66","Wed Feb 17 11:59:44 2021","The main experiment item","yes","Lexical_Decision_Task.osexp","C:/CAL","no","Andale Mono","no","18","no","white","no","yes","576","legacy","62","62","3","C:/CAL/subject-5212465.csv","legacy","Lentiform Loewenfeld","3.3.7","yes","yes","600bd7cfb6416f0113b04181","602110864497cf011d9c0822","0","f","NA","space","space","space","space","f","1844","NA","7953","10903","7268","3827","1844","2","legacy","1024","2","48000","-16","task","5212465","odd","NA","37680","47638","39684","209953","7368","25543","18275","210455","180390","209951","210455","209876","47638","212301","35590","209375","7346","200868","Lexical Decision Task","51","84162","67","yes","1024"
"2.971428938","9.86","7","spot","word","76.47058823529412","76.47058823529412","1247.2058823529412","1247.2058823529412","black","no","legacy","legacy","legacy","0","uniform","1","undefined","undefined","undefined","1","j","0","0","0","0","67","0","0","0","67","0","63","67","63","0","63","3","67","0","67","Wed Feb 17 11:59:44 2021","The main experiment item","yes","Lexical_Decision_Task.osexp","C:/CAL","no","Andale Mono","no","18","no","white","no","yes","576","legacy","63","63","3","C:/CAL/subject-5212465.csv","legacy","Lentiform Loewenfeld","3.3.7","yes","yes","600bd7cfb6416f0113b04181","602110864497cf011d9c0822","0","j","NA","space","space","space","space","j","648","NA","7953","10903","7268","3827","648","2","legacy","1024","2","48000","-16","task","5212465","odd","NA","37680","47638","39684","212887","7368","25543","18275","213388","180390","212885","213388","212811","47638","214037","35590","212311","7346","200868","Lexical Decision Task","52","84810","68","yes","1024"
"3.397302518","7.01","2","knit","word","76.81159420289855","76.81159420289855","1238.7101449275362","1238.7101449275362","black","no","legacy","legacy","legacy","0","uniform","1","undefined","undefined","undefined","1","j","0","0","0","0","68","0","0","0","68","0","64","68","64","0","64","3","68","0","68","Wed Feb 17 11:59:44 2021","The main experiment item","yes","Lexical_Decision_Task.osexp","C:/CAL","no","Andale Mono","no","18","no","white","no","yes","576","legacy","64","64","3","C:/CAL/subject-5212465.csv","legacy","Lentiform Loewenfeld","3.3.7","yes","yes","600bd7cfb6416f0113b04181","602110864497cf011d9c0822","0","j","NA","space","space","space","space","j","661","NA","7953","10903","7268","3827","661","2","legacy","1024","2","48000","-16","task","5212465","odd","NA","37680","47638","39684","214626","7368","25543","18275","215127","180390","214624","215127","214550","47638","215789","35590","214050","7346","200868","Lexical Decision Task","53","85471","69","yes","1024"
"3.259832699","0","9","flar","non-word","77.14285714285714","77.14285714285714","1247","1247","black","no","legacy","legacy","legacy","0","uniform","1","undefined","undefined","undefined","1","f","0","0","0","0","69","0","0","0","69","0","65","69","65","0","65","3","69","0","69","Wed Feb 17 11:59:44 2021","The main experiment item","yes","Lexical_Decision_Task.osexp","C:/CAL","no","Andale Mono","no","18","no","white","no","yes","576","legacy","65","65","3","C:/CAL/subject-5212465.csv","legacy","Lentiform Loewenfeld","3.3.7","yes","yes","600bd7cfb6416f0113b04181","602110864497cf011d9c0822","0","f","NA","space","space","space","space","f","1819","NA","7953","10903","7268","3827","1819","2","legacy","1024","2","48000","-16","task","5212465","odd","NA","37680","47638","39684","216378","7368","25543","18275","216880","180390","216377","216880","216300","47638","218701","35590","215800","7346","200868","Lexical Decision Task","54","87290","70","yes","1024"
"3.174641193","0","3","ramb","non-word","76.05633802816901","76.05633802816901","1245.0985915492959","1245.0985915492959","black","no","legacy","legacy","legacy","0","uniform","0","undefined","undefined","undefined","0","f","0","0","0","0","70","0","0","0","70","0","66","70","66","0","66","3","70","0","70","Wed Feb 17 11:59:44 2021","The main experiment item","yes","Lexical_Decision_Task.osexp","C:/CAL","no","Andale Mono","no","18","no","white","no","yes","576","legacy","66","66","3","C:/CAL/subject-5212465.csv","legacy","Lentiform Loewenfeld","3.3.7","yes","yes","600bd7cfb6416f0113b04181","602110864497cf011d9c0822","0","j","NA","space","space","space","space","j","1112","NA","7953","10903","7268","3827","1112","2","legacy","1024","2","48000","-16","task","5212465","odd","NA","37680","47638","39684","219285","7368","25543","18275","219786","180390","219284","219787","219205","47638","220900","35590","218705","7346","200868","Lexical Decision Task","54","88402","71","yes","1024"
"3.374198258","0","8","vist","non-word","75","75","1246.75","1246.75","black","no","legacy","legacy","legacy","0","uniform","0","undefined","undefined","undefined","0","f","0","0","0","0","71","0","0","0","71","0","67","71","67","0","67","3","71","0","71","Wed Feb 17 11:59:44 2021","The main experiment item","yes","Lexical_Decision_Task.osexp","C:/CAL","no","Andale Mono","no","18","no","white","no","yes","576","legacy","67","67","3","C:/CAL/subject-5212465.csv","legacy","Lentiform Loewenfeld","3.3.7","yes","yes","600bd7cfb6416f0113b04181","602110864497cf011d9c0822","0","j","NA","space","space","space","space","j","1364","NA","7953","10903","7268","3827","1364","2","legacy","1024","2","48000","-16","task","5212465","odd","NA","37680","47638","39684","222493","7368","25543","18275","222996","180390","222491","222997","222411","47638","224362","35590","218705","7346","220911","Lexical Decision Task","54","89766","72","yes","1024"
"2.819763221","0","2","durp","non-word","75.34246575342466","75.34246575342466","1241.5205479452054","1241.5205479452054","black","no","legacy","legacy","legacy","0","uniform","1","undefined","undefined","undefined","1","f","0","0","0","0","72","0","0","0","72","0","68","72","68","0","68","3","72","0","72","Wed Feb 17 11:59:44 2021","The main experiment item","yes","Lexical_Decision_Task.osexp","C:/CAL","no","Andale Mono","no","18","no","white","no","yes","576","legacy","68","68","3","C:/CAL/subject-5212465.csv","legacy","Lentiform Loewenfeld","3.3.7","yes","yes","600bd7cfb6416f0113b04181","602110864497cf011d9c0822","0","f","NA","space","space","space","space","f","865","NA","7953","10903","7268","3827","865","2","legacy","1024","2","48000","-16","task","5212465","odd","NA","37680","47638","39684","225948","7368","25543","18275","226451","180390","225946","226451","225867","47638","227318","35590","218705","7346","224367","Lexical Decision Task","55","90631","73","yes","1024"
"2.68604012","0","3","mulb","non-word","75.67567567567568","75.67567567567568","1236.8243243243244","1236.8243243243244","black","no","legacy","legacy","legacy","0","uniform","1","undefined","undefined","undefined","1","f","0","0","0","0","73","0","0","0","73","0","69","73","69","0","69","3","73","0","73","Wed Feb 17 11:59:44 2021","The main experiment item","yes","Lexical_Decision_Task.osexp","C:/CAL","no","Andale Mono","no","18","no","white","no","yes","576","legacy","69","69","3","C:/CAL/subject-5212465.csv","legacy","Lentiform Loewenfeld","3.3.7","yes","yes","600bd7cfb6416f0113b04181","602110864497cf011d9c0822","0","f","NA","space","space","space","space","f","894","NA","7953","10903","7268","3827","894","2","legacy","1024","2","48000","-16","task","5212465","odd","NA","37680","47638","39684","227905","7368","25543","18275","228407","180390","227903","228407","227829","47638","229302","35590","227329","7346","224367","Lexical Decision Task","56","91525","74","yes","1024"
"3.100255637","0","6","brax","non-word","76","76","1230.2133333333334","1230.2133333333334","black","no","legacy","legacy","legacy","0","uniform","1","undefined","undefined","undefined","1","f","0","0","0","0","74","0","0","0","74","0","70","74","70","0","70","3","74","0","74","Wed Feb 17 11:59:44 2021","The main experiment item","yes","Lexical_Decision_Task.osexp","C:/CAL","no","Andale Mono","no","18","no","white","no","yes","576","legacy","70","70","3","C:/CAL/subject-5212465.csv","legacy","Lentiform Loewenfeld","3.3.7","yes","yes","600bd7cfb6416f0113b04181","602110864497cf011d9c0822","0","f","NA","space","space","space","space","f","741","NA","7953","10903","7268","3827","741","2","legacy","1024","2","48000","-16","task","5212465","odd","NA","37680","47638","39684","229884","7368","25543","18275","230386","180390","229882","230386","229806","47638","231128","35590","229306","7346","224367","Lexical Decision Task","57","92266","75","yes","1024"
"3.031812271","6.52","3","gulp","word","75","75","1225.4342105263158","1225.4342105263158","black","no","legacy","legacy","legacy","0","uniform","0","undefined","undefined","undefined","0","j","0","0","0","0","75","0","0","0","75","0","71","75","71","0","71","3","75","0","75","Wed Feb 17 11:59:44 2021","The main experiment item","yes","Lexical_Decision_Task.osexp","C:/CAL","no","Andale Mono","no","18","no","white","no","yes","576","legacy","71","71","3","C:/CAL/subject-5212465.csv","legacy","Lentiform Loewenfeld","3.3.7","yes","yes","600bd7cfb6416f0113b04181","602110864497cf011d9c0822","0","f","NA","space","space","space","space","f","867","NA","7953","10903","7268","3827","867","2","legacy","1024","2","48000","-16","task","5212465","odd","NA","37680","47638","39684","231709","7368","25543","18275","232211","180390","231708","232211","231632","47638","233079","35590","231132","7346","224367","Lexical Decision Task","57","93133","76","yes","1024"
"3.460446784","0","5","dess","non-word","75.32467532467533","75.32467532467533","1225.3766233766235","1225.3766233766235","black","no","legacy","legacy","legacy","0","uniform","1","undefined","undefined","undefined","1","f","0","0","0","0","76","0","0","0","76","0","72","76","72","0","72","3","76","0","76","Wed Feb 17 11:59:44 2021","The main experiment item","yes","Lexical_Decision_Task.osexp","C:/CAL","no","Andale Mono","no","18","no","white","no","yes","576","legacy","72","72","3","C:/CAL/subject-5212465.csv","legacy","Lentiform Loewenfeld","3.3.7","yes","yes","600bd7cfb6416f0113b04181","602110864497cf011d9c0822","0","f","NA","space","space","space","space","f","1221","NA","7953","10903","7268","3827","1221","2","legacy","1024","2","48000","-16","task","5212465","odd","NA","37680","47638","39684","234670","7368","25543","18275","235173","180390","234668","235173","234591","47638","236395","35590","231132","7346","233091","Lexical Decision Task","58","94354","77","yes","1024"
"2.880623071","0","9","curp","non-word","75.64102564102564","75.64102564102564","1219.820512820513","1219.820512820513","black","no","legacy","legacy","legacy","0","uniform","1","undefined","undefined","undefined","1","f","0","0","0","0","77","0","0","0","77","0","73","77","73","0","73","3","77","0","77","Wed Feb 17 11:59:44 2021","The main experiment item","yes","Lexical_Decision_Task.osexp","C:/CAL","no","Andale Mono","no","18","no","white","no","yes","576","legacy","73","73","3","C:/CAL/subject-5212465.csv","legacy","Lentiform Loewenfeld","3.3.7","yes","yes","600bd7cfb6416f0113b04181","602110864497cf011d9c0822","0","f","NA","space","space","space","space","f","792","NA","7953","10903","7268","3827","792","2","legacy","1024","2","48000","-16","task","5212465","odd","NA","37680","47638","39684","236985","7368","25543","18275","237486","180390","236983","237486","236905","47638","238280","35590","236405","7346","233091","Lexical Decision Task","59","95146","78","yes","1024"
"3.168400243","9.12","6","horn","word","75.9493670886076","75.9493670886076","1215.2278481012659","1215.2278481012659","black","no","legacy","legacy","legacy","0","uniform","1","undefined","undefined","undefined","1","j","0","0","0","0","78","0","0","0","78","0","74","78","74","0","74","3","78","0","78","Wed Feb 17 11:59:44 2021","The main experiment item","yes","Lexical_Decision_Task.osexp","C:/CAL","no","Andale Mono","no","18","no","white","no","yes","576","legacy","74","74","3","C:/CAL/subject-5212465.csv","legacy","Lentiform Loewenfeld","3.3.7","yes","yes","600bd7cfb6416f0113b04181","602110864497cf011d9c0822","0","j","NA","space","space","space","space","j","857","NA","7953","10903","7268","3827","857","2","legacy","1024","2","48000","-16","task","5212465","odd","NA","37680","47638","39684","238871","7368","25543","18275","239372","180390","238866","239372","238790","47638","240230","35590","238290","7346","233091","Lexical Decision Task","60","96003","79","yes","1024"
"3.145920145","8.51","8","flew","word","76.25","76.25","1208.5","1208.5","black","no","legacy","legacy","legacy","0","uniform","1","undefined","undefined","undefined","1","j","0","0","0","0","79","0","0","0","79","0","75","79","75","0","75","3","79","0","79","Wed Feb 17 11:59:44 2021","The main experiment item","yes","Lexical_Decision_Task.osexp","C:/CAL","no","Andale Mono","no","18","no","white","no","yes","576","legacy","75","75","3","C:/CAL/subject-5212465.csv","legacy","Lentiform Loewenfeld","3.3.7","yes","yes","600bd7cfb6416f0113b04181","602110864497cf011d9c0822","0","j","NA","space","space","space","space","j","677","NA","7953","10903","7268","3827","677","2","legacy","1024","2","48000","-16","task","5212465","odd","NA","37680","47638","39684","240817","7368","25543","18275","241318","180390","240815","241318","240741","47638","241996","35590","240241","7346","233091","Lexical Decision Task","61","96680","80","yes","1024"
"2.714888338","0","3","brug","non-word","76.54320987654322","76.54320987654322","1211.6049382716049","1211.6049382716049","black","no","legacy","legacy","legacy","0","uniform","1","undefined","undefined","undefined","1","f","0","0","0","0","80","0","0","0","80","0","76","80","76","0","76","3","80","0","80","Wed Feb 17 11:59:44 2021","The main experiment item","yes","Lexical_Decision_Task.osexp","C:/CAL","no","Andale Mono","no","18","no","white","no","yes","576","legacy","76","76","3","C:/CAL/subject-5212465.csv","legacy","Lentiform Loewenfeld","3.3.7","yes","yes","600bd7cfb6416f0113b04181","602110864497cf011d9c0822","0","f","NA","space","space","space","space","f","1460","NA","7953","10903","7268","3827","1460","2","legacy","1024","2","48000","-16","task","5212465","odd","NA","37680","47638","39684","242585","7368","25543","18275","243086","180390","242583","243086","242507","47638","244548","35590","242007","7346","233091","Lexical Decision Task","62","98140","81","yes","1024"
"3.121778632","0","9","sark","non-word","76.82926829268293","76.82926829268293","1213.5975609756097","1213.5975609756097","black","no","legacy","legacy","legacy","0","uniform","1","undefined","undefined","undefined","1","f","0","0","0","0","81","0","0","0","81","0","77","81","77","0","77","3","81","0","81","Wed Feb 17 11:59:44 2021","The main experiment item","yes","Lexical_Decision_Task.osexp","C:/CAL","no","Andale Mono","no","18","no","white","no","yes","576","legacy","77","77","3","C:/CAL/subject-5212465.csv","legacy","Lentiform Loewenfeld","3.3.7","yes","yes","600bd7cfb6416f0113b04181","602110864497cf011d9c0822","0","f","NA","space","space","space","space","f","1375","NA","7953","10903","7268","3827","1375","2","legacy","1024","2","48000","-16","task","5212465","odd","NA","37680","47638","39684","245134","7368","25543","18275","245636","180390","245132","245636","245058","47638","247012","35590","244558","7346","233091","Lexical Decision Task","63","99515","82","yes","1024"
"2.744553742","0","2","nawk","non-word","77.10843373493977","77.10843373493977","1211.2409638554218","1211.2409638554218","black","no","legacy","legacy","legacy","0","uniform","1","undefined","undefined","undefined","1","f","0","0","0","0","82","0","0","0","82","0","78","82","78","0","78","3","82","0","82","Wed Feb 17 11:59:44 2021","The main experiment item","yes","Lexical_Decision_Task.osexp","C:/CAL","no","Andale Mono","no","18","no","white","no","yes","576","legacy","78","78","3","C:/CAL/subject-5212465.csv","legacy","Lentiform Loewenfeld","3.3.7","yes","yes","600bd7cfb6416f0113b04181","602110864497cf011d9c0822","0","f","NA","space","space","space","space","f","1018","NA","7953","10903","7268","3827","1018","2","legacy","1024","2","48000","-16","task","5212465","odd","NA","37680","47638","39684","247599","7368","25543","18275","248100","180390","247598","248100","247523","47638","249119","35590","247023","7346","233091","Lexical Decision Task","64","100533","83","yes","1024"
"3.068433376","8.09","2","bulb","word","77.38095238095238","77.38095238095238","1213.2261904761904","1213.2261904761904","black","no","legacy","legacy","legacy","0","uniform","1","undefined","undefined","undefined","1","j","0","0","0","0","83","0","0","0","83","0","79","83","79","0","79","3","83","0","83","Wed Feb 17 11:59:44 2021","The main experiment item","yes","Lexical_Decision_Task.osexp","C:/CAL","no","Andale Mono","no","18","no","white","no","yes","576","legacy","79","79","3","C:/CAL/subject-5212465.csv","legacy","Lentiform Loewenfeld","3.3.7","yes","yes","600bd7cfb6416f0113b04181","602110864497cf011d9c0822","0","j","NA","space","space","space","space","j","1378","NA","7953","10903","7268","3827","1378","2","legacy","1024","2","48000","-16","task","5212465","odd","NA","37680","47638","39684","249708","7368","25543","18275","250209","180390","249706","250209","249631","47638","251588","35590","249130","7346","233091","Lexical Decision Task","65","101911","84","yes","1024"
"2.8162413","0","5","nusk","non-word","77.6470588235294","77.6470588235294","1212.6941176470589","1212.6941176470589","black","no","legacy","legacy","legacy","0","uniform","1","undefined","undefined","undefined","1","f","0","0","0","0","84","0","0","0","84","0","80","84","80","0","80","3","84","0","84","Wed Feb 17 11:59:44 2021","The main experiment item","yes","Lexical_Decision_Task.osexp","C:/CAL","no","Andale Mono","no","18","no","white","no","yes","576","legacy","80","80","3","C:/CAL/subject-5212465.csv","legacy","Lentiform Loewenfeld","3.3.7","yes","yes","600bd7cfb6416f0113b04181","602110864497cf011d9c0822","0","f","NA","space","space","space","space","f","1168","NA","7953","10903","7268","3827","1168","2","legacy","1024","2","48000","-16","task","5212465","odd","NA","37680","47638","39684","252171","7368","25543","18275","252672","180390","252169","252672","252093","47638","253842","35590","251593","7346","233091","Lexical Decision Task","66","103079","85","yes","1024"
"2.898725182","0","7","turl","non-word","77.90697674418605","77.90697674418605","1224.7093023255813","1224.7093023255813","black","no","legacy","legacy","legacy","0","uniform","1","undefined","undefined","undefined","1","f","0","0","0","0","85","0","0","0","85","0","81","85","81","0","81","3","85","0","85","Wed Feb 17 11:59:44 2021","The main experiment item","yes","Lexical_Decision_Task.osexp","C:/CAL","no","Andale Mono","no","18","no","white","no","yes","576","legacy","81","81","3","C:/CAL/subject-5212465.csv","legacy","Lentiform Loewenfeld","3.3.7","yes","yes","600bd7cfb6416f0113b04181","602110864497cf011d9c0822","0","f","NA","space","space","space","space","f","2246","NA","7953","10903","7268","3827","2246","2","legacy","1024","2","48000","-16","task","5212465","odd","NA","37680","47638","39684","254429","7368","25543","18275","254930","180390","254427","254931","254352","47638","257179","35590","253852","7346","233091","Lexical Decision Task","67","105325","86","yes","1024"
"3.282244367","0","6","fute","non-word","78.16091954022988","78.16091954022988","1226.83908045977","1226.83908045977","black","no","legacy","legacy","legacy","0","uniform","1","undefined","undefined","undefined","1","f","0","0","0","0","86","0","0","0","86","0","82","86","82","0","82","3","86","0","86","Wed Feb 17 11:59:44 2021","The main experiment item","yes","Lexical_Decision_Task.osexp","C:/CAL","no","Andale Mono","no","18","no","white","no","yes","576","legacy","82","82","3","C:/CAL/subject-5212465.csv","legacy","Lentiform Loewenfeld","3.3.7","yes","yes","600bd7cfb6416f0113b04181","602110864497cf011d9c0822","0","f","NA","space","space","space","space","f","1410","NA","7953","10903","7268","3827","1410","2","legacy","1024","2","48000","-16","task","5212465","odd","NA","37680","47638","39684","257767","7368","25543","18275","258270","180390","257765","258270","257689","47638","259681","35590","257189","7346","233091","Lexical Decision Task","68","106735","87","yes","1024"
"2.706148589","0","4","hube","non-word","78.4090909090909","78.4090909090909","1223.909090909091","1223.909090909091","black","no","legacy","legacy","legacy","0","uniform","1","undefined","undefined","undefined","1","f","0","0","0","0","87","0","0","0","87","0","83","87","83","0","83","3","87","0","87","Wed Feb 17 11:59:44 2021","The main experiment item","yes","Lexical_Decision_Task.osexp","C:/CAL","no","Andale Mono","no","18","no","white","no","yes","576","legacy","83","83","3","C:/CAL/subject-5212465.csv","legacy","Lentiform Loewenfeld","3.3.7","yes","yes","600bd7cfb6416f0113b04181","602110864497cf011d9c0822","0","f","NA","space","space","space","space","f","969","NA","7953","10903","7268","3827","969","2","legacy","1024","2","48000","-16","task","5212465","odd","NA","37680","47638","39684","260270","7368","25543","18275","260771","180390","260268","260771","260192","47638","261742","35590","259692","7346","233091","Lexical Decision Task","69","107704","88","yes","1024"
"2.68604012","0","4","pumb","non-word","78.65168539325843","78.65168539325843","1218.9887640449438","1218.9887640449438","black","no","legacy","legacy","legacy","0","uniform","1","undefined","undefined","undefined","1","f","0","0","0","0","88","0","0","0","88","0","84","88","84","0","84","3","88","0","88","Wed Feb 17 11:59:44 2021","The main experiment item","yes","Lexical_Decision_Task.osexp","C:/CAL","no","Andale Mono","no","18","no","white","no","yes","576","legacy","84","84","3","C:/CAL/subject-5212465.csv","legacy","Lentiform Loewenfeld","3.3.7","yes","yes","600bd7cfb6416f0113b04181","602110864497cf011d9c0822","0","f","NA","space","space","space","space","f","786","NA","7953","10903","7268","3827","786","2","legacy","1024","2","48000","-16","task","5212465","odd","NA","37680","47638","39684","262332","7368","25543","18275","262835","180390","262331","262835","262253","47638","263622","35590","261753","7346","233091","Lexical Decision Task","70","108490","89","yes","1024"
"3.010582609","0","2","drod","non-word","78.88888888888889","78.88888888888889","1212.8222222222223","1212.8222222222223","black","no","legacy","legacy","legacy","0","uniform","1","undefined","undefined","undefined","1","f","0","0","0","0","89","0","0","0","89","0","85","89","85","0","85","3","89","0","89","Wed Feb 17 11:59:44 2021","The main experiment item","yes","Lexical_Decision_Task.osexp","C:/CAL","no","Andale Mono","no","18","no","white","no","yes","576","legacy","85","85","3","C:/CAL/subject-5212465.csv","legacy","Lentiform Loewenfeld","3.3.7","yes","yes","600bd7cfb6416f0113b04181","602110864497cf011d9c0822","0","f","NA","space","space","space","space","f","664","NA","7953","10903","7268","3827","664","2","legacy","1024","2","48000","-16","task","5212465","odd","NA","37680","47638","39684","264208","7368","25543","18275","264710","180390","264206","264710","264134","47638","265376","35590","263634","7346","233091","Lexical Decision Task","71","109154","90","yes","1024"
"2.695770526","7.34","6","pawn","word","79.12087912087912","79.12087912087912","1209.021978021978","1209.021978021978","black","no","legacy","legacy","legacy","0","uniform","1","undefined","undefined","undefined","1","j","0","0","0","0","90","0","0","0","90","0","86","90","86","0","86","3","90","0","90","Wed Feb 17 11:59:44 2021","The main experiment item","yes","Lexical_Decision_Task.osexp","C:/CAL","no","Andale Mono","no","18","no","white","no","yes","576","legacy","86","86","3","C:/CAL/subject-5212465.csv","legacy","Lentiform Loewenfeld","3.3.7","yes","yes","600bd7cfb6416f0113b04181","602110864497cf011d9c0822","0","j","NA","space","space","space","space","j","867","NA","7953","10903","7268","3827","867","2","legacy","1024","2","48000","-16","task","5212465","odd","NA","37680","47638","39684","265963","7368","25543","18275","266465","180390","265961","266466","265887","47638","267334","35590","265387","7346","233091","Lexical Decision Task","72","110021","91","yes","1024"
"2.668385917","5.48","4","twig","word","79.34782608695652","79.34782608695652","1211.1304347826087","1211.1304347826087","black","no","legacy","legacy","legacy","0","uniform","1","undefined","undefined","undefined","1","j","0","0","0","0","91","0","0","0","91","0","87","91","87","0","87","3","91","0","91","Wed Feb 17 11:59:44 2021","The main experiment item","yes","Lexical_Decision_Task.osexp","C:/CAL","no","Andale Mono","no","18","no","white","no","yes","576","legacy","87","87","3","C:/CAL/subject-5212465.csv","legacy","Lentiform Loewenfeld","3.3.7","yes","yes","600bd7cfb6416f0113b04181","602110864497cf011d9c0822","0","j","NA","space","space","space","space","j","1403","NA","7953","10903","7268","3827","1403","2","legacy","1024","2","48000","-16","task","5212465","odd","NA","37680","47638","39684","267921","7368","25543","18275","268423","180390","267919","268423","267846","47638","269828","35590","267346","7346","233091","Lexical Decision Task","73","111424","92","yes","1024"
"3.20996159","0","4","clee","non-word","79.56989247311827","79.56989247311827","1206.279569892473","1206.279569892473","black","no","legacy","legacy","legacy","0","uniform","1","undefined","undefined","undefined","1","f","0","0","0","0","92","0","0","0","92","0","88","92","88","0","88","3","92","0","92","Wed Feb 17 11:59:44 2021","The main experiment item","yes","Lexical_Decision_Task.osexp","C:/CAL","no","Andale Mono","no","18","no","white","no","yes","576","legacy","88","88","3","C:/CAL/subject-5212465.csv","legacy","Lentiform Loewenfeld","3.3.7","yes","yes","600bd7cfb6416f0113b04181","602110864497cf011d9c0822","0","f","NA","space","space","space","space","f","760","NA","7953","10903","7268","3827","760","2","legacy","1024","2","48000","-16","task","5212465","odd","NA","37680","47638","39684","270420","7368","25543","18275","270922","180390","270418","270922","270340","47638","271683","35590","269839","7346","233091","Lexical Decision Task","74","112184","93","yes","1024"
"3.039414119","0","9","meep","non-word","79.7872340425532","79.7872340425532","1201.904255319149","1201.904255319149","black","no","legacy","legacy","legacy","0","uniform","1","undefined","undefined","undefined","1","f","0","0","0","0","93","0","0","0","93","0","89","93","89","0","89","3","93","0","93","Wed Feb 17 11:59:44 2021","The main experiment item","yes","Lexical_Decision_Task.osexp","C:/CAL","no","Andale Mono","no","18","no","white","no","yes","576","legacy","89","89","3","C:/CAL/subject-5212465.csv","legacy","Lentiform Loewenfeld","3.3.7","yes","yes","600bd7cfb6416f0113b04181","602110864497cf011d9c0822","0","f","NA","space","space","space","space","f","795","NA","7953","10903","7268","3827","795","2","legacy","1024","2","48000","-16","task","5212465","odd","NA","37680","47638","39684","272275","7368","25543","18275","272776","180390","272272","272776","272195","47638","273573","35590","271695","7346","233091","Lexical Decision Task","75","112979","94","yes","1024"
"3.140404328","10.66","9","deep","word","80","80","1195.9684210526316","1195.9684210526316","black","no","legacy","legacy","legacy","0","uniform","1","undefined","undefined","undefined","1","j","0","0","0","0","94","0","0","0","94","0","90","94","90","0","90","3","94","0","94","Wed Feb 17 11:59:44 2021","The main experiment item","yes","Lexical_Decision_Task.osexp","C:/CAL","no","Andale Mono","no","18","no","white","no","yes","576","legacy","90","90","3","C:/CAL/subject-5212465.csv","legacy","Lentiform Loewenfeld","3.3.7","yes","yes","600bd7cfb6416f0113b04181","602110864497cf011d9c0822","0","j","NA","space","space","space","space","j","638","NA","7953","10903","7268","3827","638","2","legacy","1024","2","48000","-16","task","5212465","odd","NA","37680","47638","39684","274154","7368","25543","18275","274657","180390","274152","274657","274077","47638","275296","35590","273577","7346","233091","Lexical Decision Task","76","113617","95","yes","1024"
"3.208978517","10.33","4","fish","word","80.20833333333333","80.20833333333333","1189.8333333333333","1189.8333333333333","black","no","legacy","legacy","legacy","0","uniform","1","undefined","undefined","undefined","1","j","0","0","0","0","95","0","0","0","95","0","91","95","91","0","91","3","95","0","95","Wed Feb 17 11:59:44 2021","The main experiment item","yes","Lexical_Decision_Task.osexp","C:/CAL","no","Andale Mono","no","18","no","white","no","yes","576","legacy","91","91","3","C:/CAL/subject-5212465.csv","legacy","Lentiform Loewenfeld","3.3.7","yes","yes","600bd7cfb6416f0113b04181","602110864497cf011d9c0822","0","j","NA","space","space","space","space","j","607","NA","7953","10903","7268","3827","607","2","legacy","1024","2","48000","-16","task","5212465","odd","NA","37680","47638","39684","275884","7368","25543","18275","276385","180390","275882","276386","275808","47638","276994","35590","275308","7346","233091","Lexical Decision Task","77","114224","96","yes","1024"
"3.15462682","0","6","noal","non-word","79.38144329896907","79.38144329896907","1185.5670103092784","1185.5670103092784","black","no","legacy","legacy","legacy","0","uniform","0","undefined","undefined","undefined","0","f","0","0","0","0","96","0","0","0","96","0","92","96","92","0","92","3","96","0","96","Wed Feb 17 11:59:44 2021","The main experiment item","yes","Lexical_Decision_Task.osexp","C:/CAL","no","Andale Mono","no","18","no","white","no","yes","576","legacy","92","92","3","C:/CAL/subject-5212465.csv","legacy","Lentiform Loewenfeld","3.3.7","yes","yes","600bd7cfb6416f0113b04181","602110864497cf011d9c0822","0","j","NA","space","space","space","space","j","776","NA","7953","10903","7268","3827","776","2","legacy","1024","2","48000","-16","task","5212465","odd","NA","37680","47638","39684","277583","7368","25543","18275","278084","180390","277582","278084","277504","47638","278862","35590","277004","7346","233091","Lexical Decision Task","77","115000","97","yes","1024"
"3.20871002","7.15","8","cram","word","78.57142857142857","78.57142857142857","1182.295918367347","1182.295918367347","black","no","legacy","legacy","legacy","0","uniform","0","undefined","undefined","undefined","0","j","0","0","0","0","97","0","0","0","97","0","93","97","93","0","93","3","97","0","97","Wed Feb 17 11:59:44 2021","The main experiment item","yes","Lexical_Decision_Task.osexp","C:/CAL","no","Andale Mono","no","18","no","white","no","yes","576","legacy","93","93","3","C:/CAL/subject-5212465.csv","legacy","Lentiform Loewenfeld","3.3.7","yes","yes","600bd7cfb6416f0113b04181","602110864497cf011d9c0822","0","f","NA","space","space","space","space","f","865","NA","7953","10903","7268","3827","865","2","legacy","1024","2","48000","-16","task","5212465","odd","NA","37680","47638","39684","280452","7368","25543","18275","280954","180390","280450","280955","280373","47638","281822","35590","277004","7346","278873","Lexical Decision Task","77","115865","98","yes","1024"
"2.703007489","8.37","3","pulp","word","78.78787878787878","78.78787878787878","1175.5151515151515","1175.5151515151515","black","no","legacy","legacy","legacy","0","uniform","1","undefined","undefined","undefined","1","j","0","0","0","0","98","0","0","0","98","0","94","98","94","0","94","3","98","0","98","Wed Feb 17 11:59:44 2021","The main experiment item","yes","Lexical_Decision_Task.osexp","C:/CAL","no","Andale Mono","no","18","no","white","no","yes","576","legacy","94","94","3","C:/CAL/subject-5212465.csv","legacy","Lentiform Loewenfeld","3.3.7","yes","yes","600bd7cfb6416f0113b04181","602110864497cf011d9c0822","0","j","NA","space","space","space","space","j","511","NA","7953","10903","7268","3827","511","2","legacy","1024","2","48000","-16","task","5212465","odd","NA","37680","47638","39684","283407","7368","25543","18275","283913","180390","283405","283913","283332","47638","284426","35590","277004","7346","281832","Lexical Decision Task","78","116376","99","yes","1024"
"3.302475237","0","7","leel","non-word","78","78","1176.34","1176.34","black","no","legacy","legacy","legacy","0","uniform","0","undefined","undefined","undefined","0","f","0","0","0","0","99","0","0","0","99","0","95","99","95","0","95","3","99","0","99","Wed Feb 17 11:59:44 2021","The main experiment item","yes","Lexical_Decision_Task.osexp","C:/CAL","no","Andale Mono","no","18","no","white","no","yes","576","legacy","95","95","3","C:/CAL/subject-5212465.csv","legacy","Lentiform Loewenfeld","3.3.7","yes","yes","600bd7cfb6416f0113b04181","602110864497cf011d9c0822","0","j","NA","space","space","space","space","j","1258","NA","7953","10903","7268","3827","1258","2","legacy","1024","2","48000","-16","task","5212465","odd","NA","37680","47638","39684","285014","7368","25543","18275","285515","180390","285012","285515","284937","47638","286775","35590","284437","7346","281832","Lexical Decision Task","78","117634","100","yes","1024"
"2.799799878","0","4","ciff","non-word","78.21782178217822","78.21782178217822","1171.8613861386139","1171.8613861386139","black","no","legacy","legacy","legacy","0","uniform","1","undefined","undefined","undefined","1","f","0","0","0","0","100","0","0","0","100","0","96","100","96","0","96","3","100","0","100","Wed Feb 17 11:59:44 2021","The main experiment item","yes","Lexical_Decision_Task.osexp","C:/CAL","no","Andale Mono","no","18","no","white","no","yes","576","legacy","96","96","3","C:/CAL/subject-5212465.csv","legacy","Lentiform Loewenfeld","3.3.7","yes","yes","600bd7cfb6416f0113b04181","602110864497cf011d9c0822","0","f","NA","space","space","space","space","f","724","NA","7953","10903","7268","3827","724","2","legacy","1024","2","48000","-16","task","5212465","odd","NA","37680","47638","39684","288366","7368","25543","18275","288868","180390","288364","288868","288285","47638","289594","35590","284437","7346","286785","Lexical Decision Task","79","118358","101","yes","1024"
"3.195807436","0","6","stup","non-word","78.43137254901961","78.43137254901961","1167.313725490196","1167.313725490196","black","no","legacy","legacy","legacy","0","uniform","1","undefined","undefined","undefined","1","f","0","0","0","0","101","0","0","0","101","0","97","101","97","0","97","3","101","0","101","Wed Feb 17 11:59:44 2021","The main experiment item","yes","Lexical_Decision_Task.osexp","C:/CAL","no","Andale Mono","no","18","no","white","no","yes","576","legacy","97","97","3","C:/CAL/subject-5212465.csv","legacy","Lentiform Loewenfeld","3.3.7","yes","yes","600bd7cfb6416f0113b04181","602110864497cf011d9c0822","0","f","NA","space","space","space","space","f","708","NA","7953","10903","7268","3827","708","2","legacy","1024","2","48000","-16","task","5212465","odd","NA","37680","47638","39684","290180","7368","25543","18275","290681","180390","290178","290681","290105","47638","291391","35590","289605","7346","286785","Lexical Decision Task","80","119066","102","yes","1024"
"2.845304797","0","6","buct","non-word","78.64077669902913","78.64077669902913","1163.1650485436894","1163.1650485436894","black","no","legacy","legacy","legacy","0","uniform","1","undefined","undefined","undefined","1","f","0","0","0","0","102","0","0","0","102","0","98","102","98","0","98","3","102","0","102","Wed Feb 17 11:59:44 2021","The main experiment item","yes","Lexical_Decision_Task.osexp","C:/CAL","no","Andale Mono","no","18","no","white","no","yes","576","legacy","98","98","3","C:/CAL/subject-5212465.csv","legacy","Lentiform Loewenfeld","3.3.7","yes","yes","600bd7cfb6416f0113b04181","602110864497cf011d9c0822","0","f","NA","space","space","space","space","f","740","NA","7953","10903","7268","3827","740","2","legacy","1024","2","48000","-16","task","5212465","odd","NA","37680","47638","39684","291978","7368","25543","18275","292482","180390","291977","292482","291901","47638","293225","35590","291401","7346","286785","Lexical Decision Task","81","119806","103","yes","1024"
"3.495914186","0","4","peng","non-word","78.84615384615384","78.84615384615384","1157.8653846153845","1157.8653846153845","black","no","legacy","legacy","legacy","0","uniform","1","undefined","undefined","undefined","1","f","0","0","0","0","103","0","0","0","103","0","99","103","99","0","99","3","103","0","103","Wed Feb 17 11:59:44 2021","The main experiment item","yes","Lexical_Decision_Task.osexp","C:/CAL","no","Andale Mono","no","18","no","white","no","yes","576","legacy","99","99","3","C:/CAL/subject-5212465.csv","legacy","Lentiform Loewenfeld","3.3.7","yes","yes","600bd7cfb6416f0113b04181","602110864497cf011d9c0822","0","f","NA","space","space","space","space","f","612","NA","7953","10903","7268","3827","612","2","legacy","1024","2","48000","-16","task","5212465","odd","NA","37680","47638","39684","293814","7368","25543","18275","294316","180390","293812","294316","293738","47638","294929","35590","293237","7346","286785","Lexical Decision Task","82","120418","104","yes","1024"
