"Log_BG","Log_Freq_HAL","Ortho_N","Stimulus","Type","acc","accuracy","average_response_time","avg_rt","background","bidi","canvas_backend","clock_backend","color_backend","compensation","coordinates","correct","correct_Experimental_intro","correct_Introduction","correct_Practice_intro","correct_experimenter_kb","correct_response","count_End_Of_Experiment","count_End_Of_Practice","count_Experimental_Loop","count_Experimental_intro","count_Fixation","count_Introduction","count_Practice_Loop","count_Practice_intro","count_Stimulus","count_block_break_feedback","count_experimental_sequence","count_experimenter_kb","count_increment_trial_count","count_init_trial_count","count_logger","count_practice_sequence","count_right","count_task","count_wrong","datetime","description","disable_garbage_collection","experiment_file","experiment_path","font_bold","font_family","font_italic","font_size","font_underline","foreground","form_clicks","fullscreen","height","keyboard_backend","live_row","live_row_Experimental_Loop","live_row_Practice_Loop","logfile","mouse_backend","opensesame_codename","opensesame_version","osf_always_upload_data","osf_always_upload_experiment","osf_datanode_id","osf_id","repeat_cycle","response","response_End_Of_Experiment","response_Experimental_intro","response_Introduction","response_Practice_intro","response_block_break_feedback","response_experimenter_kb","response_time","response_time_End_Of_Experiment","response_time_Experimental_intro","response_time_Introduction","response_time_Practice_intro","response_time_block_break_feedback","response_time_experimenter_kb","round_decimals","sampler_backend","sound_buf_size","sound_channels","sound_freq","sound_sample_size","start","subject_nr","subject_parity","time_End_Of_Experiment","time_End_Of_Practice","time_Experimental_Loop","time_Experimental_intro","time_Fixation","time_Introduction","time_Practice_Loop","time_Practice_intro","time_Stimulus","time_block_break_feedback","time_experimental_sequence","time_experimenter_kb","time_increment_trial_count","time_init_trial_count","time_logger","time_practice_sequence","time_right","time_task","time_wrong","title","total_correct","total_response_time","total_responses","uniform_coordinates","width"
"2.793790385","5.67","9","swab","word","100","100","878.6","878.6","black","no","legacy","legacy","legacy","0","uniform","1","undefined","undefined","undefined","1","j","0","0","0","0","4","0","0","0","4","NA","0","4","0","0","0","3","4","0","4","Thu Feb 18 13:43:20 2021","The main experiment item","yes","Lexical_Decision_Task.osexp","C:/Users/Erica","no","Andale Mono","no","18","no","white","no","yes","576","legacy","0","0","3","C:/Users/Erica/subject-5108034.csv","legacy","Lentiform Loewenfeld","3.3.7","yes","yes","600bd7cfb6416f0113b04181","602110864497cf011d9c0822","0","j","NA","space","space","space","NA","j","1045","NA","1995","2531","928","NA","1045","2","legacy","1024","2","48000","-16","task","5108034","even","NA","53606","57604","55609","57690","42039","45504","44576","58194","NA","57688","58194","NA","57604","59240","51988","53057","41998","NA","Lexical Decision Task","5","4393","5","yes","1024"
"3.384413096","10.15","3","glad","word","100","100","862.8333333333334","862.8333333333334","black","no","legacy","legacy","legacy","0","uniform","1","undefined","undefined","undefined","1","j","0","0","0","0","5","0","0","0","5","NA","1","5","1","0","1","3","5","0","5","Thu Feb 18 13:43:20 2021","The main experiment item","yes","Lexical_Decision_Task.osexp","C:/Users/Erica","no","Andale Mono","no","18","no","white","no","yes","576","legacy","1","1","3","C:/Users/Erica/subject-5108034.csv","legacy","Lentiform Loewenfeld","3.3.7","yes","yes","600bd7cfb6416f0113b04181","602110864497cf011d9c0822","0","j","NA","space","space","space","NA","j","784","NA","1995","2531","928","NA","784","2","legacy","1024","2","48000","-16","task","5108034","even","NA","53606","57604","55609","60015","42039","45504","44576","60519","NA","60011","60519","59839","57604","61304","51988","59338","41998","NA","Lexical Decision Task","6","5177","6","yes","1024"
"2.6599162","0","6","flug","non-word","100","100","894.1428571428571","894.1428571428571","black","no","legacy","legacy","legacy","0","uniform","1","undefined","undefined","undefined","1","f","0","0","0","0","6","0","0","0","6","NA","2","6","2","0","2","3","6","0","6","Thu Feb 18 13:43:20 2021","The main experiment item","yes","Lexical_Decision_Task.osexp","C:/Users/Erica","no","Andale Mono","no","18","no","white","no","yes","576","legacy","2","2","3","C:/Users/Erica/subject-5108034.csv","legacy","Lentiform Loewenfeld","3.3.7","yes","yes","600bd7cfb6416f0113b04181","602110864497cf011d9c0822","0","f","NA","space","space","space","NA","f","1082","NA","1995","2531","928","NA","1082","2","legacy","1024","2","48000","-16","task","5108034","even","NA","53606","57604","55609","62016","42039","45504","44576","62520","NA","62013","62520","61893","57604","63603","51988","61393","41998","NA","Lexical Decision Task","7","6259","7","yes","1024"
"2.709837904","6.85","8","skim","word","100","100","892.125","892.125","black","no","legacy","legacy","legacy","0","uniform","1","undefined","undefined","undefined","1","j","0","0","0","0","7","0","0","0","7","NA","3","7","3","0","3","3","7","0","7","Thu Feb 18 13:43:20 2021","The main experiment item","yes","Lexical_Decision_Task.osexp","C:/Users/Erica","no","Andale Mono","no","18","no","white","no","yes","576","legacy","3","3","3","C:/Users/Erica/subject-5108034.csv","legacy","Lentiform Loewenfeld","3.3.7","yes","yes","600bd7cfb6416f0113b04181","602110864497cf011d9c0822","0","j","NA","space","space","space","NA","j","878","NA","1995","2531","928","NA","878","2","legacy","1024","2","48000","-16","task","5108034","even","NA","53606","57604","55609","64279","42039","45504","44576","64781","NA","64276","64782","64160","57604","65661","51988","63660","41998","NA","Lexical Decision Task","8","7137","8","yes","1024"
"3.257359335","8","6","brew","word","100","100","883","883","black","no","legacy","legacy","legacy","0","uniform","1","undefined","undefined","undefined","1","j","0","0","0","0","8","0","0","0","8","NA","4","8","4","0","4","3","8","0","8","Thu Feb 18 13:43:20 2021","The main experiment item","yes","Lexical_Decision_Task.osexp","C:/Users/Erica","no","Andale Mono","no","18","no","white","no","yes","576","legacy","4","4","3","C:/Users/Erica/subject-5108034.csv","legacy","Lentiform Loewenfeld","3.3.7","yes","yes","600bd7cfb6416f0113b04181","602110864497cf011d9c0822","0","j","NA","space","space","space","NA","j","810","NA","1995","2531","928","NA","810","2","legacy","1024","2","48000","-16","task","5108034","even","NA","53606","57604","55609","66374","42039","45504","44576","66876","NA","66371","66877","66250","57604","67687","51988","65750","41998","NA","Lexical Decision Task","9","7947","9","yes","1024"
"3.119255889","6.63","2","itch","word","100","100","854.6","854.6","black","no","legacy","legacy","legacy","0","uniform","1","undefined","undefined","undefined","1","j","0","0","0","0","9","0","0","0","9","NA","5","9","5","0","5","3","9","0","9","Thu Feb 18 13:43:20 2021","The main experiment item","yes","Lexical_Decision_Task.osexp","C:/Users/Erica","no","Andale Mono","no","18","no","white","no","yes","576","legacy","5","5","3","C:/Users/Erica/subject-5108034.csv","legacy","Lentiform Loewenfeld","3.3.7","yes","yes","600bd7cfb6416f0113b04181","602110864497cf011d9c0822","0","j","NA","space","space","space","NA","j","599","NA","1995","2531","928","NA","599","2","legacy","1024","2","48000","-16","task","5108034","even","NA","53606","57604","55609","68342","42039","45504","44576","68845","NA","68339","68846","68216","57604","69446","51988","67716","41998","NA","Lexical Decision Task","10","8546","10","yes","1024"
"3.216517684","10.87","3","film","word","90.9090909090909","90.9090909090909","825.2727272727273","825.2727272727273","black","no","legacy","legacy","legacy","0","uniform","0","undefined","undefined","undefined","0","j","0","0","0","0","10","0","0","0","10","NA","6","10","6","0","6","3","10","0","10","Thu Feb 18 13:43:20 2021","The main experiment item","yes","Lexical_Decision_Task.osexp","C:/Users/Erica","no","Andale Mono","no","18","no","white","no","yes","576","legacy","6","6","3","C:/Users/Erica/subject-5108034.csv","legacy","Lentiform Loewenfeld","3.3.7","yes","yes","600bd7cfb6416f0113b04181","602110864497cf011d9c0822","0","f","NA","space","space","space","NA","f","532","NA","1995","2531","928","NA","532","2","legacy","1024","2","48000","-16","task","5108034","even","NA","53606","57604","55609","70143","42039","45504","44576","70645","NA","70139","70646","70016","57604","71179","51988","69516","41998","NA","Lexical Decision Task","10","9078","11","yes","1024"
"3.081107167","0","6","chot","non-word","91.66666666666667","91.66666666666667","821.5833333333334","821.5833333333334","black","no","legacy","legacy","legacy","0","uniform","1","undefined","undefined","undefined","1","f","0","0","0","0","11","0","0","0","11","NA","7","11","7","0","7","3","11","0","11","Thu Feb 18 13:43:20 2021","The main experiment item","yes","Lexical_Decision_Task.osexp","C:/Users/Erica","no","Andale Mono","no","18","no","white","no","yes","576","legacy","7","7","3","C:/Users/Erica/subject-5108034.csv","legacy","Lentiform Loewenfeld","3.3.7","yes","yes","600bd7cfb6416f0113b04181","602110864497cf011d9c0822","0","f","NA","space","space","space","NA","f","781","NA","1995","2531","928","NA","781","2","legacy","1024","2","48000","-16","task","5108034","even","NA","53606","57604","55609","72863","42039","45504","44576","73366","NA","72859","73366","72727","57604","74148","51988","69516","41998","71227","Lexical Decision Task","11","9859","12","yes","1024"
"3.440331212","7.35","6","stew","word","92.3076923076923","92.3076923076923","823.0769230769231","823.0769230769231","black","no","legacy","legacy","legacy","0","uniform","1","undefined","undefined","undefined","1","j","0","0","0","0","12","0","0","0","12","NA","8","12","8","0","8","3","12","0","12","Thu Feb 18 13:43:20 2021","The main experiment item","yes","Lexical_Decision_Task.osexp","C:/Users/Erica","no","Andale Mono","no","18","no","white","no","yes","576","legacy","8","8","3","C:/Users/Erica/subject-5108034.csv","legacy","Lentiform Loewenfeld","3.3.7","yes","yes","600bd7cfb6416f0113b04181","602110864497cf011d9c0822","0","j","NA","space","space","space","NA","j","841","NA","1995","2531","928","NA","841","2","legacy","1024","2","48000","-16","task","5108034","even","NA","53606","57604","55609","74791","42039","45504","44576","75294","NA","74789","75294","74673","57604","76135","51988","74173","41998","71227","Lexical Decision Task","12","10700","13","yes","1024"
"2.899092422","7.27","6","snag","word","92.85714285714286","92.85714285714286","823.5","823.5","black","no","legacy","legacy","legacy","0","uniform","1","undefined","undefined","undefined","1","j","0","0","0","0","13","0","0","0","13","NA","9","13","9","0","9","3","13","0","13","Thu Feb 18 13:43:20 2021","The main experiment item","yes","Lexical_Decision_Task.osexp","C:/Users/Erica","no","Andale Mono","no","18","no","white","no","yes","576","legacy","9","9","3","C:/Users/Erica/subject-5108034.csv","legacy","Lentiform Loewenfeld","3.3.7","yes","yes","600bd7cfb6416f0113b04181","602110864497cf011d9c0822","0","j","NA","space","space","space","NA","j","829","NA","1995","2531","928","NA","829","2","legacy","1024","2","48000","-16","task","5108034","even","NA","53606","57604","55609","76781","42039","45504","44576","77284","NA","76777","77284","76660","57604","78114","51988","76160","41998","71227","Lexical Decision Task","13","11529","14","yes","1024"
"3.1430148","7.92","8","bald","word","86.66666666666667","86.66666666666667","842.2","842.2","black","no","legacy","legacy","legacy","0","uniform","0","undefined","undefined","undefined","0","j","0","0","0","0","14","0","0","0","14","NA","10","14","10","0","10","3","14","0","14","Thu Feb 18 13:43:20 2021","The main experiment item","yes","Lexical_Decision_Task.osexp","C:/Users/Erica","no","Andale Mono","no","18","no","white","no","yes","576","legacy","10","10","3","C:/Users/Erica/subject-5108034.csv","legacy","Lentiform Loewenfeld","3.3.7","yes","yes","600bd7cfb6416f0113b04181","602110864497cf011d9c0822","0","f","NA","space","space","space","NA","f","1104","NA","1995","2531","928","NA","1104","2","legacy","1024","2","48000","-16","task","5108034","even","NA","53606","57604","55609","78763","42039","45504","44576","79266","NA","78760","79266","78639","57604","80371","51988","78139","41998","71227","Lexical Decision Task","13","12633","15","yes","1024"
"3.133964479","0","8","graw","non-word","87.5","87.5","842","842","black","no","legacy","legacy","legacy","0","uniform","1","undefined","undefined","undefined","1","f","0","0","0","0","15","0","0","0","15","NA","11","15","11","0","11","3","15","0","15","Thu Feb 18 13:43:20 2021","The main experiment item","yes","Lexical_Decision_Task.osexp","C:/Users/Erica","no","Andale Mono","no","18","no","white","no","yes","576","legacy","11","11","3","C:/Users/Erica/subject-5108034.csv","legacy","Lentiform Loewenfeld","3.3.7","yes","yes","600bd7cfb6416f0113b04181","602110864497cf011d9c0822","0","f","NA","space","space","space","NA","f","839","NA","1995","2531","928","NA","839","2","legacy","1024","2","48000","-16","task","5108034","even","NA","53606","57604","55609","82085","42039","45504","44576","82588","NA","82082","82588","81961","57604","83428","51988","78139","41998","80461","Lexical Decision Task","14","13472","16","yes","1024"
"3.031812271","6.52","3","gulp","word","88.23529411764706","88.23529411764706","828.4705882352941","828.4705882352941","black","no","legacy","legacy","legacy","0","uniform","1","undefined","undefined","undefined","1","j","0","0","0","0","16","0","0","0","16","NA","12","16","12","0","12","3","16","0","16","Thu Feb 18 13:43:20 2021","The main experiment item","yes","Lexical_Decision_Task.osexp","C:/Users/Erica","no","Andale Mono","no","18","no","white","no","yes","576","legacy","12","12","3","C:/Users/Erica/subject-5108034.csv","legacy","Lentiform Loewenfeld","3.3.7","yes","yes","600bd7cfb6416f0113b04181","602110864497cf011d9c0822","0","j","NA","space","space","space","NA","j","612","NA","1995","2531","928","NA","612","2","legacy","1024","2","48000","-16","task","5108034","even","NA","53606","57604","55609","84092","42039","45504","44576","84595","NA","84088","84595","83972","57604","85207","51988","83472","41998","80461","Lexical Decision Task","15","14084","17","yes","1024"
"3.121778632","0","9","sark","non-word","88.88888888888889","88.88888888888889","859.6666666666666","859.6666666666666","black","no","legacy","legacy","legacy","0","uniform","1","undefined","undefined","undefined","1","f","0","0","0","0","17","0","0","0","17","NA","13","17","13","0","13","3","17","0","17","Thu Feb 18 13:43:20 2021","The main experiment item","yes","Lexical_Decision_Task.osexp","C:/Users/Erica","no","Andale Mono","no","18","no","white","no","yes","576","legacy","13","13","3","C:/Users/Erica/subject-5108034.csv","legacy","Lentiform Loewenfeld","3.3.7","yes","yes","600bd7cfb6416f0113b04181","602110864497cf011d9c0822","0","f","NA","space","space","space","NA","f","1390","NA","1995","2531","928","NA","1390","2","legacy","1024","2","48000","-16","task","5108034","even","NA","53606","57604","55609","85866","42039","45504","44576","86368","NA","85863","86369","85739","57604","87760","51988","85239","41998","80461","Lexical Decision Task","16","15474","18","yes","1024"
"3.282244367","0","6","fute","non-word","89.47368421052632","89.47368421052632","855.7894736842105","855.7894736842105","black","no","legacy","legacy","legacy","0","uniform","1","undefined","undefined","undefined","1","f","0","0","0","0","18","0","0","0","18","NA","14","18","14","0","14","3","18","0","18","Thu Feb 18 13:43:20 2021","The main experiment item","yes","Lexical_Decision_Task.osexp","C:/Users/Erica","no","Andale Mono","no","18","no","white","no","yes","576","legacy","14","14","3","C:/Users/Erica/subject-5108034.csv","legacy","Lentiform Loewenfeld","3.3.7","yes","yes","600bd7cfb6416f0113b04181","602110864497cf011d9c0822","0","f","NA","space","space","space","NA","f","786","NA","1995","2531","928","NA","786","2","legacy","1024","2","48000","-16","task","5108034","even","NA","53606","57604","55609","88422","42039","45504","44576","88925","NA","88419","88926","88295","57604","89713","51988","87794","41998","80461","Lexical Decision Task","17","16260","19","yes","1024"
"2.6599162","0","2","saff","non-word","90","90","856","856","black","no","legacy","legacy","legacy","0","uniform","1","undefined","undefined","undefined","1","f","0","0","0","0","19","0","0","0","19","NA","15","19","15","0","15","3","19","0","19","Thu Feb 18 13:43:20 2021","The main experiment item","yes","Lexical_Decision_Task.osexp","C:/Users/Erica","no","Andale Mono","no","18","no","white","no","yes","576","legacy","15","15","3","C:/Users/Erica/subject-5108034.csv","legacy","Lentiform Loewenfeld","3.3.7","yes","yes","600bd7cfb6416f0113b04181","602110864497cf011d9c0822","0","f","NA","space","space","space","NA","f","860","NA","1995","2531","928","NA","860","2","legacy","1024","2","48000","-16","task","5108034","even","NA","53606","57604","55609","90362","42039","45504","44576","90865","NA","90358","90865","90239","57604","91726","51988","89739","41998","80461","Lexical Decision Task","18","17120","20","yes","1024"
"3.481012421","8.34","5","teen","word","90.47619047619048","90.47619047619048","841.5714285714286","841.5714285714286","black","no","legacy","legacy","legacy","0","uniform","1","undefined","undefined","undefined","1","j","0","0","0","0","20","0","0","0","20","NA","16","20","16","0","16","3","20","0","20","Thu Feb 18 13:43:20 2021","The main experiment item","yes","Lexical_Decision_Task.osexp","C:/Users/Erica","no","Andale Mono","no","18","no","white","no","yes","576","legacy","16","16","3","C:/Users/Erica/subject-5108034.csv","legacy","Lentiform Loewenfeld","3.3.7","yes","yes","600bd7cfb6416f0113b04181","602110864497cf011d9c0822","0","j","NA","space","space","space","NA","j","553","NA","1995","2531","928","NA","553","2","legacy","1024","2","48000","-16","task","5108034","even","NA","53606","57604","55609","92442","42039","45504","44576","92945","NA","92439","92945","92318","57604","93499","51988","91817","41998","80461","Lexical Decision Task","19","17673","21","yes","1024"
"2.845304797","0","6","buct","non-word","90.9090909090909","90.9090909090909","834.4090909090909","834.4090909090909","black","no","legacy","legacy","legacy","0","uniform","1","undefined","undefined","undefined","1","f","0","0","0","0","21","0","0","0","21","NA","17","21","17","0","17","3","21","0","21","Thu Feb 18 13:43:20 2021","The main experiment item","yes","Lexical_Decision_Task.osexp","C:/Users/Erica","no","Andale Mono","no","18","no","white","no","yes","576","legacy","17","17","3","C:/Users/Erica/subject-5108034.csv","legacy","Lentiform Loewenfeld","3.3.7","yes","yes","600bd7cfb6416f0113b04181","602110864497cf011d9c0822","0","f","NA","space","space","space","NA","f","684","NA","1995","2531","928","NA","684","2","legacy","1024","2","48000","-16","task","5108034","even","NA","53606","57604","55609","94166","42039","45504","44576","94668","NA","94163","94669","94040","57604","95354","51988","93540","41998","80461","Lexical Decision Task","20","18357","22","yes","1024"
"2.813801082","5.47","7","nook","word","86.95652173913044","86.95652173913044","834.9130434782609","834.9130434782609","black","no","legacy","legacy","legacy","0","uniform","0","undefined","undefined","undefined","0","j","0","0","0","0","22","0","0","0","22","NA","18","22","18","0","18","3","22","0","22","Thu Feb 18 13:43:20 2021","The main experiment item","yes","Lexical_Decision_Task.osexp","C:/Users/Erica","no","Andale Mono","no","18","no","white","no","yes","576","legacy","18","18","3","C:/Users/Erica/subject-5108034.csv","legacy","Lentiform Loewenfeld","3.3.7","yes","yes","600bd7cfb6416f0113b04181","602110864497cf011d9c0822","0","f","NA","space","space","space","NA","f","846","NA","1995","2531","928","NA","846","2","legacy","1024","2","48000","-16","task","5108034","even","NA","53606","57604","55609","96015","42039","45504","44576","96517","NA","96011","96518","95895","57604","97365","51988","95395","41998","80461","Lexical Decision Task","20","19203","23","yes","1024"
"3.366547468","0","6","plat","non-word","83.33333333333333","83.33333333333333","859.9166666666666","859.9166666666666","black","no","legacy","legacy","legacy","0","uniform","0","undefined","undefined","undefined","0","f","0","0","0","0","23","0","0","0","23","NA","19","23","19","0","19","3","23","0","23","Thu Feb 18 13:43:20 2021","The main experiment item","yes","Lexical_Decision_Task.osexp","C:/Users/Erica","no","Andale Mono","no","18","no","white","no","yes","576","legacy","19","19","3","C:/Users/Erica/subject-5108034.csv","legacy","Lentiform Loewenfeld","3.3.7","yes","yes","600bd7cfb6416f0113b04181","602110864497cf011d9c0822","0","j","NA","space","space","space","NA","j","1435","NA","1995","2531","928","NA","1435","2","legacy","1024","2","48000","-16","task","5108034","even","NA","53606","57604","55609","99016","42039","45504","44576","99518","NA","99013","99519","98895","57604","100955","51988","95395","41998","97395","Lexical Decision Task","20","20638","24","yes","1024"
"2.971428938","9.86","7","spot","word","84","84","848.8","848.8","black","no","legacy","legacy","legacy","0","uniform","1","undefined","undefined","undefined","1","j","0","0","0","0","24","0","0","0","24","NA","20","24","20","0","20","3","24","0","24","Thu Feb 18 13:43:20 2021","The main experiment item","yes","Lexical_Decision_Task.osexp","C:/Users/Erica","no","Andale Mono","no","18","no","white","no","yes","576","legacy","20","20","3","C:/Users/Erica/subject-5108034.csv","legacy","Lentiform Loewenfeld","3.3.7","yes","yes","600bd7cfb6416f0113b04181","602110864497cf011d9c0822","0","j","NA","space","space","space","NA","j","582","NA","1995","2531","928","NA","582","2","legacy","1024","2","48000","-16","task","5108034","even","NA","53606","57604","55609","102616","42039","45504","44576","103118","NA","102612","103119","102495","57604","103702","51988","95395","41998","100995","Lexical Decision Task","21","21220","25","yes","1024"
"2.675164031","8.57","6","glue","word","84.61538461538461","84.61538461538461","836.9615384615385","836.9615384615385","black","no","legacy","legacy","legacy","0","uniform","1","undefined","undefined","undefined","1","j","0","0","0","0","25","0","0","0","25","NA","21","25","21","0","21","3","25","0","25","Thu Feb 18 13:43:20 2021","The main experiment item","yes","Lexical_Decision_Task.osexp","C:/Users/Erica","no","Andale Mono","no","18","no","white","no","yes","576","legacy","21","21","3","C:/Users/Erica/subject-5108034.csv","legacy","Lentiform Loewenfeld","3.3.7","yes","yes","600bd7cfb6416f0113b04181","602110864497cf011d9c0822","0","j","NA","space","space","space","NA","j","541","NA","1995","2531","928","NA","541","2","legacy","1024","2","48000","-16","task","5108034","even","NA","53606","57604","55609","104350","42039","45504","44576","104854","NA","104347","104854","104229","57604","105396","51988","103728","41998","100995","Lexical Decision Task","22","21761","26","yes","1024"
"2.778633532","0","3","jurp","non-word","85.18518518518519","85.18518518518519","829.925925925926","829.925925925926","black","no","legacy","legacy","legacy","0","uniform","1","undefined","undefined","undefined","1","f","0","0","0","0","26","0","0","0","26","NA","22","26","22","0","22","3","26","0","26","Thu Feb 18 13:43:20 2021","The main experiment item","yes","Lexical_Decision_Task.osexp","C:/Users/Erica","no","Andale Mono","no","18","no","white","no","yes","576","legacy","22","22","3","C:/Users/Erica/subject-5108034.csv","legacy","Lentiform Loewenfeld","3.3.7","yes","yes","600bd7cfb6416f0113b04181","602110864497cf011d9c0822","0","f","NA","space","space","space","NA","f","647","NA","1995","2531","928","NA","647","2","legacy","1024","2","48000","-16","task","5108034","even","NA","53606","57604","55609","106110","42039","45504","44576","106613","NA","106106","106613","105973","57604","107261","51988","105473","41998","100995","Lexical Decision Task","23","22408","27","yes","1024"
"2.839898939","8.99","6","soap","word","85.71428571428571","85.71428571428571","819.8214285714286","819.8214285714286","black","no","legacy","legacy","legacy","0","uniform","1","undefined","undefined","undefined","1","j","0","0","0","0","27","0","0","0","27","NA","23","27","23","0","23","3","27","0","27","Thu Feb 18 13:43:20 2021","The main experiment item","yes","Lexical_Decision_Task.osexp","C:/Users/Erica","no","Andale Mono","no","18","no","white","no","yes","576","legacy","23","23","3","C:/Users/Erica/subject-5108034.csv","legacy","Lentiform Loewenfeld","3.3.7","yes","yes","600bd7cfb6416f0113b04181","602110864497cf011d9c0822","0","j","NA","space","space","space","NA","j","547","NA","1995","2531","928","NA","547","2","legacy","1024","2","48000","-16","task","5108034","even","NA","53606","57604","55609","107942","42039","45504","44576","108444","NA","107938","108445","107818","57604","108993","51988","107318","41998","100995","Lexical Decision Task","24","22955","28","yes","1024"
"2.8162413","0","5","nusk","non-word","86.20689655172414","86.20689655172414","813.2413793103449","813.2413793103449","black","no","legacy","legacy","legacy","0","uniform","1","undefined","undefined","undefined","1","f","0","0","0","0","28","0","0","0","28","NA","24","28","24","0","24","3","28","0","28","Thu Feb 18 13:43:20 2021","The main experiment item","yes","Lexical_Decision_Task.osexp","C:/Users/Erica","no","Andale Mono","no","18","no","white","no","yes","576","legacy","24","24","3","C:/Users/Erica/subject-5108034.csv","legacy","Lentiform Loewenfeld","3.3.7","yes","yes","600bd7cfb6416f0113b04181","602110864497cf011d9c0822","0","f","NA","space","space","space","NA","f","629","NA","1995","2531","928","NA","629","2","legacy","1024","2","48000","-16","task","5108034","even","NA","53606","57604","55609","109669","42039","45504","44576","110171","NA","109665","110172","109540","57604","110802","51988","109039","41998","100995","Lexical Decision Task","25","23584","29","yes","1024"
"3.397302518","7.01","2","knit","word","86.66666666666667","86.66666666666667","804.9666666666667","804.9666666666667","black","no","legacy","legacy","legacy","0","uniform","1","undefined","undefined","undefined","1","j","0","0","0","0","29","0","0","0","29","NA","25","29","25","0","25","3","29","0","29","Thu Feb 18 13:43:20 2021","The main experiment item","yes","Lexical_Decision_Task.osexp","C:/Users/Erica","no","Andale Mono","no","18","no","white","no","yes","576","legacy","25","25","3","C:/Users/Erica/subject-5108034.csv","legacy","Lentiform Loewenfeld","3.3.7","yes","yes","600bd7cfb6416f0113b04181","602110864497cf011d9c0822","0","j","NA","space","space","space","NA","j","565","NA","1995","2531","928","NA","565","2","legacy","1024","2","48000","-16","task","5108034","even","NA","53606","57604","55609","111531","42039","45504","44576","112034","NA","111528","112034","111408","57604","112600","51988","110907","41998","100995","Lexical Decision Task","26","24149","30","yes","1024"
"2.972819734","0","4","scew","non-word","87.09677419354838","87.09677419354838","809.4193548387096","809.4193548387096","black","no","legacy","legacy","legacy","0","uniform","1","undefined","undefined","undefined","1","f","0","0","0","0","30","0","0","0","30","NA","26","30","26","0","26","3","30","0","30","Thu Feb 18 13:43:20 2021","The main experiment item","yes","Lexical_Decision_Task.osexp","C:/Users/Erica","no","Andale Mono","no","18","no","white","no","yes","576","legacy","26","26","3","C:/Users/Erica/subject-5108034.csv","legacy","Lentiform Loewenfeld","3.3.7","yes","yes","600bd7cfb6416f0113b04181","602110864497cf011d9c0822","0","f","NA","space","space","space","NA","f","943","NA","1995","2531","928","NA","943","2","legacy","1024","2","48000","-16","task","5108034","even","NA","53606","57604","55609","113349","42039","45504","44576","113852","NA","113345","113852","113207","57604","114797","51988","112707","41998","100995","Lexical Decision Task","27","25092","31","yes","1024"
"2.814027728","8.2","4","foam","word","87.5","87.5","805.03125","805.03125","black","no","legacy","legacy","legacy","0","uniform","1","undefined","undefined","undefined","1","j","0","0","0","0","31","0","0","0","31","NA","27","31","27","0","27","3","31","0","31","Thu Feb 18 13:43:20 2021","The main experiment item","yes","Lexical_Decision_Task.osexp","C:/Users/Erica","no","Andale Mono","no","18","no","white","no","yes","576","legacy","27","27","3","C:/Users/Erica/subject-5108034.csv","legacy","Lentiform Loewenfeld","3.3.7","yes","yes","600bd7cfb6416f0113b04181","602110864497cf011d9c0822","0","j","NA","space","space","space","NA","j","669","NA","1995","2531","928","NA","669","2","legacy","1024","2","48000","-16","task","5108034","even","NA","53606","57604","55609","115509","42039","45504","44576","116012","NA","115505","116012","115363","57604","116682","51988","114863","41998","100995","Lexical Decision Task","28","25761","32","yes","1024"
"2.695481676","0","7","goke","non-word","87.87878787878788","87.87878787878788","802.8181818181819","802.8181818181819","black","no","legacy","legacy","legacy","0","uniform","1","undefined","undefined","undefined","1","f","0","0","0","0","32","0","0","0","32","NA","28","32","28","0","28","3","32","0","32","Thu Feb 18 13:43:20 2021","The main experiment item","yes","Lexical_Decision_Task.osexp","C:/Users/Erica","no","Andale Mono","no","18","no","white","no","yes","576","legacy","28","28","3","C:/Users/Erica/subject-5108034.csv","legacy","Lentiform Loewenfeld","3.3.7","yes","yes","600bd7cfb6416f0113b04181","602110864497cf011d9c0822","0","f","NA","space","space","space","NA","f","732","NA","1995","2531","928","NA","732","2","legacy","1024","2","48000","-16","task","5108034","even","NA","53606","57604","55609","117360","42039","45504","44576","117863","NA","117356","117863","117218","57604","118596","51988","116718","41998","100995","Lexical Decision Task","29","26493","33","yes","1024"
"2.893578687","8.69","3","surf","word","88.23529411764706","88.23529411764706","797.6176470588235","797.6176470588235","black","no","legacy","legacy","legacy","0","uniform","1","undefined","undefined","undefined","1","j","0","0","0","0","33","0","0","0","33","NA","29","33","29","0","29","3","33","0","33","Thu Feb 18 13:43:20 2021","The main experiment item","yes","Lexical_Decision_Task.osexp","C:/Users/Erica","no","Andale Mono","no","18","no","white","no","yes","576","legacy","29","29","3","C:/Users/Erica/subject-5108034.csv","legacy","Lentiform Loewenfeld","3.3.7","yes","yes","600bd7cfb6416f0113b04181","602110864497cf011d9c0822","0","j","NA","space","space","space","NA","j","626","NA","1995","2531","928","NA","626","2","legacy","1024","2","48000","-16","task","5108034","even","NA","53606","57604","55609","119269","42039","45504","44576","119772","NA","119265","119772","119129","57604","120399","51988","118629","41998","100995","Lexical Decision Task","30","27119","34","yes","1024"
"2.892836167","10.01","5","soft","word","88.57142857142857","88.57142857142857","789.9142857142857","789.9142857142857","black","no","legacy","legacy","legacy","0","uniform","1","undefined","undefined","undefined","1","j","0","0","0","0","34","0","0","0","34","NA","30","34","30","0","30","3","34","0","34","Thu Feb 18 13:43:20 2021","The main experiment item","yes","Lexical_Decision_Task.osexp","C:/Users/Erica","no","Andale Mono","no","18","no","white","no","yes","576","legacy","30","30","3","C:/Users/Erica/subject-5108034.csv","legacy","Lentiform Loewenfeld","3.3.7","yes","yes","600bd7cfb6416f0113b04181","602110864497cf011d9c0822","0","j","NA","space","space","space","NA","j","528","NA","1995","2531","928","NA","528","2","legacy","1024","2","48000","-16","task","5108034","even","NA","53606","57604","55609","121094","42039","45504","44576","121597","NA","121090","121597","120952","57604","122126","51988","120452","41998","100995","Lexical Decision Task","31","27647","35","yes","1024"
"2.884795364","0","6","flob","non-word","88.88888888888889","88.88888888888889","787.9722222222222","787.9722222222222","black","no","legacy","legacy","legacy","0","uniform","1","undefined","undefined","undefined","1","f","0","0","0","0","35","0","0","0","35","NA","31","35","31","0","31","3","35","0","35","Thu Feb 18 13:43:20 2021","The main experiment item","yes","Lexical_Decision_Task.osexp","C:/Users/Erica","no","Andale Mono","no","18","no","white","no","yes","576","legacy","31","31","3","C:/Users/Erica/subject-5108034.csv","legacy","Lentiform Loewenfeld","3.3.7","yes","yes","600bd7cfb6416f0113b04181","602110864497cf011d9c0822","0","f","NA","space","space","space","NA","f","720","NA","1995","2531","928","NA","720","2","legacy","1024","2","48000","-16","task","5108034","even","NA","53606","57604","55609","122853","42039","45504","44576","123356","NA","122849","123356","122708","57604","124077","51988","122208","41998","100995","Lexical Decision Task","32","28367","36","yes","1024"
"3.382617311","0","4","pret","non-word","89.1891891891892","89.1891891891892","786.3783783783783","786.3783783783783","black","no","legacy","legacy","legacy","0","uniform","1","undefined","undefined","undefined","1","f","0","0","0","0","36","0","0","0","36","NA","32","36","32","0","32","3","36","0","36","Thu Feb 18 13:43:20 2021","The main experiment item","yes","Lexical_Decision_Task.osexp","C:/Users/Erica","no","Andale Mono","no","18","no","white","no","yes","576","legacy","32","32","3","C:/Users/Erica/subject-5108034.csv","legacy","Lentiform Loewenfeld","3.3.7","yes","yes","600bd7cfb6416f0113b04181","602110864497cf011d9c0822","0","f","NA","space","space","space","NA","f","729","NA","1995","2531","928","NA","729","2","legacy","1024","2","48000","-16","task","5108034","even","NA","53606","57604","55609","124751","42039","45504","44576","125255","NA","124748","125255","124608","57604","125985","51988","124108","41998","100995","Lexical Decision Task","33","29096","37","yes","1024"
"3.153104174","10.89","6","door","word","89.47368421052632","89.47368421052632","779.6842105263158","779.6842105263158","black","no","legacy","legacy","legacy","0","uniform","1","undefined","undefined","undefined","1","j","0","0","0","0","37","0","0","0","37","NA","33","37","33","0","33","3","37","0","37","Thu Feb 18 13:43:20 2021","The main experiment item","yes","Lexical_Decision_Task.osexp","C:/Users/Erica","no","Andale Mono","no","18","no","white","no","yes","576","legacy","33","33","3","C:/Users/Erica/subject-5108034.csv","legacy","Lentiform Loewenfeld","3.3.7","yes","yes","600bd7cfb6416f0113b04181","602110864497cf011d9c0822","0","j","NA","space","space","space","NA","j","532","NA","1995","2531","928","NA","532","2","legacy","1024","2","48000","-16","task","5108034","even","NA","53606","57604","55609","126668","42039","45504","44576","127171","NA","126664","127171","126519","57604","127704","51988","126019","41998","100995","Lexical Decision Task","34","29628","38","yes","1024"
"2.86332286","6.71","2","feud","word","89.74358974358974","89.74358974358974","774.9230769230769","774.9230769230769","black","no","legacy","legacy","legacy","0","uniform","1","undefined","undefined","undefined","1","j","0","0","0","0","38","0","0","0","38","NA","34","38","34","0","34","3","38","0","38","Thu Feb 18 13:43:20 2021","The main experiment item","yes","Lexical_Decision_Task.osexp","C:/Users/Erica","no","Andale Mono","no","18","no","white","no","yes","576","legacy","34","34","3","C:/Users/Erica/subject-5108034.csv","legacy","Lentiform Loewenfeld","3.3.7","yes","yes","600bd7cfb6416f0113b04181","602110864497cf011d9c0822","0","j","NA","space","space","space","NA","j","594","NA","1995","2531","928","NA","594","2","legacy","1024","2","48000","-16","task","5108034","even","NA","53606","57604","55609","128414","42039","45504","44576","128917","NA","128410","128917","128263","57604","129512","51988","127763","41998","100995","Lexical Decision Task","35","30222","39","yes","1024"
"2.719886232","7.98","2","quiz","word","90","90","768.25","768.25","black","no","legacy","legacy","legacy","0","uniform","1","undefined","undefined","undefined","1","j","0","0","0","0","39","0","0","0","39","NA","35","39","35","0","35","3","39","0","39","Thu Feb 18 13:43:20 2021","The main experiment item","yes","Lexical_Decision_Task.osexp","C:/Users/Erica","no","Andale Mono","no","18","no","white","no","yes","576","legacy","35","35","3","C:/Users/Erica/subject-5108034.csv","legacy","Lentiform Loewenfeld","3.3.7","yes","yes","600bd7cfb6416f0113b04181","602110864497cf011d9c0822","0","j","NA","space","space","space","NA","j","508","NA","1995","2531","928","NA","508","2","legacy","1024","2","48000","-16","task","5108034","even","NA","53606","57604","55609","130243","42039","45504","44576","130745","NA","130239","130745","130097","57604","131255","51988","129597","41998","100995","Lexical Decision Task","36","30730","40","yes","1024"
"3.431095062","5.74","9","perk","word","90.2439024390244","90.2439024390244","764.219512195122","764.219512195122","black","no","legacy","legacy","legacy","0","uniform","1","undefined","undefined","undefined","1","j","0","0","0","0","40","0","0","0","40","NA","36","40","36","0","36","3","40","0","40","Thu Feb 18 13:43:20 2021","The main experiment item","yes","Lexical_Decision_Task.osexp","C:/Users/Erica","no","Andale Mono","no","18","no","white","no","yes","576","legacy","36","36","3","C:/Users/Erica/subject-5108034.csv","legacy","Lentiform Loewenfeld","3.3.7","yes","yes","600bd7cfb6416f0113b04181","602110864497cf011d9c0822","0","j","NA","space","space","space","NA","j","603","NA","1995","2531","928","NA","603","2","legacy","1024","2","48000","-16","task","5108034","even","NA","53606","57604","55609","131910","42039","45504","44576","132413","NA","131906","132413","131785","57604","133018","51988","131285","41998","100995","Lexical Decision Task","37","31333","41","yes","1024"
"3.208172527","10.27","7","deck","word","90.47619047619048","90.47619047619048","760.3333333333334","760.3333333333334","black","no","legacy","legacy","legacy","0","uniform","1","undefined","undefined","undefined","1","j","0","0","0","0","41","0","0","0","41","NA","37","41","37","0","37","3","41","0","41","Thu Feb 18 13:43:20 2021","The main experiment item","yes","Lexical_Decision_Task.osexp","C:/Users/Erica","no","Andale Mono","no","18","no","white","no","yes","576","legacy","37","37","3","C:/Users/Erica/subject-5108034.csv","legacy","Lentiform Loewenfeld","3.3.7","yes","yes","600bd7cfb6416f0113b04181","602110864497cf011d9c0822","0","j","NA","space","space","space","NA","j","601","NA","1995","2531","928","NA","601","2","legacy","1024","2","48000","-16","task","5108034","even","NA","53606","57604","55609","133715","42039","45504","44576","134218","NA","133713","134218","133586","57604","134826","51988","133085","41998","100995","Lexical Decision Task","38","31934","42","yes","1024"
"2.920123326","7.43","4","duel","word","90.69767441860465","90.69767441860465","759.3488372093024","759.3488372093024","black","no","legacy","legacy","legacy","0","uniform","1","undefined","undefined","undefined","1","j","0","0","0","0","42","0","0","0","42","NA","38","42","38","0","38","3","42","0","42","Thu Feb 18 13:43:20 2021","The main experiment item","yes","Lexical_Decision_Task.osexp","C:/Users/Erica","no","Andale Mono","no","18","no","white","no","yes","576","legacy","38","38","3","C:/Users/Erica/subject-5108034.csv","legacy","Lentiform Loewenfeld","3.3.7","yes","yes","600bd7cfb6416f0113b04181","602110864497cf011d9c0822","0","j","NA","space","space","space","NA","j","718","NA","1995","2531","928","NA","718","2","legacy","1024","2","48000","-16","task","5108034","even","NA","53606","57604","55609","135540","42039","45504","44576","136042","NA","135536","136043","135419","57604","136763","51988","134918","41998","100995","Lexical Decision Task","39","32652","43","yes","1024"
"2.696644658","5.78","2","yolk","word","90.9090909090909","90.9090909090909","756.4318181818181","756.4318181818181","black","no","legacy","legacy","legacy","0","uniform","1","undefined","undefined","undefined","1","j","0","0","0","0","43","0","0","0","43","NA","39","43","39","0","39","3","43","0","43","Thu Feb 18 13:43:20 2021","The main experiment item","yes","Lexical_Decision_Task.osexp","C:/Users/Erica","no","Andale Mono","no","18","no","white","no","yes","576","legacy","39","39","3","C:/Users/Erica/subject-5108034.csv","legacy","Lentiform Loewenfeld","3.3.7","yes","yes","600bd7cfb6416f0113b04181","602110864497cf011d9c0822","0","j","NA","space","space","space","NA","j","631","NA","1995","2531","928","NA","631","2","legacy","1024","2","48000","-16","task","5108034","even","NA","53606","57604","55609","137474","42039","45504","44576","137976","NA","137470","137977","137353","57604","138609","51988","136853","41998","100995","Lexical Decision Task","40","33283","44","yes","1024"
"3.529815197","0","3","lerm","non-word","91.11111111111111","91.11111111111111","753.4444444444445","753.4444444444445","black","no","legacy","legacy","legacy","0","uniform","1","undefined","undefined","undefined","1","f","0","0","0","0","44","0","0","0","44","NA","40","44","40","0","40","3","44","0","44","Thu Feb 18 13:43:20 2021","The main experiment item","yes","Lexical_Decision_Task.osexp","C:/Users/Erica","no","Andale Mono","no","18","no","white","no","yes","576","legacy","40","40","3","C:/Users/Erica/subject-5108034.csv","legacy","Lentiform Loewenfeld","3.3.7","yes","yes","600bd7cfb6416f0113b04181","602110864497cf011d9c0822","0","f","NA","space","space","space","NA","f","622","NA","1995","2531","928","NA","622","2","legacy","1024","2","48000","-16","task","5108034","even","NA","53606","57604","55609","139261","42039","45504","44576","139764","NA","139257","139764","139140","57604","140387","51988","138640","41998","100995","Lexical Decision Task","41","33905","45","yes","1024"
"3.132473155","0","4","glim","non-word","89.1304347826087","89.1304347826087","749.3478260869565","749.3478260869565","black","no","legacy","legacy","legacy","0","uniform","0","undefined","undefined","undefined","0","f","0","0","0","0","45","0","0","0","45","NA","41","45","41","0","41","3","45","0","45","Thu Feb 18 13:43:20 2021","The main experiment item","yes","Lexical_Decision_Task.osexp","C:/Users/Erica","no","Andale Mono","no","18","no","white","no","yes","576","legacy","41","41","3","C:/Users/Erica/subject-5108034.csv","legacy","Lentiform Loewenfeld","3.3.7","yes","yes","600bd7cfb6416f0113b04181","602110864497cf011d9c0822","0","j","NA","space","space","space","NA","j","565","NA","1995","2531","928","NA","565","2","legacy","1024","2","48000","-16","task","5108034","even","NA","53606","57604","55609","141023","42039","45504","44576","141525","NA","141020","141526","140906","57604","142092","51988","140406","41998","100995","Lexical Decision Task","41","34470","46","yes","1024"
"3.2757719","0","5","slea","non-word","89.36170212765957","89.36170212765957","753.5744680851063","753.5744680851063","black","no","legacy","legacy","legacy","0","uniform","1","undefined","undefined","undefined","1","f","0","0","0","0","46","0","0","0","46","NA","42","46","42","0","42","3","46","0","46","Thu Feb 18 13:43:20 2021","The main experiment item","yes","Lexical_Decision_Task.osexp","C:/Users/Erica","no","Andale Mono","no","18","no","white","no","yes","576","legacy","42","42","3","C:/Users/Erica/subject-5108034.csv","legacy","Lentiform Loewenfeld","3.3.7","yes","yes","600bd7cfb6416f0113b04181","602110864497cf011d9c0822","0","f","NA","space","space","space","NA","f","948","NA","1995","2531","928","NA","948","2","legacy","1024","2","48000","-16","task","5108034","even","NA","53606","57604","55609","143776","42039","45504","44576","144279","NA","143773","144279","143641","57604","145228","51988","140406","41998","142141","Lexical Decision Task","42","35418","47","yes","1024"
"3.225825991","0","7","talm","non-word","89.58333333333333","89.58333333333333","787.0208333333334","787.0208333333334","black","no","legacy","legacy","legacy","0","uniform","1","undefined","undefined","undefined","1","f","0","0","0","0","47","0","0","0","47","NA","43","47","43","0","43","3","47","0","47","Thu Feb 18 13:43:20 2021","The main experiment item","yes","Lexical_Decision_Task.osexp","C:/Users/Erica","no","Andale Mono","no","18","no","white","no","yes","576","legacy","43","43","3","C:/Users/Erica/subject-5108034.csv","legacy","Lentiform Loewenfeld","3.3.7","yes","yes","600bd7cfb6416f0113b04181","602110864497cf011d9c0822","0","f","NA","space","space","space","NA","f","2359","NA","1995","2531","928","NA","2359","2","legacy","1024","2","48000","-16","task","5108034","even","NA","53606","57604","55609","145875","42039","45504","44576","146378","NA","145872","146379","145752","57604","148739","51988","145252","41998","142141","Lexical Decision Task","43","37777","48","yes","1024"
"3.299579929","0","2","flis","non-word","87.75510204081633","87.75510204081633","787.9591836734694","787.9591836734694","black","no","legacy","legacy","legacy","0","uniform","0","undefined","undefined","undefined","0","f","0","0","0","0","48","0","0","0","48","NA","44","48","44","0","44","3","48","0","48","Thu Feb 18 13:43:20 2021","The main experiment item","yes","Lexical_Decision_Task.osexp","C:/Users/Erica","no","Andale Mono","no","18","no","white","no","yes","576","legacy","44","44","3","C:/Users/Erica/subject-5108034.csv","legacy","Lentiform Loewenfeld","3.3.7","yes","yes","600bd7cfb6416f0113b04181","602110864497cf011d9c0822","0","j","NA","space","space","space","NA","j","833","NA","1995","2531","928","NA","833","2","legacy","1024","2","48000","-16","task","5108034","even","NA","53606","57604","55609","149443","42039","45504","44576","149945","NA","149440","149946","149319","57604","150780","51988","148819","41998","142141","Lexical Decision Task","43","38610","49","yes","1024"
"2.713490543","0","3","feps","non-word","88","88","785.48","785.48","black","no","legacy","legacy","legacy","0","uniform","1","undefined","undefined","undefined","1","f","0","0","0","0","49","0","0","0","49","NA","45","49","45","0","45","3","49","0","49","Thu Feb 18 13:43:20 2021","The main experiment item","yes","Lexical_Decision_Task.osexp","C:/Users/Erica","no","Andale Mono","no","18","no","white","no","yes","576","legacy","45","45","3","C:/Users/Erica/subject-5108034.csv","legacy","Lentiform Loewenfeld","3.3.7","yes","yes","600bd7cfb6416f0113b04181","602110864497cf011d9c0822","0","f","NA","space","space","space","NA","f","664","NA","1995","2531","928","NA","664","2","legacy","1024","2","48000","-16","task","5108034","even","NA","53606","57604","55609","152450","42039","45504","44576","152953","NA","152447","152953","152331","57604","153618","51988","148819","41998","150831","Lexical Decision Task","44","39274","50","yes","1024"
"3.194328374","9.42","6","harm","word","88.23529411764706","88.23529411764706","784.7843137254902","784.7843137254902","black","no","legacy","legacy","legacy","0","uniform","1","undefined","undefined","undefined","1","j","0","0","0","0","50","0","0","0","50","NA","46","50","46","0","46","3","50","0","50","Thu Feb 18 13:43:20 2021","The main experiment item","yes","Lexical_Decision_Task.osexp","C:/Users/Erica","no","Andale Mono","no","18","no","white","no","yes","576","legacy","46","46","3","C:/Users/Erica/subject-5108034.csv","legacy","Lentiform Loewenfeld","3.3.7","yes","yes","600bd7cfb6416f0113b04181","602110864497cf011d9c0822","0","j","NA","space","space","space","NA","j","750","NA","1995","2531","928","NA","750","2","legacy","1024","2","48000","-16","task","5108034","even","NA","53606","57604","55609","154287","42039","45504","44576","154789","NA","154284","154790","154163","57604","155542","51988","153663","41998","150831","Lexical Decision Task","45","40024","51","yes","1024"
"3.252447662","9.67","9","boat","word","88.46153846153847","88.46153846153847","782.4807692307693","782.4807692307693","black","no","legacy","legacy","legacy","0","uniform","1","undefined","undefined","undefined","1","j","0","0","0","0","51","0","0","0","51","NA","47","51","47","0","47","3","51","0","51","Thu Feb 18 13:43:20 2021","The main experiment item","yes","Lexical_Decision_Task.osexp","C:/Users/Erica","no","Andale Mono","no","18","no","white","no","yes","576","legacy","47","47","3","C:/Users/Erica/subject-5108034.csv","legacy","Lentiform Loewenfeld","3.3.7","yes","yes","600bd7cfb6416f0113b04181","602110864497cf011d9c0822","0","j","NA","space","space","space","NA","j","665","NA","1995","2531","928","NA","665","2","legacy","1024","2","48000","-16","task","5108034","even","NA","53606","57604","55609","156238","42039","45504","44576","156740","NA","156234","156741","156118","57604","157408","51988","155618","41998","150831","Lexical Decision Task","46","40689","52","yes","1024"
"3.003891166","8.05","2","frog","word","88.67924528301887","88.67924528301887","778.9811320754717","778.9811320754717","black","no","legacy","legacy","legacy","0","uniform","1","undefined","undefined","undefined","1","j","0","0","0","0","52","0","0","0","52","NA","48","52","48","0","48","3","52","0","52","Thu Feb 18 13:43:20 2021","The main experiment item","yes","Lexical_Decision_Task.osexp","C:/Users/Erica","no","Andale Mono","no","18","no","white","no","yes","576","legacy","48","48","3","C:/Users/Erica/subject-5108034.csv","legacy","Lentiform Loewenfeld","3.3.7","yes","yes","600bd7cfb6416f0113b04181","602110864497cf011d9c0822","0","j","NA","space","space","space","NA","j","597","NA","1995","2531","928","NA","597","2","legacy","1024","2","48000","-16","task","5108034","even","NA","53606","57604","55609","158083","42039","45504","44576","158586","NA","158079","158587","157964","57604","159185","51988","157464","41998","150831","Lexical Decision Task","47","41286","53","yes","1024"
"2.980911938","7.15","7","hoop","word","88.88888888888889","88.88888888888889","774.8148148148148","774.8148148148148","black","no","legacy","legacy","legacy","0","uniform","1","undefined","undefined","undefined","1","j","0","0","0","0","53","0","0","0","53","NA","49","53","49","0","49","3","53","0","53","Thu Feb 18 13:43:20 2021","The main experiment item","yes","Lexical_Decision_Task.osexp","C:/Users/Erica","no","Andale Mono","no","18","no","white","no","yes","576","legacy","49","49","3","C:/Users/Erica/subject-5108034.csv","legacy","Lentiform Loewenfeld","3.3.7","yes","yes","600bd7cfb6416f0113b04181","602110864497cf011d9c0822","0","j","NA","space","space","space","NA","j","554","NA","1995","2531","928","NA","554","2","legacy","1024","2","48000","-16","task","5108034","even","NA","53606","57604","55609","159952","42039","45504","44576","160454","NA","159949","160455","159831","57604","161011","51988","159331","41998","150831","Lexical Decision Task","48","41840","54","yes","1024"
"3.028977705","0","7","frow","non-word","89.0909090909091","89.0909090909091","775.7636363636364","775.7636363636364","black","no","legacy","legacy","legacy","0","uniform","1","undefined","undefined","undefined","1","f","0","0","0","0","54","0","0","0","54","0","50","54","50","0","50","3","54","0","54","Thu Feb 18 13:43:20 2021","The main experiment item","yes","Lexical_Decision_Task.osexp","C:/Users/Erica","no","Andale Mono","no","18","no","white","no","yes","576","legacy","50","50","3","C:/Users/Erica/subject-5108034.csv","legacy","Lentiform Loewenfeld","3.3.7","yes","yes","600bd7cfb6416f0113b04181","602110864497cf011d9c0822","0","f","NA","space","space","space","space","f","827","NA","1995","2531","928","3828","827","2","legacy","1024","2","48000","-16","task","5108034","even","NA","53606","57604","55609","165556","42039","45504","44576","166059","161606","165552","166059","161541","57604","166887","51988","161041","41998","150831","Lexical Decision Task","49","42667","55","yes","1024"
"3.488597715","0","9","nain","non-word","89.28571428571429","89.28571428571429","774.5178571428571","774.5178571428571","black","no","legacy","legacy","legacy","0","uniform","1","undefined","undefined","undefined","1","f","0","0","0","0","55","0","0","0","55","0","51","55","51","0","51","3","55","0","55","Thu Feb 18 13:43:20 2021","The main experiment item","yes","Lexical_Decision_Task.osexp","C:/Users/Erica","no","Andale Mono","no","18","no","white","no","yes","576","legacy","51","51","3","C:/Users/Erica/subject-5108034.csv","legacy","Lentiform Loewenfeld","3.3.7","yes","yes","600bd7cfb6416f0113b04181","602110864497cf011d9c0822","0","f","NA","space","space","space","space","f","706","NA","1995","2531","928","3828","706","2","legacy","1024","2","48000","-16","task","5108034","even","NA","53606","57604","55609","167539","42039","45504","44576","168042","161606","167536","168042","167420","57604","168750","51988","166919","41998","150831","Lexical Decision Task","50","43373","56","yes","1024"
"2.807758206","6.25","4","hurl","word","89.47368421052632","89.47368421052632","772.7017543859649","772.7017543859649","black","no","legacy","legacy","legacy","0","uniform","1","undefined","undefined","undefined","1","j","0","0","0","0","56","0","0","0","56","0","52","56","52","0","52","3","56","0","56","Thu Feb 18 13:43:20 2021","The main experiment item","yes","Lexical_Decision_Task.osexp","C:/Users/Erica","no","Andale Mono","no","18","no","white","no","yes","576","legacy","52","52","3","C:/Users/Erica/subject-5108034.csv","legacy","Lentiform Loewenfeld","3.3.7","yes","yes","600bd7cfb6416f0113b04181","602110864497cf011d9c0822","0","j","NA","space","space","space","space","j","671","NA","1995","2531","928","3828","671","2","legacy","1024","2","48000","-16","task","5108034","even","NA","53606","57604","55609","169410","42039","45504","44576","169913","161606","169407","169913","169286","57604","170585","51988","168786","41998","150831","Lexical Decision Task","51","44044","57","yes","1024"
"2.980306438","0","7","slun","non-word","89.65517241379311","89.65517241379311","770.051724137931","770.051724137931","black","no","legacy","legacy","legacy","0","uniform","1","undefined","undefined","undefined","1","f","0","0","0","0","57","0","0","0","57","0","53","57","53","0","53","3","57","0","57","Thu Feb 18 13:43:20 2021","The main experiment item","yes","Lexical_Decision_Task.osexp","C:/Users/Erica","no","Andale Mono","no","18","no","white","no","yes","576","legacy","53","53","3","C:/Users/Erica/subject-5108034.csv","legacy","Lentiform Loewenfeld","3.3.7","yes","yes","600bd7cfb6416f0113b04181","602110864497cf011d9c0822","0","f","NA","space","space","space","space","f","619","NA","1995","2531","928","3828","619","2","legacy","1024","2","48000","-16","task","5108034","even","NA","53606","57604","55609","171279","42039","45504","44576","171781","161606","171276","171782","171143","57604","172401","51988","170643","41998","150831","Lexical Decision Task","52","44663","58","yes","1024"
"3.067070856","9.39","3","loud","word","89.83050847457628","89.83050847457628","766.4406779661017","766.4406779661017","black","no","legacy","legacy","legacy","0","uniform","1","undefined","undefined","undefined","1","j","0","0","0","0","58","0","0","0","58","0","54","58","54","0","54","3","58","0","58","Thu Feb 18 13:43:20 2021","The main experiment item","yes","Lexical_Decision_Task.osexp","C:/Users/Erica","no","Andale Mono","no","18","no","white","no","yes","576","legacy","54","54","3","C:/Users/Erica/subject-5108034.csv","legacy","Lentiform Loewenfeld","3.3.7","yes","yes","600bd7cfb6416f0113b04181","602110864497cf011d9c0822","0","j","NA","space","space","space","space","j","557","NA","1995","2531","928","3828","557","2","legacy","1024","2","48000","-16","task","5108034","even","NA","53606","57604","55609","173072","42039","45504","44576","173576","161606","173069","173576","172953","57604","174134","51988","172452","41998","150831","Lexical Decision Task","53","45220","59","yes","1024"
"2.782472624","10.55","2","huge","word","90","90","762.5333333333333","762.5333333333333","black","no","legacy","legacy","legacy","0","uniform","1","undefined","undefined","undefined","1","j","0","0","0","0","59","0","0","0","59","0","55","59","55","0","55","3","59","0","59","Thu Feb 18 13:43:20 2021","The main experiment item","yes","Lexical_Decision_Task.osexp","C:/Users/Erica","no","Andale Mono","no","18","no","white","no","yes","576","legacy","55","55","3","C:/Users/Erica/subject-5108034.csv","legacy","Lentiform Loewenfeld","3.3.7","yes","yes","600bd7cfb6416f0113b04181","602110864497cf011d9c0822","0","j","NA","space","space","space","space","j","532","NA","1995","2531","928","3828","532","2","legacy","1024","2","48000","-16","task","5108034","even","NA","53606","57604","55609","174818","42039","45504","44576","175320","161606","174815","175320","174686","57604","175854","51988","174186","41998","150831","Lexical Decision Task","54","45752","60","yes","1024"
"2.794720352","0","9","koot","non-word","90.1639344262295","90.1639344262295","760.2950819672132","760.2950819672132","black","no","legacy","legacy","legacy","0","uniform","1","undefined","undefined","undefined","1","f","0","0","0","0","60","0","0","0","60","0","56","60","56","0","56","3","60","0","60","Thu Feb 18 13:43:20 2021","The main experiment item","yes","Lexical_Decision_Task.osexp","C:/Users/Erica","no","Andale Mono","no","18","no","white","no","yes","576","legacy","56","56","3","C:/Users/Erica/subject-5108034.csv","legacy","Lentiform Loewenfeld","3.3.7","yes","yes","600bd7cfb6416f0113b04181","602110864497cf011d9c0822","0","f","NA","space","space","space","space","f","626","NA","1995","2531","928","3828","626","2","legacy","1024","2","48000","-16","task","5108034","even","NA","53606","57604","55609","176531","42039","45504","44576","177034","161606","176528","177034","176409","57604","177662","51988","175909","41998","150831","Lexical Decision Task","55","46378","61","yes","1024"
"3.495914186","0","4","peng","non-word","88.70967741935483","88.70967741935483","756.241935483871","756.241935483871","black","no","legacy","legacy","legacy","0","uniform","0","undefined","undefined","undefined","0","f","0","0","0","0","61","0","0","0","61","0","57","61","57","0","57","3","61","0","61","Thu Feb 18 13:43:20 2021","The main experiment item","yes","Lexical_Decision_Task.osexp","C:/Users/Erica","no","Andale Mono","no","18","no","white","no","yes","576","legacy","57","57","3","C:/Users/Erica/subject-5108034.csv","legacy","Lentiform Loewenfeld","3.3.7","yes","yes","600bd7cfb6416f0113b04181","602110864497cf011d9c0822","0","j","NA","space","space","space","space","j","509","NA","1995","2531","928","3828","509","2","legacy","1024","2","48000","-16","task","5108034","even","NA","53606","57604","55609","178325","42039","45504","44576","178828","161606","178322","178829","178208","57604","179339","51988","177708","41998","150831","Lexical Decision Task","55","46887","62","yes","1024"
"2.771097306","0","9","jold","non-word","88.88888888888889","88.88888888888889","755.7777777777778","755.7777777777778","black","no","legacy","legacy","legacy","0","uniform","1","undefined","undefined","undefined","1","f","0","0","0","0","62","0","0","0","62","0","58","62","58","0","58","3","62","0","62","Thu Feb 18 13:43:20 2021","The main experiment item","yes","Lexical_Decision_Task.osexp","C:/Users/Erica","no","Andale Mono","no","18","no","white","no","yes","576","legacy","58","58","3","C:/Users/Erica/subject-5108034.csv","legacy","Lentiform Loewenfeld","3.3.7","yes","yes","600bd7cfb6416f0113b04181","602110864497cf011d9c0822","0","f","NA","space","space","space","space","f","727","NA","1995","2531","928","3828","727","2","legacy","1024","2","48000","-16","task","5108034","even","NA","53606","57604","55609","180982","42039","45504","44576","181485","161606","180978","181485","180864","57604","182213","51988","177708","41998","179364","Lexical Decision Task","56","47614","63","yes","1024"
"2.972357144","0","5","dasp","non-word","89.0625","89.0625","754","754","black","no","legacy","legacy","legacy","0","uniform","1","undefined","undefined","undefined","1","f","0","0","0","0","63","0","0","0","63","0","59","63","59","0","59","3","63","0","63","Thu Feb 18 13:43:20 2021","The main experiment item","yes","Lexical_Decision_Task.osexp","C:/Users/Erica","no","Andale Mono","no","18","no","white","no","yes","576","legacy","59","59","3","C:/Users/Erica/subject-5108034.csv","legacy","Lentiform Loewenfeld","3.3.7","yes","yes","600bd7cfb6416f0113b04181","602110864497cf011d9c0822","0","f","NA","space","space","space","space","f","642","NA","1995","2531","928","3828","642","2","legacy","1024","2","48000","-16","task","5108034","even","NA","53606","57604","55609","182890","42039","45504","44576","183393","161606","182886","183393","182764","57604","184037","51988","182264","41998","179364","Lexical Decision Task","57","48256","64","yes","1024"
"2.838639236","0","4","furg","non-word","89.23076923076923","89.23076923076923","751.7076923076924","751.7076923076924","black","no","legacy","legacy","legacy","0","uniform","1","undefined","undefined","undefined","1","f","0","0","0","0","64","0","0","0","64","0","60","64","60","0","60","3","64","0","64","Thu Feb 18 13:43:20 2021","The main experiment item","yes","Lexical_Decision_Task.osexp","C:/Users/Erica","no","Andale Mono","no","18","no","white","no","yes","576","legacy","60","60","3","C:/Users/Erica/subject-5108034.csv","legacy","Lentiform Loewenfeld","3.3.7","yes","yes","600bd7cfb6416f0113b04181","602110864497cf011d9c0822","0","f","NA","space","space","space","space","f","605","NA","1995","2531","928","3828","605","2","legacy","1024","2","48000","-16","task","5108034","even","NA","53606","57604","55609","184708","42039","45504","44576","185210","161606","184704","185211","184587","57604","185820","51988","184087","41998","179364","Lexical Decision Task","58","48861","65","yes","1024"
"3.067193647","6.73","6","raft","word","89.39393939393939","89.39393939393939","751.3333333333334","751.3333333333334","black","no","legacy","legacy","legacy","0","uniform","1","undefined","undefined","undefined","1","j","0","0","0","0","65","0","0","0","65","0","61","65","61","0","61","3","65","0","65","Thu Feb 18 13:43:20 2021","The main experiment item","yes","Lexical_Decision_Task.osexp","C:/Users/Erica","no","Andale Mono","no","18","no","white","no","yes","576","legacy","61","61","3","C:/Users/Erica/subject-5108034.csv","legacy","Lentiform Loewenfeld","3.3.7","yes","yes","600bd7cfb6416f0113b04181","602110864497cf011d9c0822","0","j","NA","space","space","space","space","j","727","NA","1995","2531","928","3828","727","2","legacy","1024","2","48000","-16","task","5108034","even","NA","53606","57604","55609","186498","42039","45504","44576","187000","161606","186495","187001","186376","57604","187729","51988","185875","41998","179364","Lexical Decision Task","59","49588","66","yes","1024"
"2.809559715","8.44","4","volt","word","89.55223880597015","89.55223880597015","750.7611940298508","750.7611940298508","black","no","legacy","legacy","legacy","0","uniform","1","undefined","undefined","undefined","1","j","0","0","0","0","66","0","0","0","66","0","62","66","62","0","62","3","66","0","66","Thu Feb 18 13:43:20 2021","The main experiment item","yes","Lexical_Decision_Task.osexp","C:/Users/Erica","no","Andale Mono","no","18","no","white","no","yes","576","legacy","62","62","3","C:/Users/Erica/subject-5108034.csv","legacy","Lentiform Loewenfeld","3.3.7","yes","yes","600bd7cfb6416f0113b04181","602110864497cf011d9c0822","0","j","NA","space","space","space","space","j","713","NA","1995","2531","928","3828","713","2","legacy","1024","2","48000","-16","task","5108034","even","NA","53606","57604","55609","188374","42039","45504","44576","188876","161606","188370","188877","188253","57604","189592","51988","187753","41998","179364","Lexical Decision Task","60","50301","67","yes","1024"
"3.22685757","9.99","7","roll","word","89.70588235294117","89.70588235294117","747.7058823529412","747.7058823529412","black","no","legacy","legacy","legacy","0","uniform","1","undefined","undefined","undefined","1","j","0","0","0","0","67","0","0","0","67","0","63","67","63","0","63","3","67","0","67","Thu Feb 18 13:43:20 2021","The main experiment item","yes","Lexical_Decision_Task.osexp","C:/Users/Erica","no","Andale Mono","no","18","no","white","no","yes","576","legacy","63","63","3","C:/Users/Erica/subject-5108034.csv","legacy","Lentiform Loewenfeld","3.3.7","yes","yes","600bd7cfb6416f0113b04181","602110864497cf011d9c0822","0","j","NA","space","space","space","space","j","543","NA","1995","2531","928","3828","543","2","legacy","1024","2","48000","-16","task","5108034","even","NA","53606","57604","55609","190261","42039","45504","44576","190764","161606","190258","190764","190143","57604","191309","51988","189642","41998","179364","Lexical Decision Task","61","50844","68","yes","1024"
"2.983324025","9.56","2","debt","word","89.85507246376811","89.85507246376811","745.3913043478261","745.3913043478261","black","no","legacy","legacy","legacy","0","uniform","1","undefined","undefined","undefined","1","j","0","0","0","0","68","0","0","0","68","0","64","68","64","0","64","3","68","0","68","Thu Feb 18 13:43:20 2021","The main experiment item","yes","Lexical_Decision_Task.osexp","C:/Users/Erica","no","Andale Mono","no","18","no","white","no","yes","576","legacy","64","64","3","C:/Users/Erica/subject-5108034.csv","legacy","Lentiform Loewenfeld","3.3.7","yes","yes","600bd7cfb6416f0113b04181","602110864497cf011d9c0822","0","j","NA","space","space","space","space","j","588","NA","1995","2531","928","3828","588","2","legacy","1024","2","48000","-16","task","5108034","even","NA","53606","57604","55609","191974","42039","45504","44576","192476","161606","191970","192477","191854","57604","193066","51988","191353","41998","179364","Lexical Decision Task","62","51432","69","yes","1024"
"2.784379519","0","2","snaf","non-word","90","90","744.6714285714286","744.6714285714286","black","no","legacy","legacy","legacy","0","uniform","1","undefined","undefined","undefined","1","f","0","0","0","0","69","0","0","0","69","0","65","69","65","0","65","3","69","0","69","Thu Feb 18 13:43:20 2021","The main experiment item","yes","Lexical_Decision_Task.osexp","C:/Users/Erica","no","Andale Mono","no","18","no","white","no","yes","576","legacy","65","65","3","C:/Users/Erica/subject-5108034.csv","legacy","Lentiform Loewenfeld","3.3.7","yes","yes","600bd7cfb6416f0113b04181","602110864497cf011d9c0822","0","f","NA","space","space","space","space","f","695","NA","1995","2531","928","3828","695","2","legacy","1024","2","48000","-16","task","5108034","even","NA","53606","57604","55609","193742","42039","45504","44576","194244","161606","193739","194245","193621","57604","194942","51988","193120","41998","179364","Lexical Decision Task","63","52127","70","yes","1024"
"3.347850856","10.51","2","rich","word","90.14084507042253","90.14084507042253","741.1267605633802","741.1267605633802","black","no","legacy","legacy","legacy","0","uniform","1","undefined","undefined","undefined","1","j","0","0","0","0","70","0","0","0","70","0","66","70","66","0","66","3","70","0","70","Thu Feb 18 13:43:20 2021","The main experiment item","yes","Lexical_Decision_Task.osexp","C:/Users/Erica","no","Andale Mono","no","18","no","white","no","yes","576","legacy","66","66","3","C:/Users/Erica/subject-5108034.csv","legacy","Lentiform Loewenfeld","3.3.7","yes","yes","600bd7cfb6416f0113b04181","602110864497cf011d9c0822","0","j","NA","space","space","space","space","j","493","NA","1995","2531","928","3828","493","2","legacy","1024","2","48000","-16","task","5108034","even","NA","53606","57604","55609","195628","42039","45504","44576","196130","161606","195625","196131","195498","57604","196625","51988","194998","41998","179364","Lexical Decision Task","64","52620","71","yes","1024"
"2.952953801","0","8","clax","non-word","90.27777777777777","90.27777777777777","740.8888888888889","740.8888888888889","black","no","legacy","legacy","legacy","0","uniform","1","undefined","undefined","undefined","1","f","0","0","0","0","71","0","0","0","71","0","67","71","67","0","67","3","71","0","71","Thu Feb 18 13:43:20 2021","The main experiment item","yes","Lexical_Decision_Task.osexp","C:/Users/Erica","no","Andale Mono","no","18","no","white","no","yes","576","legacy","67","67","3","C:/Users/Erica/subject-5108034.csv","legacy","Lentiform Loewenfeld","3.3.7","yes","yes","600bd7cfb6416f0113b04181","602110864497cf011d9c0822","0","f","NA","space","space","space","space","f","724","NA","1995","2531","928","3828","724","2","legacy","1024","2","48000","-16","task","5108034","even","NA","53606","57604","55609","197297","42039","45504","44576","197799","161606","197294","197800","197176","57604","198526","51988","196676","41998","179364","Lexical Decision Task","65","53344","72","yes","1024"
"3.031408464","0","7","drow","non-word","90.41095890410959","90.41095890410959","741.1506849315068","741.1506849315068","black","no","legacy","legacy","legacy","0","uniform","1","undefined","undefined","undefined","1","f","0","0","0","0","72","0","0","0","72","0","68","72","68","0","68","3","72","0","72","Thu Feb 18 13:43:20 2021","The main experiment item","yes","Lexical_Decision_Task.osexp","C:/Users/Erica","no","Andale Mono","no","18","no","white","no","yes","576","legacy","68","68","3","C:/Users/Erica/subject-5108034.csv","legacy","Lentiform Loewenfeld","3.3.7","yes","yes","600bd7cfb6416f0113b04181","602110864497cf011d9c0822","0","f","NA","space","space","space","space","f","760","NA","1995","2531","928","3828","760","2","legacy","1024","2","48000","-16","task","5108034","even","NA","53606","57604","55609","199198","42039","45504","44576","199700","161606","199195","199701","199077","57604","200462","51988","198577","41998","179364","Lexical Decision Task","66","54104","73","yes","1024"
"2.594027722","9.08","8","skip","word","90.54054054054055","90.54054054054055","739.2027027027027","739.2027027027027","black","no","legacy","legacy","legacy","0","uniform","1","undefined","undefined","undefined","1","j","0","0","0","0","73","0","0","0","73","0","69","73","69","0","69","3","73","0","73","Thu Feb 18 13:43:20 2021","The main experiment item","yes","Lexical_Decision_Task.osexp","C:/Users/Erica","no","Andale Mono","no","18","no","white","no","yes","576","legacy","69","69","3","C:/Users/Erica/subject-5108034.csv","legacy","Lentiform Loewenfeld","3.3.7","yes","yes","600bd7cfb6416f0113b04181","602110864497cf011d9c0822","0","j","NA","space","space","space","space","j","597","NA","1995","2531","928","3828","597","2","legacy","1024","2","48000","-16","task","5108034","even","NA","53606","57604","55609","201124","42039","45504","44576","201626","161606","201120","201627","200998","57604","202225","51988","200498","41998","179364","Lexical Decision Task","67","54701","74","yes","1024"
"3.102203805","7.21","3","drip","word","90.66666666666667","90.66666666666667","735.56","735.56","black","no","legacy","legacy","legacy","0","uniform","1","undefined","undefined","undefined","1","j","0","0","0","0","74","0","0","0","74","0","70","74","70","0","70","3","74","0","74","Thu Feb 18 13:43:20 2021","The main experiment item","yes","Lexical_Decision_Task.osexp","C:/Users/Erica","no","Andale Mono","no","18","no","white","no","yes","576","legacy","70","70","3","C:/Users/Erica/subject-5108034.csv","legacy","Lentiform Loewenfeld","3.3.7","yes","yes","600bd7cfb6416f0113b04181","602110864497cf011d9c0822","0","j","NA","space","space","space","space","j","466","NA","1995","2531","928","3828","466","2","legacy","1024","2","48000","-16","task","5108034","even","NA","53606","57604","55609","202898","42039","45504","44576","203400","161606","202895","203401","202776","57604","203868","51988","202276","41998","179364","Lexical Decision Task","68","55167","75","yes","1024"
"2.821076612","0","4","lult","non-word","90.78947368421052","90.78947368421052","733.5","733.5","black","no","legacy","legacy","legacy","0","uniform","1","undefined","undefined","undefined","1","f","0","0","0","0","75","0","0","0","75","0","71","75","71","0","71","3","75","0","75","Thu Feb 18 13:43:20 2021","The main experiment item","yes","Lexical_Decision_Task.osexp","C:/Users/Erica","no","Andale Mono","no","18","no","white","no","yes","576","legacy","71","71","3","C:/Users/Erica/subject-5108034.csv","legacy","Lentiform Loewenfeld","3.3.7","yes","yes","600bd7cfb6416f0113b04181","602110864497cf011d9c0822","0","f","NA","space","space","space","space","f","579","NA","1995","2531","928","3828","579","2","legacy","1024","2","48000","-16","task","5108034","even","NA","53606","57604","55609","204506","42039","45504","44576","205008","161606","204503","205009","204388","57604","205589","51988","203888","41998","179364","Lexical Decision Task","69","55746","76","yes","1024"
"3.474361976","5.24","6","veer","word","89.6103896103896","89.6103896103896","735.4935064935065","735.4935064935065","black","no","legacy","legacy","legacy","0","uniform","0","undefined","undefined","undefined","0","j","0","0","0","0","76","0","0","0","76","0","72","76","72","0","72","3","76","0","76","Thu Feb 18 13:43:20 2021","The main experiment item","yes","Lexical_Decision_Task.osexp","C:/Users/Erica","no","Andale Mono","no","18","no","white","no","yes","576","legacy","72","72","3","C:/Users/Erica/subject-5108034.csv","legacy","Lentiform Loewenfeld","3.3.7","yes","yes","600bd7cfb6416f0113b04181","602110864497cf011d9c0822","0","f","NA","space","space","space","space","f","887","NA","1995","2531","928","3828","887","2","legacy","1024","2","48000","-16","task","5108034","even","NA","53606","57604","55609","206264","42039","45504","44576","206768","161606","206261","206768","206143","57604","207656","51988","205642","41998","179364","Lexical Decision Task","69","56633","77","yes","1024"
"3.131833513","7.66","4","limb","word","89.74358974358974","89.74358974358974","734.8717948717949","734.8717948717949","black","no","legacy","legacy","legacy","0","uniform","1","undefined","undefined","undefined","1","j","0","0","0","0","77","0","0","0","77","0","73","77","73","0","73","3","77","0","77","Thu Feb 18 13:43:20 2021","The main experiment item","yes","Lexical_Decision_Task.osexp","C:/Users/Erica","no","Andale Mono","no","18","no","white","no","yes","576","legacy","73","73","3","C:/Users/Erica/subject-5108034.csv","legacy","Lentiform Loewenfeld","3.3.7","yes","yes","600bd7cfb6416f0113b04181","602110864497cf011d9c0822","0","j","NA","space","space","space","space","j","687","NA","1995","2531","928","3828","687","2","legacy","1024","2","48000","-16","task","5108034","even","NA","53606","57604","55609","209330","42039","45504","44576","209834","161606","209327","209834","209210","57604","210523","51988","205642","41998","207710","Lexical Decision Task","70","57320","78","yes","1024"
"3.168890155","0","6","thet","non-word","89.87341772151899","89.87341772151899","737.3417721518987","737.3417721518987","black","no","legacy","legacy","legacy","0","uniform","1","undefined","undefined","undefined","1","f","0","0","0","0","78","0","0","0","78","0","74","78","74","0","74","3","78","0","78","Thu Feb 18 13:43:20 2021","The main experiment item","yes","Lexical_Decision_Task.osexp","C:/Users/Erica","no","Andale Mono","no","18","no","white","no","yes","576","legacy","74","74","3","C:/Users/Erica/subject-5108034.csv","legacy","Lentiform Loewenfeld","3.3.7","yes","yes","600bd7cfb6416f0113b04181","602110864497cf011d9c0822","0","f","NA","space","space","space","space","f","930","NA","1995","2531","928","3828","930","2","legacy","1024","2","48000","-16","task","5108034","even","NA","53606","57604","55609","211199","42039","45504","44576","211703","161606","211196","211703","211077","57604","212634","51988","210577","41998","207710","Lexical Decision Task","71","58250","79","yes","1024"
"2.907588697","8.91","9","mood","word","90","90","736.65","736.65","black","no","legacy","legacy","legacy","0","uniform","1","undefined","undefined","undefined","1","j","0","0","0","0","79","0","0","0","79","0","75","79","75","0","75","3","79","0","79","Thu Feb 18 13:43:20 2021","The main experiment item","yes","Lexical_Decision_Task.osexp","C:/Users/Erica","no","Andale Mono","no","18","no","white","no","yes","576","legacy","75","75","3","C:/Users/Erica/subject-5108034.csv","legacy","Lentiform Loewenfeld","3.3.7","yes","yes","600bd7cfb6416f0113b04181","602110864497cf011d9c0822","0","j","NA","space","space","space","space","j","682","NA","1995","2531","928","3828","682","2","legacy","1024","2","48000","-16","task","5108034","even","NA","53606","57604","55609","213307","42039","45504","44576","213809","161606","213304","213810","213188","57604","214494","51988","212688","41998","207710","Lexical Decision Task","72","58932","80","yes","1024"
"3.156347201","0","8","lasp","non-word","88.88888888888889","88.88888888888889","764.5925925925926","764.5925925925926","black","no","legacy","legacy","legacy","0","uniform","0","undefined","undefined","undefined","0","f","0","0","0","0","80","0","0","0","80","0","76","80","76","0","76","3","80","0","80","Thu Feb 18 13:43:20 2021","The main experiment item","yes","Lexical_Decision_Task.osexp","C:/Users/Erica","no","Andale Mono","no","18","no","white","no","yes","576","legacy","76","76","3","C:/Users/Erica/subject-5108034.csv","legacy","Lentiform Loewenfeld","3.3.7","yes","yes","600bd7cfb6416f0113b04181","602110864497cf011d9c0822","0","None","NA","space","space","space","space","None","3000","NA","1995","2531","928","3828","3000","2","legacy","1024","2","48000","-16","task","5108034","even","NA","53606","57604","55609","215144","42039","45504","44576","215646","161606","215139","215647","215021","57604","218648","51988","214521","41998","207710","Lexical Decision Task","72","61932","81","yes","1024"
"3.29439347","8.6","9","wand","word","89.02439024390245","89.02439024390245","768.560975609756","768.560975609756","black","no","legacy","legacy","legacy","0","uniform","1","undefined","undefined","undefined","1","j","0","0","0","0","81","0","0","0","81","0","77","81","77","0","77","3","81","0","81","Thu Feb 18 13:43:20 2021","The main experiment item","yes","Lexical_Decision_Task.osexp","C:/Users/Erica","no","Andale Mono","no","18","no","white","no","yes","576","legacy","77","77","3","C:/Users/Erica/subject-5108034.csv","legacy","Lentiform Loewenfeld","3.3.7","yes","yes","600bd7cfb6416f0113b04181","602110864497cf011d9c0822","0","j","NA","space","space","space","space","j","1090","NA","1995","2531","928","3828","1090","2","legacy","1024","2","48000","-16","task","5108034","even","NA","53606","57604","55609","220395","42039","45504","44576","220899","161606","220392","220899","220255","57604","221991","51988","214521","41998","218754","Lexical Decision Task","73","63022","82","yes","1024"
"2.616654026","9.37","5","gift","word","89.1566265060241","89.1566265060241","773.144578313253","773.144578313253","black","no","legacy","legacy","legacy","0","uniform","1","undefined","undefined","undefined","1","j","0","0","0","0","82","0","0","0","82","0","78","82","78","0","78","3","82","0","82","Thu Feb 18 13:43:20 2021","The main experiment item","yes","Lexical_Decision_Task.osexp","C:/Users/Erica","no","Andale Mono","no","18","no","white","no","yes","576","legacy","78","78","3","C:/Users/Erica/subject-5108034.csv","legacy","Lentiform Loewenfeld","3.3.7","yes","yes","600bd7cfb6416f0113b04181","602110864497cf011d9c0822","0","j","NA","space","space","space","space","j","1149","NA","1995","2531","928","3828","1149","2","legacy","1024","2","48000","-16","task","5108034","even","NA","53606","57604","55609","222656","42039","45504","44576","223158","161606","222653","223159","222532","57604","224309","51988","222032","41998","218754","Lexical Decision Task","74","64171","83","yes","1024"
"2.767650507","0","6","yolt","non-word","88.0952380952381","88.0952380952381","772.1666666666666","772.1666666666666","black","no","legacy","legacy","legacy","0","uniform","0","undefined","undefined","undefined","0","f","0","0","0","0","83","0","0","0","83","0","79","83","79","0","79","3","83","0","83","Thu Feb 18 13:43:20 2021","The main experiment item","yes","Lexical_Decision_Task.osexp","C:/Users/Erica","no","Andale Mono","no","18","no","white","no","yes","576","legacy","79","79","3","C:/Users/Erica/subject-5108034.csv","legacy","Lentiform Loewenfeld","3.3.7","yes","yes","600bd7cfb6416f0113b04181","602110864497cf011d9c0822","0","j","NA","space","space","space","space","j","691","NA","1995","2531","928","3828","691","2","legacy","1024","2","48000","-16","task","5108034","even","NA","53606","57604","55609","224953","42039","45504","44576","225455","161606","224950","225456","224833","57604","226149","51988","224333","41998","218754","Lexical Decision Task","74","64862","84","yes","1024"
"3.531734309","0","6","lerd","non-word","88.23529411764706","88.23529411764706","770.6941176470589","770.6941176470589","black","no","legacy","legacy","legacy","0","uniform","1","undefined","undefined","undefined","1","f","0","0","0","0","84","0","0","0","84","0","80","84","80","0","80","3","84","0","84","Thu Feb 18 13:43:20 2021","The main experiment item","yes","Lexical_Decision_Task.osexp","C:/Users/Erica","no","Andale Mono","no","18","no","white","no","yes","576","legacy","80","80","3","C:/Users/Erica/subject-5108034.csv","legacy","Lentiform Loewenfeld","3.3.7","yes","yes","600bd7cfb6416f0113b04181","602110864497cf011d9c0822","0","f","NA","space","space","space","space","f","647","NA","1995","2531","928","3828","647","2","legacy","1024","2","48000","-16","task","5108034","even","NA","53606","57604","55609","227797","42039","45504","44576","228299","161606","227793","228300","227678","57604","228949","51988","224333","41998","226177","Lexical Decision Task","75","65509","85","yes","1024"
"2.895974732","6.65","5","sift","word","87.20930232558139","87.20930232558139","770.0232558139535","770.0232558139535","black","no","legacy","legacy","legacy","0","uniform","0","undefined","undefined","undefined","0","j","0","0","0","0","85","0","0","0","85","0","81","85","81","0","81","3","85","0","85","Thu Feb 18 13:43:20 2021","The main experiment item","yes","Lexical_Decision_Task.osexp","C:/Users/Erica","no","Andale Mono","no","18","no","white","no","yes","576","legacy","81","81","3","C:/Users/Erica/subject-5108034.csv","legacy","Lentiform Loewenfeld","3.3.7","yes","yes","600bd7cfb6416f0113b04181","602110864497cf011d9c0822","0","f","NA","space","space","space","space","f","713","NA","1995","2531","928","3828","713","2","legacy","1024","2","48000","-16","task","5108034","even","NA","53606","57604","55609","229632","42039","45504","44576","230135","161606","229629","230136","229499","57604","230851","51988","228999","41998","226177","Lexical Decision Task","75","66222","86","yes","1024"
"3.705778213","0","6","stin","non-word","86.20689655172414","86.20689655172414","767.0459770114943","767.0459770114943","black","no","legacy","legacy","legacy","0","uniform","0","undefined","undefined","undefined","0","f","0","0","0","0","86","0","0","0","86","0","82","86","82","0","82","3","86","0","86","Thu Feb 18 13:43:20 2021","The main experiment item","yes","Lexical_Decision_Task.osexp","C:/Users/Erica","no","Andale Mono","no","18","no","white","no","yes","576","legacy","82","82","3","C:/Users/Erica/subject-5108034.csv","legacy","Lentiform Loewenfeld","3.3.7","yes","yes","600bd7cfb6416f0113b04181","602110864497cf011d9c0822","0","j","NA","space","space","space","space","j","511","NA","1995","2531","928","3828","511","2","legacy","1024","2","48000","-16","task","5108034","even","NA","53606","57604","55609","232530","42039","45504","44576","233032","161606","232527","233033","232410","57604","233546","51988","228999","41998","230910","Lexical Decision Task","75","66733","87","yes","1024"
"2.714888338","0","3","brug","non-word","86.36363636363636","86.36363636363636","767.7045454545455","767.7045454545455","black","no","legacy","legacy","legacy","0","uniform","1","undefined","undefined","undefined","1","f","0","0","0","0","87","0","0","0","87","0","83","87","83","0","83","3","87","0","87","Thu Feb 18 13:43:20 2021","The main experiment item","yes","Lexical_Decision_Task.osexp","C:/Users/Erica","no","Andale Mono","no","18","no","white","no","yes","576","legacy","83","83","3","C:/Users/Erica/subject-5108034.csv","legacy","Lentiform Loewenfeld","3.3.7","yes","yes","600bd7cfb6416f0113b04181","602110864497cf011d9c0822","0","f","NA","space","space","space","space","f","825","NA","1995","2531","928","3828","825","2","legacy","1024","2","48000","-16","task","5108034","even","NA","53606","57604","55609","235230","42039","45504","44576","235733","161606","235227","235733","235099","57604","236560","51988","228999","41998","233599","Lexical Decision Task","76","67558","88","yes","1024"
"2.69019608","9.01","2","myth","word","86.51685393258427","86.51685393258427","765.2696629213483","765.2696629213483","black","no","legacy","legacy","legacy","0","uniform","1","undefined","undefined","undefined","1","j","0","0","0","0","88","0","0","0","88","0","84","88","84","0","84","3","88","0","88","Thu Feb 18 13:43:20 2021","The main experiment item","yes","Lexical_Decision_Task.osexp","C:/Users/Erica","no","Andale Mono","no","18","no","white","no","yes","576","legacy","84","84","3","C:/Users/Erica/subject-5108034.csv","legacy","Lentiform Loewenfeld","3.3.7","yes","yes","600bd7cfb6416f0113b04181","602110864497cf011d9c0822","0","j","NA","space","space","space","space","j","551","NA","1995","2531","928","3828","551","2","legacy","1024","2","48000","-16","task","5108034","even","NA","53606","57604","55609","237209","42039","45504","44576","237712","161606","237206","237712","237089","57604","238265","51988","236589","41998","233599","Lexical Decision Task","77","68109","89","yes","1024"
"3.248054965","7.86","5","glow","word","86.66666666666667","86.66666666666667","762.4222222222222","762.4222222222222","black","no","legacy","legacy","legacy","0","uniform","1","undefined","undefined","undefined","1","j","0","0","0","0","89","0","0","0","89","0","85","89","85","0","85","3","89","0","89","Thu Feb 18 13:43:20 2021","The main experiment item","yes","Lexical_Decision_Task.osexp","C:/Users/Erica","no","Andale Mono","no","18","no","white","no","yes","576","legacy","85","85","3","C:/Users/Erica/subject-5108034.csv","legacy","Lentiform Loewenfeld","3.3.7","yes","yes","600bd7cfb6416f0113b04181","602110864497cf011d9c0822","0","j","NA","space","space","space","space","j","509","NA","1995","2531","928","3828","509","2","legacy","1024","2","48000","-16","task","5108034","even","NA","53606","57604","55609","238946","42039","45504","44576","239448","161606","238942","239449","238822","57604","239961","51988","238322","41998","233599","Lexical Decision Task","78","68618","90","yes","1024"
"3.353210739","0","9","reet","non-word","86.81318681318682","86.81318681318682","761.2417582417582","761.2417582417582","black","no","legacy","legacy","legacy","0","uniform","1","undefined","undefined","undefined","1","f","0","0","0","0","90","0","0","0","90","0","86","90","86","0","86","3","90","0","90","Thu Feb 18 13:43:20 2021","The main experiment item","yes","Lexical_Decision_Task.osexp","C:/Users/Erica","no","Andale Mono","no","18","no","white","no","yes","576","legacy","86","86","3","C:/Users/Erica/subject-5108034.csv","legacy","Lentiform Loewenfeld","3.3.7","yes","yes","600bd7cfb6416f0113b04181","602110864497cf011d9c0822","0","f","NA","space","space","space","space","f","655","NA","1995","2531","928","3828","655","2","legacy","1024","2","48000","-16","task","5108034","even","NA","53606","57604","55609","240638","42039","45504","44576","241140","161606","240635","241141","240510","57604","241798","51988","240010","41998","233599","Lexical Decision Task","79","69273","91","yes","1024"
"2.664328519","0","4","plux","non-word","86.95652173913044","86.95652173913044","759.6739130434783","759.6739130434783","black","no","legacy","legacy","legacy","0","uniform","1","undefined","undefined","undefined","1","f","0","0","0","0","91","0","0","0","91","0","87","91","87","0","87","3","91","0","91","Thu Feb 18 13:43:20 2021","The main experiment item","yes","Lexical_Decision_Task.osexp","C:/Users/Erica","no","Andale Mono","no","18","no","white","no","yes","576","legacy","87","87","3","C:/Users/Erica/subject-5108034.csv","legacy","Lentiform Loewenfeld","3.3.7","yes","yes","600bd7cfb6416f0113b04181","602110864497cf011d9c0822","0","f","NA","space","space","space","space","f","617","NA","1995","2531","928","3828","617","2","legacy","1024","2","48000","-16","task","5108034","even","NA","53606","57604","55609","242465","42039","45504","44576","242968","161606","242461","242968","242345","57604","243586","51988","241844","41998","233599","Lexical Decision Task","80","69890","92","yes","1024"
"3.197740804","6.74","3","ache","word","87.09677419354838","87.09677419354838","758.9032258064516","758.9032258064516","black","no","legacy","legacy","legacy","0","uniform","1","undefined","undefined","undefined","1","j","0","0","0","0","92","0","0","0","92","0","88","92","88","0","88","3","92","0","92","Thu Feb 18 13:43:20 2021","The main experiment item","yes","Lexical_Decision_Task.osexp","C:/Users/Erica","no","Andale Mono","no","18","no","white","no","yes","576","legacy","88","88","3","C:/Users/Erica/subject-5108034.csv","legacy","Lentiform Loewenfeld","3.3.7","yes","yes","600bd7cfb6416f0113b04181","602110864497cf011d9c0822","0","j","NA","space","space","space","space","j","688","NA","1995","2531","928","3828","688","2","legacy","1024","2","48000","-16","task","5108034","even","NA","53606","57604","55609","244254","42039","45504","44576","244757","161606","244251","244758","244134","57604","245449","51988","243633","41998","233599","Lexical Decision Task","81","70578","93","yes","1024"
"3.168400243","9.12","6","horn","word","87.23404255319149","87.23404255319149","756.7021276595744","756.7021276595744","black","no","legacy","legacy","legacy","0","uniform","1","undefined","undefined","undefined","1","j","0","0","0","0","93","0","0","0","93","0","89","93","89","0","89","3","93","0","93","Thu Feb 18 13:43:20 2021","The main experiment item","yes","Lexical_Decision_Task.osexp","C:/Users/Erica","no","Andale Mono","no","18","no","white","no","yes","576","legacy","89","89","3","C:/Users/Erica/subject-5108034.csv","legacy","Lentiform Loewenfeld","3.3.7","yes","yes","600bd7cfb6416f0113b04181","602110864497cf011d9c0822","0","j","NA","space","space","space","space","j","552","NA","1995","2531","928","3828","552","2","legacy","1024","2","48000","-16","task","5108034","even","NA","53606","57604","55609","246124","42039","45504","44576","246626","161606","246120","246627","246000","57604","247181","51988","245500","41998","233599","Lexical Decision Task","82","71130","94","yes","1024"
"2.990042563","6.64","9","plow","word","87.36842105263158","87.36842105263158","762.6","762.6","black","no","legacy","legacy","legacy","0","uniform","1","undefined","undefined","undefined","1","j","0","0","0","0","94","0","0","0","94","0","90","94","90","0","90","3","94","0","94","Thu Feb 18 13:43:20 2021","The main experiment item","yes","Lexical_Decision_Task.osexp","C:/Users/Erica","no","Andale Mono","no","18","no","white","no","yes","576","legacy","90","90","3","C:/Users/Erica/subject-5108034.csv","legacy","Lentiform Loewenfeld","3.3.7","yes","yes","600bd7cfb6416f0113b04181","602110864497cf011d9c0822","0","j","NA","space","space","space","space","j","1317","NA","1995","2531","928","3828","1317","2","legacy","1024","2","48000","-16","task","5108034","even","NA","53606","57604","55609","247871","42039","45504","44576","248374","161606","247868","248374","247744","57604","249693","51988","247244","41998","233599","Lexical Decision Task","83","72447","95","yes","1024"
"3.149629599","0","2","cleb","non-word","87.5","87.5","760.9479166666666","760.9479166666666","black","no","legacy","legacy","legacy","0","uniform","1","undefined","undefined","undefined","1","f","0","0","0","0","95","0","0","0","95","0","91","95","91","0","91","3","95","0","95","Thu Feb 18 13:43:20 2021","The main experiment item","yes","Lexical_Decision_Task.osexp","C:/Users/Erica","no","Andale Mono","no","18","no","white","no","yes","576","legacy","91","91","3","C:/Users/Erica/subject-5108034.csv","legacy","Lentiform Loewenfeld","3.3.7","yes","yes","600bd7cfb6416f0113b04181","602110864497cf011d9c0822","0","f","NA","space","space","space","space","f","604","NA","1995","2531","928","3828","604","2","legacy","1024","2","48000","-16","task","5108034","even","NA","53606","57604","55609","250383","42039","45504","44576","250885","161606","250380","250886","250256","57604","251492","51988","249755","41998","233599","Lexical Decision Task","84","73051","96","yes","1024"
"2.953276337","6.32","4","thaw","word","86.5979381443299","86.5979381443299","759.4845360824743","759.4845360824743","black","no","legacy","legacy","legacy","0","uniform","0","undefined","undefined","undefined","0","j","0","0","0","0","96","0","0","0","96","0","92","96","92","0","92","3","96","0","96","Thu Feb 18 13:43:20 2021","The main experiment item","yes","Lexical_Decision_Task.osexp","C:/Users/Erica","no","Andale Mono","no","18","no","white","no","yes","576","legacy","92","92","3","C:/Users/Erica/subject-5108034.csv","legacy","Lentiform Loewenfeld","3.3.7","yes","yes","600bd7cfb6416f0113b04181","602110864497cf011d9c0822","0","f","NA","space","space","space","space","f","619","NA","1995","2531","928","3828","619","2","legacy","1024","2","48000","-16","task","5108034","even","NA","53606","57604","55609","252169","42039","45504","44576","252671","161606","252165","252672","252045","57604","253293","51988","251545","41998","233599","Lexical Decision Task","84","73670","97","yes","1024"
"2.996511672","0","7","hoil","non-word","85.71428571428571","85.71428571428571","760.6326530612245","760.6326530612245","black","no","legacy","legacy","legacy","0","uniform","0","undefined","undefined","undefined","0","f","0","0","0","0","97","0","0","0","97","0","93","97","93","0","93","3","97","0","97","Thu Feb 18 13:43:20 2021","The main experiment item","yes","Lexical_Decision_Task.osexp","C:/Users/Erica","no","Andale Mono","no","18","no","white","no","yes","576","legacy","93","93","3","C:/Users/Erica/subject-5108034.csv","legacy","Lentiform Loewenfeld","3.3.7","yes","yes","600bd7cfb6416f0113b04181","602110864497cf011d9c0822","0","j","NA","space","space","space","space","j","872","NA","1995","2531","928","3828","872","2","legacy","1024","2","48000","-16","task","5108034","even","NA","53606","57604","55609","254976","42039","45504","44576","255478","161606","254973","255479","254856","57604","256353","51988","251545","41998","253356","Lexical Decision Task","84","74542","98","yes","1024"
"2.979548375","8.71","4","soup","word","85.85858585858585","85.85858585858585","758.2929292929293","758.2929292929293","black","no","legacy","legacy","legacy","0","uniform","1","undefined","undefined","undefined","1","j","0","0","0","0","98","0","0","0","98","0","94","98","94","0","94","3","98","0","98","Thu Feb 18 13:43:20 2021","The main experiment item","yes","Lexical_Decision_Task.osexp","C:/Users/Erica","no","Andale Mono","no","18","no","white","no","yes","576","legacy","94","94","3","C:/Users/Erica/subject-5108034.csv","legacy","Lentiform Loewenfeld","3.3.7","yes","yes","600bd7cfb6416f0113b04181","602110864497cf011d9c0822","0","j","NA","space","space","space","space","j","529","NA","1995","2531","928","3828","529","2","legacy","1024","2","48000","-16","task","5108034","even","NA","53606","57604","55609","258031","42039","45504","44576","258534","161606","258028","258535","257912","57604","259066","51988","251545","41998","256412","Lexical Decision Task","85","75071","99","yes","1024"
"2.819763221","0","2","durp","non-word","86","86","757.83","757.83","black","no","legacy","legacy","legacy","0","uniform","1","undefined","undefined","undefined","1","f","0","0","0","0","99","0","0","0","99","0","95","99","95","0","95","3","99","0","99","Thu Feb 18 13:43:20 2021","The main experiment item","yes","Lexical_Decision_Task.osexp","C:/Users/Erica","no","Andale Mono","no","18","no","white","no","yes","576","legacy","95","95","3","C:/Users/Erica/subject-5108034.csv","legacy","Lentiform Loewenfeld","3.3.7","yes","yes","600bd7cfb6416f0113b04181","602110864497cf011d9c0822","0","f","NA","space","space","space","space","f","712","NA","1995","2531","928","3828","712","2","legacy","1024","2","48000","-16","task","5108034","even","NA","53606","57604","55609","259749","42039","45504","44576","260252","161606","259746","260252","259623","57604","260966","51988","259123","41998","256412","Lexical Decision Task","86","75783","100","yes","1024"
"3.209246849","0","7","slem","non-word","86.13861386138613","86.13861386138613","760","760","black","no","legacy","legacy","legacy","0","uniform","1","undefined","undefined","undefined","1","f","0","0","0","0","100","0","0","0","100","0","96","100","96","0","96","3","100","0","100","Thu Feb 18 13:43:20 2021","The main experiment item","yes","Lexical_Decision_Task.osexp","C:/Users/Erica","no","Andale Mono","no","18","no","white","no","yes","576","legacy","96","96","3","C:/Users/Erica/subject-5108034.csv","legacy","Lentiform Loewenfeld","3.3.7","yes","yes","600bd7cfb6416f0113b04181","602110864497cf011d9c0822","0","f","NA","space","space","space","space","f","977","NA","1995","2531","928","3828","977","2","legacy","1024","2","48000","-16","task","5108034","even","NA","53606","57604","55609","261654","42039","45504","44576","262157","161606","261650","262158","261523","57604","263138","51988","261023","41998","256412","Lexical Decision Task","87","76760","101","yes","1024"
"3.134602053","0","8","jart","non-word","85.29411764705883","85.29411764705883","758.4411764705883","758.4411764705883","black","no","legacy","legacy","legacy","0","uniform","0","undefined","undefined","undefined","0","f","0","0","0","0","101","0","0","0","101","0","97","101","97","0","97","3","101","0","101","Thu Feb 18 13:43:20 2021","The main experiment item","yes","Lexical_Decision_Task.osexp","C:/Users/Erica","no","Andale Mono","no","18","no","white","no","yes","576","legacy","97","97","3","C:/Users/Erica/subject-5108034.csv","legacy","Lentiform Loewenfeld","3.3.7","yes","yes","600bd7cfb6416f0113b04181","602110864497cf011d9c0822","0","j","NA","space","space","space","space","j","601","NA","1995","2531","928","3828","601","2","legacy","1024","2","48000","-16","task","5108034","even","NA","53606","57604","55609","263808","42039","45504","44576","264310","161606","263805","264311","263689","57604","264914","51988","263189","41998","256412","Lexical Decision Task","87","77361","102","yes","1024"
