"Log_BG","Log_Freq_HAL","Ortho_N","Stimulus","Type","acc","accuracy","average_response_time","avg_rt","background","bidi","canvas_backend","clock_backend","color_backend","compensation","coordinates","correct","correct_Experimental_intro","correct_Introduction","correct_Practice_intro","correct_experimenter_kb","correct_response","count_End_Of_Experiment","count_End_Of_Practice","count_Experimental_Loop","count_Experimental_intro","count_Fixation","count_Introduction","count_Practice_Loop","count_Practice_intro","count_Stimulus","count_block_break_feedback","count_experimental_sequence","count_experimenter_kb","count_increment_trial_count","count_init_trial_count","count_logger","count_practice_sequence","count_right","count_task","count_wrong","datetime","description","disable_garbage_collection","experiment_file","experiment_path","font_bold","font_family","font_italic","font_size","font_underline","foreground","form_clicks","fullscreen","height","keyboard_backend","live_row","live_row_Experimental_Loop","live_row_Practice_Loop","logfile","mouse_backend","opensesame_codename","opensesame_version","osf_always_upload_data","osf_always_upload_experiment","osf_datanode_id","osf_id","repeat_cycle","response","response_End_Of_Experiment","response_Experimental_intro","response_Introduction","response_Practice_intro","response_block_break_feedback","response_experimenter_kb","response_time","response_time_End_Of_Experiment","response_time_Experimental_intro","response_time_Introduction","response_time_Practice_intro","response_time_block_break_feedback","response_time_experimenter_kb","round_decimals","sampler_backend","sound_buf_size","sound_channels","sound_freq","sound_sample_size","start","subject_nr","subject_parity","time_End_Of_Experiment","time_End_Of_Practice","time_Experimental_Loop","time_Experimental_intro","time_Fixation","time_Introduction","time_Practice_Loop","time_Practice_intro","time_Stimulus","time_block_break_feedback","time_experimental_sequence","time_experimenter_kb","time_increment_trial_count","time_init_trial_count","time_logger","time_practice_sequence","time_right","time_task","time_wrong","title","total_correct","total_response_time","total_responses","uniform_coordinates","width"
"3.276537627","9.15","5","trap","word","100","100","684.6","684.6","black","no","legacy","legacy","legacy","0","uniform","1","undefined","undefined","undefined","1","j","0","0","0","0","4","0","0","0","4","NA","0","4","0","0","0","3","4","0","4","Fri Feb 19 11:17:29 2021","The main experiment item","yes","Lexical_Decision_Task.osexp","C:/Users/molli","no","Andale Mono","no","18","no","white","no","yes","576","legacy","0","0","3","C:/Users/molli/subject-5218517.csv","legacy","Lentiform Loewenfeld","3.3.7","yes","yes","600bd7cfb6416f0113b04181","602110864497cf011d9c0822","0","j","NA","space","j","space","NA","j","592","NA","3449","8073","7531","NA","592","2","legacy","1024","2","48000","-16","task","5218517","odd","NA","25813","31263","27814","31294","3140","18747","11215","31795","NA","31293","31795","NA","31263","32387","24072","25297","3138","NA","Lexical Decision Task","5","3423","5","yes","1024"
"3.094121596","0","8","fode","non-word","100","100","666.8333333333334","666.8333333333334","black","no","legacy","legacy","legacy","0","uniform","1","undefined","undefined","undefined","1","f","0","0","0","0","5","0","0","0","5","NA","1","5","1","0","1","3","5","0","5","Fri Feb 19 11:17:29 2021","The main experiment item","yes","Lexical_Decision_Task.osexp","C:/Users/molli","no","Andale Mono","no","18","no","white","no","yes","576","legacy","1","1","3","C:/Users/molli/subject-5218517.csv","legacy","Lentiform Loewenfeld","3.3.7","yes","yes","600bd7cfb6416f0113b04181","602110864497cf011d9c0822","0","f","NA","space","j","space","NA","f","578","NA","3449","8073","7531","NA","578","2","legacy","1024","2","48000","-16","task","5218517","odd","NA","25813","31263","27814","32982","3140","18747","11215","33483","NA","32981","33483","32895","31263","34061","24072","32395","3138","NA","Lexical Decision Task","6","4001","6","yes","1024"
"3.531734309","0","6","lerd","non-word","100","100","673.5714285714286","673.5714285714286","black","no","legacy","legacy","legacy","0","uniform","1","undefined","undefined","undefined","1","f","0","0","0","0","6","0","0","0","6","NA","2","6","2","0","2","3","6","0","6","Fri Feb 19 11:17:29 2021","The main experiment item","yes","Lexical_Decision_Task.osexp","C:/Users/molli","no","Andale Mono","no","18","no","white","no","yes","576","legacy","2","2","3","C:/Users/molli/subject-5218517.csv","legacy","Lentiform Loewenfeld","3.3.7","yes","yes","600bd7cfb6416f0113b04181","602110864497cf011d9c0822","0","f","NA","space","j","space","NA","f","714","NA","3449","8073","7531","NA","714","2","legacy","1024","2","48000","-16","task","5218517","odd","NA","25813","31263","27814","34613","3140","18747","11215","35114","NA","34611","35114","34566","31263","35828","24072","34066","3138","NA","Lexical Decision Task","7","4715","7","yes","1024"
"3.257359335","8","6","brew","word","100","100","665","665","black","no","legacy","legacy","legacy","0","uniform","1","undefined","undefined","undefined","1","j","0","0","0","0","7","0","0","0","7","NA","3","7","3","0","3","3","7","0","7","Fri Feb 19 11:17:29 2021","The main experiment item","yes","Lexical_Decision_Task.osexp","C:/Users/molli","no","Andale Mono","no","18","no","white","no","yes","576","legacy","3","3","3","C:/Users/molli/subject-5218517.csv","legacy","Lentiform Loewenfeld","3.3.7","yes","yes","600bd7cfb6416f0113b04181","602110864497cf011d9c0822","0","j","NA","space","j","space","NA","j","605","NA","3449","8073","7531","NA","605","2","legacy","1024","2","48000","-16","task","5218517","odd","NA","25813","31263","27814","36382","3140","18747","11215","36885","NA","36380","36885","36335","31263","37490","24072","35835","3138","NA","Lexical Decision Task","8","5320","8","yes","1024"
"2.898725182","0","7","turl","non-word","100","100","665.7777777777778","665.7777777777778","black","no","legacy","legacy","legacy","0","uniform","1","undefined","undefined","undefined","1","f","0","0","0","0","8","0","0","0","8","NA","4","8","4","0","4","3","8","0","8","Fri Feb 19 11:17:29 2021","The main experiment item","yes","Lexical_Decision_Task.osexp","C:/Users/molli","no","Andale Mono","no","18","no","white","no","yes","576","legacy","4","4","3","C:/Users/molli/subject-5218517.csv","legacy","Lentiform Loewenfeld","3.3.7","yes","yes","600bd7cfb6416f0113b04181","602110864497cf011d9c0822","0","f","NA","space","j","space","NA","f","672","NA","3449","8073","7531","NA","672","2","legacy","1024","2","48000","-16","task","5218517","odd","NA","25813","31263","27814","38038","3140","18747","11215","38539","NA","38037","38539","37995","31263","39211","24072","37495","3138","NA","Lexical Decision Task","9","5992","9","yes","1024"
"2.714888338","0","3","brug","non-word","100","100","682.7","682.7","black","no","legacy","legacy","legacy","0","uniform","1","undefined","undefined","undefined","1","f","0","0","0","0","9","0","0","0","9","NA","5","9","5","0","5","3","9","0","9","Fri Feb 19 11:17:29 2021","The main experiment item","yes","Lexical_Decision_Task.osexp","C:/Users/molli","no","Andale Mono","no","18","no","white","no","yes","576","legacy","5","5","3","C:/Users/molli/subject-5218517.csv","legacy","Lentiform Loewenfeld","3.3.7","yes","yes","600bd7cfb6416f0113b04181","602110864497cf011d9c0822","0","f","NA","space","j","space","NA","f","835","NA","3449","8073","7531","NA","835","2","legacy","1024","2","48000","-16","task","5218517","odd","NA","25813","31263","27814","39760","3140","18747","11215","40263","NA","39759","40263","39716","31263","41099","24072","39216","3138","NA","Lexical Decision Task","10","6827","10","yes","1024"
"3.495914186","0","4","peng","non-word","90.9090909090909","90.9090909090909","676.2727272727273","676.2727272727273","black","no","legacy","legacy","legacy","0","uniform","0","undefined","undefined","undefined","0","f","0","0","0","0","10","0","0","0","10","NA","6","10","6","0","6","3","10","0","10","Fri Feb 19 11:17:29 2021","The main experiment item","yes","Lexical_Decision_Task.osexp","C:/Users/molli","no","Andale Mono","no","18","no","white","no","yes","576","legacy","6","6","3","C:/Users/molli/subject-5218517.csv","legacy","Lentiform Loewenfeld","3.3.7","yes","yes","600bd7cfb6416f0113b04181","602110864497cf011d9c0822","0","j","NA","space","j","space","NA","j","612","NA","3449","8073","7531","NA","612","2","legacy","1024","2","48000","-16","task","5218517","odd","NA","25813","31263","27814","41648","3140","18747","11215","42149","NA","41646","42149","41603","31263","42761","24072","41103","3138","NA","Lexical Decision Task","10","7439","11","yes","1024"
"2.845304797","0","6","buct","non-word","91.66666666666667","91.66666666666667","683.1666666666666","683.1666666666666","black","no","legacy","legacy","legacy","0","uniform","1","undefined","undefined","undefined","1","f","0","0","0","0","11","0","0","0","11","NA","7","11","7","0","7","3","11","0","11","Fri Feb 19 11:17:29 2021","The main experiment item","yes","Lexical_Decision_Task.osexp","C:/Users/molli","no","Andale Mono","no","18","no","white","no","yes","576","legacy","7","7","3","C:/Users/molli/subject-5218517.csv","legacy","Lentiform Loewenfeld","3.3.7","yes","yes","600bd7cfb6416f0113b04181","602110864497cf011d9c0822","0","f","NA","space","j","space","NA","f","759","NA","3449","8073","7531","NA","759","2","legacy","1024","2","48000","-16","task","5218517","odd","NA","25813","31263","27814","44317","3140","18747","11215","44819","NA","44315","44819","44266","31263","45578","24072","41103","3138","42766","Lexical Decision Task","11","8198","12","yes","1024"
"3.088136089","8.32","9","worm","word","92.3076923076923","92.3076923076923","681.1538461538462","681.1538461538462","black","no","legacy","legacy","legacy","0","uniform","1","undefined","undefined","undefined","1","j","0","0","0","0","12","0","0","0","12","NA","8","12","8","0","8","3","12","0","12","Fri Feb 19 11:17:29 2021","The main experiment item","yes","Lexical_Decision_Task.osexp","C:/Users/molli","no","Andale Mono","no","18","no","white","no","yes","576","legacy","8","8","3","C:/Users/molli/subject-5218517.csv","legacy","Lentiform Loewenfeld","3.3.7","yes","yes","600bd7cfb6416f0113b04181","602110864497cf011d9c0822","0","j","NA","space","j","space","NA","j","657","NA","3449","8073","7531","NA","657","2","legacy","1024","2","48000","-16","task","5218517","odd","NA","25813","31263","27814","46128","3140","18747","11215","46629","NA","46126","46629","46083","31263","47287","24072","45583","3138","42766","Lexical Decision Task","12","8855","13","yes","1024"
"2.693726949","5.08","3","swig","word","92.85714285714286","92.85714285714286","694.5714285714286","694.5714285714286","black","no","legacy","legacy","legacy","0","uniform","1","undefined","undefined","undefined","1","j","0","0","0","0","13","0","0","0","13","NA","9","13","9","0","9","3","13","0","13","Fri Feb 19 11:17:29 2021","The main experiment item","yes","Lexical_Decision_Task.osexp","C:/Users/molli","no","Andale Mono","no","18","no","white","no","yes","576","legacy","9","9","3","C:/Users/molli/subject-5218517.csv","legacy","Lentiform Loewenfeld","3.3.7","yes","yes","600bd7cfb6416f0113b04181","602110864497cf011d9c0822","0","j","NA","space","j","space","NA","j","869","NA","3449","8073","7531","NA","869","2","legacy","1024","2","48000","-16","task","5218517","odd","NA","25813","31263","27814","47835","3140","18747","11215","48336","NA","47833","48336","47791","31263","49206","24072","47291","3138","42766","Lexical Decision Task","13","9724","14","yes","1024"
"3.064581521","5.51","6","cask","word","86.66666666666667","86.66666666666667","719.7333333333333","719.7333333333333","black","no","legacy","legacy","legacy","0","uniform","0","undefined","undefined","undefined","0","j","0","0","0","0","14","0","0","0","14","NA","10","14","10","0","10","3","14","0","14","Fri Feb 19 11:17:29 2021","The main experiment item","yes","Lexical_Decision_Task.osexp","C:/Users/molli","no","Andale Mono","no","18","no","white","no","yes","576","legacy","10","10","3","C:/Users/molli/subject-5218517.csv","legacy","Lentiform Loewenfeld","3.3.7","yes","yes","600bd7cfb6416f0113b04181","602110864497cf011d9c0822","0","f","NA","space","j","space","NA","f","1072","NA","3449","8073","7531","NA","1072","2","legacy","1024","2","48000","-16","task","5218517","odd","NA","25813","31263","27814","49756","3140","18747","11215","50257","NA","49754","50257","49711","31263","51329","24072","49211","3138","42766","Lexical Decision Task","13","10796","15","yes","1024"
"3.374198258","0","8","vist","non-word","81.25","81.25","708.6875","708.6875","black","no","legacy","legacy","legacy","0","uniform","0","undefined","undefined","undefined","0","f","0","0","0","0","15","0","0","0","15","NA","11","15","11","0","11","3","15","0","15","Fri Feb 19 11:17:29 2021","The main experiment item","yes","Lexical_Decision_Task.osexp","C:/Users/molli","no","Andale Mono","no","18","no","white","no","yes","576","legacy","11","11","3","C:/Users/molli/subject-5218517.csv","legacy","Lentiform Loewenfeld","3.3.7","yes","yes","600bd7cfb6416f0113b04181","602110864497cf011d9c0822","0","j","NA","space","j","space","NA","j","543","NA","3449","8073","7531","NA","543","2","legacy","1024","2","48000","-16","task","5218517","odd","NA","25813","31263","27814","52882","3140","18747","11215","53383","NA","52881","53383","52834","31263","53927","24072","49211","3138","51334","Lexical Decision Task","13","11339","16","yes","1024"
"2.69019608","9.01","2","myth","word","82.3529411764706","82.3529411764706","704.1764705882352","704.1764705882352","black","no","legacy","legacy","legacy","0","uniform","1","undefined","undefined","undefined","1","j","0","0","0","0","16","0","0","0","16","NA","12","16","12","0","12","3","16","0","16","Fri Feb 19 11:17:29 2021","The main experiment item","yes","Lexical_Decision_Task.osexp","C:/Users/molli","no","Andale Mono","no","18","no","white","no","yes","576","legacy","12","12","3","C:/Users/molli/subject-5218517.csv","legacy","Lentiform Loewenfeld","3.3.7","yes","yes","600bd7cfb6416f0113b04181","602110864497cf011d9c0822","0","j","NA","space","j","space","NA","j","632","NA","3449","8073","7531","NA","632","2","legacy","1024","2","48000","-16","task","5218517","odd","NA","25813","31263","27814","55481","3140","18747","11215","55982","NA","55480","55982","55431","31263","56615","24072","49211","3138","53931","Lexical Decision Task","14","11971","17","yes","1024"
"3.066077331","0","7","vorn","non-word","83.33333333333333","83.33333333333333","719.3888888888889","719.3888888888889","black","no","legacy","legacy","legacy","0","uniform","1","undefined","undefined","undefined","1","f","0","0","0","0","17","0","0","0","17","NA","13","17","13","0","13","3","17","0","17","Fri Feb 19 11:17:29 2021","The main experiment item","yes","Lexical_Decision_Task.osexp","C:/Users/molli","no","Andale Mono","no","18","no","white","no","yes","576","legacy","13","13","3","C:/Users/molli/subject-5218517.csv","legacy","Lentiform Loewenfeld","3.3.7","yes","yes","600bd7cfb6416f0113b04181","602110864497cf011d9c0822","0","f","NA","space","j","space","NA","f","978","NA","3449","8073","7531","NA","978","2","legacy","1024","2","48000","-16","task","5218517","odd","NA","25813","31263","27814","57164","3140","18747","11215","57665","NA","57163","57665","57119","31263","58644","24072","56619","3138","53931","Lexical Decision Task","15","12949","18","yes","1024"
"3.195807436","0","6","stup","non-word","84.21052631578948","84.21052631578948","725.7894736842105","725.7894736842105","black","no","legacy","legacy","legacy","0","uniform","1","undefined","undefined","undefined","1","f","0","0","0","0","18","0","0","0","18","NA","14","18","14","0","14","3","18","0","18","Fri Feb 19 11:17:29 2021","The main experiment item","yes","Lexical_Decision_Task.osexp","C:/Users/molli","no","Andale Mono","no","18","no","white","no","yes","576","legacy","14","14","3","C:/Users/molli/subject-5218517.csv","legacy","Lentiform Loewenfeld","3.3.7","yes","yes","600bd7cfb6416f0113b04181","602110864497cf011d9c0822","0","f","NA","space","j","space","NA","f","841","NA","3449","8073","7531","NA","841","2","legacy","1024","2","48000","-16","task","5218517","odd","NA","25813","31263","27814","59191","3140","18747","11215","59692","NA","59190","59692","59148","31263","60533","24072","58648","3138","53931","Lexical Decision Task","16","13790","19","yes","1024"
"2.920123326","7.43","4","duel","word","85","85","718.4","718.4","black","no","legacy","legacy","legacy","0","uniform","1","undefined","undefined","undefined","1","j","0","0","0","0","19","0","0","0","19","NA","15","19","15","0","15","3","19","0","19","Fri Feb 19 11:17:29 2021","The main experiment item","yes","Lexical_Decision_Task.osexp","C:/Users/molli","no","Andale Mono","no","18","no","white","no","yes","576","legacy","15","15","3","C:/Users/molli/subject-5218517.csv","legacy","Lentiform Loewenfeld","3.3.7","yes","yes","600bd7cfb6416f0113b04181","602110864497cf011d9c0822","0","j","NA","space","j","space","NA","j","578","NA","3449","8073","7531","NA","578","2","legacy","1024","2","48000","-16","task","5218517","odd","NA","25813","31263","27814","61083","3140","18747","11215","61584","NA","61081","61584","61038","31263","62163","24072","60538","3138","53931","Lexical Decision Task","17","14368","20","yes","1024"
"3.2757719","0","5","slea","non-word","85.71428571428571","85.71428571428571","721.952380952381","721.952380952381","black","no","legacy","legacy","legacy","0","uniform","1","undefined","undefined","undefined","1","f","0","0","0","0","20","0","0","0","20","NA","16","20","16","0","16","3","20","0","20","Fri Feb 19 11:17:29 2021","The main experiment item","yes","Lexical_Decision_Task.osexp","C:/Users/molli","no","Andale Mono","no","18","no","white","no","yes","576","legacy","16","16","3","C:/Users/molli/subject-5218517.csv","legacy","Lentiform Loewenfeld","3.3.7","yes","yes","600bd7cfb6416f0113b04181","602110864497cf011d9c0822","0","f","NA","space","j","space","NA","f","793","NA","3449","8073","7531","NA","793","2","legacy","1024","2","48000","-16","task","5218517","odd","NA","25813","31263","27814","62725","3140","18747","11215","63226","NA","62723","63226","62668","31263","64020","24072","62168","3138","53931","Lexical Decision Task","18","15161","21","yes","1024"
"3.460446784","0","5","dess","non-word","86.36363636363636","86.36363636363636","723.0909090909091","723.0909090909091","black","no","legacy","legacy","legacy","0","uniform","1","undefined","undefined","undefined","1","f","0","0","0","0","21","0","0","0","21","NA","17","21","17","0","17","3","21","0","21","Fri Feb 19 11:17:29 2021","The main experiment item","yes","Lexical_Decision_Task.osexp","C:/Users/molli","no","Andale Mono","no","18","no","white","no","yes","576","legacy","17","17","3","C:/Users/molli/subject-5218517.csv","legacy","Lentiform Loewenfeld","3.3.7","yes","yes","600bd7cfb6416f0113b04181","602110864497cf011d9c0822","0","f","NA","space","j","space","NA","f","747","NA","3449","8073","7531","NA","747","2","legacy","1024","2","48000","-16","task","5218517","odd","NA","25813","31263","27814","64566","3140","18747","11215","65067","NA","64565","65067","64524","31263","65814","24072","64024","3138","53931","Lexical Decision Task","19","15908","22","yes","1024"
"3.492014979","0","9","yine","non-word","86.95652173913044","86.95652173913044","721.1304347826087","721.1304347826087","black","no","legacy","legacy","legacy","0","uniform","1","undefined","undefined","undefined","1","f","0","0","0","0","22","0","0","0","22","NA","18","22","18","0","18","3","22","0","22","Fri Feb 19 11:17:29 2021","The main experiment item","yes","Lexical_Decision_Task.osexp","C:/Users/molli","no","Andale Mono","no","18","no","white","no","yes","576","legacy","18","18","3","C:/Users/molli/subject-5218517.csv","legacy","Lentiform Loewenfeld","3.3.7","yes","yes","600bd7cfb6416f0113b04181","602110864497cf011d9c0822","0","f","NA","space","j","space","NA","f","678","NA","3449","8073","7531","NA","678","2","legacy","1024","2","48000","-16","task","5218517","odd","NA","25813","31263","27814","66361","3140","18747","11215","66863","NA","66360","66863","66318","31263","67542","24072","65818","3138","53931","Lexical Decision Task","20","16586","23","yes","1024"
"3.003891166","8.05","2","frog","word","87.5","87.5","715.7916666666666","715.7916666666666","black","no","legacy","legacy","legacy","0","uniform","1","undefined","undefined","undefined","1","j","0","0","0","0","23","0","0","0","23","NA","19","23","19","0","19","3","23","0","23","Fri Feb 19 11:17:29 2021","The main experiment item","yes","Lexical_Decision_Task.osexp","C:/Users/molli","no","Andale Mono","no","18","no","white","no","yes","576","legacy","19","19","3","C:/Users/molli/subject-5218517.csv","legacy","Lentiform Loewenfeld","3.3.7","yes","yes","600bd7cfb6416f0113b04181","602110864497cf011d9c0822","0","j","NA","space","j","space","NA","j","593","NA","3449","8073","7531","NA","593","2","legacy","1024","2","48000","-16","task","5218517","odd","NA","25813","31263","27814","68091","3140","18747","11215","68592","NA","68090","68592","68046","31263","69186","24072","67546","3138","53931","Lexical Decision Task","21","17179","24","yes","1024"
"2.821076612","0","4","lult","non-word","88","88","712.32","712.32","black","no","legacy","legacy","legacy","0","uniform","1","undefined","undefined","undefined","1","f","0","0","0","0","24","0","0","0","24","NA","20","24","20","0","20","3","24","0","24","Fri Feb 19 11:17:29 2021","The main experiment item","yes","Lexical_Decision_Task.osexp","C:/Users/molli","no","Andale Mono","no","18","no","white","no","yes","576","legacy","20","20","3","C:/Users/molli/subject-5218517.csv","legacy","Lentiform Loewenfeld","3.3.7","yes","yes","600bd7cfb6416f0113b04181","602110864497cf011d9c0822","0","f","NA","space","j","space","NA","f","629","NA","3449","8073","7531","NA","629","2","legacy","1024","2","48000","-16","task","5218517","odd","NA","25813","31263","27814","69735","3140","18747","11215","70236","NA","69734","70236","69690","31263","70866","24072","69190","3138","53931","Lexical Decision Task","22","17808","25","yes","1024"
"3.282244367","0","6","fute","non-word","88.46153846153847","88.46153846153847","719.5","719.5","black","no","legacy","legacy","legacy","0","uniform","1","undefined","undefined","undefined","1","f","0","0","0","0","25","0","0","0","25","NA","21","25","21","0","21","3","25","0","25","Fri Feb 19 11:17:29 2021","The main experiment item","yes","Lexical_Decision_Task.osexp","C:/Users/molli","no","Andale Mono","no","18","no","white","no","yes","576","legacy","21","21","3","C:/Users/molli/subject-5218517.csv","legacy","Lentiform Loewenfeld","3.3.7","yes","yes","600bd7cfb6416f0113b04181","602110864497cf011d9c0822","0","f","NA","space","j","space","NA","f","899","NA","3449","8073","7531","NA","899","2","legacy","1024","2","48000","-16","task","5218517","odd","NA","25813","31263","27814","71429","3140","18747","11215","71930","NA","71428","71930","71372","31263","72829","24072","70872","3138","53931","Lexical Decision Task","23","18707","26","yes","1024"
"3.131833513","7.66","4","limb","word","88.88888888888889","88.88888888888889","717.3333333333334","717.3333333333334","black","no","legacy","legacy","legacy","0","uniform","1","undefined","undefined","undefined","1","j","0","0","0","0","26","0","0","0","26","NA","22","26","22","0","22","3","26","0","26","Fri Feb 19 11:17:29 2021","The main experiment item","yes","Lexical_Decision_Task.osexp","C:/Users/molli","no","Andale Mono","no","18","no","white","no","yes","576","legacy","22","22","3","C:/Users/molli/subject-5218517.csv","legacy","Lentiform Loewenfeld","3.3.7","yes","yes","600bd7cfb6416f0113b04181","602110864497cf011d9c0822","0","j","NA","space","j","space","NA","j","661","NA","3449","8073","7531","NA","661","2","legacy","1024","2","48000","-16","task","5218517","odd","NA","25813","31263","27814","73377","3140","18747","11215","73878","NA","73376","73878","73333","31263","74540","24072","72833","3138","53931","Lexical Decision Task","24","19368","27","yes","1024"
"2.706148589","0","4","hube","non-word","89.28571428571429","89.28571428571429","715.25","715.25","black","no","legacy","legacy","legacy","0","uniform","1","undefined","undefined","undefined","1","f","0","0","0","0","27","0","0","0","27","NA","23","27","23","0","23","3","27","0","27","Fri Feb 19 11:17:29 2021","The main experiment item","yes","Lexical_Decision_Task.osexp","C:/Users/molli","no","Andale Mono","no","18","no","white","no","yes","576","legacy","23","23","3","C:/Users/molli/subject-5218517.csv","legacy","Lentiform Loewenfeld","3.3.7","yes","yes","600bd7cfb6416f0113b04181","602110864497cf011d9c0822","0","f","NA","space","j","space","NA","f","659","NA","3449","8073","7531","NA","659","2","legacy","1024","2","48000","-16","task","5218517","odd","NA","25813","31263","27814","75090","3140","18747","11215","75591","NA","75089","75591","75044","31263","76250","24072","74544","3138","53931","Lexical Decision Task","25","20027","28","yes","1024"
"3.481012421","8.34","5","teen","word","89.65517241379311","89.65517241379311","714.0344827586207","714.0344827586207","black","no","legacy","legacy","legacy","0","uniform","1","undefined","undefined","undefined","1","j","0","0","0","0","28","0","0","0","28","NA","24","28","24","0","24","3","28","0","28","Fri Feb 19 11:17:29 2021","The main experiment item","yes","Lexical_Decision_Task.osexp","C:/Users/molli","no","Andale Mono","no","18","no","white","no","yes","576","legacy","24","24","3","C:/Users/molli/subject-5218517.csv","legacy","Lentiform Loewenfeld","3.3.7","yes","yes","600bd7cfb6416f0113b04181","602110864497cf011d9c0822","0","j","NA","space","j","space","NA","j","680","NA","3449","8073","7531","NA","680","2","legacy","1024","2","48000","-16","task","5218517","odd","NA","25813","31263","27814","76799","3140","18747","11215","77300","NA","76798","77300","76755","31263","77981","24072","76255","3138","53931","Lexical Decision Task","26","20707","29","yes","1024"
"2.68604012","0","3","mulb","non-word","90","90","716.0666666666667","716.0666666666667","black","no","legacy","legacy","legacy","0","uniform","1","undefined","undefined","undefined","1","f","0","0","0","0","29","0","0","0","29","NA","25","29","25","0","25","3","29","0","29","Fri Feb 19 11:17:29 2021","The main experiment item","yes","Lexical_Decision_Task.osexp","C:/Users/molli","no","Andale Mono","no","18","no","white","no","yes","576","legacy","25","25","3","C:/Users/molli/subject-5218517.csv","legacy","Lentiform Loewenfeld","3.3.7","yes","yes","600bd7cfb6416f0113b04181","602110864497cf011d9c0822","0","f","NA","space","j","space","NA","f","775","NA","3449","8073","7531","NA","775","2","legacy","1024","2","48000","-16","task","5218517","odd","NA","25813","31263","27814","78528","3140","18747","11215","79029","NA","78527","79029","78484","31263","79805","24072","77984","3138","53931","Lexical Decision Task","27","21482","30","yes","1024"
"2.953276337","6.32","4","thaw","word","90.3225806451613","90.3225806451613","712.6451612903226","712.6451612903226","black","no","legacy","legacy","legacy","0","uniform","1","undefined","undefined","undefined","1","j","0","0","0","0","30","0","0","0","30","NA","26","30","26","0","26","3","30","0","30","Fri Feb 19 11:17:29 2021","The main experiment item","yes","Lexical_Decision_Task.osexp","C:/Users/molli","no","Andale Mono","no","18","no","white","no","yes","576","legacy","26","26","3","C:/Users/molli/subject-5218517.csv","legacy","Lentiform Loewenfeld","3.3.7","yes","yes","600bd7cfb6416f0113b04181","602110864497cf011d9c0822","0","j","NA","space","j","space","NA","j","610","NA","3449","8073","7531","NA","610","2","legacy","1024","2","48000","-16","task","5218517","odd","NA","25813","31263","27814","80355","3140","18747","11215","80858","NA","80353","80858","80309","31263","81469","24072","79809","3138","53931","Lexical Decision Task","28","22092","31","yes","1024"
"3.043885998","0","9","gome","non-word","90.625","90.625","713.125","713.125","black","no","legacy","legacy","legacy","0","uniform","1","undefined","undefined","undefined","1","f","0","0","0","0","31","0","0","0","31","NA","27","31","27","0","27","3","31","0","31","Fri Feb 19 11:17:29 2021","The main experiment item","yes","Lexical_Decision_Task.osexp","C:/Users/molli","no","Andale Mono","no","18","no","white","no","yes","576","legacy","27","27","3","C:/Users/molli/subject-5218517.csv","legacy","Lentiform Loewenfeld","3.3.7","yes","yes","600bd7cfb6416f0113b04181","602110864497cf011d9c0822","0","f","NA","space","j","space","NA","f","728","NA","3449","8073","7531","NA","728","2","legacy","1024","2","48000","-16","task","5218517","odd","NA","25813","31263","27814","82019","3140","18747","11215","82520","NA","82018","82520","81973","31263","83248","24072","81473","3138","53931","Lexical Decision Task","29","22820","32","yes","1024"
"3.252447662","9.67","9","boat","word","90.9090909090909","90.9090909090909","706.8787878787879","706.8787878787879","black","no","legacy","legacy","legacy","0","uniform","1","undefined","undefined","undefined","1","j","0","0","0","0","32","0","0","0","32","NA","28","32","28","0","28","3","32","0","32","Fri Feb 19 11:17:29 2021","The main experiment item","yes","Lexical_Decision_Task.osexp","C:/Users/molli","no","Andale Mono","no","18","no","white","no","yes","576","legacy","28","28","3","C:/Users/molli/subject-5218517.csv","legacy","Lentiform Loewenfeld","3.3.7","yes","yes","600bd7cfb6416f0113b04181","602110864497cf011d9c0822","0","j","NA","space","j","space","NA","j","507","NA","3449","8073","7531","NA","507","2","legacy","1024","2","48000","-16","task","5218517","odd","NA","25813","31263","27814","83797","3140","18747","11215","84298","NA","83795","84298","83753","31263","84805","24072","83253","3138","53931","Lexical Decision Task","30","23327","33","yes","1024"
"3.488597715","0","9","nain","non-word","91.17647058823529","91.17647058823529","705.5882352941177","705.5882352941177","black","no","legacy","legacy","legacy","0","uniform","1","undefined","undefined","undefined","1","f","0","0","0","0","33","0","0","0","33","NA","29","33","29","0","29","3","33","0","33","Fri Feb 19 11:17:29 2021","The main experiment item","yes","Lexical_Decision_Task.osexp","C:/Users/molli","no","Andale Mono","no","18","no","white","no","yes","576","legacy","29","29","3","C:/Users/molli/subject-5218517.csv","legacy","Lentiform Loewenfeld","3.3.7","yes","yes","600bd7cfb6416f0113b04181","602110864497cf011d9c0822","0","f","NA","space","j","space","NA","f","663","NA","3449","8073","7531","NA","663","2","legacy","1024","2","48000","-16","task","5218517","odd","NA","25813","31263","27814","85355","3140","18747","11215","85855","NA","85353","85856","85310","31263","86519","24072","84810","3138","53931","Lexical Decision Task","31","23990","34","yes","1024"
"3.120135028","0","3","vals","non-word","91.42857142857143","91.42857142857143","703.3142857142857","703.3142857142857","black","no","legacy","legacy","legacy","0","uniform","1","undefined","undefined","undefined","1","f","0","0","0","0","34","0","0","0","34","NA","30","34","30","0","30","3","34","0","34","Fri Feb 19 11:17:29 2021","The main experiment item","yes","Lexical_Decision_Task.osexp","C:/Users/molli","no","Andale Mono","no","18","no","white","no","yes","576","legacy","30","30","3","C:/Users/molli/subject-5218517.csv","legacy","Lentiform Loewenfeld","3.3.7","yes","yes","600bd7cfb6416f0113b04181","602110864497cf011d9c0822","0","f","NA","space","j","space","NA","f","626","NA","3449","8073","7531","NA","626","2","legacy","1024","2","48000","-16","task","5218517","odd","NA","25813","31263","27814","87079","3140","18747","11215","87580","NA","87078","87580","87024","31263","88206","24072","86524","3138","53931","Lexical Decision Task","32","24616","35","yes","1024"
"3.145920145","8.51","8","flew","word","91.66666666666667","91.66666666666667","699.2222222222222","699.2222222222222","black","no","legacy","legacy","legacy","0","uniform","1","undefined","undefined","undefined","1","j","0","0","0","0","35","0","0","0","35","NA","31","35","31","0","31","3","35","0","35","Fri Feb 19 11:17:29 2021","The main experiment item","yes","Lexical_Decision_Task.osexp","C:/Users/molli","no","Andale Mono","no","18","no","white","no","yes","576","legacy","31","31","3","C:/Users/molli/subject-5218517.csv","legacy","Lentiform Loewenfeld","3.3.7","yes","yes","600bd7cfb6416f0113b04181","602110864497cf011d9c0822","0","j","NA","space","j","space","NA","j","556","NA","3449","8073","7531","NA","556","2","legacy","1024","2","48000","-16","task","5218517","odd","NA","25813","31263","27814","88757","3140","18747","11215","89258","NA","88755","89258","88712","31263","89815","24072","88212","3138","53931","Lexical Decision Task","33","25172","36","yes","1024"
"3.299579929","0","2","flis","non-word","91.89189189189189","91.89189189189189","695.3783783783783","695.3783783783783","black","no","legacy","legacy","legacy","0","uniform","1","undefined","undefined","undefined","1","f","0","0","0","0","36","0","0","0","36","NA","32","36","32","0","32","3","36","0","36","Fri Feb 19 11:17:29 2021","The main experiment item","yes","Lexical_Decision_Task.osexp","C:/Users/molli","no","Andale Mono","no","18","no","white","no","yes","576","legacy","32","32","3","C:/Users/molli/subject-5218517.csv","legacy","Lentiform Loewenfeld","3.3.7","yes","yes","600bd7cfb6416f0113b04181","602110864497cf011d9c0822","0","f","NA","space","j","space","NA","f","557","NA","3449","8073","7531","NA","557","2","legacy","1024","2","48000","-16","task","5218517","odd","NA","25813","31263","27814","90364","3140","18747","11215","90865","NA","90363","90865","90320","31263","91422","24072","89820","3138","53931","Lexical Decision Task","34","25729","37","yes","1024"
"3.153104174","10.89","6","door","word","92.10526315789474","92.10526315789474","688.9473684210526","688.9473684210526","black","no","legacy","legacy","legacy","0","uniform","1","undefined","undefined","undefined","1","j","0","0","0","0","37","0","0","0","37","NA","33","37","33","0","33","3","37","0","37","Fri Feb 19 11:17:29 2021","The main experiment item","yes","Lexical_Decision_Task.osexp","C:/Users/molli","no","Andale Mono","no","18","no","white","no","yes","576","legacy","33","33","3","C:/Users/molli/subject-5218517.csv","legacy","Lentiform Loewenfeld","3.3.7","yes","yes","600bd7cfb6416f0113b04181","602110864497cf011d9c0822","0","j","NA","space","j","space","NA","j","451","NA","3449","8073","7531","NA","451","2","legacy","1024","2","48000","-16","task","5218517","odd","NA","25813","31263","27814","91973","3140","18747","11215","92474","NA","91972","92474","91929","31263","92926","24072","91429","3138","53931","Lexical Decision Task","35","26180","38","yes","1024"
"3.156347201","0","8","lasp","non-word","92.3076923076923","92.3076923076923","685.4615384615385","685.4615384615385","black","no","legacy","legacy","legacy","0","uniform","1","undefined","undefined","undefined","1","f","0","0","0","0","38","0","0","0","38","NA","34","38","34","0","34","3","38","0","38","Fri Feb 19 11:17:29 2021","The main experiment item","yes","Lexical_Decision_Task.osexp","C:/Users/molli","no","Andale Mono","no","18","no","white","no","yes","576","legacy","34","34","3","C:/Users/molli/subject-5218517.csv","legacy","Lentiform Loewenfeld","3.3.7","yes","yes","600bd7cfb6416f0113b04181","602110864497cf011d9c0822","0","f","NA","space","j","space","NA","f","553","NA","3449","8073","7531","NA","553","2","legacy","1024","2","48000","-16","task","5218517","odd","NA","25813","31263","27814","93474","3140","18747","11215","93977","NA","93473","93977","93430","31263","94530","24072","92930","3138","53931","Lexical Decision Task","36","26733","39","yes","1024"
"3.031812271","6.52","3","gulp","word","92.5","92.5","681.275","681.275","black","no","legacy","legacy","legacy","0","uniform","1","undefined","undefined","undefined","1","j","0","0","0","0","39","0","0","0","39","NA","35","39","35","0","35","3","39","0","39","Fri Feb 19 11:17:29 2021","The main experiment item","yes","Lexical_Decision_Task.osexp","C:/Users/molli","no","Andale Mono","no","18","no","white","no","yes","576","legacy","35","35","3","C:/Users/molli/subject-5218517.csv","legacy","Lentiform Loewenfeld","3.3.7","yes","yes","600bd7cfb6416f0113b04181","602110864497cf011d9c0822","0","j","NA","space","j","space","NA","j","518","NA","3449","8073","7531","NA","518","2","legacy","1024","2","48000","-16","task","5218517","odd","NA","25813","31263","27814","95079","3140","18747","11215","95580","NA","95078","95580","95035","31263","96099","24072","94535","3138","53931","Lexical Decision Task","37","27251","40","yes","1024"
"2.868644438","10.52","4","town","word","92.6829268292683","92.6829268292683","678.0487804878048","678.0487804878048","black","no","legacy","legacy","legacy","0","uniform","1","undefined","undefined","undefined","1","j","0","0","0","0","40","0","0","0","40","NA","36","40","36","0","36","3","40","0","40","Fri Feb 19 11:17:29 2021","The main experiment item","yes","Lexical_Decision_Task.osexp","C:/Users/molli","no","Andale Mono","no","18","no","white","no","yes","576","legacy","36","36","3","C:/Users/molli/subject-5218517.csv","legacy","Lentiform Loewenfeld","3.3.7","yes","yes","600bd7cfb6416f0113b04181","602110864497cf011d9c0822","0","j","NA","space","j","space","NA","j","549","NA","3449","8073","7531","NA","549","2","legacy","1024","2","48000","-16","task","5218517","odd","NA","25813","31263","27814","96644","3140","18747","11215","97145","NA","96643","97145","96602","31263","97694","24072","96102","3138","53931","Lexical Decision Task","38","27800","41","yes","1024"
"2.664328519","0","4","plux","non-word","92.85714285714286","92.85714285714286","680.3809523809524","680.3809523809524","black","no","legacy","legacy","legacy","0","uniform","1","undefined","undefined","undefined","1","f","0","0","0","0","41","0","0","0","41","NA","37","41","37","0","37","3","41","0","41","Fri Feb 19 11:17:29 2021","The main experiment item","yes","Lexical_Decision_Task.osexp","C:/Users/molli","no","Andale Mono","no","18","no","white","no","yes","576","legacy","37","37","3","C:/Users/molli/subject-5218517.csv","legacy","Lentiform Loewenfeld","3.3.7","yes","yes","600bd7cfb6416f0113b04181","602110864497cf011d9c0822","0","f","NA","space","j","space","NA","f","776","NA","3449","8073","7531","NA","776","2","legacy","1024","2","48000","-16","task","5218517","odd","NA","25813","31263","27814","98244","3140","18747","11215","98747","NA","98243","98747","98199","31263","99524","24072","97698","3138","53931","Lexical Decision Task","39","28576","42","yes","1024"
"3.443783828","7.65","3","verb","word","93.02325581395348","93.02325581395348","678.6744186046511","678.6744186046511","black","no","legacy","legacy","legacy","0","uniform","1","undefined","undefined","undefined","1","j","0","0","0","0","42","0","0","0","42","NA","38","42","38","0","38","3","42","0","42","Fri Feb 19 11:17:29 2021","The main experiment item","yes","Lexical_Decision_Task.osexp","C:/Users/molli","no","Andale Mono","no","18","no","white","no","yes","576","legacy","38","38","3","C:/Users/molli/subject-5218517.csv","legacy","Lentiform Loewenfeld","3.3.7","yes","yes","600bd7cfb6416f0113b04181","602110864497cf011d9c0822","0","j","NA","space","j","space","NA","j","607","NA","3449","8073","7531","NA","607","2","legacy","1024","2","48000","-16","task","5218517","odd","NA","25813","31263","27814","100073","3140","18747","11215","100574","NA","100072","100574","100028","31263","101182","24072","99528","3138","53931","Lexical Decision Task","40","29183","43","yes","1024"
"3.218535505","7.85","7","goat","word","90.9090909090909","90.9090909090909","674.8181818181819","674.8181818181819","black","no","legacy","legacy","legacy","0","uniform","0","undefined","undefined","undefined","0","j","0","0","0","0","43","0","0","0","43","NA","39","43","39","0","39","3","43","0","43","Fri Feb 19 11:17:29 2021","The main experiment item","yes","Lexical_Decision_Task.osexp","C:/Users/molli","no","Andale Mono","no","18","no","white","no","yes","576","legacy","39","39","3","C:/Users/molli/subject-5218517.csv","legacy","Lentiform Loewenfeld","3.3.7","yes","yes","600bd7cfb6416f0113b04181","602110864497cf011d9c0822","0","f","NA","space","j","space","NA","f","509","NA","3449","8073","7531","NA","509","2","legacy","1024","2","48000","-16","task","5218517","odd","NA","25813","31263","27814","101731","3140","18747","11215","102232","NA","101730","102232","101688","31263","102741","24072","101188","3138","53931","Lexical Decision Task","40","29692","44","yes","1024"
"2.95456409","0","4","taud","non-word","91.11111111111111","91.11111111111111","676.1555555555556","676.1555555555556","black","no","legacy","legacy","legacy","0","uniform","1","undefined","undefined","undefined","1","f","0","0","0","0","44","0","0","0","44","NA","40","44","40","0","40","3","44","0","44","Fri Feb 19 11:17:29 2021","The main experiment item","yes","Lexical_Decision_Task.osexp","C:/Users/molli","no","Andale Mono","no","18","no","white","no","yes","576","legacy","40","40","3","C:/Users/molli/subject-5218517.csv","legacy","Lentiform Loewenfeld","3.3.7","yes","yes","600bd7cfb6416f0113b04181","602110864497cf011d9c0822","0","f","NA","space","j","space","NA","f","735","NA","3449","8073","7531","NA","735","2","legacy","1024","2","48000","-16","task","5218517","odd","NA","25813","31263","27814","104293","3140","18747","11215","104793","NA","104292","104794","104245","31263","105530","24072","101188","3138","102745","Lexical Decision Task","41","30427","45","yes","1024"
"2.755364069","7.72","2","hoax","word","91.30434782608695","91.30434782608695","676.4347826086956","676.4347826086956","black","no","legacy","legacy","legacy","0","uniform","1","undefined","undefined","undefined","1","j","0","0","0","0","45","0","0","0","45","NA","41","45","41","0","41","3","45","0","45","Fri Feb 19 11:17:29 2021","The main experiment item","yes","Lexical_Decision_Task.osexp","C:/Users/molli","no","Andale Mono","no","18","no","white","no","yes","576","legacy","41","41","3","C:/Users/molli/subject-5218517.csv","legacy","Lentiform Loewenfeld","3.3.7","yes","yes","600bd7cfb6416f0113b04181","602110864497cf011d9c0822","0","j","NA","space","j","space","NA","j","689","NA","3449","8073","7531","NA","689","2","legacy","1024","2","48000","-16","task","5218517","odd","NA","25813","31263","27814","106078","3140","18747","11215","106579","NA","106077","106579","106034","31263","107268","24072","105534","3138","102745","Lexical Decision Task","42","31116","46","yes","1024"
"3.068433376","8.09","2","bulb","word","89.36170212765957","89.36170212765957","674.7872340425532","674.7872340425532","black","no","legacy","legacy","legacy","0","uniform","0","undefined","undefined","undefined","0","j","0","0","0","0","46","0","0","0","46","NA","42","46","42","0","42","3","46","0","46","Fri Feb 19 11:17:29 2021","The main experiment item","yes","Lexical_Decision_Task.osexp","C:/Users/molli","no","Andale Mono","no","18","no","white","no","yes","576","legacy","42","42","3","C:/Users/molli/subject-5218517.csv","legacy","Lentiform Loewenfeld","3.3.7","yes","yes","600bd7cfb6416f0113b04181","602110864497cf011d9c0822","0","f","NA","space","j","space","NA","f","599","NA","3449","8073","7531","NA","599","2","legacy","1024","2","48000","-16","task","5218517","odd","NA","25813","31263","27814","107815","3140","18747","11215","108316","NA","107814","108316","107772","31263","108915","24072","107272","3138","102745","Lexical Decision Task","42","31715","47","yes","1024"
"3.274157849","0","8","leet","non-word","89.58333333333333","89.58333333333333","685.375","685.375","black","no","legacy","legacy","legacy","0","uniform","1","undefined","undefined","undefined","1","f","0","0","0","0","47","0","0","0","47","NA","43","47","43","0","43","3","47","0","47","Fri Feb 19 11:17:29 2021","The main experiment item","yes","Lexical_Decision_Task.osexp","C:/Users/molli","no","Andale Mono","no","18","no","white","no","yes","576","legacy","43","43","3","C:/Users/molli/subject-5218517.csv","legacy","Lentiform Loewenfeld","3.3.7","yes","yes","600bd7cfb6416f0113b04181","602110864497cf011d9c0822","0","f","NA","space","j","space","NA","f","1183","NA","3449","8073","7531","NA","1183","2","legacy","1024","2","48000","-16","task","5218517","odd","NA","25813","31263","27814","110470","3140","18747","11215","110971","NA","110469","110971","110420","31263","112155","24072","107272","3138","108920","Lexical Decision Task","43","32898","48","yes","1024"
"2.980911938","7.15","7","hoop","word","89.79591836734694","89.79591836734694","684.1632653061224","684.1632653061224","black","no","legacy","legacy","legacy","0","uniform","1","undefined","undefined","undefined","1","j","0","0","0","0","48","0","0","0","48","NA","44","48","44","0","44","3","48","0","48","Fri Feb 19 11:17:29 2021","The main experiment item","yes","Lexical_Decision_Task.osexp","C:/Users/molli","no","Andale Mono","no","18","no","white","no","yes","576","legacy","44","44","3","C:/Users/molli/subject-5218517.csv","legacy","Lentiform Loewenfeld","3.3.7","yes","yes","600bd7cfb6416f0113b04181","602110864497cf011d9c0822","0","j","NA","space","j","space","NA","j","626","NA","3449","8073","7531","NA","626","2","legacy","1024","2","48000","-16","task","5218517","odd","NA","25813","31263","27814","112702","3140","18747","11215","113203","NA","112701","113203","112658","31263","113830","24072","112158","3138","108920","Lexical Decision Task","44","33524","49","yes","1024"
"2.616654026","9.37","5","gift","word","90","90","680.96","680.96","black","no","legacy","legacy","legacy","0","uniform","1","undefined","undefined","undefined","1","j","0","0","0","0","49","0","0","0","49","NA","45","49","45","0","45","3","49","0","49","Fri Feb 19 11:17:29 2021","The main experiment item","yes","Lexical_Decision_Task.osexp","C:/Users/molli","no","Andale Mono","no","18","no","white","no","yes","576","legacy","45","45","3","C:/Users/molli/subject-5218517.csv","legacy","Lentiform Loewenfeld","3.3.7","yes","yes","600bd7cfb6416f0113b04181","602110864497cf011d9c0822","0","j","NA","space","j","space","NA","j","524","NA","3449","8073","7531","NA","524","2","legacy","1024","2","48000","-16","task","5218517","odd","NA","25813","31263","27814","114379","3140","18747","11215","114880","NA","114378","114880","114335","31263","115404","24072","113835","3138","108920","Lexical Decision Task","45","34048","50","yes","1024"
"3.039414119","0","9","meep","non-word","90.19607843137256","90.19607843137256","681.4117647058823","681.4117647058823","black","no","legacy","legacy","legacy","0","uniform","1","undefined","undefined","undefined","1","f","0","0","0","0","50","0","0","0","50","NA","46","50","46","0","46","3","50","0","50","Fri Feb 19 11:17:29 2021","The main experiment item","yes","Lexical_Decision_Task.osexp","C:/Users/molli","no","Andale Mono","no","18","no","white","no","yes","576","legacy","46","46","3","C:/Users/molli/subject-5218517.csv","legacy","Lentiform Loewenfeld","3.3.7","yes","yes","600bd7cfb6416f0113b04181","602110864497cf011d9c0822","0","f","NA","space","j","space","NA","f","704","NA","3449","8073","7531","NA","704","2","legacy","1024","2","48000","-16","task","5218517","odd","NA","25813","31263","27814","115952","3140","18747","11215","116453","NA","115951","116453","115908","31263","117158","24072","115408","3138","108920","Lexical Decision Task","46","34752","51","yes","1024"
"2.767650507","0","6","yolt","non-word","90.38461538461539","90.38461538461539","685.9615384615385","685.9615384615385","black","no","legacy","legacy","legacy","0","uniform","1","undefined","undefined","undefined","1","f","0","0","0","0","51","0","0","0","51","NA","47","51","47","0","47","3","51","0","51","Fri Feb 19 11:17:29 2021","The main experiment item","yes","Lexical_Decision_Task.osexp","C:/Users/molli","no","Andale Mono","no","18","no","white","no","yes","576","legacy","47","47","3","C:/Users/molli/subject-5218517.csv","legacy","Lentiform Loewenfeld","3.3.7","yes","yes","600bd7cfb6416f0113b04181","602110864497cf011d9c0822","0","f","NA","space","j","space","NA","f","918","NA","3449","8073","7531","NA","918","2","legacy","1024","2","48000","-16","task","5218517","odd","NA","25813","31263","27814","117706","3140","18747","11215","118207","NA","117705","118207","117662","31263","119125","24072","117162","3138","108920","Lexical Decision Task","47","35670","52","yes","1024"
"3.16326079","0","5","parg","non-word","90.56603773584905","90.56603773584905","684.8490566037735","684.8490566037735","black","no","legacy","legacy","legacy","0","uniform","1","undefined","undefined","undefined","1","f","0","0","0","0","52","0","0","0","52","NA","48","52","48","0","48","3","52","0","52","Fri Feb 19 11:17:29 2021","The main experiment item","yes","Lexical_Decision_Task.osexp","C:/Users/molli","no","Andale Mono","no","18","no","white","no","yes","576","legacy","48","48","3","C:/Users/molli/subject-5218517.csv","legacy","Lentiform Loewenfeld","3.3.7","yes","yes","600bd7cfb6416f0113b04181","602110864497cf011d9c0822","0","f","NA","space","j","space","NA","f","627","NA","3449","8073","7531","NA","627","2","legacy","1024","2","48000","-16","task","5218517","odd","NA","25813","31263","27814","119674","3140","18747","11215","120177","NA","119673","120177","119630","31263","120805","24072","119130","3138","108920","Lexical Decision Task","48","36297","53","yes","1024"
"3.705778213","0","6","stin","non-word","90.74074074074075","90.74074074074075","683.8888888888889","683.8888888888889","black","no","legacy","legacy","legacy","0","uniform","1","undefined","undefined","undefined","1","f","0","0","0","0","53","0","0","0","53","NA","49","53","49","0","49","3","53","0","53","Fri Feb 19 11:17:29 2021","The main experiment item","yes","Lexical_Decision_Task.osexp","C:/Users/molli","no","Andale Mono","no","18","no","white","no","yes","576","legacy","49","49","3","C:/Users/molli/subject-5218517.csv","legacy","Lentiform Loewenfeld","3.3.7","yes","yes","600bd7cfb6416f0113b04181","602110864497cf011d9c0822","0","f","NA","space","j","space","NA","f","633","NA","3449","8073","7531","NA","633","2","legacy","1024","2","48000","-16","task","5218517","odd","NA","25813","31263","27814","121353","3140","18747","11215","121854","NA","121352","121854","121309","31263","122488","24072","120809","3138","108920","Lexical Decision Task","49","36930","54","yes","1024"
"3.29439347","8.6","9","wand","word","90.9090909090909","90.9090909090909","682.3636363636364","682.3636363636364","black","no","legacy","legacy","legacy","0","uniform","1","undefined","undefined","undefined","1","j","0","0","0","0","54","0","0","0","54","0","50","54","50","0","50","3","54","0","54","Fri Feb 19 11:17:29 2021","The main experiment item","yes","Lexical_Decision_Task.osexp","C:/Users/molli","no","Andale Mono","no","18","no","white","no","yes","576","legacy","50","50","3","C:/Users/molli/subject-5218517.csv","legacy","Lentiform Loewenfeld","3.3.7","yes","yes","600bd7cfb6416f0113b04181","602110864497cf011d9c0822","0","j","NA","space","j","space","space","j","600","NA","3449","8073","7531","19795","600","2","legacy","1024","2","48000","-16","task","5218517","odd","NA","25813","31263","27814","142860","3140","18747","11215","143361","123018","142859","143361","122992","31263","143962","24072","122492","3138","108920","Lexical Decision Task","50","37530","55","yes","1024"
"3.208172527","10.27","7","deck","word","91.07142857142857","91.07142857142857","679.8571428571429","679.8571428571429","black","no","legacy","legacy","legacy","0","uniform","1","undefined","undefined","undefined","1","j","0","0","0","0","55","0","0","0","55","0","51","55","51","0","51","3","55","0","55","Fri Feb 19 11:17:29 2021","The main experiment item","yes","Lexical_Decision_Task.osexp","C:/Users/molli","no","Andale Mono","no","18","no","white","no","yes","576","legacy","51","51","3","C:/Users/molli/subject-5218517.csv","legacy","Lentiform Loewenfeld","3.3.7","yes","yes","600bd7cfb6416f0113b04181","602110864497cf011d9c0822","0","j","NA","space","j","space","space","j","542","NA","3449","8073","7531","19795","542","2","legacy","1024","2","48000","-16","task","5218517","odd","NA","25813","31263","27814","144514","3140","18747","11215","145015","123018","144513","145015","144467","31263","145558","24072","143967","3138","108920","Lexical Decision Task","51","38072","56","yes","1024"
"3.15462682","0","6","noal","non-word","91.2280701754386","91.2280701754386","677.9649122807018","677.9649122807018","black","no","legacy","legacy","legacy","0","uniform","1","undefined","undefined","undefined","1","f","0","0","0","0","56","0","0","0","56","0","52","56","52","0","52","3","56","0","56","Fri Feb 19 11:17:29 2021","The main experiment item","yes","Lexical_Decision_Task.osexp","C:/Users/molli","no","Andale Mono","no","18","no","white","no","yes","576","legacy","52","52","3","C:/Users/molli/subject-5218517.csv","legacy","Lentiform Loewenfeld","3.3.7","yes","yes","600bd7cfb6416f0113b04181","602110864497cf011d9c0822","0","f","NA","space","j","space","space","f","572","NA","3449","8073","7531","19795","572","2","legacy","1024","2","48000","-16","task","5218517","odd","NA","25813","31263","27814","146119","3140","18747","11215","146621","123018","146118","146621","146062","31263","147193","24072","145562","3138","108920","Lexical Decision Task","52","38644","57","yes","1024"
"2.696644658","5.78","2","yolk","word","91.37931034482759","91.37931034482759","676.2241379310345","676.2241379310345","black","no","legacy","legacy","legacy","0","uniform","1","undefined","undefined","undefined","1","j","0","0","0","0","57","0","0","0","57","0","53","57","53","0","53","3","57","0","57","Fri Feb 19 11:17:29 2021","The main experiment item","yes","Lexical_Decision_Task.osexp","C:/Users/molli","no","Andale Mono","no","18","no","white","no","yes","576","legacy","53","53","3","C:/Users/molli/subject-5218517.csv","legacy","Lentiform Loewenfeld","3.3.7","yes","yes","600bd7cfb6416f0113b04181","602110864497cf011d9c0822","0","j","NA","space","j","space","space","j","577","NA","3449","8073","7531","19795","577","2","legacy","1024","2","48000","-16","task","5218517","odd","NA","25813","31263","27814","147744","3140","18747","11215","148245","123018","147743","148245","147699","31263","148823","24072","147199","3138","108920","Lexical Decision Task","53","39221","58","yes","1024"
"2.843025032","0","9","pusk","non-word","91.52542372881356","91.52542372881356","675.3898305084746","675.3898305084746","black","no","legacy","legacy","legacy","0","uniform","1","undefined","undefined","undefined","1","f","0","0","0","0","58","0","0","0","58","0","54","58","54","0","54","3","58","0","58","Fri Feb 19 11:17:29 2021","The main experiment item","yes","Lexical_Decision_Task.osexp","C:/Users/molli","no","Andale Mono","no","18","no","white","no","yes","576","legacy","54","54","3","C:/Users/molli/subject-5218517.csv","legacy","Lentiform Loewenfeld","3.3.7","yes","yes","600bd7cfb6416f0113b04181","602110864497cf011d9c0822","0","f","NA","space","j","space","space","f","627","NA","3449","8073","7531","19795","627","2","legacy","1024","2","48000","-16","task","5218517","odd","NA","25813","31263","27814","149374","3140","18747","11215","149875","123018","149373","149875","149327","31263","150503","24072","148827","3138","108920","Lexical Decision Task","54","39848","59","yes","1024"
"3.028977705","0","7","frow","non-word","90","90","674.9","674.9","black","no","legacy","legacy","legacy","0","uniform","0","undefined","undefined","undefined","0","f","0","0","0","0","59","0","0","0","59","0","55","59","55","0","55","3","59","0","59","Fri Feb 19 11:17:29 2021","The main experiment item","yes","Lexical_Decision_Task.osexp","C:/Users/molli","no","Andale Mono","no","18","no","white","no","yes","576","legacy","55","55","3","C:/Users/molli/subject-5218517.csv","legacy","Lentiform Loewenfeld","3.3.7","yes","yes","600bd7cfb6416f0113b04181","602110864497cf011d9c0822","0","j","NA","space","j","space","space","j","646","NA","3449","8073","7531","19795","646","2","legacy","1024","2","48000","-16","task","5218517","odd","NA","25813","31263","27814","151053","3140","18747","11215","151555","123018","151052","151555","151009","31263","152202","24072","150509","3138","108920","Lexical Decision Task","54","40494","60","yes","1024"
"3.133964479","0","8","graw","non-word","90.1639344262295","90.1639344262295","680.2459016393443","680.2459016393443","black","no","legacy","legacy","legacy","0","uniform","1","undefined","undefined","undefined","1","f","0","0","0","0","60","0","0","0","60","0","56","60","56","0","56","3","60","0","60","Fri Feb 19 11:17:29 2021","The main experiment item","yes","Lexical_Decision_Task.osexp","C:/Users/molli","no","Andale Mono","no","18","no","white","no","yes","576","legacy","56","56","3","C:/Users/molli/subject-5218517.csv","legacy","Lentiform Loewenfeld","3.3.7","yes","yes","600bd7cfb6416f0113b04181","602110864497cf011d9c0822","0","f","NA","space","j","space","space","f","1001","NA","3449","8073","7531","19795","1001","2","legacy","1024","2","48000","-16","task","5218517","odd","NA","25813","31263","27814","153757","3140","18747","11215","154258","123018","153756","154258","153706","31263","155260","24072","150509","3138","152206","Lexical Decision Task","55","41495","61","yes","1024"
"3.121778632","0","9","sark","non-word","90.3225806451613","90.3225806451613","681.3548387096774","681.3548387096774","black","no","legacy","legacy","legacy","0","uniform","1","undefined","undefined","undefined","1","f","0","0","0","0","61","0","0","0","61","0","57","61","57","0","57","3","61","0","61","Fri Feb 19 11:17:29 2021","The main experiment item","yes","Lexical_Decision_Task.osexp","C:/Users/molli","no","Andale Mono","no","18","no","white","no","yes","576","legacy","57","57","3","C:/Users/molli/subject-5218517.csv","legacy","Lentiform Loewenfeld","3.3.7","yes","yes","600bd7cfb6416f0113b04181","602110864497cf011d9c0822","0","f","NA","space","j","space","space","f","749","NA","3449","8073","7531","19795","749","2","legacy","1024","2","48000","-16","task","5218517","odd","NA","25813","31263","27814","155808","3140","18747","11215","156309","123018","155806","156309","155764","31263","157058","24072","155264","3138","152206","Lexical Decision Task","56","42244","62","yes","1024"
"2.899638141","0","3","hapt","non-word","90.47619047619048","90.47619047619048","679.5714285714286","679.5714285714286","black","no","legacy","legacy","legacy","0","uniform","1","undefined","undefined","undefined","1","f","0","0","0","0","62","0","0","0","62","0","58","62","58","0","58","3","62","0","62","Fri Feb 19 11:17:29 2021","The main experiment item","yes","Lexical_Decision_Task.osexp","C:/Users/molli","no","Andale Mono","no","18","no","white","no","yes","576","legacy","58","58","3","C:/Users/molli/subject-5218517.csv","legacy","Lentiform Loewenfeld","3.3.7","yes","yes","600bd7cfb6416f0113b04181","602110864497cf011d9c0822","0","f","NA","space","j","space","space","f","569","NA","3449","8073","7531","19795","569","2","legacy","1024","2","48000","-16","task","5218517","odd","NA","25813","31263","27814","157606","3140","18747","11215","158109","123018","157605","158109","157562","31263","158679","24072","157062","3138","152206","Lexical Decision Task","57","42813","63","yes","1024"
"3.230789326","5.38","5","prim","word","89.0625","89.0625","679.859375","679.859375","black","no","legacy","legacy","legacy","0","uniform","0","undefined","undefined","undefined","0","j","0","0","0","0","63","0","0","0","63","0","59","63","59","0","59","3","63","0","63","Fri Feb 19 11:17:29 2021","The main experiment item","yes","Lexical_Decision_Task.osexp","C:/Users/molli","no","Andale Mono","no","18","no","white","no","yes","576","legacy","59","59","3","C:/Users/molli/subject-5218517.csv","legacy","Lentiform Loewenfeld","3.3.7","yes","yes","600bd7cfb6416f0113b04181","602110864497cf011d9c0822","0","f","NA","space","j","space","space","f","698","NA","3449","8073","7531","19795","698","2","legacy","1024","2","48000","-16","task","5218517","odd","NA","25813","31263","27814","159228","3140","18747","11215","159729","123018","159226","159729","159183","31263","160427","24072","158683","3138","152206","Lexical Decision Task","57","43511","64","yes","1024"
"3.14849993","10.75","7","hour","word","89.23076923076923","89.23076923076923","679.6461538461539","679.6461538461539","black","no","legacy","legacy","legacy","0","uniform","1","undefined","undefined","undefined","1","j","0","0","0","0","64","0","0","0","64","0","60","64","60","0","60","3","64","0","64","Fri Feb 19 11:17:29 2021","The main experiment item","yes","Lexical_Decision_Task.osexp","C:/Users/molli","no","Andale Mono","no","18","no","white","no","yes","576","legacy","60","60","3","C:/Users/molli/subject-5218517.csv","legacy","Lentiform Loewenfeld","3.3.7","yes","yes","600bd7cfb6416f0113b04181","602110864497cf011d9c0822","0","j","NA","space","j","space","space","j","666","NA","3449","8073","7531","19795","666","2","legacy","1024","2","48000","-16","task","5218517","odd","NA","25813","31263","27814","161983","3140","18747","11215","162484","123018","161981","162484","161934","31263","163150","24072","158683","3138","160434","Lexical Decision Task","58","44177","65","yes","1024"
"3.105055783","0","2","norp","non-word","89.39393939393939","89.39393939393939","679.560606060606","679.560606060606","black","no","legacy","legacy","legacy","0","uniform","1","undefined","undefined","undefined","1","f","0","0","0","0","65","0","0","0","65","0","61","65","61","0","61","3","65","0","65","Fri Feb 19 11:17:29 2021","The main experiment item","yes","Lexical_Decision_Task.osexp","C:/Users/molli","no","Andale Mono","no","18","no","white","no","yes","576","legacy","61","61","3","C:/Users/molli/subject-5218517.csv","legacy","Lentiform Loewenfeld","3.3.7","yes","yes","600bd7cfb6416f0113b04181","602110864497cf011d9c0822","0","f","NA","space","j","space","space","f","674","NA","3449","8073","7531","19795","674","2","legacy","1024","2","48000","-16","task","5218517","odd","NA","25813","31263","27814","163701","3140","18747","11215","164204","123018","163699","164204","163655","31263","164879","24072","163155","3138","160434","Lexical Decision Task","59","44851","66","yes","1024"
"2.842815106","7.86","8","lump","word","89.55223880597015","89.55223880597015","678.1343283582089","678.1343283582089","black","no","legacy","legacy","legacy","0","uniform","1","undefined","undefined","undefined","1","j","0","0","0","0","66","0","0","0","66","0","62","66","62","0","62","3","66","0","66","Fri Feb 19 11:17:29 2021","The main experiment item","yes","Lexical_Decision_Task.osexp","C:/Users/molli","no","Andale Mono","no","18","no","white","no","yes","576","legacy","62","62","3","C:/Users/molli/subject-5218517.csv","legacy","Lentiform Loewenfeld","3.3.7","yes","yes","600bd7cfb6416f0113b04181","602110864497cf011d9c0822","0","j","NA","space","j","space","space","j","584","NA","3449","8073","7531","19795","584","2","legacy","1024","2","48000","-16","task","5218517","odd","NA","25813","31263","27814","165441","3140","18747","11215","165942","123018","165440","165942","165383","31263","166526","24072","164883","3138","160434","Lexical Decision Task","60","45435","67","yes","1024"
"3.307211407","6.07","7","honk","word","89.70588235294117","89.70588235294117","678.0441176470588","678.0441176470588","black","no","legacy","legacy","legacy","0","uniform","1","undefined","undefined","undefined","1","j","0","0","0","0","67","0","0","0","67","0","63","67","63","0","63","3","67","0","67","Fri Feb 19 11:17:29 2021","The main experiment item","yes","Lexical_Decision_Task.osexp","C:/Users/molli","no","Andale Mono","no","18","no","white","no","yes","576","legacy","63","63","3","C:/Users/molli/subject-5218517.csv","legacy","Lentiform Loewenfeld","3.3.7","yes","yes","600bd7cfb6416f0113b04181","602110864497cf011d9c0822","0","j","NA","space","j","space","space","j","672","NA","3449","8073","7531","19795","672","2","legacy","1024","2","48000","-16","task","5218517","odd","NA","25813","31263","27814","167076","3140","18747","11215","167577","123018","167074","167577","167031","31263","168250","24072","166531","3138","160434","Lexical Decision Task","61","46107","68","yes","1024"
"3.216517684","10.87","3","film","word","89.85507246376811","89.85507246376811","678.1884057971015","678.1884057971015","black","no","legacy","legacy","legacy","0","uniform","1","undefined","undefined","undefined","1","j","0","0","0","0","68","0","0","0","68","0","64","68","64","0","64","3","68","0","68","Fri Feb 19 11:17:29 2021","The main experiment item","yes","Lexical_Decision_Task.osexp","C:/Users/molli","no","Andale Mono","no","18","no","white","no","yes","576","legacy","64","64","3","C:/Users/molli/subject-5218517.csv","legacy","Lentiform Loewenfeld","3.3.7","yes","yes","600bd7cfb6416f0113b04181","602110864497cf011d9c0822","0","j","NA","space","j","space","space","j","688","NA","3449","8073","7531","19795","688","2","legacy","1024","2","48000","-16","task","5218517","odd","NA","25813","31263","27814","168797","3140","18747","11215","169298","123018","168796","169298","168754","31263","169986","24072","168254","3138","160434","Lexical Decision Task","62","46795","69","yes","1024"
"3.149629599","0","2","cleb","non-word","90","90","681.0285714285715","681.0285714285715","black","no","legacy","legacy","legacy","0","uniform","1","undefined","undefined","undefined","1","f","0","0","0","0","69","0","0","0","69","0","65","69","65","0","65","3","69","0","69","Fri Feb 19 11:17:29 2021","The main experiment item","yes","Lexical_Decision_Task.osexp","C:/Users/molli","no","Andale Mono","no","18","no","white","no","yes","576","legacy","65","65","3","C:/Users/molli/subject-5218517.csv","legacy","Lentiform Loewenfeld","3.3.7","yes","yes","600bd7cfb6416f0113b04181","602110864497cf011d9c0822","0","f","NA","space","j","space","space","f","877","NA","3449","8073","7531","19795","877","2","legacy","1024","2","48000","-16","task","5218517","odd","NA","25813","31263","27814","170538","3140","18747","11215","171039","123018","170537","171039","170493","31263","171916","24072","169993","3138","160434","Lexical Decision Task","63","47672","70","yes","1024"
"2.64476673","0","5","moft","non-word","90.14084507042253","90.14084507042253","680.9014084507043","680.9014084507043","black","no","legacy","legacy","legacy","0","uniform","1","undefined","undefined","undefined","1","f","0","0","0","0","70","0","0","0","70","0","66","70","66","0","66","3","70","0","70","Fri Feb 19 11:17:29 2021","The main experiment item","yes","Lexical_Decision_Task.osexp","C:/Users/molli","no","Andale Mono","no","18","no","white","no","yes","576","legacy","66","66","3","C:/Users/molli/subject-5218517.csv","legacy","Lentiform Loewenfeld","3.3.7","yes","yes","600bd7cfb6416f0113b04181","602110864497cf011d9c0822","0","f","NA","space","j","space","space","f","672","NA","3449","8073","7531","19795","672","2","legacy","1024","2","48000","-16","task","5218517","odd","NA","25813","31263","27814","172481","3140","18747","11215","172982","123018","172479","172982","172422","31263","173655","24072","171922","3138","160434","Lexical Decision Task","64","48344","71","yes","1024"
"2.875447132","0","9","jelt","non-word","90.27777777777777","90.27777777777777","680.5694444444445","680.5694444444445","black","no","legacy","legacy","legacy","0","uniform","1","undefined","undefined","undefined","1","f","0","0","0","0","71","0","0","0","71","0","67","71","67","0","67","3","71","0","71","Fri Feb 19 11:17:29 2021","The main experiment item","yes","Lexical_Decision_Task.osexp","C:/Users/molli","no","Andale Mono","no","18","no","white","no","yes","576","legacy","67","67","3","C:/Users/molli/subject-5218517.csv","legacy","Lentiform Loewenfeld","3.3.7","yes","yes","600bd7cfb6416f0113b04181","602110864497cf011d9c0822","0","f","NA","space","j","space","space","f","657","NA","3449","8073","7531","19795","657","2","legacy","1024","2","48000","-16","task","5218517","odd","NA","25813","31263","27814","174205","3140","18747","11215","174706","123018","174204","174706","174159","31263","175363","24072","173659","3138","160434","Lexical Decision Task","65","49001","72","yes","1024"
"2.839898939","8.99","6","soap","word","90.41095890410959","90.41095890410959","679.3972602739726","679.3972602739726","black","no","legacy","legacy","legacy","0","uniform","1","undefined","undefined","undefined","1","j","0","0","0","0","72","0","0","0","72","0","68","72","68","0","68","3","72","0","72","Fri Feb 19 11:17:29 2021","The main experiment item","yes","Lexical_Decision_Task.osexp","C:/Users/molli","no","Andale Mono","no","18","no","white","no","yes","576","legacy","68","68","3","C:/Users/molli/subject-5218517.csv","legacy","Lentiform Loewenfeld","3.3.7","yes","yes","600bd7cfb6416f0113b04181","602110864497cf011d9c0822","0","j","NA","space","j","space","space","j","595","NA","3449","8073","7531","19795","595","2","legacy","1024","2","48000","-16","task","5218517","odd","NA","25813","31263","27814","175922","3140","18747","11215","176425","123018","175921","176425","175868","31263","177021","24072","175368","3138","160434","Lexical Decision Task","66","49596","73","yes","1024"
"3.378276681","6.39","8","bran","word","89.1891891891892","89.1891891891892","680.1081081081081","680.1081081081081","black","no","legacy","legacy","legacy","0","uniform","0","undefined","undefined","undefined","0","j","0","0","0","0","73","0","0","0","73","0","69","73","69","0","69","3","73","0","73","Fri Feb 19 11:17:29 2021","The main experiment item","yes","Lexical_Decision_Task.osexp","C:/Users/molli","no","Andale Mono","no","18","no","white","no","yes","576","legacy","69","69","3","C:/Users/molli/subject-5218517.csv","legacy","Lentiform Loewenfeld","3.3.7","yes","yes","600bd7cfb6416f0113b04181","602110864497cf011d9c0822","0","f","NA","space","j","space","space","f","732","NA","3449","8073","7531","19795","732","2","legacy","1024","2","48000","-16","task","5218517","odd","NA","25813","31263","27814","177569","3140","18747","11215","178070","123018","177568","178070","177525","31263","178802","24072","177025","3138","160434","Lexical Decision Task","66","50328","74","yes","1024"
"2.812467698","0","7","hafe","non-word","89.33333333333333","89.33333333333333","679.5866666666667","679.5866666666667","black","no","legacy","legacy","legacy","0","uniform","1","undefined","undefined","undefined","1","f","0","0","0","0","74","0","0","0","74","0","70","74","70","0","70","3","74","0","74","Fri Feb 19 11:17:29 2021","The main experiment item","yes","Lexical_Decision_Task.osexp","C:/Users/molli","no","Andale Mono","no","18","no","white","no","yes","576","legacy","70","70","3","C:/Users/molli/subject-5218517.csv","legacy","Lentiform Loewenfeld","3.3.7","yes","yes","600bd7cfb6416f0113b04181","602110864497cf011d9c0822","0","f","NA","space","j","space","space","f","641","NA","3449","8073","7531","19795","641","2","legacy","1024","2","48000","-16","task","5218517","odd","NA","25813","31263","27814","180356","3140","18747","11215","180857","123018","180355","180857","180308","31263","181499","24072","177025","3138","178808","Lexical Decision Task","67","50969","75","yes","1024"
"3.440331212","7.35","6","stew","word","89.47368421052632","89.47368421052632","679.171052631579","679.171052631579","black","no","legacy","legacy","legacy","0","uniform","1","undefined","undefined","undefined","1","j","0","0","0","0","75","0","0","0","75","0","71","75","71","0","71","3","75","0","75","Fri Feb 19 11:17:29 2021","The main experiment item","yes","Lexical_Decision_Task.osexp","C:/Users/molli","no","Andale Mono","no","18","no","white","no","yes","576","legacy","71","71","3","C:/Users/molli/subject-5218517.csv","legacy","Lentiform Loewenfeld","3.3.7","yes","yes","600bd7cfb6416f0113b04181","602110864497cf011d9c0822","0","j","NA","space","j","space","space","j","648","NA","3449","8073","7531","19795","648","2","legacy","1024","2","48000","-16","task","5218517","odd","NA","25813","31263","27814","182047","3140","18747","11215","182548","123018","182046","182548","182003","31263","183196","24072","181503","3138","178808","Lexical Decision Task","68","51617","76","yes","1024"
"3.431095062","5.74","9","perk","word","89.6103896103896","89.6103896103896","682.077922077922","682.077922077922","black","no","legacy","legacy","legacy","0","uniform","1","undefined","undefined","undefined","1","j","0","0","0","0","76","0","0","0","76","0","72","76","72","0","72","3","76","0","76","Fri Feb 19 11:17:29 2021","The main experiment item","yes","Lexical_Decision_Task.osexp","C:/Users/molli","no","Andale Mono","no","18","no","white","no","yes","576","legacy","72","72","3","C:/Users/molli/subject-5218517.csv","legacy","Lentiform Loewenfeld","3.3.7","yes","yes","600bd7cfb6416f0113b04181","602110864497cf011d9c0822","0","j","NA","space","j","space","space","j","903","NA","3449","8073","7531","19795","903","2","legacy","1024","2","48000","-16","task","5218517","odd","NA","25813","31263","27814","183745","3140","18747","11215","184246","123018","183744","184246","183700","31263","185150","24072","183200","3138","178808","Lexical Decision Task","69","52520","77","yes","1024"
"3.076883066","0","8","mout","non-word","89.74358974358974","89.74358974358974","680.8333333333334","680.8333333333334","black","no","legacy","legacy","legacy","0","uniform","1","undefined","undefined","undefined","1","f","0","0","0","0","77","0","0","0","77","0","73","77","73","0","73","3","77","0","77","Fri Feb 19 11:17:29 2021","The main experiment item","yes","Lexical_Decision_Task.osexp","C:/Users/molli","no","Andale Mono","no","18","no","white","no","yes","576","legacy","73","73","3","C:/Users/molli/subject-5218517.csv","legacy","Lentiform Loewenfeld","3.3.7","yes","yes","600bd7cfb6416f0113b04181","602110864497cf011d9c0822","0","f","NA","space","j","space","space","f","585","NA","3449","8073","7531","19795","585","2","legacy","1024","2","48000","-16","task","5218517","odd","NA","25813","31263","27814","185698","3140","18747","11215","186199","123018","185697","186199","185654","31263","186785","24072","185154","3138","178808","Lexical Decision Task","70","53105","78","yes","1024"
"2.814027728","8.2","4","foam","word","89.87341772151899","89.87341772151899","681.0632911392405","681.0632911392405","black","no","legacy","legacy","legacy","0","uniform","1","undefined","undefined","undefined","1","j","0","0","0","0","78","0","0","0","78","0","74","78","74","0","74","3","78","0","78","Fri Feb 19 11:17:29 2021","The main experiment item","yes","Lexical_Decision_Task.osexp","C:/Users/molli","no","Andale Mono","no","18","no","white","no","yes","576","legacy","74","74","3","C:/Users/molli/subject-5218517.csv","legacy","Lentiform Loewenfeld","3.3.7","yes","yes","600bd7cfb6416f0113b04181","602110864497cf011d9c0822","0","j","NA","space","j","space","space","j","699","NA","3449","8073","7531","19795","699","2","legacy","1024","2","48000","-16","task","5218517","odd","NA","25813","31263","27814","187334","3140","18747","11215","187835","123018","187332","187835","187289","31263","188535","24072","186789","3138","178808","Lexical Decision Task","71","53804","79","yes","1024"
"3.248054965","7.86","5","glow","word","90","90","678.3375","678.3375","black","no","legacy","legacy","legacy","0","uniform","1","undefined","undefined","undefined","1","j","0","0","0","0","79","0","0","0","79","0","75","79","75","0","75","3","79","0","79","Fri Feb 19 11:17:29 2021","The main experiment item","yes","Lexical_Decision_Task.osexp","C:/Users/molli","no","Andale Mono","no","18","no","white","no","yes","576","legacy","75","75","3","C:/Users/molli/subject-5218517.csv","legacy","Lentiform Loewenfeld","3.3.7","yes","yes","600bd7cfb6416f0113b04181","602110864497cf011d9c0822","0","j","NA","space","j","space","space","j","463","NA","3449","8073","7531","19795","463","2","legacy","1024","2","48000","-16","task","5218517","odd","NA","25813","31263","27814","189083","3140","18747","11215","189584","123018","189082","189584","189038","31263","190047","24072","188538","3138","178808","Lexical Decision Task","72","54267","80","yes","1024"
"2.880623071","0","9","curp","non-word","90.12345679012346","90.12345679012346","677.0987654320987","677.0987654320987","black","no","legacy","legacy","legacy","0","uniform","1","undefined","undefined","undefined","1","f","0","0","0","0","80","0","0","0","80","0","76","80","76","0","76","3","80","0","80","Fri Feb 19 11:17:29 2021","The main experiment item","yes","Lexical_Decision_Task.osexp","C:/Users/molli","no","Andale Mono","no","18","no","white","no","yes","576","legacy","76","76","3","C:/Users/molli/subject-5218517.csv","legacy","Lentiform Loewenfeld","3.3.7","yes","yes","600bd7cfb6416f0113b04181","602110864497cf011d9c0822","0","f","NA","space","j","space","space","f","578","NA","3449","8073","7531","19795","578","2","legacy","1024","2","48000","-16","task","5218517","odd","NA","25813","31263","27814","190596","3140","18747","11215","191099","123018","190595","191099","190554","31263","191677","24072","190054","3138","178808","Lexical Decision Task","73","54845","81","yes","1024"
"2.67699827","0","6","hulf","non-word","90.2439024390244","90.2439024390244","679.939024390244","679.939024390244","black","no","legacy","legacy","legacy","0","uniform","1","undefined","undefined","undefined","1","f","0","0","0","0","81","0","0","0","81","0","77","81","77","0","77","3","81","0","81","Fri Feb 19 11:17:29 2021","The main experiment item","yes","Lexical_Decision_Task.osexp","C:/Users/molli","no","Andale Mono","no","18","no","white","no","yes","576","legacy","77","77","3","C:/Users/molli/subject-5218517.csv","legacy","Lentiform Loewenfeld","3.3.7","yes","yes","600bd7cfb6416f0113b04181","602110864497cf011d9c0822","0","f","NA","space","j","space","space","f","910","NA","3449","8073","7531","19795","910","2","legacy","1024","2","48000","-16","task","5218517","odd","NA","25813","31263","27814","192230","3140","18747","11215","192732","123018","192229","192732","192184","31263","193643","24072","191684","3138","178808","Lexical Decision Task","74","55755","82","yes","1024"
"3.22685757","9.99","7","roll","word","90.36144578313252","90.36144578313252","681.2650602409639","681.2650602409639","black","no","legacy","legacy","legacy","0","uniform","1","undefined","undefined","undefined","1","j","0","0","0","0","82","0","0","0","82","0","78","82","78","0","78","3","82","0","82","Fri Feb 19 11:17:29 2021","The main experiment item","yes","Lexical_Decision_Task.osexp","C:/Users/molli","no","Andale Mono","no","18","no","white","no","yes","576","legacy","78","78","3","C:/Users/molli/subject-5218517.csv","legacy","Lentiform Loewenfeld","3.3.7","yes","yes","600bd7cfb6416f0113b04181","602110864497cf011d9c0822","0","j","NA","space","j","space","space","j","790","NA","3449","8073","7531","19795","790","2","legacy","1024","2","48000","-16","task","5218517","odd","NA","25813","31263","27814","194191","3140","18747","11215","194694","123018","194190","194694","194147","31263","195484","24072","193647","3138","178808","Lexical Decision Task","75","56545","83","yes","1024"
"3.368162872","0","4","ferk","non-word","90.47619047619048","90.47619047619048","682.3095238095239","682.3095238095239","black","no","legacy","legacy","legacy","0","uniform","1","undefined","undefined","undefined","1","f","0","0","0","0","83","0","0","0","83","0","79","83","79","0","79","3","83","0","83","Fri Feb 19 11:17:29 2021","The main experiment item","yes","Lexical_Decision_Task.osexp","C:/Users/molli","no","Andale Mono","no","18","no","white","no","yes","576","legacy","79","79","3","C:/Users/molli/subject-5218517.csv","legacy","Lentiform Loewenfeld","3.3.7","yes","yes","600bd7cfb6416f0113b04181","602110864497cf011d9c0822","0","f","NA","space","j","space","space","f","769","NA","3449","8073","7531","19795","769","2","legacy","1024","2","48000","-16","task","5218517","odd","NA","25813","31263","27814","196033","3140","18747","11215","196534","123018","196032","196534","195989","31263","197303","24072","195489","3138","178808","Lexical Decision Task","76","57314","84","yes","1024"
"2.6599162","0","2","saff","non-word","90.58823529411765","90.58823529411765","682.0470588235294","682.0470588235294","black","no","legacy","legacy","legacy","0","uniform","1","undefined","undefined","undefined","1","f","0","0","0","0","84","0","0","0","84","0","80","84","80","0","80","3","84","0","84","Fri Feb 19 11:17:29 2021","The main experiment item","yes","Lexical_Decision_Task.osexp","C:/Users/molli","no","Andale Mono","no","18","no","white","no","yes","576","legacy","80","80","3","C:/Users/molli/subject-5218517.csv","legacy","Lentiform Loewenfeld","3.3.7","yes","yes","600bd7cfb6416f0113b04181","602110864497cf011d9c0822","0","f","NA","space","j","space","space","f","660","NA","3449","8073","7531","19795","660","2","legacy","1024","2","48000","-16","task","5218517","odd","NA","25813","31263","27814","197851","3140","18747","11215","198352","123018","197850","198352","197808","31263","199013","24072","197308","3138","178808","Lexical Decision Task","77","57974","85","yes","1024"
"3.153001286","8.7","5","palm","word","90.69767441860465","90.69767441860465","680.6744186046511","680.6744186046511","black","no","legacy","legacy","legacy","0","uniform","1","undefined","undefined","undefined","1","j","0","0","0","0","85","0","0","0","85","0","81","85","81","0","81","3","85","0","85","Fri Feb 19 11:17:29 2021","The main experiment item","yes","Lexical_Decision_Task.osexp","C:/Users/molli","no","Andale Mono","no","18","no","white","no","yes","576","legacy","81","81","3","C:/Users/molli/subject-5218517.csv","legacy","Lentiform Loewenfeld","3.3.7","yes","yes","600bd7cfb6416f0113b04181","602110864497cf011d9c0822","0","j","NA","space","j","space","space","j","564","NA","3449","8073","7531","19795","564","2","legacy","1024","2","48000","-16","task","5218517","odd","NA","25813","31263","27814","199563","3140","18747","11215","200064","123018","199562","200064","199518","31263","200628","24072","199018","3138","178808","Lexical Decision Task","78","58538","86","yes","1024"
"3.366547468","0","6","plat","non-word","90.80459770114942","90.80459770114942","683.080459770115","683.080459770115","black","no","legacy","legacy","legacy","0","uniform","1","undefined","undefined","undefined","1","f","0","0","0","0","86","0","0","0","86","0","82","86","82","0","82","3","86","0","86","Fri Feb 19 11:17:29 2021","The main experiment item","yes","Lexical_Decision_Task.osexp","C:/Users/molli","no","Andale Mono","no","18","no","white","no","yes","576","legacy","82","82","3","C:/Users/molli/subject-5218517.csv","legacy","Lentiform Loewenfeld","3.3.7","yes","yes","600bd7cfb6416f0113b04181","602110864497cf011d9c0822","0","f","NA","space","j","space","space","f","890","NA","3449","8073","7531","19795","890","2","legacy","1024","2","48000","-16","task","5218517","odd","NA","25813","31263","27814","201175","3140","18747","11215","201676","123018","201174","201676","201132","31263","202567","24072","200631","3138","178808","Lexical Decision Task","79","59428","87","yes","1024"
"3.037294994","8.64","7","roof","word","89.77272727272727","89.77272727272727","681.4886363636364","681.4886363636364","black","no","legacy","legacy","legacy","0","uniform","0","undefined","undefined","undefined","0","j","0","0","0","0","87","0","0","0","87","0","83","87","83","0","83","3","87","0","87","Fri Feb 19 11:17:29 2021","The main experiment item","yes","Lexical_Decision_Task.osexp","C:/Users/molli","no","Andale Mono","no","18","no","white","no","yes","576","legacy","83","83","3","C:/Users/molli/subject-5218517.csv","legacy","Lentiform Loewenfeld","3.3.7","yes","yes","600bd7cfb6416f0113b04181","602110864497cf011d9c0822","0","f","NA","space","j","space","space","f","543","NA","3449","8073","7531","19795","543","2","legacy","1024","2","48000","-16","task","5218517","odd","NA","25813","31263","27814","203115","3140","18747","11215","203616","123018","203114","203616","203070","31263","204160","24072","202570","3138","178808","Lexical Decision Task","79","59971","88","yes","1024"
"2.594027722","9.08","8","skip","word","89.88764044943821","89.88764044943821","680.056179775281","680.056179775281","black","no","legacy","legacy","legacy","0","uniform","1","undefined","undefined","undefined","1","j","0","0","0","0","88","0","0","0","88","0","84","88","84","0","84","3","88","0","88","Fri Feb 19 11:17:29 2021","The main experiment item","yes","Lexical_Decision_Task.osexp","C:/Users/molli","no","Andale Mono","no","18","no","white","no","yes","576","legacy","84","84","3","C:/Users/molli/subject-5218517.csv","legacy","Lentiform Loewenfeld","3.3.7","yes","yes","600bd7cfb6416f0113b04181","602110864497cf011d9c0822","0","j","NA","space","j","space","space","j","554","NA","3449","8073","7531","19795","554","2","legacy","1024","2","48000","-16","task","5218517","odd","NA","25813","31263","27814","205715","3140","18747","11215","206216","123018","205714","206216","205664","31263","206771","24072","202570","3138","204164","Lexical Decision Task","80","60525","89","yes","1024"
"2.695481676","0","7","goke","non-word","90","90","679.5111111111111","679.5111111111111","black","no","legacy","legacy","legacy","0","uniform","1","undefined","undefined","undefined","1","f","0","0","0","0","89","0","0","0","89","0","85","89","85","0","85","3","89","0","89","Fri Feb 19 11:17:29 2021","The main experiment item","yes","Lexical_Decision_Task.osexp","C:/Users/molli","no","Andale Mono","no","18","no","white","no","yes","576","legacy","85","85","3","C:/Users/molli/subject-5218517.csv","legacy","Lentiform Loewenfeld","3.3.7","yes","yes","600bd7cfb6416f0113b04181","602110864497cf011d9c0822","0","f","NA","space","j","space","space","f","631","NA","3449","8073","7531","19795","631","2","legacy","1024","2","48000","-16","task","5218517","odd","NA","25813","31263","27814","207321","3140","18747","11215","207822","123018","207320","207822","207276","31263","208453","24072","206776","3138","204164","Lexical Decision Task","81","61156","90","yes","1024"
"3.302475237","0","7","leel","non-word","90.10989010989012","90.10989010989012","679.7912087912088","679.7912087912088","black","no","legacy","legacy","legacy","0","uniform","1","undefined","undefined","undefined","1","f","0","0","0","0","90","0","0","0","90","0","86","90","86","0","86","3","90","0","90","Fri Feb 19 11:17:29 2021","The main experiment item","yes","Lexical_Decision_Task.osexp","C:/Users/molli","no","Andale Mono","no","18","no","white","no","yes","576","legacy","86","86","3","C:/Users/molli/subject-5218517.csv","legacy","Lentiform Loewenfeld","3.3.7","yes","yes","600bd7cfb6416f0113b04181","602110864497cf011d9c0822","0","f","NA","space","j","space","space","f","705","NA","3449","8073","7531","19795","705","2","legacy","1024","2","48000","-16","task","5218517","odd","NA","25813","31263","27814","209018","3140","18747","11215","209519","123018","209017","209519","208961","31263","210225","24072","208461","3138","204164","Lexical Decision Task","82","61861","91","yes","1024"
"2.75025376","10.2","6","jump","word","90.21739130434783","90.21739130434783","678.5108695652174","678.5108695652174","black","no","legacy","legacy","legacy","0","uniform","1","undefined","undefined","undefined","1","j","0","0","0","0","91","0","0","0","91","0","87","91","87","0","87","3","91","0","91","Fri Feb 19 11:17:29 2021","The main experiment item","yes","Lexical_Decision_Task.osexp","C:/Users/molli","no","Andale Mono","no","18","no","white","no","yes","576","legacy","87","87","3","C:/Users/molli/subject-5218517.csv","legacy","Lentiform Loewenfeld","3.3.7","yes","yes","600bd7cfb6416f0113b04181","602110864497cf011d9c0822","0","j","NA","space","j","space","space","j","562","NA","3449","8073","7531","19795","562","2","legacy","1024","2","48000","-16","task","5218517","odd","NA","25813","31263","27814","210774","3140","18747","11215","211274","123018","210772","211275","210729","31263","211838","24072","210229","3138","204164","Lexical Decision Task","83","62423","92","yes","1024"
"2.980306438","0","7","slun","non-word","90.3225806451613","90.3225806451613","677.7311827956989","677.7311827956989","black","no","legacy","legacy","legacy","0","uniform","1","undefined","undefined","undefined","1","f","0","0","0","0","92","0","0","0","92","0","88","92","88","0","88","3","92","0","92","Fri Feb 19 11:17:29 2021","The main experiment item","yes","Lexical_Decision_Task.osexp","C:/Users/molli","no","Andale Mono","no","18","no","white","no","yes","576","legacy","88","88","3","C:/Users/molli/subject-5218517.csv","legacy","Lentiform Loewenfeld","3.3.7","yes","yes","600bd7cfb6416f0113b04181","602110864497cf011d9c0822","0","f","NA","space","j","space","space","f","606","NA","3449","8073","7531","19795","606","2","legacy","1024","2","48000","-16","task","5218517","odd","NA","25813","31263","27814","212387","3140","18747","11215","212888","123018","212385","212888","212343","31263","213495","24072","211843","3138","204164","Lexical Decision Task","84","63029","93","yes","1024"
"2.807758206","6.25","4","hurl","word","89.36170212765957","89.36170212765957","676.1914893617021","676.1914893617021","black","no","legacy","legacy","legacy","0","uniform","0","undefined","undefined","undefined","0","j","0","0","0","0","93","0","0","0","93","0","89","93","89","0","89","3","93","0","93","Fri Feb 19 11:17:29 2021","The main experiment item","yes","Lexical_Decision_Task.osexp","C:/Users/molli","no","Andale Mono","no","18","no","white","no","yes","576","legacy","89","89","3","C:/Users/molli/subject-5218517.csv","legacy","Lentiform Loewenfeld","3.3.7","yes","yes","600bd7cfb6416f0113b04181","602110864497cf011d9c0822","0","f","NA","space","j","space","space","f","533","NA","3449","8073","7531","19795","533","2","legacy","1024","2","48000","-16","task","5218517","odd","NA","25813","31263","27814","214043","3140","18747","11215","214544","123018","214042","214544","213999","31263","215078","24072","213499","3138","204164","Lexical Decision Task","84","63562","94","yes","1024"
"2.793790385","5.67","9","swab","word","89.47368421052632","89.47368421052632","675.7263157894737","675.7263157894737","black","no","legacy","legacy","legacy","0","uniform","1","undefined","undefined","undefined","1","j","0","0","0","0","94","0","0","0","94","0","90","94","90","0","90","3","94","0","94","Fri Feb 19 11:17:29 2021","The main experiment item","yes","Lexical_Decision_Task.osexp","C:/Users/molli","no","Andale Mono","no","18","no","white","no","yes","576","legacy","90","90","3","C:/Users/molli/subject-5218517.csv","legacy","Lentiform Loewenfeld","3.3.7","yes","yes","600bd7cfb6416f0113b04181","602110864497cf011d9c0822","0","j","NA","space","j","space","space","j","632","NA","3449","8073","7531","19795","632","2","legacy","1024","2","48000","-16","task","5218517","odd","NA","25813","31263","27814","216632","3140","18747","11215","217134","123018","216631","217134","216583","31263","217767","24072","213499","3138","215083","Lexical Decision Task","85","64194","95","yes","1024"
"2.981215883","10.66","5","hair","word","89.58333333333333","89.58333333333333","674.96875","674.96875","black","no","legacy","legacy","legacy","0","uniform","1","undefined","undefined","undefined","1","j","0","0","0","0","95","0","0","0","95","0","91","95","91","0","91","3","95","0","95","Fri Feb 19 11:17:29 2021","The main experiment item","yes","Lexical_Decision_Task.osexp","C:/Users/molli","no","Andale Mono","no","18","no","white","no","yes","576","legacy","91","91","3","C:/Users/molli/subject-5218517.csv","legacy","Lentiform Loewenfeld","3.3.7","yes","yes","600bd7cfb6416f0113b04181","602110864497cf011d9c0822","0","j","NA","space","j","space","space","j","603","NA","3449","8073","7531","19795","603","2","legacy","1024","2","48000","-16","task","5218517","odd","NA","25813","31263","27814","218316","3140","18747","11215","218816","123018","218315","218817","218271","31263","219421","24072","217771","3138","215083","Lexical Decision Task","86","64797","96","yes","1024"
"2.68604012","0","4","pumb","non-word","88.65979381443299","88.65979381443299","674","674","black","no","legacy","legacy","legacy","0","uniform","0","undefined","undefined","undefined","0","f","0","0","0","0","96","0","0","0","96","0","92","96","92","0","92","3","96","0","96","Fri Feb 19 11:17:29 2021","The main experiment item","yes","Lexical_Decision_Task.osexp","C:/Users/molli","no","Andale Mono","no","18","no","white","no","yes","576","legacy","92","92","3","C:/Users/molli/subject-5218517.csv","legacy","Lentiform Loewenfeld","3.3.7","yes","yes","600bd7cfb6416f0113b04181","602110864497cf011d9c0822","0","j","NA","space","j","space","space","j","581","NA","3449","8073","7531","19795","581","2","legacy","1024","2","48000","-16","task","5218517","odd","NA","25813","31263","27814","219969","3140","18747","11215","220470","123018","219968","220470","219925","31263","221051","24072","219425","3138","215083","Lexical Decision Task","86","65378","97","yes","1024"
"3.168890155","0","6","thet","non-word","88.77551020408163","88.77551020408163","673.9489795918367","673.9489795918367","black","no","legacy","legacy","legacy","0","uniform","1","undefined","undefined","undefined","1","f","0","0","0","0","97","0","0","0","97","0","93","97","93","0","93","3","97","0","97","Fri Feb 19 11:17:29 2021","The main experiment item","yes","Lexical_Decision_Task.osexp","C:/Users/molli","no","Andale Mono","no","18","no","white","no","yes","576","legacy","93","93","3","C:/Users/molli/subject-5218517.csv","legacy","Lentiform Loewenfeld","3.3.7","yes","yes","600bd7cfb6416f0113b04181","602110864497cf011d9c0822","0","f","NA","space","j","space","space","f","669","NA","3449","8073","7531","19795","669","2","legacy","1024","2","48000","-16","task","5218517","odd","NA","25813","31263","27814","222620","3140","18747","11215","223121","123018","222617","223121","222555","31263","223791","24072","219425","3138","221055","Lexical Decision Task","87","66047","98","yes","1024"
"3.529815197","0","3","lerm","non-word","88.88888888888889","88.88888888888889","673.4545454545455","673.4545454545455","black","no","legacy","legacy","legacy","0","uniform","1","undefined","undefined","undefined","1","f","0","0","0","0","98","0","0","0","98","0","94","98","94","0","94","3","98","0","98","Fri Feb 19 11:17:29 2021","The main experiment item","yes","Lexical_Decision_Task.osexp","C:/Users/molli","no","Andale Mono","no","18","no","white","no","yes","576","legacy","94","94","3","C:/Users/molli/subject-5218517.csv","legacy","Lentiform Loewenfeld","3.3.7","yes","yes","600bd7cfb6416f0113b04181","602110864497cf011d9c0822","0","f","NA","space","j","space","space","f","625","NA","3449","8073","7531","19795","625","2","legacy","1024","2","48000","-16","task","5218517","odd","NA","25813","31263","27814","224340","3140","18747","11215","224841","123018","224339","224841","224295","31263","225467","24072","223795","3138","221055","Lexical Decision Task","88","66672","99","yes","1024"
"3.077974404","10.41","8","tool","word","89","89","675.48","675.48","black","no","legacy","legacy","legacy","0","uniform","1","undefined","undefined","undefined","1","j","0","0","0","0","99","0","0","0","99","0","95","99","95","0","95","3","99","0","99","Fri Feb 19 11:17:29 2021","The main experiment item","yes","Lexical_Decision_Task.osexp","C:/Users/molli","no","Andale Mono","no","18","no","white","no","yes","576","legacy","95","95","3","C:/Users/molli/subject-5218517.csv","legacy","Lentiform Loewenfeld","3.3.7","yes","yes","600bd7cfb6416f0113b04181","602110864497cf011d9c0822","0","j","NA","space","j","space","space","j","876","NA","3449","8073","7531","19795","876","2","legacy","1024","2","48000","-16","task","5218517","odd","NA","25813","31263","27814","226019","3140","18747","11215","226520","123018","226018","226520","225974","31263","227397","24072","225473","3138","221055","Lexical Decision Task","89","67548","100","yes","1024"
"3.062080345","0","6","tomp","non-word","89.10891089108911","89.10891089108911","676.0693069306931","676.0693069306931","black","no","legacy","legacy","legacy","0","uniform","1","undefined","undefined","undefined","1","f","0","0","0","0","100","0","0","0","100","0","96","100","96","0","96","3","100","0","100","Fri Feb 19 11:17:29 2021","The main experiment item","yes","Lexical_Decision_Task.osexp","C:/Users/molli","no","Andale Mono","no","18","no","white","no","yes","576","legacy","96","96","3","C:/Users/molli/subject-5218517.csv","legacy","Lentiform Loewenfeld","3.3.7","yes","yes","600bd7cfb6416f0113b04181","602110864497cf011d9c0822","0","f","NA","space","j","space","space","f","735","NA","3449","8073","7531","19795","735","2","legacy","1024","2","48000","-16","task","5218517","odd","NA","25813","31263","27814","227947","3140","18747","11215","228448","123018","227946","228448","227902","31263","229184","24072","227402","3138","221055","Lexical Decision Task","90","68283","101","yes","1024"
"2.986323777","10.85","8","ship","word","89.2156862745098","89.2156862745098","675.1862745098039","675.1862745098039","black","no","legacy","legacy","legacy","0","uniform","1","undefined","undefined","undefined","1","j","0","0","0","0","101","0","0","0","101","0","97","101","97","0","97","3","101","0","101","Fri Feb 19 11:17:29 2021","The main experiment item","yes","Lexical_Decision_Task.osexp","C:/Users/molli","no","Andale Mono","no","18","no","white","no","yes","576","legacy","97","97","3","C:/Users/molli/subject-5218517.csv","legacy","Lentiform Loewenfeld","3.3.7","yes","yes","600bd7cfb6416f0113b04181","602110864497cf011d9c0822","0","j","NA","space","j","space","space","j","586","NA","3449","8073","7531","19795","586","2","legacy","1024","2","48000","-16","task","5218517","odd","NA","25813","31263","27814","229734","3140","18747","11215","230235","123018","229733","230235","229689","31263","230822","24072","229189","3138","221055","Lexical Decision Task","91","68869","102","yes","1024"
"2.794720352","0","9","koot","non-word","89.32038834951456","89.32038834951456","676.4854368932039","676.4854368932039","black","no","legacy","legacy","legacy","0","uniform","1","undefined","undefined","undefined","1","f","0","0","0","0","102","0","0","0","102","0","98","102","98","0","98","3","102","0","102","Fri Feb 19 11:17:29 2021","The main experiment item","yes","Lexical_Decision_Task.osexp","C:/Users/molli","no","Andale Mono","no","18","no","white","no","yes","576","legacy","98","98","3","C:/Users/molli/subject-5218517.csv","legacy","Lentiform Loewenfeld","3.3.7","yes","yes","600bd7cfb6416f0113b04181","602110864497cf011d9c0822","0","f","NA","space","j","space","space","f","809","NA","3449","8073","7531","19795","809","2","legacy","1024","2","48000","-16","task","5218517","odd","NA","25813","31263","27814","231385","3140","18747","11215","231888","123018","231384","231888","231326","31263","232698","24072","230826","3138","221055","Lexical Decision Task","92","69678","103","yes","1024"
