"Log_BG","Log_Freq_HAL","Ortho_N","Stimulus","Type","acc","accuracy","average_response_time","avg_rt","background","bidi","canvas_backend","clock_backend","color_backend","compensation","coordinates","correct","correct_Experimental_intro","correct_Introduction","correct_Practice_intro","correct_experimenter_kb","correct_response","count_End_Of_Experiment","count_End_Of_Practice","count_Experimental_Loop","count_Experimental_intro","count_Fixation","count_Introduction","count_Practice_Loop","count_Practice_intro","count_Stimulus","count_block_break_feedback","count_experimental_sequence","count_experimenter_kb","count_increment_trial_count","count_init_trial_count","count_logger","count_practice_sequence","count_right","count_task","count_wrong","datetime","description","disable_garbage_collection","experiment_file","experiment_path","font_bold","font_family","font_italic","font_size","font_underline","foreground","form_clicks","fullscreen","height","keyboard_backend","live_row","live_row_Experimental_Loop","live_row_Practice_Loop","logfile","mouse_backend","opensesame_codename","opensesame_version","osf_always_upload_data","osf_always_upload_experiment","osf_datanode_id","osf_id","repeat_cycle","response","response_End_Of_Experiment","response_Experimental_intro","response_Introduction","response_Practice_intro","response_block_break_feedback","response_experimenter_kb","response_time","response_time_End_Of_Experiment","response_time_Experimental_intro","response_time_Introduction","response_time_Practice_intro","response_time_block_break_feedback","response_time_experimenter_kb","round_decimals","sampler_backend","sound_buf_size","sound_channels","sound_freq","sound_sample_size","start","subject_nr","subject_parity","time_End_Of_Experiment","time_End_Of_Practice","time_Experimental_Loop","time_Experimental_intro","time_Fixation","time_Introduction","time_Practice_Loop","time_Practice_intro","time_Stimulus","time_block_break_feedback","time_experimental_sequence","time_experimenter_kb","time_increment_trial_count","time_init_trial_count","time_logger","time_practice_sequence","time_right","time_task","time_wrong","title","total_correct","total_response_time","total_responses","uniform_coordinates","width"
"2.793790385","5.67","9","swab","word","100","100","609.6","609.6","black","no","legacy","legacy","legacy","0","uniform","1","undefined","undefined","undefined","1","j","0","0","0","0","4","0","0","0","4","NA","0","4","0","0","0","3","4","0","4","Fri Feb 19 11:16:26 2021","The main experiment item","yes","Lexical_Decision_Task.osexp","/Users/georgia/Desktop","no","Andale Mono","no","18","no","white","no","yes","576","legacy","0","0","3","/Users/georgia/Desktop/subject-5202138.csv","legacy","Lentiform Loewenfeld","3.3.7","yes","yes","600bd7cfb6416f0113b04181","602110864497cf011d9c0822","0","j","NA","space","j","j","NA","j","667","NA","2307","18696","9009","NA","667","2","legacy","1024","2","48000","-16","task","5202138","even","NA","48190","52500","50193","52556","13114","41399","32387","53059","NA","52553","53059","NA","52500","53726","46832","47666","12860","NA","Lexical Decision Task","5","3048","5","yes","1024"
"2.703007489","8.37","3","pulp","word","100","100","582.1666666666666","582.1666666666666","black","no","legacy","legacy","legacy","0","uniform","1","undefined","undefined","undefined","1","j","0","0","0","0","5","0","0","0","5","NA","1","5","1","0","1","3","5","0","5","Fri Feb 19 11:16:26 2021","The main experiment item","yes","Lexical_Decision_Task.osexp","/Users/georgia/Desktop","no","Andale Mono","no","18","no","white","no","yes","576","legacy","1","1","3","/Users/georgia/Desktop/subject-5202138.csv","legacy","Lentiform Loewenfeld","3.3.7","yes","yes","600bd7cfb6416f0113b04181","602110864497cf011d9c0822","0","j","NA","space","j","j","NA","j","445","NA","2307","18696","9009","NA","445","2","legacy","1024","2","48000","-16","task","5202138","even","NA","48190","52500","50193","54342","13114","41399","32387","54844","NA","54339","54845","54267","52500","55290","46832","53767","12860","NA","Lexical Decision Task","6","3493","6","yes","1024"
"3.531734309","0","6","lerd","non-word","100","100","580.7142857142857","580.7142857142857","black","no","legacy","legacy","legacy","0","uniform","1","undefined","undefined","undefined","1","f","0","0","0","0","6","0","0","0","6","NA","2","6","2","0","2","3","6","0","6","Fri Feb 19 11:16:26 2021","The main experiment item","yes","Lexical_Decision_Task.osexp","/Users/georgia/Desktop","no","Andale Mono","no","18","no","white","no","yes","576","legacy","2","2","3","/Users/georgia/Desktop/subject-5202138.csv","legacy","Lentiform Loewenfeld","3.3.7","yes","yes","600bd7cfb6416f0113b04181","602110864497cf011d9c0822","0","f","NA","space","j","j","NA","f","572","NA","2307","18696","9009","NA","572","2","legacy","1024","2","48000","-16","task","5202138","even","NA","48190","52500","50193","55836","13114","41399","32387","56338","NA","55833","56338","55794","52500","56910","46832","55294","12860","NA","Lexical Decision Task","7","4065","7","yes","1024"
"3.102203805","7.21","3","drip","word","100","100","566.375","566.375","black","no","legacy","legacy","legacy","0","uniform","1","undefined","undefined","undefined","1","j","0","0","0","0","7","0","0","0","7","NA","3","7","3","0","3","3","7","0","7","Fri Feb 19 11:16:26 2021","The main experiment item","yes","Lexical_Decision_Task.osexp","/Users/georgia/Desktop","no","Andale Mono","no","18","no","white","no","yes","576","legacy","3","3","3","/Users/georgia/Desktop/subject-5202138.csv","legacy","Lentiform Loewenfeld","3.3.7","yes","yes","600bd7cfb6416f0113b04181","602110864497cf011d9c0822","0","j","NA","space","j","j","NA","j","466","NA","2307","18696","9009","NA","466","2","legacy","1024","2","48000","-16","task","5202138","even","NA","48190","52500","50193","57460","13114","41399","32387","57962","NA","57457","57963","57414","52500","58429","46832","56914","12860","NA","Lexical Decision Task","8","4531","8","yes","1024"
"3.133964479","0","8","graw","non-word","100","100","602.6666666666666","602.6666666666666","black","no","legacy","legacy","legacy","0","uniform","1","undefined","undefined","undefined","1","f","0","0","0","0","8","0","0","0","8","NA","4","8","4","0","4","3","8","0","8","Fri Feb 19 11:16:26 2021","The main experiment item","yes","Lexical_Decision_Task.osexp","/Users/georgia/Desktop","no","Andale Mono","no","18","no","white","no","yes","576","legacy","4","4","3","/Users/georgia/Desktop/subject-5202138.csv","legacy","Lentiform Loewenfeld","3.3.7","yes","yes","600bd7cfb6416f0113b04181","602110864497cf011d9c0822","0","f","NA","space","j","j","NA","f","893","NA","2307","18696","9009","NA","893","2","legacy","1024","2","48000","-16","task","5202138","even","NA","48190","52500","50193","59025","13114","41399","32387","59527","NA","59022","59527","58984","52500","60421","46832","58484","12860","NA","Lexical Decision Task","9","5424","9","yes","1024"
"3.043885998","0","9","gome","non-word","100","100","600.4","600.4","black","no","legacy","legacy","legacy","0","uniform","1","undefined","undefined","undefined","1","f","0","0","0","0","9","0","0","0","9","NA","5","9","5","0","5","3","9","0","9","Fri Feb 19 11:16:26 2021","The main experiment item","yes","Lexical_Decision_Task.osexp","/Users/georgia/Desktop","no","Andale Mono","no","18","no","white","no","yes","576","legacy","5","5","3","/Users/georgia/Desktop/subject-5202138.csv","legacy","Lentiform Loewenfeld","3.3.7","yes","yes","600bd7cfb6416f0113b04181","602110864497cf011d9c0822","0","f","NA","space","j","j","NA","f","580","NA","2307","18696","9009","NA","580","2","legacy","1024","2","48000","-16","task","5202138","even","NA","48190","52500","50193","60967","13114","41399","32387","61471","NA","60964","61471","60924","52500","62052","46832","60424","12860","NA","Lexical Decision Task","10","6004","10","yes","1024"
"3.230789326","5.38","5","prim","word","100","100","640.0909090909091","640.0909090909091","black","no","legacy","legacy","legacy","0","uniform","1","undefined","undefined","undefined","1","j","0","0","0","0","10","0","0","0","10","NA","6","10","6","0","6","3","10","0","10","Fri Feb 19 11:16:26 2021","The main experiment item","yes","Lexical_Decision_Task.osexp","/Users/georgia/Desktop","no","Andale Mono","no","18","no","white","no","yes","576","legacy","6","6","3","/Users/georgia/Desktop/subject-5202138.csv","legacy","Lentiform Loewenfeld","3.3.7","yes","yes","600bd7cfb6416f0113b04181","602110864497cf011d9c0822","0","j","NA","space","j","j","NA","j","1037","NA","2307","18696","9009","NA","1037","2","legacy","1024","2","48000","-16","task","5202138","even","NA","48190","52500","50193","62604","13114","41399","32387","63106","NA","62602","63107","62562","52500","64144","46832","62062","12860","NA","Lexical Decision Task","11","7041","11","yes","1024"
"2.981215883","10.66","5","hair","word","100","100","648.1666666666666","648.1666666666666","black","no","legacy","legacy","legacy","0","uniform","1","undefined","undefined","undefined","1","j","0","0","0","0","11","0","0","0","11","NA","7","11","7","0","7","3","11","0","11","Fri Feb 19 11:16:26 2021","The main experiment item","yes","Lexical_Decision_Task.osexp","/Users/georgia/Desktop","no","Andale Mono","no","18","no","white","no","yes","576","legacy","7","7","3","/Users/georgia/Desktop/subject-5202138.csv","legacy","Lentiform Loewenfeld","3.3.7","yes","yes","600bd7cfb6416f0113b04181","602110864497cf011d9c0822","0","j","NA","space","j","j","NA","j","737","NA","2307","18696","9009","NA","737","2","legacy","1024","2","48000","-16","task","5202138","even","NA","48190","52500","50193","64694","13114","41399","32387","65196","NA","64691","65196","64652","52500","65933","46832","64152","12860","NA","Lexical Decision Task","12","7778","12","yes","1024"
"3.252447662","9.67","9","boat","word","100","100","654.4615384615385","654.4615384615385","black","no","legacy","legacy","legacy","0","uniform","1","undefined","undefined","undefined","1","j","0","0","0","0","12","0","0","0","12","NA","8","12","8","0","8","3","12","0","12","Fri Feb 19 11:16:26 2021","The main experiment item","yes","Lexical_Decision_Task.osexp","/Users/georgia/Desktop","no","Andale Mono","no","18","no","white","no","yes","576","legacy","8","8","3","/Users/georgia/Desktop/subject-5202138.csv","legacy","Lentiform Loewenfeld","3.3.7","yes","yes","600bd7cfb6416f0113b04181","602110864497cf011d9c0822","0","j","NA","space","j","j","NA","j","730","NA","2307","18696","9009","NA","730","2","legacy","1024","2","48000","-16","task","5202138","even","NA","48190","52500","50193","66478","13114","41399","32387","66980","NA","66475","66980","66437","52500","67710","46832","65937","12860","NA","Lexical Decision Task","13","8508","13","yes","1024"
"2.880623071","0","9","curp","non-word","100","100","654.8571428571429","654.8571428571429","black","no","legacy","legacy","legacy","0","uniform","1","undefined","undefined","undefined","1","f","0","0","0","0","13","0","0","0","13","NA","9","13","9","0","9","3","13","0","13","Fri Feb 19 11:16:26 2021","The main experiment item","yes","Lexical_Decision_Task.osexp","/Users/georgia/Desktop","no","Andale Mono","no","18","no","white","no","yes","576","legacy","9","9","3","/Users/georgia/Desktop/subject-5202138.csv","legacy","Lentiform Loewenfeld","3.3.7","yes","yes","600bd7cfb6416f0113b04181","602110864497cf011d9c0822","0","f","NA","space","j","j","NA","f","660","NA","2307","18696","9009","NA","660","2","legacy","1024","2","48000","-16","task","5202138","even","NA","48190","52500","50193","68269","13114","41399","32387","68771","NA","68266","68771","68226","52500","69432","46832","67725","12860","NA","Lexical Decision Task","14","9168","14","yes","1024"
"3.495914186","0","4","peng","non-word","93.33333333333333","93.33333333333333","642.3333333333334","642.3333333333334","black","no","legacy","legacy","legacy","0","uniform","0","undefined","undefined","undefined","0","f","0","0","0","0","14","0","0","0","14","NA","10","14","10","0","10","3","14","0","14","Fri Feb 19 11:16:26 2021","The main experiment item","yes","Lexical_Decision_Task.osexp","/Users/georgia/Desktop","no","Andale Mono","no","18","no","white","no","yes","576","legacy","10","10","3","/Users/georgia/Desktop/subject-5202138.csv","legacy","Lentiform Loewenfeld","3.3.7","yes","yes","600bd7cfb6416f0113b04181","602110864497cf011d9c0822","0","j","NA","space","j","j","NA","j","467","NA","2307","18696","9009","NA","467","2","legacy","1024","2","48000","-16","task","5202138","even","NA","48190","52500","50193","69980","13114","41399","32387","70483","NA","69977","70483","69936","52500","70951","46832","69436","12860","NA","Lexical Decision Task","14","9635","15","yes","1024"
"3.145920145","8.51","8","flew","word","93.75","93.75","641.9375","641.9375","black","no","legacy","legacy","legacy","0","uniform","1","undefined","undefined","undefined","1","j","0","0","0","0","15","0","0","0","15","NA","11","15","11","0","11","3","15","0","15","Fri Feb 19 11:16:26 2021","The main experiment item","yes","Lexical_Decision_Task.osexp","/Users/georgia/Desktop","no","Andale Mono","no","18","no","white","no","yes","576","legacy","11","11","3","/Users/georgia/Desktop/subject-5202138.csv","legacy","Lentiform Loewenfeld","3.3.7","yes","yes","600bd7cfb6416f0113b04181","602110864497cf011d9c0822","0","j","NA","space","j","j","NA","j","636","NA","2307","18696","9009","NA","636","2","legacy","1024","2","48000","-16","task","5202138","even","NA","48190","52500","50193","72500","13114","41399","32387","73002","NA","72497","73003","72454","52500","73640","46832","69436","12860","70954","Lexical Decision Task","15","10271","16","yes","1024"
"3.100255637","0","6","brax","non-word","94.11764705882354","94.11764705882354","636.4117647058823","636.4117647058823","black","no","legacy","legacy","legacy","0","uniform","1","undefined","undefined","undefined","1","f","0","0","0","0","16","0","0","0","16","NA","12","16","12","0","12","3","16","0","16","Fri Feb 19 11:16:26 2021","The main experiment item","yes","Lexical_Decision_Task.osexp","/Users/georgia/Desktop","no","Andale Mono","no","18","no","white","no","yes","576","legacy","12","12","3","/Users/georgia/Desktop/subject-5202138.csv","legacy","Lentiform Loewenfeld","3.3.7","yes","yes","600bd7cfb6416f0113b04181","602110864497cf011d9c0822","0","f","NA","space","j","j","NA","f","548","NA","2307","18696","9009","NA","548","2","legacy","1024","2","48000","-16","task","5202138","even","NA","48190","52500","50193","74186","13114","41399","32387","74688","NA","74183","74689","74144","52500","75237","46832","73644","12860","70954","Lexical Decision Task","16","10819","17","yes","1024"
"3.705778213","0","6","stin","non-word","94.44444444444444","94.44444444444444","632.3888888888889","632.3888888888889","black","no","legacy","legacy","legacy","0","uniform","1","undefined","undefined","undefined","1","f","0","0","0","0","17","0","0","0","17","NA","13","17","13","0","13","3","17","0","17","Fri Feb 19 11:16:26 2021","The main experiment item","yes","Lexical_Decision_Task.osexp","/Users/georgia/Desktop","no","Andale Mono","no","18","no","white","no","yes","576","legacy","13","13","3","/Users/georgia/Desktop/subject-5202138.csv","legacy","Lentiform Loewenfeld","3.3.7","yes","yes","600bd7cfb6416f0113b04181","602110864497cf011d9c0822","0","f","NA","space","j","j","NA","f","564","NA","2307","18696","9009","NA","564","2","legacy","1024","2","48000","-16","task","5202138","even","NA","48190","52500","50193","75789","13114","41399","32387","76291","NA","75785","76292","75747","52500","76857","46832","75247","12860","70954","Lexical Decision Task","17","11383","18","yes","1024"
"3.153104174","10.89","6","door","word","94.73684210526316","94.73684210526316","627.3684210526316","627.3684210526316","black","no","legacy","legacy","legacy","0","uniform","1","undefined","undefined","undefined","1","j","0","0","0","0","18","0","0","0","18","NA","14","18","14","0","14","3","18","0","18","Fri Feb 19 11:16:26 2021","The main experiment item","yes","Lexical_Decision_Task.osexp","/Users/georgia/Desktop","no","Andale Mono","no","18","no","white","no","yes","576","legacy","14","14","3","/Users/georgia/Desktop/subject-5202138.csv","legacy","Lentiform Loewenfeld","3.3.7","yes","yes","600bd7cfb6416f0113b04181","602110864497cf011d9c0822","0","j","NA","space","j","j","NA","j","537","NA","2307","18696","9009","NA","537","2","legacy","1024","2","48000","-16","task","5202138","even","NA","48190","52500","50193","77402","13114","41399","32387","77905","NA","77399","77906","77361","52500","78443","46832","76861","12860","70954","Lexical Decision Task","18","11920","19","yes","1024"
"2.728085817","10.02","9","bike","word","95","95","617.85","617.85","black","no","legacy","legacy","legacy","0","uniform","1","undefined","undefined","undefined","1","j","0","0","0","0","19","0","0","0","19","NA","15","19","15","0","15","3","19","0","19","Fri Feb 19 11:16:26 2021","The main experiment item","yes","Lexical_Decision_Task.osexp","/Users/georgia/Desktop","no","Andale Mono","no","18","no","white","no","yes","576","legacy","15","15","3","/Users/georgia/Desktop/subject-5202138.csv","legacy","Lentiform Loewenfeld","3.3.7","yes","yes","600bd7cfb6416f0113b04181","602110864497cf011d9c0822","0","j","NA","space","j","j","NA","j","437","NA","2307","18696","9009","NA","437","2","legacy","1024","2","48000","-16","task","5202138","even","NA","48190","52500","50193","79011","13114","41399","32387","79513","NA","79007","79513","78968","52500","79951","46832","78468","12860","70954","Lexical Decision Task","19","12357","20","yes","1024"
"2.972819734","0","4","scew","non-word","90.47619047619048","90.47619047619048","614.5714285714286","614.5714285714286","black","no","legacy","legacy","legacy","0","uniform","0","undefined","undefined","undefined","0","f","0","0","0","0","20","0","0","0","20","NA","16","20","16","0","16","3","20","0","20","Fri Feb 19 11:16:26 2021","The main experiment item","yes","Lexical_Decision_Task.osexp","/Users/georgia/Desktop","no","Andale Mono","no","18","no","white","no","yes","576","legacy","16","16","3","/Users/georgia/Desktop/subject-5202138.csv","legacy","Lentiform Loewenfeld","3.3.7","yes","yes","600bd7cfb6416f0113b04181","602110864497cf011d9c0822","0","j","NA","space","j","j","NA","j","549","NA","2307","18696","9009","NA","549","2","legacy","1024","2","48000","-16","task","5202138","even","NA","48190","52500","50193","80497","13114","41399","32387","80999","NA","80494","80999","80455","52500","81548","46832","79955","12860","70954","Lexical Decision Task","19","12906","21","yes","1024"
"3.149629599","0","2","cleb","non-word","90.9090909090909","90.9090909090909","630.3181818181819","630.3181818181819","black","no","legacy","legacy","legacy","0","uniform","1","undefined","undefined","undefined","1","f","0","0","0","0","21","0","0","0","21","NA","17","21","17","0","17","3","21","0","21","Fri Feb 19 11:16:26 2021","The main experiment item","yes","Lexical_Decision_Task.osexp","/Users/georgia/Desktop","no","Andale Mono","no","18","no","white","no","yes","576","legacy","17","17","3","/Users/georgia/Desktop/subject-5202138.csv","legacy","Lentiform Loewenfeld","3.3.7","yes","yes","600bd7cfb6416f0113b04181","602110864497cf011d9c0822","0","f","NA","space","j","j","NA","f","961","NA","2307","18696","9009","NA","961","2","legacy","1024","2","48000","-16","task","5202138","even","NA","48190","52500","50193","83100","13114","41399","32387","83602","NA","83096","83602","83058","52500","84564","46832","79955","12860","81558","Lexical Decision Task","20","13867","22","yes","1024"
"2.897810299","0","5","glur","non-word","91.30434782608695","91.30434782608695","633.5652173913044","633.5652173913044","black","no","legacy","legacy","legacy","0","uniform","1","undefined","undefined","undefined","1","f","0","0","0","0","22","0","0","0","22","NA","18","22","18","0","18","3","22","0","22","Fri Feb 19 11:16:26 2021","The main experiment item","yes","Lexical_Decision_Task.osexp","/Users/georgia/Desktop","no","Andale Mono","no","18","no","white","no","yes","576","legacy","18","18","3","/Users/georgia/Desktop/subject-5202138.csv","legacy","Lentiform Loewenfeld","3.3.7","yes","yes","600bd7cfb6416f0113b04181","602110864497cf011d9c0822","0","f","NA","space","j","j","NA","f","705","NA","2307","18696","9009","NA","705","2","legacy","1024","2","48000","-16","task","5202138","even","NA","48190","52500","50193","85110","13114","41399","32387","85612","NA","85107","85613","85068","52500","86318","46832","84568","12860","81558","Lexical Decision Task","21","14572","23","yes","1024"
"3.274157849","0","8","leet","non-word","91.66666666666667","91.66666666666667","631.9166666666666","631.9166666666666","black","no","legacy","legacy","legacy","0","uniform","1","undefined","undefined","undefined","1","f","0","0","0","0","23","0","0","0","23","NA","19","23","19","0","19","3","23","0","23","Fri Feb 19 11:16:26 2021","The main experiment item","yes","Lexical_Decision_Task.osexp","/Users/georgia/Desktop","no","Andale Mono","no","18","no","white","no","yes","576","legacy","19","19","3","/Users/georgia/Desktop/subject-5202138.csv","legacy","Lentiform Loewenfeld","3.3.7","yes","yes","600bd7cfb6416f0113b04181","602110864497cf011d9c0822","0","f","NA","space","j","j","NA","f","594","NA","2307","18696","9009","NA","594","2","legacy","1024","2","48000","-16","task","5202138","even","NA","48190","52500","50193","86863","13114","41399","32387","87367","NA","86860","87367","86822","52500","87961","46832","86322","12860","81558","Lexical Decision Task","22","15166","24","yes","1024"
"2.69019608","9.01","2","myth","word","92","92","636.2","636.2","black","no","legacy","legacy","legacy","0","uniform","1","undefined","undefined","undefined","1","j","0","0","0","0","24","0","0","0","24","NA","20","24","20","0","20","3","24","0","24","Fri Feb 19 11:16:26 2021","The main experiment item","yes","Lexical_Decision_Task.osexp","/Users/georgia/Desktop","no","Andale Mono","no","18","no","white","no","yes","576","legacy","20","20","3","/Users/georgia/Desktop/subject-5202138.csv","legacy","Lentiform Loewenfeld","3.3.7","yes","yes","600bd7cfb6416f0113b04181","602110864497cf011d9c0822","0","j","NA","space","j","j","NA","j","739","NA","2307","18696","9009","NA","739","2","legacy","1024","2","48000","-16","task","5202138","even","NA","48190","52500","50193","88507","13114","41399","32387","89010","NA","88505","89010","88465","52500","89750","46832","87965","12860","81558","Lexical Decision Task","23","15905","25","yes","1024"
"3.121778632","0","9","sark","non-word","92.3076923076923","92.3076923076923","634.1153846153846","634.1153846153846","black","no","legacy","legacy","legacy","0","uniform","1","undefined","undefined","undefined","1","f","0","0","0","0","25","0","0","0","25","NA","21","25","21","0","21","3","25","0","25","Fri Feb 19 11:16:26 2021","The main experiment item","yes","Lexical_Decision_Task.osexp","/Users/georgia/Desktop","no","Andale Mono","no","18","no","white","no","yes","576","legacy","21","21","3","/Users/georgia/Desktop/subject-5202138.csv","legacy","Lentiform Loewenfeld","3.3.7","yes","yes","600bd7cfb6416f0113b04181","602110864497cf011d9c0822","0","f","NA","space","j","j","NA","f","582","NA","2307","18696","9009","NA","582","2","legacy","1024","2","48000","-16","task","5202138","even","NA","48190","52500","50193","90296","13114","41399","32387","90798","NA","90292","90798","90254","52500","91381","46832","89754","12860","81558","Lexical Decision Task","24","16487","26","yes","1024"
"3.195807436","0","6","stup","non-word","92.5925925925926","92.5925925925926","633.4444444444445","633.4444444444445","black","no","legacy","legacy","legacy","0","uniform","1","undefined","undefined","undefined","1","f","0","0","0","0","26","0","0","0","26","NA","22","26","22","0","22","3","26","0","26","Fri Feb 19 11:16:26 2021","The main experiment item","yes","Lexical_Decision_Task.osexp","/Users/georgia/Desktop","no","Andale Mono","no","18","no","white","no","yes","576","legacy","22","22","3","/Users/georgia/Desktop/subject-5202138.csv","legacy","Lentiform Loewenfeld","3.3.7","yes","yes","600bd7cfb6416f0113b04181","602110864497cf011d9c0822","0","f","NA","space","j","j","NA","f","616","NA","2307","18696","9009","NA","616","2","legacy","1024","2","48000","-16","task","5202138","even","NA","48190","52500","50193","91927","13114","41399","32387","92430","NA","91924","92430","91885","52500","93046","46832","91385","12860","81558","Lexical Decision Task","25","17103","27","yes","1024"
"3.028977705","0","7","frow","non-word","89.28571428571429","89.28571428571429","634.8214285714286","634.8214285714286","black","no","legacy","legacy","legacy","0","uniform","0","undefined","undefined","undefined","0","f","0","0","0","0","27","0","0","0","27","NA","23","27","23","0","23","3","27","0","27","Fri Feb 19 11:16:26 2021","The main experiment item","yes","Lexical_Decision_Task.osexp","/Users/georgia/Desktop","no","Andale Mono","no","18","no","white","no","yes","576","legacy","23","23","3","/Users/georgia/Desktop/subject-5202138.csv","legacy","Lentiform Loewenfeld","3.3.7","yes","yes","600bd7cfb6416f0113b04181","602110864497cf011d9c0822","0","j","NA","space","j","j","NA","j","672","NA","2307","18696","9009","NA","672","2","legacy","1024","2","48000","-16","task","5202138","even","NA","48190","52500","50193","93593","13114","41399","32387","94095","NA","93590","94095","93551","52500","94767","46832","93050","12860","81558","Lexical Decision Task","25","17775","28","yes","1024"
"3.090140555","5.81","8","pout","word","89.65517241379311","89.65517241379311","640.4137931034483","640.4137931034483","black","no","legacy","legacy","legacy","0","uniform","1","undefined","undefined","undefined","1","j","0","0","0","0","28","0","0","0","28","NA","24","28","24","0","24","3","28","0","28","Fri Feb 19 11:16:26 2021","The main experiment item","yes","Lexical_Decision_Task.osexp","/Users/georgia/Desktop","no","Andale Mono","no","18","no","white","no","yes","576","legacy","24","24","3","/Users/georgia/Desktop/subject-5202138.csv","legacy","Lentiform Loewenfeld","3.3.7","yes","yes","600bd7cfb6416f0113b04181","602110864497cf011d9c0822","0","j","NA","space","j","j","NA","j","797","NA","2307","18696","9009","NA","797","2","legacy","1024","2","48000","-16","task","5202138","even","NA","48190","52500","50193","96313","13114","41399","32387","96815","NA","96310","96816","96272","52500","97614","46832","93050","12860","94772","Lexical Decision Task","26","18572","29","yes","1024"
"2.95456409","0","4","taud","non-word","90","90","638.8333333333334","638.8333333333334","black","no","legacy","legacy","legacy","0","uniform","1","undefined","undefined","undefined","1","f","0","0","0","0","29","0","0","0","29","NA","25","29","25","0","25","3","29","0","29","Fri Feb 19 11:16:26 2021","The main experiment item","yes","Lexical_Decision_Task.osexp","/Users/georgia/Desktop","no","Andale Mono","no","18","no","white","no","yes","576","legacy","25","25","3","/Users/georgia/Desktop/subject-5202138.csv","legacy","Lentiform Loewenfeld","3.3.7","yes","yes","600bd7cfb6416f0113b04181","602110864497cf011d9c0822","0","f","NA","space","j","j","NA","f","593","NA","2307","18696","9009","NA","593","2","legacy","1024","2","48000","-16","task","5202138","even","NA","48190","52500","50193","98172","13114","41399","32387","98674","NA","98169","98674","98131","52500","99268","46832","97631","12860","94772","Lexical Decision Task","27","19165","30","yes","1024"
"3.460446784","0","5","dess","non-word","90.3225806451613","90.3225806451613","645.0645161290323","645.0645161290323","black","no","legacy","legacy","legacy","0","uniform","1","undefined","undefined","undefined","1","f","0","0","0","0","30","0","0","0","30","NA","26","30","26","0","26","3","30","0","30","Fri Feb 19 11:16:26 2021","The main experiment item","yes","Lexical_Decision_Task.osexp","/Users/georgia/Desktop","no","Andale Mono","no","18","no","white","no","yes","576","legacy","26","26","3","/Users/georgia/Desktop/subject-5202138.csv","legacy","Lentiform Loewenfeld","3.3.7","yes","yes","600bd7cfb6416f0113b04181","602110864497cf011d9c0822","0","f","NA","space","j","j","NA","f","832","NA","2307","18696","9009","NA","832","2","legacy","1024","2","48000","-16","task","5202138","even","NA","48190","52500","50193","99812","13114","41399","32387","100314","NA","99809","100314","99771","52500","101146","46832","99271","12860","94772","Lexical Decision Task","28","19997","31","yes","1024"
"3.088136089","8.32","9","worm","word","90.625","90.625","643.15625","643.15625","black","no","legacy","legacy","legacy","0","uniform","1","undefined","undefined","undefined","1","j","0","0","0","0","31","0","0","0","31","NA","27","31","27","0","27","3","31","0","31","Fri Feb 19 11:16:26 2021","The main experiment item","yes","Lexical_Decision_Task.osexp","/Users/georgia/Desktop","no","Andale Mono","no","18","no","white","no","yes","576","legacy","27","27","3","/Users/georgia/Desktop/subject-5202138.csv","legacy","Lentiform Loewenfeld","3.3.7","yes","yes","600bd7cfb6416f0113b04181","602110864497cf011d9c0822","0","j","NA","space","j","j","NA","j","584","NA","2307","18696","9009","NA","584","2","legacy","1024","2","48000","-16","task","5202138","even","NA","48190","52500","50193","101691","13114","41399","32387","102193","NA","101688","102193","101650","52500","102778","46832","101150","12860","94772","Lexical Decision Task","29","20581","32","yes","1024"
"2.7084209","0","8","vump","non-word","90.9090909090909","90.9090909090909","642.939393939394","642.939393939394","black","no","legacy","legacy","legacy","0","uniform","1","undefined","undefined","undefined","1","f","0","0","0","0","32","0","0","0","32","NA","28","32","28","0","28","3","32","0","32","Fri Feb 19 11:16:26 2021","The main experiment item","yes","Lexical_Decision_Task.osexp","/Users/georgia/Desktop","no","Andale Mono","no","18","no","white","no","yes","576","legacy","28","28","3","/Users/georgia/Desktop/subject-5202138.csv","legacy","Lentiform Loewenfeld","3.3.7","yes","yes","600bd7cfb6416f0113b04181","602110864497cf011d9c0822","0","f","NA","space","j","j","NA","f","636","NA","2307","18696","9009","NA","636","2","legacy","1024","2","48000","-16","task","5202138","even","NA","48190","52500","50193","103325","13114","41399","32387","103828","NA","103322","103828","103284","52500","104465","46832","102784","12860","94772","Lexical Decision Task","30","21217","33","yes","1024"
"2.709837904","6.85","8","skim","word","88.23529411764706","88.23529411764706","649.4411764705883","649.4411764705883","black","no","legacy","legacy","legacy","0","uniform","0","undefined","undefined","undefined","0","j","0","0","0","0","33","0","0","0","33","NA","29","33","29","0","29","3","33","0","33","Fri Feb 19 11:16:26 2021","The main experiment item","yes","Lexical_Decision_Task.osexp","/Users/georgia/Desktop","no","Andale Mono","no","18","no","white","no","yes","576","legacy","29","29","3","/Users/georgia/Desktop/subject-5202138.csv","legacy","Lentiform Loewenfeld","3.3.7","yes","yes","600bd7cfb6416f0113b04181","602110864497cf011d9c0822","0","f","NA","space","j","j","NA","f","864","NA","2307","18696","9009","NA","864","2","legacy","1024","2","48000","-16","task","5202138","even","NA","48190","52500","50193","105011","13114","41399","32387","105513","NA","105007","105513","104969","52500","106378","46832","104469","12860","94772","Lexical Decision Task","30","22081","34","yes","1024"
"2.839898939","8.99","6","soap","word","88.57142857142857","88.57142857142857","646.8857142857142","646.8857142857142","black","no","legacy","legacy","legacy","0","uniform","1","undefined","undefined","undefined","1","j","0","0","0","0","34","0","0","0","34","NA","30","34","30","0","30","3","34","0","34","Fri Feb 19 11:16:26 2021","The main experiment item","yes","Lexical_Decision_Task.osexp","/Users/georgia/Desktop","no","Andale Mono","no","18","no","white","no","yes","576","legacy","30","30","3","/Users/georgia/Desktop/subject-5202138.csv","legacy","Lentiform Loewenfeld","3.3.7","yes","yes","600bd7cfb6416f0113b04181","602110864497cf011d9c0822","0","j","NA","space","j","j","NA","j","560","NA","2307","18696","9009","NA","560","2","legacy","1024","2","48000","-16","task","5202138","even","NA","48190","52500","50193","107924","13114","41399","32387","108426","NA","107920","108427","107882","52500","108988","46832","104469","12860","106382","Lexical Decision Task","31","22641","35","yes","1024"
"2.813801082","5.47","7","nook","word","88.88888888888889","88.88888888888889","647.9166666666666","647.9166666666666","black","no","legacy","legacy","legacy","0","uniform","1","undefined","undefined","undefined","1","j","0","0","0","0","35","0","0","0","35","NA","31","35","31","0","31","3","35","0","35","Fri Feb 19 11:16:26 2021","The main experiment item","yes","Lexical_Decision_Task.osexp","/Users/georgia/Desktop","no","Andale Mono","no","18","no","white","no","yes","576","legacy","31","31","3","/Users/georgia/Desktop/subject-5202138.csv","legacy","Lentiform Loewenfeld","3.3.7","yes","yes","600bd7cfb6416f0113b04181","602110864497cf011d9c0822","0","j","NA","space","j","j","NA","j","684","NA","2307","18696","9009","NA","684","2","legacy","1024","2","48000","-16","task","5202138","even","NA","48190","52500","50193","109534","13114","41399","32387","110036","NA","109531","110036","109493","52500","110720","46832","108992","12860","106382","Lexical Decision Task","32","23325","36","yes","1024"
"2.698100546","0","9","mulk","non-word","89.1891891891892","89.1891891891892","647.4054054054054","647.4054054054054","black","no","legacy","legacy","legacy","0","uniform","1","undefined","undefined","undefined","1","f","0","0","0","0","36","0","0","0","36","NA","32","36","32","0","32","3","36","0","36","Fri Feb 19 11:16:26 2021","The main experiment item","yes","Lexical_Decision_Task.osexp","/Users/georgia/Desktop","no","Andale Mono","no","18","no","white","no","yes","576","legacy","32","32","3","/Users/georgia/Desktop/subject-5202138.csv","legacy","Lentiform Loewenfeld","3.3.7","yes","yes","600bd7cfb6416f0113b04181","602110864497cf011d9c0822","0","f","NA","space","j","j","NA","f","629","NA","2307","18696","9009","NA","629","2","legacy","1024","2","48000","-16","task","5202138","even","NA","48190","52500","50193","111265","13114","41399","32387","111767","NA","111262","111767","111224","52500","112396","46832","110724","12860","106382","Lexical Decision Task","33","23954","37","yes","1024"
"3.353210739","0","9","reet","non-word","89.47368421052632","89.47368421052632","652.8157894736842","652.8157894736842","black","no","legacy","legacy","legacy","0","uniform","1","undefined","undefined","undefined","1","f","0","0","0","0","37","0","0","0","37","NA","33","37","33","0","33","3","37","0","37","Fri Feb 19 11:16:26 2021","The main experiment item","yes","Lexical_Decision_Task.osexp","/Users/georgia/Desktop","no","Andale Mono","no","18","no","white","no","yes","576","legacy","33","33","3","/Users/georgia/Desktop/subject-5202138.csv","legacy","Lentiform Loewenfeld","3.3.7","yes","yes","600bd7cfb6416f0113b04181","602110864497cf011d9c0822","0","f","NA","space","j","j","NA","f","853","NA","2307","18696","9009","NA","853","2","legacy","1024","2","48000","-16","task","5202138","even","NA","48190","52500","50193","112941","13114","41399","32387","113444","NA","112938","113444","112900","52500","114298","46832","112400","12860","106382","Lexical Decision Task","34","24807","38","yes","1024"
"3.119255889","6.63","2","itch","word","89.74358974358974","89.74358974358974","653.025641025641","653.025641025641","black","no","legacy","legacy","legacy","0","uniform","1","undefined","undefined","undefined","1","j","0","0","0","0","38","0","0","0","38","NA","34","38","34","0","34","3","38","0","38","Fri Feb 19 11:16:26 2021","The main experiment item","yes","Lexical_Decision_Task.osexp","/Users/georgia/Desktop","no","Andale Mono","no","18","no","white","no","yes","576","legacy","34","34","3","/Users/georgia/Desktop/subject-5202138.csv","legacy","Lentiform Loewenfeld","3.3.7","yes","yes","600bd7cfb6416f0113b04181","602110864497cf011d9c0822","0","j","NA","space","j","j","NA","j","661","NA","2307","18696","9009","NA","661","2","legacy","1024","2","48000","-16","task","5202138","even","NA","48190","52500","50193","114843","13114","41399","32387","115345","NA","114840","115346","114802","52500","116008","46832","114302","12860","106382","Lexical Decision Task","35","25468","39","yes","1024"
"2.668385917","5.48","4","twig","word","90","90","654.1","654.1","black","no","legacy","legacy","legacy","0","uniform","1","undefined","undefined","undefined","1","j","0","0","0","0","39","0","0","0","39","NA","35","39","35","0","35","3","39","0","39","Fri Feb 19 11:16:26 2021","The main experiment item","yes","Lexical_Decision_Task.osexp","/Users/georgia/Desktop","no","Andale Mono","no","18","no","white","no","yes","576","legacy","35","35","3","/Users/georgia/Desktop/subject-5202138.csv","legacy","Lentiform Loewenfeld","3.3.7","yes","yes","600bd7cfb6416f0113b04181","602110864497cf011d9c0822","0","j","NA","space","j","j","NA","j","696","NA","2307","18696","9009","NA","696","2","legacy","1024","2","48000","-16","task","5202138","even","NA","48190","52500","50193","116553","13114","41399","32387","117055","NA","116550","117055","116512","52500","117752","46832","116012","12860","106382","Lexical Decision Task","36","26164","40","yes","1024"
"2.767650507","0","6","yolt","non-word","90.2439024390244","90.2439024390244","675.7073170731708","675.7073170731708","black","no","legacy","legacy","legacy","0","uniform","1","undefined","undefined","undefined","1","f","0","0","0","0","40","0","0","0","40","NA","36","40","36","0","36","3","40","0","40","Fri Feb 19 11:16:26 2021","The main experiment item","yes","Lexical_Decision_Task.osexp","/Users/georgia/Desktop","no","Andale Mono","no","18","no","white","no","yes","576","legacy","36","36","3","/Users/georgia/Desktop/subject-5202138.csv","legacy","Lentiform Loewenfeld","3.3.7","yes","yes","600bd7cfb6416f0113b04181","602110864497cf011d9c0822","0","f","NA","space","j","j","NA","f","1540","NA","2307","18696","9009","NA","1540","2","legacy","1024","2","48000","-16","task","5202138","even","NA","48190","52500","50193","118296","13114","41399","32387","118798","NA","118293","118799","118255","52500","120339","46832","117755","12860","106382","Lexical Decision Task","37","27704","41","yes","1024"
"2.675164031","8.57","6","glue","word","90.47619047619048","90.47619047619048","671.3809523809524","671.3809523809524","black","no","legacy","legacy","legacy","0","uniform","1","undefined","undefined","undefined","1","j","0","0","0","0","41","0","0","0","41","NA","37","41","37","0","37","3","41","0","41","Fri Feb 19 11:16:26 2021","The main experiment item","yes","Lexical_Decision_Task.osexp","/Users/georgia/Desktop","no","Andale Mono","no","18","no","white","no","yes","576","legacy","37","37","3","/Users/georgia/Desktop/subject-5202138.csv","legacy","Lentiform Loewenfeld","3.3.7","yes","yes","600bd7cfb6416f0113b04181","602110864497cf011d9c0822","0","j","NA","space","j","j","NA","j","494","NA","2307","18696","9009","NA","494","2","legacy","1024","2","48000","-16","task","5202138","even","NA","48190","52500","50193","120884","13114","41399","32387","121386","NA","120881","121386","120843","52500","121881","46832","120343","12860","106382","Lexical Decision Task","38","28198","42","yes","1024"
"3.218535505","7.85","7","goat","word","90.69767441860465","90.69767441860465","668.2790697674419","668.2790697674419","black","no","legacy","legacy","legacy","0","uniform","1","undefined","undefined","undefined","1","j","0","0","0","0","42","0","0","0","42","NA","38","42","38","0","38","3","42","0","42","Fri Feb 19 11:16:26 2021","The main experiment item","yes","Lexical_Decision_Task.osexp","/Users/georgia/Desktop","no","Andale Mono","no","18","no","white","no","yes","576","legacy","38","38","3","/Users/georgia/Desktop/subject-5202138.csv","legacy","Lentiform Loewenfeld","3.3.7","yes","yes","600bd7cfb6416f0113b04181","602110864497cf011d9c0822","0","j","NA","space","j","j","NA","j","538","NA","2307","18696","9009","NA","538","2","legacy","1024","2","48000","-16","task","5202138","even","NA","48190","52500","50193","122425","13114","41399","32387","122927","NA","122422","122928","122384","52500","123467","46832","121884","12860","106382","Lexical Decision Task","39","28736","43","yes","1024"
"3.132473155","0","4","glim","non-word","90.9090909090909","90.9090909090909","682.2045454545455","682.2045454545455","black","no","legacy","legacy","legacy","0","uniform","1","undefined","undefined","undefined","1","f","0","0","0","0","43","0","0","0","43","NA","39","43","39","0","39","3","43","0","43","Fri Feb 19 11:16:26 2021","The main experiment item","yes","Lexical_Decision_Task.osexp","/Users/georgia/Desktop","no","Andale Mono","no","18","no","white","no","yes","576","legacy","39","39","3","/Users/georgia/Desktop/subject-5202138.csv","legacy","Lentiform Loewenfeld","3.3.7","yes","yes","600bd7cfb6416f0113b04181","602110864497cf011d9c0822","0","f","NA","space","j","j","NA","f","1281","NA","2307","18696","9009","NA","1281","2","legacy","1024","2","48000","-16","task","5202138","even","NA","48190","52500","50193","124067","13114","41399","32387","124570","NA","124065","124570","124026","52500","125852","46832","123526","12860","106382","Lexical Decision Task","40","30017","44","yes","1024"
"2.979548375","8.71","4","soup","word","91.11111111111111","91.11111111111111","681.7333333333333","681.7333333333333","black","no","legacy","legacy","legacy","0","uniform","1","undefined","undefined","undefined","1","j","0","0","0","0","44","0","0","0","44","NA","40","44","40","0","40","3","44","0","44","Fri Feb 19 11:16:26 2021","The main experiment item","yes","Lexical_Decision_Task.osexp","/Users/georgia/Desktop","no","Andale Mono","no","18","no","white","no","yes","576","legacy","40","40","3","/Users/georgia/Desktop/subject-5202138.csv","legacy","Lentiform Loewenfeld","3.3.7","yes","yes","600bd7cfb6416f0113b04181","602110864497cf011d9c0822","0","j","NA","space","j","j","NA","j","661","NA","2307","18696","9009","NA","661","2","legacy","1024","2","48000","-16","task","5202138","even","NA","48190","52500","50193","126397","13114","41399","32387","126899","NA","126394","126900","126356","52500","127562","46832","125856","12860","106382","Lexical Decision Task","41","30678","45","yes","1024"
"2.6599162","0","6","flug","non-word","91.30434782608695","91.30434782608695","683.0434782608696","683.0434782608696","black","no","legacy","legacy","legacy","0","uniform","1","undefined","undefined","undefined","1","f","0","0","0","0","45","0","0","0","45","NA","41","45","41","0","41","3","45","0","45","Fri Feb 19 11:16:26 2021","The main experiment item","yes","Lexical_Decision_Task.osexp","/Users/georgia/Desktop","no","Andale Mono","no","18","no","white","no","yes","576","legacy","41","41","3","/Users/georgia/Desktop/subject-5202138.csv","legacy","Lentiform Loewenfeld","3.3.7","yes","yes","600bd7cfb6416f0113b04181","602110864497cf011d9c0822","0","f","NA","space","j","j","NA","f","742","NA","2307","18696","9009","NA","742","2","legacy","1024","2","48000","-16","task","5202138","even","NA","48190","52500","50193","128117","13114","41399","32387","128619","NA","128113","128619","128075","52500","129362","46832","127575","12860","106382","Lexical Decision Task","42","31420","46","yes","1024"
"3.16326079","0","5","parg","non-word","91.48936170212765","91.48936170212765","680.1914893617021","680.1914893617021","black","no","legacy","legacy","legacy","0","uniform","1","undefined","undefined","undefined","1","f","0","0","0","0","46","0","0","0","46","NA","42","46","42","0","42","3","46","0","46","Fri Feb 19 11:16:26 2021","The main experiment item","yes","Lexical_Decision_Task.osexp","/Users/georgia/Desktop","no","Andale Mono","no","18","no","white","no","yes","576","legacy","42","42","3","/Users/georgia/Desktop/subject-5202138.csv","legacy","Lentiform Loewenfeld","3.3.7","yes","yes","600bd7cfb6416f0113b04181","602110864497cf011d9c0822","0","f","NA","space","j","j","NA","f","549","NA","2307","18696","9009","NA","549","2","legacy","1024","2","48000","-16","task","5202138","even","NA","48190","52500","50193","129907","13114","41399","32387","130410","NA","129904","130410","129866","52500","130959","46832","129366","12860","106382","Lexical Decision Task","43","31969","47","yes","1024"
"2.784379519","0","2","snaf","non-word","91.66666666666667","91.66666666666667","699.9375","699.9375","black","no","legacy","legacy","legacy","0","uniform","1","undefined","undefined","undefined","1","f","0","0","0","0","47","0","0","0","47","NA","43","47","43","0","43","3","47","0","47","Fri Feb 19 11:16:26 2021","The main experiment item","yes","Lexical_Decision_Task.osexp","/Users/georgia/Desktop","no","Andale Mono","no","18","no","white","no","yes","576","legacy","43","43","3","/Users/georgia/Desktop/subject-5202138.csv","legacy","Lentiform Loewenfeld","3.3.7","yes","yes","600bd7cfb6416f0113b04181","602110864497cf011d9c0822","0","f","NA","space","j","j","NA","f","1628","NA","2307","18696","9009","NA","1628","2","legacy","1024","2","48000","-16","task","5202138","even","NA","48190","52500","50193","131506","13114","41399","32387","132008","NA","131502","132008","131464","52500","133637","46832","130964","12860","106382","Lexical Decision Task","44","33597","48","yes","1024"
"2.705007959","6.01","4","wept","word","89.79591836734694","89.79591836734694","695.7142857142857","695.7142857142857","black","no","legacy","legacy","legacy","0","uniform","0","undefined","undefined","undefined","0","j","0","0","0","0","48","0","0","0","48","NA","44","48","44","0","44","3","48","0","48","Fri Feb 19 11:16:26 2021","The main experiment item","yes","Lexical_Decision_Task.osexp","/Users/georgia/Desktop","no","Andale Mono","no","18","no","white","no","yes","576","legacy","44","44","3","/Users/georgia/Desktop/subject-5202138.csv","legacy","Lentiform Loewenfeld","3.3.7","yes","yes","600bd7cfb6416f0113b04181","602110864497cf011d9c0822","0","f","NA","space","j","j","NA","f","493","NA","2307","18696","9009","NA","493","2","legacy","1024","2","48000","-16","task","5202138","even","NA","48190","52500","50193","134182","13114","41399","32387","134684","NA","134179","134685","134141","52500","135179","46832","133641","12860","106382","Lexical Decision Task","44","34090","49","yes","1024"
"3.077974404","10.41","8","tool","word","90","90","693.94","693.94","black","no","legacy","legacy","legacy","0","uniform","1","undefined","undefined","undefined","1","j","0","0","0","0","49","0","0","0","49","NA","45","49","45","0","45","3","49","0","49","Fri Feb 19 11:16:26 2021","The main experiment item","yes","Lexical_Decision_Task.osexp","/Users/georgia/Desktop","no","Andale Mono","no","18","no","white","no","yes","576","legacy","45","45","3","/Users/georgia/Desktop/subject-5202138.csv","legacy","Lentiform Loewenfeld","3.3.7","yes","yes","600bd7cfb6416f0113b04181","602110864497cf011d9c0822","0","j","NA","space","j","j","NA","j","607","NA","2307","18696","9009","NA","607","2","legacy","1024","2","48000","-16","task","5202138","even","NA","48190","52500","50193","136724","13114","41399","32387","137226","NA","136721","137226","136683","52500","137833","46832","133641","12860","135182","Lexical Decision Task","45","34697","50","yes","1024"
"3.529815197","0","3","lerm","non-word","90.19607843137256","90.19607843137256","693.2941176470588","693.2941176470588","black","no","legacy","legacy","legacy","0","uniform","1","undefined","undefined","undefined","1","f","0","0","0","0","50","0","0","0","50","NA","46","50","46","0","46","3","50","0","50","Fri Feb 19 11:16:26 2021","The main experiment item","yes","Lexical_Decision_Task.osexp","/Users/georgia/Desktop","no","Andale Mono","no","18","no","white","no","yes","576","legacy","46","46","3","/Users/georgia/Desktop/subject-5202138.csv","legacy","Lentiform Loewenfeld","3.3.7","yes","yes","600bd7cfb6416f0113b04181","602110864497cf011d9c0822","0","f","NA","space","j","j","NA","f","661","NA","2307","18696","9009","NA","661","2","legacy","1024","2","48000","-16","task","5202138","even","NA","48190","52500","50193","138378","13114","41399","32387","138881","NA","138376","138882","138338","52500","139543","46832","137838","12860","135182","Lexical Decision Task","46","35358","51","yes","1024"
"3.168400243","9.12","6","horn","word","90.38461538461539","90.38461538461539","691.3846153846154","691.3846153846154","black","no","legacy","legacy","legacy","0","uniform","1","undefined","undefined","undefined","1","j","0","0","0","0","51","0","0","0","51","NA","47","51","47","0","47","3","51","0","51","Fri Feb 19 11:16:26 2021","The main experiment item","yes","Lexical_Decision_Task.osexp","/Users/georgia/Desktop","no","Andale Mono","no","18","no","white","no","yes","576","legacy","47","47","3","/Users/georgia/Desktop/subject-5202138.csv","legacy","Lentiform Loewenfeld","3.3.7","yes","yes","600bd7cfb6416f0113b04181","602110864497cf011d9c0822","0","j","NA","space","j","j","NA","j","594","NA","2307","18696","9009","NA","594","2","legacy","1024","2","48000","-16","task","5202138","even","NA","48190","52500","50193","140088","13114","41399","32387","140590","NA","140085","140591","140047","52500","141186","46832","139547","12860","135182","Lexical Decision Task","47","35952","52","yes","1024"
"2.972357144","0","5","dasp","non-word","90.56603773584905","90.56603773584905","692.0754716981132","692.0754716981132","black","no","legacy","legacy","legacy","0","uniform","1","undefined","undefined","undefined","1","f","0","0","0","0","52","0","0","0","52","NA","48","52","48","0","48","3","52","0","52","Fri Feb 19 11:16:26 2021","The main experiment item","yes","Lexical_Decision_Task.osexp","/Users/georgia/Desktop","no","Andale Mono","no","18","no","white","no","yes","576","legacy","48","48","3","/Users/georgia/Desktop/subject-5202138.csv","legacy","Lentiform Loewenfeld","3.3.7","yes","yes","600bd7cfb6416f0113b04181","602110864497cf011d9c0822","0","f","NA","space","j","j","NA","f","728","NA","2307","18696","9009","NA","728","2","legacy","1024","2","48000","-16","task","5202138","even","NA","48190","52500","50193","141732","13114","41399","32387","142234","NA","141729","142235","141691","52500","142963","46832","141190","12860","135182","Lexical Decision Task","48","36680","53","yes","1024"
"3.347850856","10.51","2","rich","word","90.74074074074075","90.74074074074075","687.9814814814815","687.9814814814815","black","no","legacy","legacy","legacy","0","uniform","1","undefined","undefined","undefined","1","j","0","0","0","0","53","0","0","0","53","NA","49","53","49","0","49","3","53","0","53","Fri Feb 19 11:16:26 2021","The main experiment item","yes","Lexical_Decision_Task.osexp","/Users/georgia/Desktop","no","Andale Mono","no","18","no","white","no","yes","576","legacy","49","49","3","/Users/georgia/Desktop/subject-5202138.csv","legacy","Lentiform Loewenfeld","3.3.7","yes","yes","600bd7cfb6416f0113b04181","602110864497cf011d9c0822","0","j","NA","space","j","j","NA","j","471","NA","2307","18696","9009","NA","471","2","legacy","1024","2","48000","-16","task","5202138","even","NA","48190","52500","50193","143509","13114","41399","32387","144011","NA","143505","144011","143467","52500","144482","46832","142967","12860","135182","Lexical Decision Task","49","37151","54","yes","1024"
"3.067193647","6.73","6","raft","word","90.9090909090909","90.9090909090909","684.1818181818181","684.1818181818181","black","no","legacy","legacy","legacy","0","uniform","1","undefined","undefined","undefined","1","j","0","0","0","0","54","0","0","0","54","0","50","54","50","0","50","3","54","0","54","Fri Feb 19 11:16:26 2021","The main experiment item","yes","Lexical_Decision_Task.osexp","/Users/georgia/Desktop","no","Andale Mono","no","18","no","white","no","yes","576","legacy","50","50","3","/Users/georgia/Desktop/subject-5202138.csv","legacy","Lentiform Loewenfeld","3.3.7","yes","yes","600bd7cfb6416f0113b04181","602110864497cf011d9c0822","0","j","NA","space","j","j","space","j","479","NA","2307","18696","9009","11512","479","2","legacy","1024","2","48000","-16","task","5202138","even","NA","48190","52500","50193","156561","13114","41399","32387","157064","145007","156558","157064","144986","52500","157544","46832","144486","12860","135182","Lexical Decision Task","50","37630","55","yes","1024"
"3.068433376","8.09","2","bulb","word","89.28571428571429","89.28571428571429","679.75","679.75","black","no","legacy","legacy","legacy","0","uniform","0","undefined","undefined","undefined","0","j","0","0","0","0","55","0","0","0","55","0","51","55","51","0","51","3","55","0","55","Fri Feb 19 11:16:26 2021","The main experiment item","yes","Lexical_Decision_Task.osexp","/Users/georgia/Desktop","no","Andale Mono","no","18","no","white","no","yes","576","legacy","51","51","3","/Users/georgia/Desktop/subject-5202138.csv","legacy","Lentiform Loewenfeld","3.3.7","yes","yes","600bd7cfb6416f0113b04181","602110864497cf011d9c0822","0","f","NA","space","j","j","space","f","436","NA","2307","18696","9009","11512","436","2","legacy","1024","2","48000","-16","task","5202138","even","NA","48190","52500","50193","158088","13114","41399","32387","158592","145007","158086","158592","158048","52500","159029","46832","157548","12860","135182","Lexical Decision Task","50","38066","56","yes","1024"
"3.14849993","10.75","7","hour","word","89.47368421052632","89.47368421052632","676.8421052631579","676.8421052631579","black","no","legacy","legacy","legacy","0","uniform","1","undefined","undefined","undefined","1","j","0","0","0","0","56","0","0","0","56","0","52","56","52","0","52","3","56","0","56","Fri Feb 19 11:16:26 2021","The main experiment item","yes","Lexical_Decision_Task.osexp","/Users/georgia/Desktop","no","Andale Mono","no","18","no","white","no","yes","576","legacy","52","52","3","/Users/georgia/Desktop/subject-5202138.csv","legacy","Lentiform Loewenfeld","3.3.7","yes","yes","600bd7cfb6416f0113b04181","602110864497cf011d9c0822","0","j","NA","space","j","j","space","j","514","NA","2307","18696","9009","11512","514","2","legacy","1024","2","48000","-16","task","5202138","even","NA","48190","52500","50193","160577","13114","41399","32387","161079","145007","160573","161079","160533","52500","161594","46832","157548","12860","159033","Lexical Decision Task","51","38580","57","yes","1024"
"2.842815106","7.86","8","lump","word","89.65517241379311","89.65517241379311","675.9655172413793","675.9655172413793","black","no","legacy","legacy","legacy","0","uniform","1","undefined","undefined","undefined","1","j","0","0","0","0","57","0","0","0","57","0","53","57","53","0","53","3","57","0","57","Fri Feb 19 11:16:26 2021","The main experiment item","yes","Lexical_Decision_Task.osexp","/Users/georgia/Desktop","no","Andale Mono","no","18","no","white","no","yes","576","legacy","53","53","3","/Users/georgia/Desktop/subject-5202138.csv","legacy","Lentiform Loewenfeld","3.3.7","yes","yes","600bd7cfb6416f0113b04181","602110864497cf011d9c0822","0","j","NA","space","j","j","space","j","626","NA","2307","18696","9009","11512","626","2","legacy","1024","2","48000","-16","task","5202138","even","NA","48190","52500","50193","162140","13114","41399","32387","162642","145007","162137","162643","162098","52500","163270","46832","161598","12860","159033","Lexical Decision Task","52","39206","58","yes","1024"
"2.616654026","9.37","5","gift","word","89.83050847457628","89.83050847457628","673.2372881355932","673.2372881355932","black","no","legacy","legacy","legacy","0","uniform","1","undefined","undefined","undefined","1","j","0","0","0","0","58","0","0","0","58","0","54","58","54","0","54","3","58","0","58","Fri Feb 19 11:16:26 2021","The main experiment item","yes","Lexical_Decision_Task.osexp","/Users/georgia/Desktop","no","Andale Mono","no","18","no","white","no","yes","576","legacy","54","54","3","/Users/georgia/Desktop/subject-5202138.csv","legacy","Lentiform Loewenfeld","3.3.7","yes","yes","600bd7cfb6416f0113b04181","602110864497cf011d9c0822","0","j","NA","space","j","j","space","j","515","NA","2307","18696","9009","11512","515","2","legacy","1024","2","48000","-16","task","5202138","even","NA","48190","52500","50193","163815","13114","41399","32387","164318","145007","163812","164318","163774","52500","164834","46832","163274","12860","159033","Lexical Decision Task","53","39721","59","yes","1024"
"3.2757719","0","5","slea","non-word","90","90","671.15","671.15","black","no","legacy","legacy","legacy","0","uniform","1","undefined","undefined","undefined","1","f","0","0","0","0","59","0","0","0","59","0","55","59","55","0","55","3","59","0","59","Fri Feb 19 11:16:26 2021","The main experiment item","yes","Lexical_Decision_Task.osexp","/Users/georgia/Desktop","no","Andale Mono","no","18","no","white","no","yes","576","legacy","55","55","3","/Users/georgia/Desktop/subject-5202138.csv","legacy","Lentiform Loewenfeld","3.3.7","yes","yes","600bd7cfb6416f0113b04181","602110864497cf011d9c0822","0","f","NA","space","j","j","space","f","548","NA","2307","18696","9009","11512","548","2","legacy","1024","2","48000","-16","task","5202138","even","NA","48190","52500","50193","165380","13114","41399","32387","165882","145007","165377","165883","165338","52500","166432","46832","164838","12860","159033","Lexical Decision Task","54","40269","60","yes","1024"
"3.194328374","9.42","6","harm","word","90.1639344262295","90.1639344262295","668.6065573770492","668.6065573770492","black","no","legacy","legacy","legacy","0","uniform","1","undefined","undefined","undefined","1","j","0","0","0","0","60","0","0","0","60","0","56","60","56","0","56","3","60","0","60","Fri Feb 19 11:16:26 2021","The main experiment item","yes","Lexical_Decision_Task.osexp","/Users/georgia/Desktop","no","Andale Mono","no","18","no","white","no","yes","576","legacy","56","56","3","/Users/georgia/Desktop/subject-5202138.csv","legacy","Lentiform Loewenfeld","3.3.7","yes","yes","600bd7cfb6416f0113b04181","602110864497cf011d9c0822","0","j","NA","space","j","j","space","j","516","NA","2307","18696","9009","11512","516","2","legacy","1024","2","48000","-16","task","5202138","even","NA","48190","52500","50193","166977","13114","41399","32387","167479","145007","166973","167479","166935","52500","167995","46832","166435","12860","159033","Lexical Decision Task","55","40785","61","yes","1024"
"2.873320602","0","4","lurg","non-word","90.3225806451613","90.3225806451613","667.2258064516129","667.2258064516129","black","no","legacy","legacy","legacy","0","uniform","1","undefined","undefined","undefined","1","f","0","0","0","0","61","0","0","0","61","0","57","61","57","0","57","3","61","0","61","Fri Feb 19 11:16:26 2021","The main experiment item","yes","Lexical_Decision_Task.osexp","/Users/georgia/Desktop","no","Andale Mono","no","18","no","white","no","yes","576","legacy","57","57","3","/Users/georgia/Desktop/subject-5202138.csv","legacy","Lentiform Loewenfeld","3.3.7","yes","yes","600bd7cfb6416f0113b04181","602110864497cf011d9c0822","0","f","NA","space","j","j","space","f","583","NA","2307","18696","9009","11512","583","2","legacy","1024","2","48000","-16","task","5202138","even","NA","48190","52500","50193","168540","13114","41399","32387","169042","145007","168537","169043","168499","52500","169627","46832","167999","12860","159033","Lexical Decision Task","56","41368","62","yes","1024"
"3.134602053","0","8","jart","non-word","90.47619047619048","90.47619047619048","665.5238095238095","665.5238095238095","black","no","legacy","legacy","legacy","0","uniform","1","undefined","undefined","undefined","1","f","0","0","0","0","62","0","0","0","62","0","58","62","58","0","58","3","62","0","62","Fri Feb 19 11:16:26 2021","The main experiment item","yes","Lexical_Decision_Task.osexp","/Users/georgia/Desktop","no","Andale Mono","no","18","no","white","no","yes","576","legacy","58","58","3","/Users/georgia/Desktop/subject-5202138.csv","legacy","Lentiform Loewenfeld","3.3.7","yes","yes","600bd7cfb6416f0113b04181","602110864497cf011d9c0822","0","f","NA","space","j","j","space","f","560","NA","2307","18696","9009","11512","560","2","legacy","1024","2","48000","-16","task","5202138","even","NA","48190","52500","50193","170173","13114","41399","32387","170675","145007","170170","170675","170131","52500","171235","46832","169631","12860","159033","Lexical Decision Task","57","41928","63","yes","1024"
"2.819763221","0","2","durp","non-word","90.625","90.625","664.578125","664.578125","black","no","legacy","legacy","legacy","0","uniform","1","undefined","undefined","undefined","1","f","0","0","0","0","63","0","0","0","63","0","59","63","59","0","59","3","63","0","63","Fri Feb 19 11:16:26 2021","The main experiment item","yes","Lexical_Decision_Task.osexp","/Users/georgia/Desktop","no","Andale Mono","no","18","no","white","no","yes","576","legacy","59","59","3","/Users/georgia/Desktop/subject-5202138.csv","legacy","Lentiform Loewenfeld","3.3.7","yes","yes","600bd7cfb6416f0113b04181","602110864497cf011d9c0822","0","f","NA","space","j","j","space","f","605","NA","2307","18696","9009","11512","605","2","legacy","1024","2","48000","-16","task","5202138","even","NA","48190","52500","50193","171780","13114","41399","32387","172283","145007","171777","172283","171739","52500","172889","46832","171239","12860","159033","Lexical Decision Task","58","42533","64","yes","1024"
"3.20996159","0","4","clee","non-word","89.23076923076923","89.23076923076923","664.2","664.2","black","no","legacy","legacy","legacy","0","uniform","0","undefined","undefined","undefined","0","f","0","0","0","0","64","0","0","0","64","0","60","64","60","0","60","3","64","0","64","Fri Feb 19 11:16:26 2021","The main experiment item","yes","Lexical_Decision_Task.osexp","/Users/georgia/Desktop","no","Andale Mono","no","18","no","white","no","yes","576","legacy","60","60","3","/Users/georgia/Desktop/subject-5202138.csv","legacy","Lentiform Loewenfeld","3.3.7","yes","yes","600bd7cfb6416f0113b04181","602110864497cf011d9c0822","0","j","NA","space","j","j","space","j","640","NA","2307","18696","9009","11512","640","2","legacy","1024","2","48000","-16","task","5202138","even","NA","48190","52500","50193","173434","13114","41399","32387","173936","145007","173431","173936","173393","52500","174577","46832","172893","12860","159033","Lexical Decision Task","58","43173","65","yes","1024"
"2.893578687","8.69","3","surf","word","87.87878787878788","87.87878787878788","661.6060606060606","661.6060606060606","black","no","legacy","legacy","legacy","0","uniform","0","undefined","undefined","undefined","0","j","0","0","0","0","65","0","0","0","65","0","61","65","61","0","61","3","65","0","65","Fri Feb 19 11:16:26 2021","The main experiment item","yes","Lexical_Decision_Task.osexp","/Users/georgia/Desktop","no","Andale Mono","no","18","no","white","no","yes","576","legacy","61","61","3","/Users/georgia/Desktop/subject-5202138.csv","legacy","Lentiform Loewenfeld","3.3.7","yes","yes","600bd7cfb6416f0113b04181","602110864497cf011d9c0822","0","f","NA","space","j","j","space","f","493","NA","2307","18696","9009","11512","493","2","legacy","1024","2","48000","-16","task","5202138","even","NA","48190","52500","50193","176123","13114","41399","32387","176625","145007","176120","176625","176081","52500","177119","46832","172893","12860","174581","Lexical Decision Task","58","43666","66","yes","1024"
"2.696356389","0","1","pizz","non-word","88.05970149253731","88.05970149253731","682.955223880597","682.955223880597","black","no","legacy","legacy","legacy","0","uniform","1","undefined","undefined","undefined","1","f","0","0","0","0","66","0","0","0","66","0","62","66","62","0","62","3","66","0","66","Fri Feb 19 11:16:26 2021","The main experiment item","yes","Lexical_Decision_Task.osexp","/Users/georgia/Desktop","no","Andale Mono","no","18","no","white","no","yes","576","legacy","62","62","3","/Users/georgia/Desktop/subject-5202138.csv","legacy","Lentiform Loewenfeld","3.3.7","yes","yes","600bd7cfb6416f0113b04181","602110864497cf011d9c0822","0","f","NA","space","j","j","space","f","2092","NA","2307","18696","9009","11512","2092","2","legacy","1024","2","48000","-16","task","5202138","even","NA","48190","52500","50193","178664","13114","41399","32387","179166","145007","178661","179166","178623","52500","181259","46832","172893","12860","177123","Lexical Decision Task","59","45758","67","yes","1024"
"3.316948329","0","1","besc","non-word","88.23529411764706","88.23529411764706","682.6470588235294","682.6470588235294","black","no","legacy","legacy","legacy","0","uniform","1","undefined","undefined","undefined","1","f","0","0","0","0","67","0","0","0","67","0","63","67","63","0","63","3","67","0","67","Fri Feb 19 11:16:26 2021","The main experiment item","yes","Lexical_Decision_Task.osexp","/Users/georgia/Desktop","no","Andale Mono","no","18","no","white","no","yes","576","legacy","63","63","3","/Users/georgia/Desktop/subject-5202138.csv","legacy","Lentiform Loewenfeld","3.3.7","yes","yes","600bd7cfb6416f0113b04181","602110864497cf011d9c0822","0","f","NA","space","j","j","space","f","662","NA","2307","18696","9009","11512","662","2","legacy","1024","2","48000","-16","task","5202138","even","NA","48190","52500","50193","181804","13114","41399","32387","182307","145007","181801","182307","181763","52500","182970","46832","181263","12860","177123","Lexical Decision Task","60","46420","68","yes","1024"
"2.966923697","5.4","2","fume","word","88.40579710144928","88.40579710144928","684.7826086956521","684.7826086956521","black","no","legacy","legacy","legacy","0","uniform","1","undefined","undefined","undefined","1","j","0","0","0","0","68","0","0","0","68","0","64","68","64","0","64","3","68","0","68","Fri Feb 19 11:16:26 2021","The main experiment item","yes","Lexical_Decision_Task.osexp","/Users/georgia/Desktop","no","Andale Mono","no","18","no","white","no","yes","576","legacy","64","64","3","/Users/georgia/Desktop/subject-5202138.csv","legacy","Lentiform Loewenfeld","3.3.7","yes","yes","600bd7cfb6416f0113b04181","602110864497cf011d9c0822","0","j","NA","space","j","j","space","j","830","NA","2307","18696","9009","11512","830","2","legacy","1024","2","48000","-16","task","5202138","even","NA","48190","52500","50193","183515","13114","41399","32387","184017","145007","183512","184017","183473","52500","184848","46832","182973","12860","177123","Lexical Decision Task","61","47250","69","yes","1024"
"3.076883066","0","8","mout","non-word","88.57142857142857","88.57142857142857","683.6428571428571","683.6428571428571","black","no","legacy","legacy","legacy","0","uniform","1","undefined","undefined","undefined","1","f","0","0","0","0","69","0","0","0","69","0","65","69","65","0","65","3","69","0","69","Fri Feb 19 11:16:26 2021","The main experiment item","yes","Lexical_Decision_Task.osexp","/Users/georgia/Desktop","no","Andale Mono","no","18","no","white","no","yes","576","legacy","65","65","3","/Users/georgia/Desktop/subject-5202138.csv","legacy","Lentiform Loewenfeld","3.3.7","yes","yes","600bd7cfb6416f0113b04181","602110864497cf011d9c0822","0","f","NA","space","j","j","space","f","605","NA","2307","18696","9009","11512","605","2","legacy","1024","2","48000","-16","task","5202138","even","NA","48190","52500","50193","185393","13114","41399","32387","185896","145007","185390","185896","185352","52500","186502","46832","184852","12860","177123","Lexical Decision Task","62","47855","70","yes","1024"
"2.771097306","0","9","jold","non-word","88.73239436619718","88.73239436619718","681.5492957746479","681.5492957746479","black","no","legacy","legacy","legacy","0","uniform","1","undefined","undefined","undefined","1","f","0","0","0","0","70","0","0","0","70","0","66","70","66","0","66","3","70","0","70","Fri Feb 19 11:16:26 2021","The main experiment item","yes","Lexical_Decision_Task.osexp","/Users/georgia/Desktop","no","Andale Mono","no","18","no","white","no","yes","576","legacy","66","66","3","/Users/georgia/Desktop/subject-5202138.csv","legacy","Lentiform Loewenfeld","3.3.7","yes","yes","600bd7cfb6416f0113b04181","602110864497cf011d9c0822","0","f","NA","space","j","j","space","f","535","NA","2307","18696","9009","11512","535","2","legacy","1024","2","48000","-16","task","5202138","even","NA","48190","52500","50193","187049","13114","41399","32387","187551","145007","187046","187552","187006","52500","188088","46832","186506","12860","177123","Lexical Decision Task","63","48390","71","yes","1024"
"2.6599162","0","2","saff","non-word","88.88888888888889","88.88888888888889","682.8333333333334","682.8333333333334","black","no","legacy","legacy","legacy","0","uniform","1","undefined","undefined","undefined","1","f","0","0","0","0","71","0","0","0","71","0","67","71","67","0","67","3","71","0","71","Fri Feb 19 11:16:26 2021","The main experiment item","yes","Lexical_Decision_Task.osexp","/Users/georgia/Desktop","no","Andale Mono","no","18","no","white","no","yes","576","legacy","67","67","3","/Users/georgia/Desktop/subject-5202138.csv","legacy","Lentiform Loewenfeld","3.3.7","yes","yes","600bd7cfb6416f0113b04181","602110864497cf011d9c0822","0","f","NA","space","j","j","space","f","774","NA","2307","18696","9009","11512","774","2","legacy","1024","2","48000","-16","task","5202138","even","NA","48190","52500","50193","188633","13114","41399","32387","189135","145007","188630","189136","188592","52500","189910","46832","188092","12860","177123","Lexical Decision Task","64","49164","72","yes","1024"
"2.895974732","6.65","5","sift","word","89.04109589041096","89.04109589041096","683.945205479452","683.945205479452","black","no","legacy","legacy","legacy","0","uniform","1","undefined","undefined","undefined","1","j","0","0","0","0","72","0","0","0","72","0","68","72","68","0","68","3","72","0","72","Fri Feb 19 11:16:26 2021","The main experiment item","yes","Lexical_Decision_Task.osexp","/Users/georgia/Desktop","no","Andale Mono","no","18","no","white","no","yes","576","legacy","68","68","3","/Users/georgia/Desktop/subject-5202138.csv","legacy","Lentiform Loewenfeld","3.3.7","yes","yes","600bd7cfb6416f0113b04181","602110864497cf011d9c0822","0","j","NA","space","j","j","space","j","764","NA","2307","18696","9009","11512","764","2","legacy","1024","2","48000","-16","task","5202138","even","NA","48190","52500","50193","190455","13114","41399","32387","190957","145007","190452","190957","190414","52500","191722","46832","189914","12860","177123","Lexical Decision Task","65","49928","73","yes","1024"
"3.382617311","0","4","pret","non-word","89.1891891891892","89.1891891891892","681.8108108108108","681.8108108108108","black","no","legacy","legacy","legacy","0","uniform","1","undefined","undefined","undefined","1","f","0","0","0","0","73","0","0","0","73","0","69","73","69","0","69","3","73","0","73","Fri Feb 19 11:16:26 2021","The main experiment item","yes","Lexical_Decision_Task.osexp","/Users/georgia/Desktop","no","Andale Mono","no","18","no","white","no","yes","576","legacy","69","69","3","/Users/georgia/Desktop/subject-5202138.csv","legacy","Lentiform Loewenfeld","3.3.7","yes","yes","600bd7cfb6416f0113b04181","602110864497cf011d9c0822","0","f","NA","space","j","j","space","f","526","NA","2307","18696","9009","11512","526","2","legacy","1024","2","48000","-16","task","5202138","even","NA","48190","52500","50193","192267","13114","41399","32387","192770","145007","192264","192770","192226","52500","193297","46832","191726","12860","177123","Lexical Decision Task","66","50454","74","yes","1024"
"2.576725172","0","8","gowl","non-word","89.33333333333333","89.33333333333333","679.9066666666666","679.9066666666666","black","no","legacy","legacy","legacy","0","uniform","1","undefined","undefined","undefined","1","f","0","0","0","0","74","0","0","0","74","0","70","74","70","0","70","3","74","0","74","Fri Feb 19 11:16:26 2021","The main experiment item","yes","Lexical_Decision_Task.osexp","/Users/georgia/Desktop","no","Andale Mono","no","18","no","white","no","yes","576","legacy","70","70","3","/Users/georgia/Desktop/subject-5202138.csv","legacy","Lentiform Loewenfeld","3.3.7","yes","yes","600bd7cfb6416f0113b04181","602110864497cf011d9c0822","0","f","NA","space","j","j","space","f","539","NA","2307","18696","9009","11512","539","2","legacy","1024","2","48000","-16","task","5202138","even","NA","48190","52500","50193","193842","13114","41399","32387","194344","145007","193839","194344","193801","52500","194884","46832","193301","12860","177123","Lexical Decision Task","67","50993","75","yes","1024"
"2.971428938","9.86","7","spot","word","89.47368421052632","89.47368421052632","676.8157894736842","676.8157894736842","black","no","legacy","legacy","legacy","0","uniform","1","undefined","undefined","undefined","1","j","0","0","0","0","75","0","0","0","75","0","71","75","71","0","71","3","75","0","75","Fri Feb 19 11:16:26 2021","The main experiment item","yes","Lexical_Decision_Task.osexp","/Users/georgia/Desktop","no","Andale Mono","no","18","no","white","no","yes","576","legacy","71","71","3","/Users/georgia/Desktop/subject-5202138.csv","legacy","Lentiform Loewenfeld","3.3.7","yes","yes","600bd7cfb6416f0113b04181","602110864497cf011d9c0822","0","j","NA","space","j","j","space","j","445","NA","2307","18696","9009","11512","445","2","legacy","1024","2","48000","-16","task","5202138","even","NA","48190","52500","50193","195431","13114","41399","32387","195933","145007","195427","195934","195388","52500","196380","46832","194887","12860","177123","Lexical Decision Task","68","51438","76","yes","1024"
"2.812467698","0","7","hafe","non-word","89.6103896103896","89.6103896103896","677.8051948051948","677.8051948051948","black","no","legacy","legacy","legacy","0","uniform","1","undefined","undefined","undefined","1","f","0","0","0","0","76","0","0","0","76","0","72","76","72","0","72","3","76","0","76","Fri Feb 19 11:16:26 2021","The main experiment item","yes","Lexical_Decision_Task.osexp","/Users/georgia/Desktop","no","Andale Mono","no","18","no","white","no","yes","576","legacy","72","72","3","/Users/georgia/Desktop/subject-5202138.csv","legacy","Lentiform Loewenfeld","3.3.7","yes","yes","600bd7cfb6416f0113b04181","602110864497cf011d9c0822","0","f","NA","space","j","j","space","f","753","NA","2307","18696","9009","11512","753","2","legacy","1024","2","48000","-16","task","5202138","even","NA","48190","52500","50193","196924","13114","41399","32387","197426","145007","196921","197426","196883","52500","198180","46832","196383","12860","177123","Lexical Decision Task","69","52191","77","yes","1024"
"2.884795364","0","6","flob","non-word","89.74358974358974","89.74358974358974","674.8589743589744","674.8589743589744","black","no","legacy","legacy","legacy","0","uniform","1","undefined","undefined","undefined","1","f","0","0","0","0","77","0","0","0","77","0","73","77","73","0","73","3","77","0","77","Fri Feb 19 11:16:26 2021","The main experiment item","yes","Lexical_Decision_Task.osexp","/Users/georgia/Desktop","no","Andale Mono","no","18","no","white","no","yes","576","legacy","73","73","3","/Users/georgia/Desktop/subject-5202138.csv","legacy","Lentiform Loewenfeld","3.3.7","yes","yes","600bd7cfb6416f0113b04181","602110864497cf011d9c0822","0","f","NA","space","j","j","space","f","448","NA","2307","18696","9009","11512","448","2","legacy","1024","2","48000","-16","task","5202138","even","NA","48190","52500","50193","198725","13114","41399","32387","199227","145007","198722","199227","198684","52500","199676","46832","198184","12860","177123","Lexical Decision Task","70","52639","78","yes","1024"
"2.983324025","9.56","2","debt","word","89.87341772151899","89.87341772151899","674.1139240506329","674.1139240506329","black","no","legacy","legacy","legacy","0","uniform","1","undefined","undefined","undefined","1","j","0","0","0","0","78","0","0","0","78","0","74","78","74","0","74","3","78","0","78","Fri Feb 19 11:16:26 2021","The main experiment item","yes","Lexical_Decision_Task.osexp","/Users/georgia/Desktop","no","Andale Mono","no","18","no","white","no","yes","576","legacy","74","74","3","/Users/georgia/Desktop/subject-5202138.csv","legacy","Lentiform Loewenfeld","3.3.7","yes","yes","600bd7cfb6416f0113b04181","602110864497cf011d9c0822","0","j","NA","space","j","j","space","j","616","NA","2307","18696","9009","11512","616","2","legacy","1024","2","48000","-16","task","5202138","even","NA","48190","52500","50193","200222","13114","41399","32387","200724","145007","200219","200724","200180","52500","201341","46832","199680","12860","177123","Lexical Decision Task","71","53255","79","yes","1024"
"3.082307743","9.68","8","camp","word","90","90","671.6875","671.6875","black","no","legacy","legacy","legacy","0","uniform","1","undefined","undefined","undefined","1","j","0","0","0","0","79","0","0","0","79","0","75","79","75","0","75","3","79","0","79","Fri Feb 19 11:16:26 2021","The main experiment item","yes","Lexical_Decision_Task.osexp","/Users/georgia/Desktop","no","Andale Mono","no","18","no","white","no","yes","576","legacy","75","75","3","/Users/georgia/Desktop/subject-5202138.csv","legacy","Lentiform Loewenfeld","3.3.7","yes","yes","600bd7cfb6416f0113b04181","602110864497cf011d9c0822","0","j","NA","space","j","j","space","j","480","NA","2307","18696","9009","11512","480","2","legacy","1024","2","48000","-16","task","5202138","even","NA","48190","52500","50193","201887","13114","41399","32387","202390","145007","201884","202390","201845","52500","202871","46832","201345","12860","177123","Lexical Decision Task","72","53735","80","yes","1024"
"2.696644658","5.78","2","yolk","word","90.12345679012346","90.12345679012346","671.1358024691358","671.1358024691358","black","no","legacy","legacy","legacy","0","uniform","1","undefined","undefined","undefined","1","j","0","0","0","0","80","0","0","0","80","0","76","80","76","0","76","3","80","0","80","Fri Feb 19 11:16:26 2021","The main experiment item","yes","Lexical_Decision_Task.osexp","/Users/georgia/Desktop","no","Andale Mono","no","18","no","white","no","yes","576","legacy","76","76","3","/Users/georgia/Desktop/subject-5202138.csv","legacy","Lentiform Loewenfeld","3.3.7","yes","yes","600bd7cfb6416f0113b04181","602110864497cf011d9c0822","0","j","NA","space","j","j","space","j","627","NA","2307","18696","9009","11512","627","2","legacy","1024","2","48000","-16","task","5202138","even","NA","48190","52500","50193","203417","13114","41399","32387","203919","145007","203414","203919","203375","52500","204547","46832","202875","12860","177123","Lexical Decision Task","73","54362","81","yes","1024"
"2.937852093","0","7","bamp","non-word","90.2439024390244","90.2439024390244","669.5121951219512","669.5121951219512","black","no","legacy","legacy","legacy","0","uniform","1","undefined","undefined","undefined","1","f","0","0","0","0","81","0","0","0","81","0","77","81","77","0","77","3","81","0","81","Fri Feb 19 11:16:26 2021","The main experiment item","yes","Lexical_Decision_Task.osexp","/Users/georgia/Desktop","no","Andale Mono","no","18","no","white","no","yes","576","legacy","77","77","3","/Users/georgia/Desktop/subject-5202138.csv","legacy","Lentiform Loewenfeld","3.3.7","yes","yes","600bd7cfb6416f0113b04181","602110864497cf011d9c0822","0","f","NA","space","j","j","space","f","538","NA","2307","18696","9009","11512","538","2","legacy","1024","2","48000","-16","task","5202138","even","NA","48190","52500","50193","205092","13114","41399","32387","205594","145007","205089","205595","205051","52500","206134","46832","204551","12860","177123","Lexical Decision Task","74","54900","82","yes","1024"
"2.803231716","5.26","3","kiln","word","89.1566265060241","89.1566265060241","668.6024096385543","668.6024096385543","black","no","legacy","legacy","legacy","0","uniform","0","undefined","undefined","undefined","0","j","0","0","0","0","82","0","0","0","82","0","78","82","78","0","78","3","82","0","82","Fri Feb 19 11:16:26 2021","The main experiment item","yes","Lexical_Decision_Task.osexp","/Users/georgia/Desktop","no","Andale Mono","no","18","no","white","no","yes","576","legacy","78","78","3","/Users/georgia/Desktop/subject-5202138.csv","legacy","Lentiform Loewenfeld","3.3.7","yes","yes","600bd7cfb6416f0113b04181","602110864497cf011d9c0822","0","f","NA","space","j","j","space","f","594","NA","2307","18696","9009","11512","594","2","legacy","1024","2","48000","-16","task","5202138","even","NA","48190","52500","50193","206679","13114","41399","32387","207181","145007","206675","207181","206637","52500","207776","46832","206137","12860","177123","Lexical Decision Task","74","55494","83","yes","1024"
"3.039414119","0","9","meep","non-word","89.28571428571429","89.28571428571429","668.1190476190476","668.1190476190476","black","no","legacy","legacy","legacy","0","uniform","1","undefined","undefined","undefined","1","f","0","0","0","0","83","0","0","0","83","0","79","83","79","0","79","3","83","0","83","Fri Feb 19 11:16:26 2021","The main experiment item","yes","Lexical_Decision_Task.osexp","/Users/georgia/Desktop","no","Andale Mono","no","18","no","white","no","yes","576","legacy","79","79","3","/Users/georgia/Desktop/subject-5202138.csv","legacy","Lentiform Loewenfeld","3.3.7","yes","yes","600bd7cfb6416f0113b04181","602110864497cf011d9c0822","0","f","NA","space","j","j","space","f","628","NA","2307","18696","9009","11512","628","2","legacy","1024","2","48000","-16","task","5202138","even","NA","48190","52500","50193","209322","13114","41399","32387","209825","145007","209318","209825","209280","52500","210454","46832","206137","12860","207780","Lexical Decision Task","75","56122","84","yes","1024"
"3.197740804","6.74","3","ache","word","89.41176470588235","89.41176470588235","666.9882352941177","666.9882352941177","black","no","legacy","legacy","legacy","0","uniform","1","undefined","undefined","undefined","1","j","0","0","0","0","84","0","0","0","84","0","80","84","80","0","80","3","84","0","84","Fri Feb 19 11:16:26 2021","The main experiment item","yes","Lexical_Decision_Task.osexp","/Users/georgia/Desktop","no","Andale Mono","no","18","no","white","no","yes","576","legacy","80","80","3","/Users/georgia/Desktop/subject-5202138.csv","legacy","Lentiform Loewenfeld","3.3.7","yes","yes","600bd7cfb6416f0113b04181","602110864497cf011d9c0822","0","j","NA","space","j","j","space","j","572","NA","2307","18696","9009","11512","572","2","legacy","1024","2","48000","-16","task","5202138","even","NA","48190","52500","50193","210999","13114","41399","32387","211501","145007","210996","211501","210957","52500","212074","46832","210457","12860","207780","Lexical Decision Task","76","56694","85","yes","1024"
"2.839268497","0","8","maft","non-word","89.53488372093024","89.53488372093024","665.4767441860465","665.4767441860465","black","no","legacy","legacy","legacy","0","uniform","1","undefined","undefined","undefined","1","f","0","0","0","0","85","0","0","0","85","0","81","85","81","0","81","3","85","0","85","Fri Feb 19 11:16:26 2021","The main experiment item","yes","Lexical_Decision_Task.osexp","/Users/georgia/Desktop","no","Andale Mono","no","18","no","white","no","yes","576","legacy","81","81","3","/Users/georgia/Desktop/subject-5202138.csv","legacy","Lentiform Loewenfeld","3.3.7","yes","yes","600bd7cfb6416f0113b04181","602110864497cf011d9c0822","0","f","NA","space","j","j","space","f","537","NA","2307","18696","9009","11512","537","2","legacy","1024","2","48000","-16","task","5202138","even","NA","48190","52500","50193","212620","13114","41399","32387","213122","145007","212617","213122","212578","52500","213660","46832","212078","12860","207780","Lexical Decision Task","77","57231","86","yes","1024"
"3.440331212","7.35","6","stew","word","88.50574712643679","88.50574712643679","662.5977011494252","662.5977011494252","black","no","legacy","legacy","legacy","0","uniform","0","undefined","undefined","undefined","0","j","0","0","0","0","86","0","0","0","86","0","82","86","82","0","82","3","86","0","86","Fri Feb 19 11:16:26 2021","The main experiment item","yes","Lexical_Decision_Task.osexp","/Users/georgia/Desktop","no","Andale Mono","no","18","no","white","no","yes","576","legacy","82","82","3","/Users/georgia/Desktop/subject-5202138.csv","legacy","Lentiform Loewenfeld","3.3.7","yes","yes","600bd7cfb6416f0113b04181","602110864497cf011d9c0822","0","f","NA","space","j","j","space","f","415","NA","2307","18696","9009","11512","415","2","legacy","1024","2","48000","-16","task","5202138","even","NA","48190","52500","50193","214205","13114","41399","32387","214707","145007","214202","214707","214163","52500","215122","46832","213663","12860","207780","Lexical Decision Task","77","57646","87","yes","1024"
"3.366547468","0","6","plat","non-word","88.63636363636364","88.63636363636364","663.625","663.625","black","no","legacy","legacy","legacy","0","uniform","1","undefined","undefined","undefined","1","f","0","0","0","0","87","0","0","0","87","0","83","87","83","0","83","3","87","0","87","Fri Feb 19 11:16:26 2021","The main experiment item","yes","Lexical_Decision_Task.osexp","/Users/georgia/Desktop","no","Andale Mono","no","18","no","white","no","yes","576","legacy","83","83","3","/Users/georgia/Desktop/subject-5202138.csv","legacy","Lentiform Loewenfeld","3.3.7","yes","yes","600bd7cfb6416f0113b04181","602110864497cf011d9c0822","0","f","NA","space","j","j","space","f","753","NA","2307","18696","9009","11512","753","2","legacy","1024","2","48000","-16","task","5202138","even","NA","48190","52500","50193","216667","13114","41399","32387","217170","145007","216664","217170","216626","52500","217924","46832","213663","12860","215126","Lexical Decision Task","78","58399","88","yes","1024"
"3.010582609","0","2","drod","non-word","88.76404494382022","88.76404494382022","662.7078651685393","662.7078651685393","black","no","legacy","legacy","legacy","0","uniform","1","undefined","undefined","undefined","1","f","0","0","0","0","88","0","0","0","88","0","84","88","84","0","84","3","88","0","88","Fri Feb 19 11:16:26 2021","The main experiment item","yes","Lexical_Decision_Task.osexp","/Users/georgia/Desktop","no","Andale Mono","no","18","no","white","no","yes","576","legacy","84","84","3","/Users/georgia/Desktop/subject-5202138.csv","legacy","Lentiform Loewenfeld","3.3.7","yes","yes","600bd7cfb6416f0113b04181","602110864497cf011d9c0822","0","f","NA","space","j","j","space","f","582","NA","2307","18696","9009","11512","582","2","legacy","1024","2","48000","-16","task","5202138","even","NA","48190","52500","50193","218469","13114","41399","32387","218971","145007","218466","218972","218428","52500","219555","46832","217928","12860","215126","Lexical Decision Task","79","58981","89","yes","1024"
"3.225825991","0","7","talm","non-word","88.88888888888889","88.88888888888889","661.8333333333334","661.8333333333334","black","no","legacy","legacy","legacy","0","uniform","1","undefined","undefined","undefined","1","f","0","0","0","0","89","0","0","0","89","0","85","89","85","0","85","3","89","0","89","Fri Feb 19 11:16:26 2021","The main experiment item","yes","Lexical_Decision_Task.osexp","/Users/georgia/Desktop","no","Andale Mono","no","18","no","white","no","yes","576","legacy","85","85","3","/Users/georgia/Desktop/subject-5202138.csv","legacy","Lentiform Loewenfeld","3.3.7","yes","yes","600bd7cfb6416f0113b04181","602110864497cf011d9c0822","0","f","NA","space","j","j","space","f","584","NA","2307","18696","9009","11512","584","2","legacy","1024","2","48000","-16","task","5202138","even","NA","48190","52500","50193","220100","13114","41399","32387","220602","145007","220097","220602","220059","52500","221187","46832","219559","12860","215126","Lexical Decision Task","80","59565","90","yes","1024"
"2.899092422","7.27","6","snag","word","89.01098901098901","89.01098901098901","664.8021978021978","664.8021978021978","black","no","legacy","legacy","legacy","0","uniform","1","undefined","undefined","undefined","1","j","0","0","0","0","90","0","0","0","90","0","86","90","86","0","86","3","90","0","90","Fri Feb 19 11:16:26 2021","The main experiment item","yes","Lexical_Decision_Task.osexp","/Users/georgia/Desktop","no","Andale Mono","no","18","no","white","no","yes","576","legacy","86","86","3","/Users/georgia/Desktop/subject-5202138.csv","legacy","Lentiform Loewenfeld","3.3.7","yes","yes","600bd7cfb6416f0113b04181","602110864497cf011d9c0822","0","j","NA","space","j","j","space","j","932","NA","2307","18696","9009","11512","932","2","legacy","1024","2","48000","-16","task","5202138","even","NA","48190","52500","50193","221732","13114","41399","32387","222234","145007","221729","222234","221691","52500","223167","46832","221191","12860","215126","Lexical Decision Task","81","60497","91","yes","1024"
"2.746890964","9.67","3","plug","word","89.1304347826087","89.1304347826087","664.6413043478261","664.6413043478261","black","no","legacy","legacy","legacy","0","uniform","1","undefined","undefined","undefined","1","j","0","0","0","0","91","0","0","0","91","0","87","91","87","0","87","3","91","0","91","Fri Feb 19 11:16:26 2021","The main experiment item","yes","Lexical_Decision_Task.osexp","/Users/georgia/Desktop","no","Andale Mono","no","18","no","white","no","yes","576","legacy","87","87","3","/Users/georgia/Desktop/subject-5202138.csv","legacy","Lentiform Loewenfeld","3.3.7","yes","yes","600bd7cfb6416f0113b04181","602110864497cf011d9c0822","0","j","NA","space","j","j","space","j","650","NA","2307","18696","9009","11512","650","2","legacy","1024","2","48000","-16","task","5202138","even","NA","48190","52500","50193","223712","13114","41399","32387","224214","145007","223709","224214","223671","52500","224865","46832","223171","12860","215126","Lexical Decision Task","82","61147","92","yes","1024"
"3.474361976","5.24","6","veer","word","88.17204301075269","88.17204301075269","668.6021505376344","668.6021505376344","black","no","legacy","legacy","legacy","0","uniform","0","undefined","undefined","undefined","0","j","0","0","0","0","92","0","0","0","92","0","88","92","88","0","88","3","92","0","92","Fri Feb 19 11:16:26 2021","The main experiment item","yes","Lexical_Decision_Task.osexp","/Users/georgia/Desktop","no","Andale Mono","no","18","no","white","no","yes","576","legacy","88","88","3","/Users/georgia/Desktop/subject-5202138.csv","legacy","Lentiform Loewenfeld","3.3.7","yes","yes","600bd7cfb6416f0113b04181","602110864497cf011d9c0822","0","f","NA","space","j","j","space","f","1033","NA","2307","18696","9009","11512","1033","2","legacy","1024","2","48000","-16","task","5202138","even","NA","48190","52500","50193","225411","13114","41399","32387","225913","145007","225407","225913","225369","52500","226946","46832","224869","12860","215126","Lexical Decision Task","82","62180","93","yes","1024"
"2.990042563","6.64","9","plow","word","88.29787234042553","88.29787234042553","669.6063829787234","669.6063829787234","black","no","legacy","legacy","legacy","0","uniform","1","undefined","undefined","undefined","1","j","0","0","0","0","93","0","0","0","93","0","89","93","89","0","89","3","93","0","93","Fri Feb 19 11:16:26 2021","The main experiment item","yes","Lexical_Decision_Task.osexp","/Users/georgia/Desktop","no","Andale Mono","no","18","no","white","no","yes","576","legacy","89","89","3","/Users/georgia/Desktop/subject-5202138.csv","legacy","Lentiform Loewenfeld","3.3.7","yes","yes","600bd7cfb6416f0113b04181","602110864497cf011d9c0822","0","j","NA","space","j","j","space","j","763","NA","2307","18696","9009","11512","763","2","legacy","1024","2","48000","-16","task","5202138","even","NA","48190","52500","50193","228492","13114","41399","32387","228994","145007","228489","228995","228451","52500","229759","46832","224869","12860","226951","Lexical Decision Task","83","62943","94","yes","1024"
"2.744553742","0","2","nawk","non-word","88.42105263157895","88.42105263157895","669.7578947368421","669.7578947368421","black","no","legacy","legacy","legacy","0","uniform","1","undefined","undefined","undefined","1","f","0","0","0","0","94","0","0","0","94","0","90","94","90","0","90","3","94","0","94","Fri Feb 19 11:16:26 2021","The main experiment item","yes","Lexical_Decision_Task.osexp","/Users/georgia/Desktop","no","Andale Mono","no","18","no","white","no","yes","576","legacy","90","90","3","/Users/georgia/Desktop/subject-5202138.csv","legacy","Lentiform Loewenfeld","3.3.7","yes","yes","600bd7cfb6416f0113b04181","602110864497cf011d9c0822","0","f","NA","space","j","j","space","f","684","NA","2307","18696","9009","11512","684","2","legacy","1024","2","48000","-16","task","5202138","even","NA","48190","52500","50193","230304","13114","41399","32387","230806","145007","230301","230806","230263","52500","231491","46832","229763","12860","226951","Lexical Decision Task","84","63627","95","yes","1024"
"3.248054965","7.86","5","glow","word","88.54166666666667","88.54166666666667","668.5","668.5","black","no","legacy","legacy","legacy","0","uniform","1","undefined","undefined","undefined","1","j","0","0","0","0","95","0","0","0","95","0","91","95","91","0","91","3","95","0","95","Fri Feb 19 11:16:26 2021","The main experiment item","yes","Lexical_Decision_Task.osexp","/Users/georgia/Desktop","no","Andale Mono","no","18","no","white","no","yes","576","legacy","91","91","3","/Users/georgia/Desktop/subject-5202138.csv","legacy","Lentiform Loewenfeld","3.3.7","yes","yes","600bd7cfb6416f0113b04181","602110864497cf011d9c0822","0","j","NA","space","j","j","space","j","549","NA","2307","18696","9009","11512","549","2","legacy","1024","2","48000","-16","task","5202138","even","NA","48190","52500","50193","232036","13114","41399","32387","232539","145007","232033","232539","231995","52500","233089","46832","231495","12860","226951","Lexical Decision Task","85","64176","96","yes","1024"
"3.081107167","0","6","chot","non-word","88.65979381443299","88.65979381443299","670.8556701030927","670.8556701030927","black","no","legacy","legacy","legacy","0","uniform","1","undefined","undefined","undefined","1","f","0","0","0","0","96","0","0","0","96","0","92","96","92","0","92","3","96","0","96","Fri Feb 19 11:16:26 2021","The main experiment item","yes","Lexical_Decision_Task.osexp","/Users/georgia/Desktop","no","Andale Mono","no","18","no","white","no","yes","576","legacy","92","92","3","/Users/georgia/Desktop/subject-5202138.csv","legacy","Lentiform Loewenfeld","3.3.7","yes","yes","600bd7cfb6416f0113b04181","602110864497cf011d9c0822","0","f","NA","space","j","j","space","f","897","NA","2307","18696","9009","11512","897","2","legacy","1024","2","48000","-16","task","5202138","even","NA","48190","52500","50193","233635","13114","41399","32387","234137","145007","233632","234137","233593","52500","235036","46832","233093","12860","226951","Lexical Decision Task","86","65073","97","yes","1024"
"2.68604012","0","3","mulb","non-word","88.77551020408163","88.77551020408163","674.1938775510204","674.1938775510204","black","no","legacy","legacy","legacy","0","uniform","1","undefined","undefined","undefined","1","f","0","0","0","0","97","0","0","0","97","0","93","97","93","0","93","3","97","0","97","Fri Feb 19 11:16:26 2021","The main experiment item","yes","Lexical_Decision_Task.osexp","/Users/georgia/Desktop","no","Andale Mono","no","18","no","white","no","yes","576","legacy","93","93","3","/Users/georgia/Desktop/subject-5202138.csv","legacy","Lentiform Loewenfeld","3.3.7","yes","yes","600bd7cfb6416f0113b04181","602110864497cf011d9c0822","0","f","NA","space","j","j","space","f","998","NA","2307","18696","9009","11512","998","2","legacy","1024","2","48000","-16","task","5202138","even","NA","48190","52500","50193","235581","13114","41399","32387","236083","145007","235578","236084","235540","52500","237083","46832","235039","12860","226951","Lexical Decision Task","87","66071","98","yes","1024"
"3.137775856","7.39","5","comb","word","88.88888888888889","88.88888888888889","673.9494949494949","673.9494949494949","black","no","legacy","legacy","legacy","0","uniform","1","undefined","undefined","undefined","1","j","0","0","0","0","98","0","0","0","98","0","94","98","94","0","94","3","98","0","98","Fri Feb 19 11:16:26 2021","The main experiment item","yes","Lexical_Decision_Task.osexp","/Users/georgia/Desktop","no","Andale Mono","no","18","no","white","no","yes","576","legacy","94","94","3","/Users/georgia/Desktop/subject-5202138.csv","legacy","Lentiform Loewenfeld","3.3.7","yes","yes","600bd7cfb6416f0113b04181","602110864497cf011d9c0822","0","j","NA","space","j","j","space","j","650","NA","2307","18696","9009","11512","650","2","legacy","1024","2","48000","-16","task","5202138","even","NA","48190","52500","50193","237628","13114","41399","32387","238130","145007","237625","238131","237587","52500","238782","46832","237087","12860","226951","Lexical Decision Task","88","66721","99","yes","1024"
"3.263399331","0","8","cour","non-word","89","89","675.27","675.27","black","no","legacy","legacy","legacy","0","uniform","1","undefined","undefined","undefined","1","f","0","0","0","0","99","0","0","0","99","0","95","99","95","0","95","3","99","0","99","Fri Feb 19 11:16:26 2021","The main experiment item","yes","Lexical_Decision_Task.osexp","/Users/georgia/Desktop","no","Andale Mono","no","18","no","white","no","yes","576","legacy","95","95","3","/Users/georgia/Desktop/subject-5202138.csv","legacy","Lentiform Loewenfeld","3.3.7","yes","yes","600bd7cfb6416f0113b04181","602110864497cf011d9c0822","0","f","NA","space","j","j","space","f","806","NA","2307","18696","9009","11512","806","2","legacy","1024","2","48000","-16","task","5202138","even","NA","48190","52500","50193","239328","13114","41399","32387","239831","145007","239325","239831","239286","52500","240638","46832","238785","12860","226951","Lexical Decision Task","89","67527","100","yes","1024"
"3.15462682","0","6","noal","non-word","89.10891089108911","89.10891089108911","673.9009900990098","673.9009900990098","black","no","legacy","legacy","legacy","0","uniform","1","undefined","undefined","undefined","1","f","0","0","0","0","100","0","0","0","100","0","96","100","96","0","96","3","100","0","100","Fri Feb 19 11:16:26 2021","The main experiment item","yes","Lexical_Decision_Task.osexp","/Users/georgia/Desktop","no","Andale Mono","no","18","no","white","no","yes","576","legacy","96","96","3","/Users/georgia/Desktop/subject-5202138.csv","legacy","Lentiform Loewenfeld","3.3.7","yes","yes","600bd7cfb6416f0113b04181","602110864497cf011d9c0822","0","f","NA","space","j","j","space","f","537","NA","2307","18696","9009","11512","537","2","legacy","1024","2","48000","-16","task","5202138","even","NA","48190","52500","50193","241184","13114","41399","32387","241686","145007","241180","241686","241142","52500","242224","46832","240642","12860","226951","Lexical Decision Task","90","68064","101","yes","1024"
