"Log_BG","Log_Freq_HAL","Ortho_N","Stimulus","Type","acc","accuracy","average_response_time","avg_rt","background","bidi","canvas_backend","clock_backend","color_backend","compensation","coordinates","correct","correct_Experimental_intro","correct_Introduction","correct_Practice_intro","correct_experimenter_kb","correct_response","count_End_Of_Experiment","count_End_Of_Practice","count_Experimental_Loop","count_Experimental_intro","count_Fixation","count_Introduction","count_Practice_Loop","count_Practice_intro","count_Stimulus","count_block_break_feedback","count_experimental_sequence","count_experimenter_kb","count_increment_trial_count","count_init_trial_count","count_logger","count_practice_sequence","count_right","count_task","count_wrong","datetime","description","disable_garbage_collection","experiment_file","experiment_path","font_bold","font_family","font_italic","font_size","font_underline","foreground","form_clicks","fullscreen","height","keyboard_backend","live_row","live_row_Experimental_Loop","live_row_Practice_Loop","logfile","mouse_backend","opensesame_codename","opensesame_version","osf_always_upload_data","osf_always_upload_experiment","osf_datanode_id","osf_id","repeat_cycle","response","response_End_Of_Experiment","response_Experimental_intro","response_Introduction","response_Practice_intro","response_block_break_feedback","response_experimenter_kb","response_time","response_time_End_Of_Experiment","response_time_Experimental_intro","response_time_Introduction","response_time_Practice_intro","response_time_block_break_feedback","response_time_experimenter_kb","round_decimals","sampler_backend","sound_buf_size","sound_channels","sound_freq","sound_sample_size","start","subject_nr","subject_parity","time_End_Of_Experiment","time_End_Of_Practice","time_Experimental_Loop","time_Experimental_intro","time_Fixation","time_Introduction","time_Practice_Loop","time_Practice_intro","time_Stimulus","time_block_break_feedback","time_experimental_sequence","time_experimenter_kb","time_increment_trial_count","time_init_trial_count","time_logger","time_practice_sequence","time_right","time_task","time_wrong","title","total_correct","total_response_time","total_responses","uniform_coordinates","width"
"2.7084209","0","8","vump","non-word","100","100","868.6","868.6","black","no","legacy","legacy","legacy","0","uniform","1","undefined","undefined","undefined","1","f","0","0","0","0","4","0","0","0","4","NA","0","4","0","0","0","3","4","0","4","Thu Feb 18 13:37:21 2021","The main experiment item","yes","Lexical_Decision_Task.osexp","/Users/admin/Downloads","no","Andale Mono","no","18","no","white","no","yes","576","legacy","0","0","3","/Users/admin/Downloads/subject-5210171.csv","legacy","Lentiform Loewenfeld","3.3.7","yes","yes","600bd7cfb6416f0113b04181","602110864497cf011d9c0822","0","f","NA","space","space","space","NA","f","913","NA","3335","8191","5912","NA","913","2","legacy","1024","2","48000","-16","task","5210171","odd","NA","27815","33155","29819","33200","5787","19920","14003","33704","NA","33197","33704","NA","33155","34618","25917","27275","5772","NA","Lexical Decision Task","5","4343","5","yes","1024"
"3.382617311","0","4","pret","non-word","83.33333333333333","83.33333333333333","899.5","899.5","black","no","legacy","legacy","legacy","0","uniform","0","undefined","undefined","undefined","0","f","0","0","0","0","5","0","0","0","5","NA","1","5","1","0","1","3","5","0","5","Thu Feb 18 13:37:21 2021","The main experiment item","yes","Lexical_Decision_Task.osexp","/Users/admin/Downloads","no","Andale Mono","no","18","no","white","no","yes","576","legacy","1","1","3","/Users/admin/Downloads/subject-5210171.csv","legacy","Lentiform Loewenfeld","3.3.7","yes","yes","600bd7cfb6416f0113b04181","602110864497cf011d9c0822","0","j","NA","space","space","space","NA","j","1054","NA","3335","8191","5912","NA","1054","2","legacy","1024","2","48000","-16","task","5210171","odd","NA","27815","33155","29819","35214","5787","19920","14003","35718","NA","35211","35718","35126","33155","36772","25917","34626","5772","NA","Lexical Decision Task","5","5397","6","yes","1024"
"3.049218023","7.4","9","robe","word","85.71428571428571","85.71428571428571","887.5714285714286","887.5714285714286","black","no","legacy","legacy","legacy","0","uniform","1","undefined","undefined","undefined","1","j","0","0","0","0","6","0","0","0","6","NA","2","6","2","0","2","3","6","0","6","Thu Feb 18 13:37:21 2021","The main experiment item","yes","Lexical_Decision_Task.osexp","/Users/admin/Downloads","no","Andale Mono","no","18","no","white","no","yes","576","legacy","2","2","3","/Users/admin/Downloads/subject-5210171.csv","legacy","Lentiform Loewenfeld","3.3.7","yes","yes","600bd7cfb6416f0113b04181","602110864497cf011d9c0822","0","j","NA","space","space","space","NA","j","816","NA","3335","8191","5912","NA","816","2","legacy","1024","2","48000","-16","task","5210171","odd","NA","27815","33155","29819","38354","5787","19920","14003","38856","NA","38351","38857","38277","33155","39674","25917","34626","5772","36777","Lexical Decision Task","6","6213","7","yes","1024"
"3.153001286","8.7","5","palm","word","87.5","87.5","855.5","855.5","black","no","legacy","legacy","legacy","0","uniform","1","undefined","undefined","undefined","1","j","0","0","0","0","7","0","0","0","7","NA","3","7","3","0","3","3","7","0","7","Thu Feb 18 13:37:21 2021","The main experiment item","yes","Lexical_Decision_Task.osexp","/Users/admin/Downloads","no","Andale Mono","no","18","no","white","no","yes","576","legacy","3","3","3","/Users/admin/Downloads/subject-5210171.csv","legacy","Lentiform Loewenfeld","3.3.7","yes","yes","600bd7cfb6416f0113b04181","602110864497cf011d9c0822","0","j","NA","space","space","space","NA","j","631","NA","3335","8191","5912","NA","631","2","legacy","1024","2","48000","-16","task","5210171","odd","NA","27815","33155","29819","40255","5787","19920","14003","40758","NA","40252","40758","40179","33155","41390","25917","39678","5772","36777","Lexical Decision Task","7","6844","8","yes","1024"
"2.920123326","7.43","4","duel","word","88.88888888888889","88.88888888888889","868.5555555555555","868.5555555555555","black","no","legacy","legacy","legacy","0","uniform","1","undefined","undefined","undefined","1","j","0","0","0","0","8","0","0","0","8","NA","4","8","4","0","4","3","8","0","8","Thu Feb 18 13:37:21 2021","The main experiment item","yes","Lexical_Decision_Task.osexp","/Users/admin/Downloads","no","Andale Mono","no","18","no","white","no","yes","576","legacy","4","4","3","/Users/admin/Downloads/subject-5210171.csv","legacy","Lentiform Loewenfeld","3.3.7","yes","yes","600bd7cfb6416f0113b04181","602110864497cf011d9c0822","0","j","NA","space","space","space","NA","j","973","NA","3335","8191","5912","NA","973","2","legacy","1024","2","48000","-16","task","5210171","odd","NA","27815","33155","29819","41972","5787","19920","14003","42474","NA","41968","42475","41895","33155","43449","25917","41394","5772","36777","Lexical Decision Task","8","7817","9","yes","1024"
"2.838639236","0","4","furg","non-word","90","90","841.2","841.2","black","no","legacy","legacy","legacy","0","uniform","1","undefined","undefined","undefined","1","f","0","0","0","0","9","0","0","0","9","NA","5","9","5","0","5","3","9","0","9","Thu Feb 18 13:37:21 2021","The main experiment item","yes","Lexical_Decision_Task.osexp","/Users/admin/Downloads","no","Andale Mono","no","18","no","white","no","yes","576","legacy","5","5","3","/Users/admin/Downloads/subject-5210171.csv","legacy","Lentiform Loewenfeld","3.3.7","yes","yes","600bd7cfb6416f0113b04181","602110864497cf011d9c0822","0","f","NA","space","space","space","NA","f","595","NA","3335","8191","5912","NA","595","2","legacy","1024","2","48000","-16","task","5210171","odd","NA","27815","33155","29819","44034","5787","19920","14003","44537","NA","44030","44537","43955","33155","45133","25917","43454","5772","36777","Lexical Decision Task","9","8412","10","yes","1024"
"3.443783828","7.65","3","verb","word","90.9090909090909","90.9090909090909","825.9090909090909","825.9090909090909","black","no","legacy","legacy","legacy","0","uniform","1","undefined","undefined","undefined","1","j","0","0","0","0","10","0","0","0","10","NA","6","10","6","0","6","3","10","0","10","Thu Feb 18 13:37:21 2021","The main experiment item","yes","Lexical_Decision_Task.osexp","/Users/admin/Downloads","no","Andale Mono","no","18","no","white","no","yes","576","legacy","6","6","3","/Users/admin/Downloads/subject-5210171.csv","legacy","Lentiform Loewenfeld","3.3.7","yes","yes","600bd7cfb6416f0113b04181","602110864497cf011d9c0822","0","j","NA","space","space","space","NA","j","673","NA","3335","8191","5912","NA","673","2","legacy","1024","2","48000","-16","task","5210171","odd","NA","27815","33155","29819","45716","5787","19920","14003","46219","NA","45712","46219","45638","33155","46893","25917","45138","5772","36777","Lexical Decision Task","10","9085","11","yes","1024"
"3.307211407","6.07","7","honk","word","91.66666666666667","91.66666666666667","875.6666666666666","875.6666666666666","black","no","legacy","legacy","legacy","0","uniform","1","undefined","undefined","undefined","1","j","0","0","0","0","11","0","0","0","11","NA","7","11","7","0","7","3","11","0","11","Thu Feb 18 13:37:21 2021","The main experiment item","yes","Lexical_Decision_Task.osexp","/Users/admin/Downloads","no","Andale Mono","no","18","no","white","no","yes","576","legacy","7","7","3","/Users/admin/Downloads/subject-5210171.csv","legacy","Lentiform Loewenfeld","3.3.7","yes","yes","600bd7cfb6416f0113b04181","602110864497cf011d9c0822","0","j","NA","space","space","space","NA","j","1423","NA","3335","8191","5912","NA","1423","2","legacy","1024","2","48000","-16","task","5210171","odd","NA","27815","33155","29819","47476","5787","19920","14003","47979","NA","47472","47979","47397","33155","49403","25917","46897","5772","36777","Lexical Decision Task","11","10508","12","yes","1024"
"3.043885998","0","9","gome","non-word","92.3076923076923","92.3076923076923","935.7692307692307","935.7692307692307","black","no","legacy","legacy","legacy","0","uniform","1","undefined","undefined","undefined","1","f","0","0","0","0","12","0","0","0","12","NA","8","12","8","0","8","3","12","0","12","Thu Feb 18 13:37:21 2021","The main experiment item","yes","Lexical_Decision_Task.osexp","/Users/admin/Downloads","no","Andale Mono","no","18","no","white","no","yes","576","legacy","8","8","3","/Users/admin/Downloads/subject-5210171.csv","legacy","Lentiform Loewenfeld","3.3.7","yes","yes","600bd7cfb6416f0113b04181","602110864497cf011d9c0822","0","f","NA","space","space","space","NA","f","1657","NA","3335","8191","5912","NA","1657","2","legacy","1024","2","48000","-16","task","5210171","odd","NA","27815","33155","29819","49988","5787","19920","14003","50491","NA","49984","50492","49908","33155","52150","25917","49408","5772","36777","Lexical Decision Task","12","12165","13","yes","1024"
"2.695770526","7.34","6","pawn","word","92.85714285714286","92.85714285714286","923.2142857142857","923.2142857142857","black","no","legacy","legacy","legacy","0","uniform","1","undefined","undefined","undefined","1","j","0","0","0","0","13","0","0","0","13","NA","9","13","9","0","9","3","13","0","13","Thu Feb 18 13:37:21 2021","The main experiment item","yes","Lexical_Decision_Task.osexp","/Users/admin/Downloads","no","Andale Mono","no","18","no","white","no","yes","576","legacy","9","9","3","/Users/admin/Downloads/subject-5210171.csv","legacy","Lentiform Loewenfeld","3.3.7","yes","yes","600bd7cfb6416f0113b04181","602110864497cf011d9c0822","0","j","NA","space","space","space","NA","j","760","NA","3335","8191","5912","NA","760","2","legacy","1024","2","48000","-16","task","5210171","odd","NA","27815","33155","29819","52731","5787","19920","14003","53234","NA","52727","53234","52655","33155","53995","25917","52155","5772","36777","Lexical Decision Task","13","12925","14","yes","1024"
"3.488597715","0","9","nain","non-word","93.33333333333333","93.33333333333333","919.7333333333333","919.7333333333333","black","no","legacy","legacy","legacy","0","uniform","1","undefined","undefined","undefined","1","f","0","0","0","0","14","0","0","0","14","NA","10","14","10","0","10","3","14","0","14","Thu Feb 18 13:37:21 2021","The main experiment item","yes","Lexical_Decision_Task.osexp","/Users/admin/Downloads","no","Andale Mono","no","18","no","white","no","yes","576","legacy","10","10","3","/Users/admin/Downloads/subject-5210171.csv","legacy","Lentiform Loewenfeld","3.3.7","yes","yes","600bd7cfb6416f0113b04181","602110864497cf011d9c0822","0","f","NA","space","space","space","NA","f","871","NA","3335","8191","5912","NA","871","2","legacy","1024","2","48000","-16","task","5210171","odd","NA","27815","33155","29819","54576","5787","19920","14003","55078","NA","54572","55079","54499","33155","55951","25917","53999","5772","36777","Lexical Decision Task","14","13796","15","yes","1024"
"3.372543801","9.24","8","coat","word","93.75","93.75","900.125","900.125","black","no","legacy","legacy","legacy","0","uniform","1","undefined","undefined","undefined","1","j","0","0","0","0","15","0","0","0","15","NA","11","15","11","0","11","3","15","0","15","Thu Feb 18 13:37:21 2021","The main experiment item","yes","Lexical_Decision_Task.osexp","/Users/admin/Downloads","no","Andale Mono","no","18","no","white","no","yes","576","legacy","11","11","3","/Users/admin/Downloads/subject-5210171.csv","legacy","Lentiform Loewenfeld","3.3.7","yes","yes","600bd7cfb6416f0113b04181","602110864497cf011d9c0822","0","j","NA","space","space","space","NA","j","606","NA","3335","8191","5912","NA","606","2","legacy","1024","2","48000","-16","task","5210171","odd","NA","27815","33155","29819","56533","5787","19920","14003","57036","NA","56529","57036","56457","33155","57643","25917","55957","5772","36777","Lexical Decision Task","15","14402","16","yes","1024"
"3.374198258","0","8","vist","non-word","94.11764705882354","94.11764705882354","919.2941176470588","919.2941176470588","black","no","legacy","legacy","legacy","0","uniform","1","undefined","undefined","undefined","1","f","0","0","0","0","16","0","0","0","16","NA","12","16","12","0","12","3","16","0","16","Thu Feb 18 13:37:21 2021","The main experiment item","yes","Lexical_Decision_Task.osexp","/Users/admin/Downloads","no","Andale Mono","no","18","no","white","no","yes","576","legacy","12","12","3","/Users/admin/Downloads/subject-5210171.csv","legacy","Lentiform Loewenfeld","3.3.7","yes","yes","600bd7cfb6416f0113b04181","602110864497cf011d9c0822","0","f","NA","space","space","space","NA","f","1226","NA","3335","8191","5912","NA","1226","2","legacy","1024","2","48000","-16","task","5210171","odd","NA","27815","33155","29819","58238","5787","19920","14003","58741","NA","58235","58741","58148","33155","59968","25917","57648","5772","36777","Lexical Decision Task","16","15628","17","yes","1024"
"2.698387659","6.66","7","skid","word","94.44444444444444","94.44444444444444","907.2222222222222","907.2222222222222","black","no","legacy","legacy","legacy","0","uniform","1","undefined","undefined","undefined","1","j","0","0","0","0","17","0","0","0","17","NA","13","17","13","0","13","3","17","0","17","Thu Feb 18 13:37:21 2021","The main experiment item","yes","Lexical_Decision_Task.osexp","/Users/admin/Downloads","no","Andale Mono","no","18","no","white","no","yes","576","legacy","13","13","3","/Users/admin/Downloads/subject-5210171.csv","legacy","Lentiform Loewenfeld","3.3.7","yes","yes","600bd7cfb6416f0113b04181","602110864497cf011d9c0822","0","j","NA","space","space","space","NA","j","702","NA","3335","8191","5912","NA","702","2","legacy","1024","2","48000","-16","task","5210171","odd","NA","27815","33155","29819","60549","5787","19920","14003","61052","NA","60545","61052","60474","33155","61755","25917","59973","5772","36777","Lexical Decision Task","17","16330","18","yes","1024"
"3.066077331","0","7","vorn","non-word","94.73684210526316","94.73684210526316","900.5263157894736","900.5263157894736","black","no","legacy","legacy","legacy","0","uniform","1","undefined","undefined","undefined","1","f","0","0","0","0","18","0","0","0","18","NA","14","18","14","0","14","3","18","0","18","Thu Feb 18 13:37:21 2021","The main experiment item","yes","Lexical_Decision_Task.osexp","/Users/admin/Downloads","no","Andale Mono","no","18","no","white","no","yes","576","legacy","14","14","3","/Users/admin/Downloads/subject-5210171.csv","legacy","Lentiform Loewenfeld","3.3.7","yes","yes","600bd7cfb6416f0113b04181","602110864497cf011d9c0822","0","f","NA","space","space","space","NA","f","780","NA","3335","8191","5912","NA","780","2","legacy","1024","2","48000","-16","task","5210171","odd","NA","27815","33155","29819","62335","5787","19920","14003","62838","NA","62332","62839","62259","33155","63620","25917","61759","5772","36777","Lexical Decision Task","18","17110","19","yes","1024"
"3.133964479","0","8","graw","non-word","95","95","912.95","912.95","black","no","legacy","legacy","legacy","0","uniform","1","undefined","undefined","undefined","1","f","0","0","0","0","19","0","0","0","19","NA","15","19","15","0","15","3","19","0","19","Thu Feb 18 13:37:21 2021","The main experiment item","yes","Lexical_Decision_Task.osexp","/Users/admin/Downloads","no","Andale Mono","no","18","no","white","no","yes","576","legacy","15","15","3","/Users/admin/Downloads/subject-5210171.csv","legacy","Lentiform Loewenfeld","3.3.7","yes","yes","600bd7cfb6416f0113b04181","602110864497cf011d9c0822","0","f","NA","space","space","space","NA","f","1149","NA","3335","8191","5912","NA","1149","2","legacy","1024","2","48000","-16","task","5210171","odd","NA","27815","33155","29819","64200","5787","19920","14003","64703","NA","64197","64704","64125","33155","65854","25917","63625","5772","36777","Lexical Decision Task","19","18259","20","yes","1024"
"3.120135028","0","3","vals","non-word","95.23809523809524","95.23809523809524","963.4761904761905","963.4761904761905","black","no","legacy","legacy","legacy","0","uniform","1","undefined","undefined","undefined","1","f","0","0","0","0","20","0","0","0","20","NA","16","20","16","0","16","3","20","0","20","Thu Feb 18 13:37:21 2021","The main experiment item","yes","Lexical_Decision_Task.osexp","/Users/admin/Downloads","no","Andale Mono","no","18","no","white","no","yes","576","legacy","16","16","3","/Users/admin/Downloads/subject-5210171.csv","legacy","Lentiform Loewenfeld","3.3.7","yes","yes","600bd7cfb6416f0113b04181","602110864497cf011d9c0822","0","f","NA","space","space","space","NA","f","1974","NA","3335","8191","5912","NA","1974","2","legacy","1024","2","48000","-16","task","5210171","odd","NA","27815","33155","29819","66433","5787","19920","14003","66936","NA","66430","66937","66358","33155","68911","25917","65858","5772","36777","Lexical Decision Task","20","20233","21","yes","1024"
"2.616654026","9.37","5","gift","word","95.45454545454545","95.45454545454545","945.3636363636364","945.3636363636364","black","no","legacy","legacy","legacy","0","uniform","1","undefined","undefined","undefined","1","j","0","0","0","0","21","0","0","0","21","NA","17","21","17","0","17","3","21","0","21","Thu Feb 18 13:37:21 2021","The main experiment item","yes","Lexical_Decision_Task.osexp","/Users/admin/Downloads","no","Andale Mono","no","18","no","white","no","yes","576","legacy","17","17","3","/Users/admin/Downloads/subject-5210171.csv","legacy","Lentiform Loewenfeld","3.3.7","yes","yes","600bd7cfb6416f0113b04181","602110864497cf011d9c0822","0","j","NA","space","space","space","NA","j","565","NA","3335","8191","5912","NA","565","2","legacy","1024","2","48000","-16","task","5210171","odd","NA","27815","33155","29819","69492","5787","19920","14003","69995","NA","69489","69995","69416","33155","70561","25917","68916","5772","36777","Lexical Decision Task","21","20798","22","yes","1024"
"2.899092422","7.27","6","snag","word","95.65217391304348","95.65217391304348","935.6086956521739","935.6086956521739","black","no","legacy","legacy","legacy","0","uniform","1","undefined","undefined","undefined","1","j","0","0","0","0","22","0","0","0","22","NA","18","22","18","0","18","3","22","0","22","Thu Feb 18 13:37:21 2021","The main experiment item","yes","Lexical_Decision_Task.osexp","/Users/admin/Downloads","no","Andale Mono","no","18","no","white","no","yes","576","legacy","18","18","3","/Users/admin/Downloads/subject-5210171.csv","legacy","Lentiform Loewenfeld","3.3.7","yes","yes","600bd7cfb6416f0113b04181","602110864497cf011d9c0822","0","j","NA","space","space","space","NA","j","721","NA","3335","8191","5912","NA","721","2","legacy","1024","2","48000","-16","task","5210171","odd","NA","27815","33155","29819","71146","5787","19920","14003","71649","NA","71141","71649","71066","33155","72371","25917","70566","5772","36777","Lexical Decision Task","22","21519","23","yes","1024"
"3.248054965","7.86","5","glow","word","95.83333333333333","95.83333333333333","920.5416666666666","920.5416666666666","black","no","legacy","legacy","legacy","0","uniform","1","undefined","undefined","undefined","1","j","0","0","0","0","23","0","0","0","23","NA","19","23","19","0","19","3","23","0","23","Thu Feb 18 13:37:21 2021","The main experiment item","yes","Lexical_Decision_Task.osexp","/Users/admin/Downloads","no","Andale Mono","no","18","no","white","no","yes","576","legacy","19","19","3","/Users/admin/Downloads/subject-5210171.csv","legacy","Lentiform Loewenfeld","3.3.7","yes","yes","600bd7cfb6416f0113b04181","602110864497cf011d9c0822","0","j","NA","space","space","space","NA","j","574","NA","3335","8191","5912","NA","574","2","legacy","1024","2","48000","-16","task","5210171","odd","NA","27815","33155","29819","72957","5787","19920","14003","73460","NA","72954","73460","72877","33155","74035","25917","72376","5772","36777","Lexical Decision Task","23","22093","24","yes","1024"
"2.8162413","0","5","nusk","non-word","96","96","915.36","915.36","black","no","legacy","legacy","legacy","0","uniform","1","undefined","undefined","undefined","1","f","0","0","0","0","24","0","0","0","24","NA","20","24","20","0","20","3","24","0","24","Thu Feb 18 13:37:21 2021","The main experiment item","yes","Lexical_Decision_Task.osexp","/Users/admin/Downloads","no","Andale Mono","no","18","no","white","no","yes","576","legacy","20","20","3","/Users/admin/Downloads/subject-5210171.csv","legacy","Lentiform Loewenfeld","3.3.7","yes","yes","600bd7cfb6416f0113b04181","602110864497cf011d9c0822","0","f","NA","space","space","space","NA","f","791","NA","3335","8191","5912","NA","791","2","legacy","1024","2","48000","-16","task","5210171","odd","NA","27815","33155","29819","74624","5787","19920","14003","75127","NA","74621","75128","74547","33155","75920","25917","74047","5772","36777","Lexical Decision Task","24","22884","25","yes","1024"
"2.728085817","10.02","9","bike","word","96.15384615384616","96.15384615384616","903.8076923076923","903.8076923076923","black","no","legacy","legacy","legacy","0","uniform","1","undefined","undefined","undefined","1","j","0","0","0","0","25","0","0","0","25","NA","21","25","21","0","21","3","25","0","25","Thu Feb 18 13:37:21 2021","The main experiment item","yes","Lexical_Decision_Task.osexp","/Users/admin/Downloads","no","Andale Mono","no","18","no","white","no","yes","576","legacy","21","21","3","/Users/admin/Downloads/subject-5210171.csv","legacy","Lentiform Loewenfeld","3.3.7","yes","yes","600bd7cfb6416f0113b04181","602110864497cf011d9c0822","0","j","NA","space","space","space","NA","j","615","NA","3335","8191","5912","NA","615","2","legacy","1024","2","48000","-16","task","5210171","odd","NA","27815","33155","29819","76499","5787","19920","14003","77002","NA","76495","77002","76424","33155","77618","25917","75924","5772","36777","Lexical Decision Task","25","23499","26","yes","1024"
"2.842815106","7.86","8","lump","word","96.29629629629629","96.29629629629629","904","904","black","no","legacy","legacy","legacy","0","uniform","1","undefined","undefined","undefined","1","j","0","0","0","0","26","0","0","0","26","NA","22","26","22","0","22","3","26","0","26","Thu Feb 18 13:37:21 2021","The main experiment item","yes","Lexical_Decision_Task.osexp","/Users/admin/Downloads","no","Andale Mono","no","18","no","white","no","yes","576","legacy","22","22","3","/Users/admin/Downloads/subject-5210171.csv","legacy","Lentiform Loewenfeld","3.3.7","yes","yes","600bd7cfb6416f0113b04181","602110864497cf011d9c0822","0","j","NA","space","space","space","NA","j","909","NA","3335","8191","5912","NA","909","2","legacy","1024","2","48000","-16","task","5210171","odd","NA","27815","33155","29819","78208","5787","19920","14003","78711","NA","78204","78712","78131","33155","79622","25917","77631","5772","36777","Lexical Decision Task","26","24408","27","yes","1024"
"3.140404328","10.66","9","deep","word","96.42857142857143","96.42857142857143","891.1071428571429","891.1071428571429","black","no","legacy","legacy","legacy","0","uniform","1","undefined","undefined","undefined","1","j","0","0","0","0","27","0","0","0","27","NA","23","27","23","0","23","3","27","0","27","Thu Feb 18 13:37:21 2021","The main experiment item","yes","Lexical_Decision_Task.osexp","/Users/admin/Downloads","no","Andale Mono","no","18","no","white","no","yes","576","legacy","23","23","3","/Users/admin/Downloads/subject-5210171.csv","legacy","Lentiform Loewenfeld","3.3.7","yes","yes","600bd7cfb6416f0113b04181","602110864497cf011d9c0822","0","j","NA","space","space","space","NA","j","543","NA","3335","8191","5912","NA","543","2","legacy","1024","2","48000","-16","task","5210171","odd","NA","27815","33155","29819","80202","5787","19920","14003","80706","NA","80199","80706","80127","33155","81251","25917","79627","5772","36777","Lexical Decision Task","27","24951","28","yes","1024"
"3.031812271","6.52","3","gulp","word","96.55172413793103","96.55172413793103","882.6896551724138","882.6896551724138","black","no","legacy","legacy","legacy","0","uniform","1","undefined","undefined","undefined","1","j","0","0","0","0","28","0","0","0","28","NA","24","28","24","0","24","3","28","0","28","Thu Feb 18 13:37:21 2021","The main experiment item","yes","Lexical_Decision_Task.osexp","/Users/admin/Downloads","no","Andale Mono","no","18","no","white","no","yes","576","legacy","24","24","3","/Users/admin/Downloads/subject-5210171.csv","legacy","Lentiform Loewenfeld","3.3.7","yes","yes","600bd7cfb6416f0113b04181","602110864497cf011d9c0822","0","j","NA","space","space","space","NA","j","647","NA","3335","8191","5912","NA","647","2","legacy","1024","2","48000","-16","task","5210171","odd","NA","27815","33155","29819","81830","5787","19920","14003","82333","NA","81827","82334","81755","33155","82982","25917","81255","5772","36777","Lexical Decision Task","28","25598","29","yes","1024"
"2.821076612","0","4","lult","non-word","96.66666666666667","96.66666666666667","879.3","879.3","black","no","legacy","legacy","legacy","0","uniform","1","undefined","undefined","undefined","1","f","0","0","0","0","29","0","0","0","29","NA","25","29","25","0","25","3","29","0","29","Thu Feb 18 13:37:21 2021","The main experiment item","yes","Lexical_Decision_Task.osexp","/Users/admin/Downloads","no","Andale Mono","no","18","no","white","no","yes","576","legacy","25","25","3","/Users/admin/Downloads/subject-5210171.csv","legacy","Lentiform Loewenfeld","3.3.7","yes","yes","600bd7cfb6416f0113b04181","602110864497cf011d9c0822","0","f","NA","space","space","space","NA","f","781","NA","3335","8191","5912","NA","781","2","legacy","1024","2","48000","-16","task","5210171","odd","NA","27815","33155","29819","83562","5787","19920","14003","84064","NA","83558","84065","83487","33155","84847","25917","82987","5772","36777","Lexical Decision Task","29","26379","30","yes","1024"
"2.893578687","8.69","3","surf","word","96.7741935483871","96.7741935483871","869.483870967742","869.483870967742","black","no","legacy","legacy","legacy","0","uniform","1","undefined","undefined","undefined","1","j","0","0","0","0","30","0","0","0","30","NA","26","30","26","0","26","3","30","0","30","Thu Feb 18 13:37:21 2021","The main experiment item","yes","Lexical_Decision_Task.osexp","/Users/admin/Downloads","no","Andale Mono","no","18","no","white","no","yes","576","legacy","26","26","3","/Users/admin/Downloads/subject-5210171.csv","legacy","Lentiform Loewenfeld","3.3.7","yes","yes","600bd7cfb6416f0113b04181","602110864497cf011d9c0822","0","j","NA","space","space","space","NA","j","575","NA","3335","8191","5912","NA","575","2","legacy","1024","2","48000","-16","task","5210171","odd","NA","27815","33155","29819","85427","5787","19920","14003","85930","NA","85423","85931","85352","33155","86507","25917","84852","5772","36777","Lexical Decision Task","30","26954","31","yes","1024"
"3.22685757","9.99","7","roll","word","96.875","96.875","862.34375","862.34375","black","no","legacy","legacy","legacy","0","uniform","1","undefined","undefined","undefined","1","j","0","0","0","0","31","0","0","0","31","NA","27","31","27","0","27","3","31","0","31","Thu Feb 18 13:37:21 2021","The main experiment item","yes","Lexical_Decision_Task.osexp","/Users/admin/Downloads","no","Andale Mono","no","18","no","white","no","yes","576","legacy","27","27","3","/Users/admin/Downloads/subject-5210171.csv","legacy","Lentiform Loewenfeld","3.3.7","yes","yes","600bd7cfb6416f0113b04181","602110864497cf011d9c0822","0","j","NA","space","space","space","NA","j","641","NA","3335","8191","5912","NA","641","2","legacy","1024","2","48000","-16","task","5210171","odd","NA","27815","33155","29819","87092","5787","19920","14003","87596","NA","87089","87596","87012","33155","88239","25917","86512","5772","36777","Lexical Decision Task","31","27595","32","yes","1024"
"2.981215883","10.66","5","hair","word","96.96969696969697","96.96969696969697","854.9090909090909","854.9090909090909","black","no","legacy","legacy","legacy","0","uniform","1","undefined","undefined","undefined","1","j","0","0","0","0","32","0","0","0","32","NA","28","32","28","0","28","3","32","0","32","Thu Feb 18 13:37:21 2021","The main experiment item","yes","Lexical_Decision_Task.osexp","/Users/admin/Downloads","no","Andale Mono","no","18","no","white","no","yes","576","legacy","28","28","3","/Users/admin/Downloads/subject-5210171.csv","legacy","Lentiform Loewenfeld","3.3.7","yes","yes","600bd7cfb6416f0113b04181","602110864497cf011d9c0822","0","j","NA","space","space","space","NA","j","617","NA","3335","8191","5912","NA","617","2","legacy","1024","2","48000","-16","task","5210171","odd","NA","27815","33155","29819","88830","5787","19920","14003","89333","NA","88825","89333","88743","33155","89951","25917","88243","5772","36777","Lexical Decision Task","32","28212","33","yes","1024"
"2.696356389","0","1","pizz","non-word","97.05882352941177","97.05882352941177","855.7647058823529","855.7647058823529","black","no","legacy","legacy","legacy","0","uniform","1","undefined","undefined","undefined","1","f","0","0","0","0","33","0","0","0","33","NA","29","33","29","0","29","3","33","0","33","Thu Feb 18 13:37:21 2021","The main experiment item","yes","Lexical_Decision_Task.osexp","/Users/admin/Downloads","no","Andale Mono","no","18","no","white","no","yes","576","legacy","29","29","3","/Users/admin/Downloads/subject-5210171.csv","legacy","Lentiform Loewenfeld","3.3.7","yes","yes","600bd7cfb6416f0113b04181","602110864497cf011d9c0822","0","f","NA","space","space","space","NA","f","884","NA","3335","8191","5912","NA","884","2","legacy","1024","2","48000","-16","task","5210171","odd","NA","27815","33155","29819","90533","5787","19920","14003","91036","NA","90530","91036","90456","33155","91921","25917","89955","5772","36777","Lexical Decision Task","33","29096","34","yes","1024"
"2.907588697","8.91","9","mood","word","97.14285714285714","97.14285714285714","848.1714285714286","848.1714285714286","black","no","legacy","legacy","legacy","0","uniform","1","undefined","undefined","undefined","1","j","0","0","0","0","34","0","0","0","34","NA","30","34","30","0","30","3","34","0","34","Thu Feb 18 13:37:21 2021","The main experiment item","yes","Lexical_Decision_Task.osexp","/Users/admin/Downloads","no","Andale Mono","no","18","no","white","no","yes","576","legacy","30","30","3","/Users/admin/Downloads/subject-5210171.csv","legacy","Lentiform Loewenfeld","3.3.7","yes","yes","600bd7cfb6416f0113b04181","602110864497cf011d9c0822","0","j","NA","space","space","space","NA","j","590","NA","3335","8191","5912","NA","590","2","legacy","1024","2","48000","-16","task","5210171","odd","NA","27815","33155","29819","92502","5787","19920","14003","93005","NA","92499","93005","92426","33155","93597","25917","91926","5772","36777","Lexical Decision Task","34","29686","35","yes","1024"
"3.102203805","7.21","3","drip","word","97.22222222222223","97.22222222222223","842.8888888888889","842.8888888888889","black","no","legacy","legacy","legacy","0","uniform","1","undefined","undefined","undefined","1","j","0","0","0","0","35","0","0","0","35","NA","31","35","31","0","31","3","35","0","35","Thu Feb 18 13:37:21 2021","The main experiment item","yes","Lexical_Decision_Task.osexp","/Users/admin/Downloads","no","Andale Mono","no","18","no","white","no","yes","576","legacy","31","31","3","/Users/admin/Downloads/subject-5210171.csv","legacy","Lentiform Loewenfeld","3.3.7","yes","yes","600bd7cfb6416f0113b04181","602110864497cf011d9c0822","0","j","NA","space","space","space","NA","j","658","NA","3335","8191","5912","NA","658","2","legacy","1024","2","48000","-16","task","5210171","odd","NA","27815","33155","29819","94181","5787","19920","14003","94683","NA","94178","94684","94102","33155","95343","25917","93602","5772","36777","Lexical Decision Task","35","30344","36","yes","1024"
"3.119255889","6.63","2","itch","word","94.5945945945946","94.5945945945946","901.1891891891892","901.1891891891892","black","no","legacy","legacy","legacy","0","uniform","0","undefined","undefined","undefined","0","j","0","0","0","0","36","0","0","0","36","NA","32","36","32","0","32","3","36","0","36","Thu Feb 18 13:37:21 2021","The main experiment item","yes","Lexical_Decision_Task.osexp","/Users/admin/Downloads","no","Andale Mono","no","18","no","white","no","yes","576","legacy","32","32","3","/Users/admin/Downloads/subject-5210171.csv","legacy","Lentiform Loewenfeld","3.3.7","yes","yes","600bd7cfb6416f0113b04181","602110864497cf011d9c0822","0","None","NA","space","space","space","NA","None","3000","NA","3335","8191","5912","NA","3000","2","legacy","1024","2","48000","-16","task","5210171","odd","NA","27815","33155","29819","95925","5787","19920","14003","96428","NA","95922","96428","95849","33155","99428","25917","95349","5772","36777","Lexical Decision Task","35","33344","37","yes","1024"
"3.100255637","0","6","brax","non-word","92.10526315789474","92.10526315789474","956.421052631579","956.421052631579","black","no","legacy","legacy","legacy","0","uniform","0","undefined","undefined","undefined","0","f","0","0","0","0","37","0","0","0","37","NA","33","37","33","0","33","3","37","0","37","Thu Feb 18 13:37:21 2021","The main experiment item","yes","Lexical_Decision_Task.osexp","/Users/admin/Downloads","no","Andale Mono","no","18","no","white","no","yes","576","legacy","33","33","3","/Users/admin/Downloads/subject-5210171.csv","legacy","Lentiform Loewenfeld","3.3.7","yes","yes","600bd7cfb6416f0113b04181","602110864497cf011d9c0822","0","None","NA","space","space","space","NA","None","3000","NA","3335","8191","5912","NA","3000","2","legacy","1024","2","48000","-16","task","5210171","odd","NA","27815","33155","29819","101012","5787","19920","14003","101516","NA","101009","101516","100938","33155","104516","25917","95349","5772","99438","Lexical Decision Task","35","36344","38","yes","1024"
"3.174641193","0","3","ramb","non-word","92.3076923076923","92.3076923076923","956.1282051282051","956.1282051282051","black","no","legacy","legacy","legacy","0","uniform","1","undefined","undefined","undefined","1","f","0","0","0","0","38","0","0","0","38","NA","34","38","34","0","34","3","38","0","38","Thu Feb 18 13:37:21 2021","The main experiment item","yes","Lexical_Decision_Task.osexp","/Users/admin/Downloads","no","Andale Mono","no","18","no","white","no","yes","576","legacy","34","34","3","/Users/admin/Downloads/subject-5210171.csv","legacy","Lentiform Loewenfeld","3.3.7","yes","yes","600bd7cfb6416f0113b04181","602110864497cf011d9c0822","0","f","NA","space","space","space","NA","f","945","NA","3335","8191","5912","NA","945","2","legacy","1024","2","48000","-16","task","5210171","odd","NA","27815","33155","29819","106142","5787","19920","14003","106647","NA","106118","106647","106023","33155","107593","25917","95349","5772","104522","Lexical Decision Task","36","37289","39","yes","1024"
"2.576725172","0","8","gowl","non-word","92.5","92.5","953.6","953.6","black","no","legacy","legacy","legacy","0","uniform","1","undefined","undefined","undefined","1","f","0","0","0","0","39","0","0","0","39","NA","35","39","35","0","35","3","39","0","39","Thu Feb 18 13:37:21 2021","The main experiment item","yes","Lexical_Decision_Task.osexp","/Users/admin/Downloads","no","Andale Mono","no","18","no","white","no","yes","576","legacy","35","35","3","/Users/admin/Downloads/subject-5210171.csv","legacy","Lentiform Loewenfeld","3.3.7","yes","yes","600bd7cfb6416f0113b04181","602110864497cf011d9c0822","0","f","NA","space","space","space","NA","f","855","NA","3335","8191","5912","NA","855","2","legacy","1024","2","48000","-16","task","5210171","odd","NA","27815","33155","29819","108190","5787","19920","14003","108693","NA","108185","108693","108102","33155","109549","25917","107602","5772","104522","Lexical Decision Task","37","38144","40","yes","1024"
"3.311895072","0","9","gung","non-word","92.6829268292683","92.6829268292683","966.7560975609756","966.7560975609756","black","no","legacy","legacy","legacy","0","uniform","1","undefined","undefined","undefined","1","f","0","0","0","0","40","0","0","0","40","NA","36","40","36","0","36","3","40","0","40","Thu Feb 18 13:37:21 2021","The main experiment item","yes","Lexical_Decision_Task.osexp","/Users/admin/Downloads","no","Andale Mono","no","18","no","white","no","yes","576","legacy","36","36","3","/Users/admin/Downloads/subject-5210171.csv","legacy","Lentiform Loewenfeld","3.3.7","yes","yes","600bd7cfb6416f0113b04181","602110864497cf011d9c0822","0","f","NA","space","space","space","NA","f","1493","NA","3335","8191","5912","NA","1493","2","legacy","1024","2","48000","-16","task","5210171","odd","NA","27815","33155","29819","110128","5787","19920","14003","110631","NA","110124","110631","110055","33155","112125","25917","109555","5772","104522","Lexical Decision Task","38","39637","41","yes","1024"
"2.897810299","0","5","glur","non-word","92.85714285714286","92.85714285714286","964.2857142857143","964.2857142857143","black","no","legacy","legacy","legacy","0","uniform","1","undefined","undefined","undefined","1","f","0","0","0","0","41","0","0","0","41","NA","37","41","37","0","37","3","41","0","41","Thu Feb 18 13:37:21 2021","The main experiment item","yes","Lexical_Decision_Task.osexp","/Users/admin/Downloads","no","Andale Mono","no","18","no","white","no","yes","576","legacy","37","37","3","/Users/admin/Downloads/subject-5210171.csv","legacy","Lentiform Loewenfeld","3.3.7","yes","yes","600bd7cfb6416f0113b04181","602110864497cf011d9c0822","0","f","NA","space","space","space","NA","f","863","NA","3335","8191","5912","NA","863","2","legacy","1024","2","48000","-16","task","5210171","odd","NA","27815","33155","29819","112714","5787","19920","14003","113218","NA","112711","113218","112640","33155","114082","25917","112139","5772","104522","Lexical Decision Task","39","40500","42","yes","1024"
"2.983324025","9.56","2","debt","word","93.02325581395348","93.02325581395348","1004.953488372093","1004.953488372093","black","no","legacy","legacy","legacy","0","uniform","1","undefined","undefined","undefined","1","j","0","0","0","0","42","0","0","0","42","NA","38","42","38","0","38","3","42","0","42","Thu Feb 18 13:37:21 2021","The main experiment item","yes","Lexical_Decision_Task.osexp","/Users/admin/Downloads","no","Andale Mono","no","18","no","white","no","yes","576","legacy","38","38","3","/Users/admin/Downloads/subject-5210171.csv","legacy","Lentiform Loewenfeld","3.3.7","yes","yes","600bd7cfb6416f0113b04181","602110864497cf011d9c0822","0","j","NA","space","space","space","NA","j","2713","NA","3335","8191","5912","NA","2713","2","legacy","1024","2","48000","-16","task","5210171","odd","NA","27815","33155","29819","114659","5787","19920","14003","115162","NA","114655","115162","114586","33155","117876","25917","114086","5772","104522","Lexical Decision Task","40","43213","43","yes","1024"
"3.495914186","0","4","peng","non-word","90.9090909090909","90.9090909090909","1003.5","1003.5","black","no","legacy","legacy","legacy","0","uniform","0","undefined","undefined","undefined","0","f","0","0","0","0","43","0","0","0","43","NA","39","43","39","0","39","3","43","0","43","Thu Feb 18 13:37:21 2021","The main experiment item","yes","Lexical_Decision_Task.osexp","/Users/admin/Downloads","no","Andale Mono","no","18","no","white","no","yes","576","legacy","39","39","3","/Users/admin/Downloads/subject-5210171.csv","legacy","Lentiform Loewenfeld","3.3.7","yes","yes","600bd7cfb6416f0113b04181","602110864497cf011d9c0822","0","j","NA","space","space","space","NA","j","941","NA","3335","8191","5912","NA","941","2","legacy","1024","2","48000","-16","task","5210171","odd","NA","27815","33155","29819","118462","5787","19920","14003","118965","NA","118459","118965","118390","33155","119908","25917","117890","5772","104522","Lexical Decision Task","40","44154","44","yes","1024"
"3.259832699","0","9","flar","non-word","91.11111111111111","91.11111111111111","999.4444444444445","999.4444444444445","black","no","legacy","legacy","legacy","0","uniform","1","undefined","undefined","undefined","1","f","0","0","0","0","44","0","0","0","44","NA","40","44","40","0","40","3","44","0","44","Thu Feb 18 13:37:21 2021","The main experiment item","yes","Lexical_Decision_Task.osexp","/Users/admin/Downloads","no","Andale Mono","no","18","no","white","no","yes","576","legacy","40","40","3","/Users/admin/Downloads/subject-5210171.csv","legacy","Lentiform Loewenfeld","3.3.7","yes","yes","600bd7cfb6416f0113b04181","602110864497cf011d9c0822","0","f","NA","space","space","space","NA","f","821","NA","3335","8191","5912","NA","821","2","legacy","1024","2","48000","-16","task","5210171","odd","NA","27815","33155","29819","121488","5787","19920","14003","121991","NA","121484","121991","121413","33155","122813","25917","117890","5772","119913","Lexical Decision Task","41","44975","45","yes","1024"
"3.120025233","0","2","nyst","non-word","91.30434782608695","91.30434782608695","993.9347826086956","993.9347826086956","black","no","legacy","legacy","legacy","0","uniform","1","undefined","undefined","undefined","1","f","0","0","0","0","45","0","0","0","45","NA","41","45","41","0","41","3","45","0","45","Thu Feb 18 13:37:21 2021","The main experiment item","yes","Lexical_Decision_Task.osexp","/Users/admin/Downloads","no","Andale Mono","no","18","no","white","no","yes","576","legacy","41","41","3","/Users/admin/Downloads/subject-5210171.csv","legacy","Lentiform Loewenfeld","3.3.7","yes","yes","600bd7cfb6416f0113b04181","602110864497cf011d9c0822","0","f","NA","space","space","space","NA","f","746","NA","3335","8191","5912","NA","746","2","legacy","1024","2","48000","-16","task","5210171","odd","NA","27815","33155","29819","123390","5787","19920","14003","123893","NA","123386","123893","123317","33155","124640","25917","122817","5772","119913","Lexical Decision Task","42","45721","46","yes","1024"
"2.972819734","0","4","scew","non-word","91.48936170212765","91.48936170212765","991.1914893617021","991.1914893617021","black","no","legacy","legacy","legacy","0","uniform","1","undefined","undefined","undefined","1","f","0","0","0","0","46","0","0","0","46","NA","42","46","42","0","42","3","46","0","46","Thu Feb 18 13:37:21 2021","The main experiment item","yes","Lexical_Decision_Task.osexp","/Users/admin/Downloads","no","Andale Mono","no","18","no","white","no","yes","576","legacy","42","42","3","/Users/admin/Downloads/subject-5210171.csv","legacy","Lentiform Loewenfeld","3.3.7","yes","yes","600bd7cfb6416f0113b04181","602110864497cf011d9c0822","0","f","NA","space","space","space","NA","f","865","NA","3335","8191","5912","NA","865","2","legacy","1024","2","48000","-16","task","5210171","odd","NA","27815","33155","29819","125228","5787","19920","14003","125731","NA","125224","125731","125154","33155","126597","25917","124653","5772","119913","Lexical Decision Task","43","46586","47","yes","1024"
"2.898725182","0","7","turl","non-word","89.58333333333333","89.58333333333333","982.125","982.125","black","no","legacy","legacy","legacy","0","uniform","0","undefined","undefined","undefined","0","f","0","0","0","0","47","0","0","0","47","NA","43","47","43","0","43","3","47","0","47","Thu Feb 18 13:37:21 2021","The main experiment item","yes","Lexical_Decision_Task.osexp","/Users/admin/Downloads","no","Andale Mono","no","18","no","white","no","yes","576","legacy","43","43","3","/Users/admin/Downloads/subject-5210171.csv","legacy","Lentiform Loewenfeld","3.3.7","yes","yes","600bd7cfb6416f0113b04181","602110864497cf011d9c0822","0","j","NA","space","space","space","NA","j","556","NA","3335","8191","5912","NA","556","2","legacy","1024","2","48000","-16","task","5210171","odd","NA","27815","33155","29819","127182","5787","19920","14003","127685","NA","127179","127685","127101","33155","128242","25917","126601","5772","119913","Lexical Decision Task","43","47142","48","yes","1024"
"2.6599162","0","6","flug","non-word","89.79591836734694","89.79591836734694","988.2857142857143","988.2857142857143","black","no","legacy","legacy","legacy","0","uniform","1","undefined","undefined","undefined","1","f","0","0","0","0","48","0","0","0","48","NA","44","48","44","0","44","3","48","0","48","Thu Feb 18 13:37:21 2021","The main experiment item","yes","Lexical_Decision_Task.osexp","/Users/admin/Downloads","no","Andale Mono","no","18","no","white","no","yes","576","legacy","44","44","3","/Users/admin/Downloads/subject-5210171.csv","legacy","Lentiform Loewenfeld","3.3.7","yes","yes","600bd7cfb6416f0113b04181","602110864497cf011d9c0822","0","f","NA","space","space","space","NA","f","1284","NA","3335","8191","5912","NA","1284","2","legacy","1024","2","48000","-16","task","5210171","odd","NA","27815","33155","29819","129829","5787","19920","14003","130332","NA","129825","130332","129754","33155","131617","25917","126601","5772","128254","Lexical Decision Task","44","48426","49","yes","1024"
"2.767650507","0","6","yolt","non-word","90","90","988.66","988.66","black","no","legacy","legacy","legacy","0","uniform","1","undefined","undefined","undefined","1","f","0","0","0","0","49","0","0","0","49","NA","45","49","45","0","45","3","49","0","49","Thu Feb 18 13:37:21 2021","The main experiment item","yes","Lexical_Decision_Task.osexp","/Users/admin/Downloads","no","Andale Mono","no","18","no","white","no","yes","576","legacy","45","45","3","/Users/admin/Downloads/subject-5210171.csv","legacy","Lentiform Loewenfeld","3.3.7","yes","yes","600bd7cfb6416f0113b04181","602110864497cf011d9c0822","0","f","NA","space","space","space","NA","f","1007","NA","3335","8191","5912","NA","1007","2","legacy","1024","2","48000","-16","task","5210171","odd","NA","27815","33155","29819","132204","5787","19920","14003","132707","NA","132201","132707","132132","33155","133715","25917","131631","5772","128254","Lexical Decision Task","45","49433","50","yes","1024"
"2.924968096","0","4","phim","non-word","90.19607843137256","90.19607843137256","987.1764705882352","987.1764705882352","black","no","legacy","legacy","legacy","0","uniform","1","undefined","undefined","undefined","1","f","0","0","0","0","50","0","0","0","50","NA","46","50","46","0","46","3","50","0","50","Thu Feb 18 13:37:21 2021","The main experiment item","yes","Lexical_Decision_Task.osexp","/Users/admin/Downloads","no","Andale Mono","no","18","no","white","no","yes","576","legacy","46","46","3","/Users/admin/Downloads/subject-5210171.csv","legacy","Lentiform Loewenfeld","3.3.7","yes","yes","600bd7cfb6416f0113b04181","602110864497cf011d9c0822","0","f","NA","space","space","space","NA","f","913","NA","3335","8191","5912","NA","913","2","legacy","1024","2","48000","-16","task","5210171","odd","NA","27815","33155","29819","134307","5787","19920","14003","134810","NA","134304","134811","134230","33155","135725","25917","133730","5772","128254","Lexical Decision Task","46","50346","51","yes","1024"
"3.347850856","10.51","2","rich","word","90.38461538461539","90.38461538461539","979.6538461538462","979.6538461538462","black","no","legacy","legacy","legacy","0","uniform","1","undefined","undefined","undefined","1","j","0","0","0","0","51","0","0","0","51","NA","47","51","47","0","47","3","51","0","51","Thu Feb 18 13:37:21 2021","The main experiment item","yes","Lexical_Decision_Task.osexp","/Users/admin/Downloads","no","Andale Mono","no","18","no","white","no","yes","576","legacy","47","47","3","/Users/admin/Downloads/subject-5210171.csv","legacy","Lentiform Loewenfeld","3.3.7","yes","yes","600bd7cfb6416f0113b04181","602110864497cf011d9c0822","0","j","NA","space","space","space","NA","j","596","NA","3335","8191","5912","NA","596","2","legacy","1024","2","48000","-16","task","5210171","odd","NA","27815","33155","29819","136311","5787","19920","14003","136814","NA","136308","136814","136239","33155","137411","25917","135739","5772","128254","Lexical Decision Task","47","50942","52","yes","1024"
"2.75025376","10.2","6","jump","word","90.56603773584905","90.56603773584905","972.0754716981132","972.0754716981132","black","no","legacy","legacy","legacy","0","uniform","1","undefined","undefined","undefined","1","j","0","0","0","0","52","0","0","0","52","NA","48","52","48","0","48","3","52","0","52","Thu Feb 18 13:37:21 2021","The main experiment item","yes","Lexical_Decision_Task.osexp","/Users/admin/Downloads","no","Andale Mono","no","18","no","white","no","yes","576","legacy","48","48","3","/Users/admin/Downloads/subject-5210171.csv","legacy","Lentiform Loewenfeld","3.3.7","yes","yes","600bd7cfb6416f0113b04181","602110864497cf011d9c0822","0","j","NA","space","space","space","NA","j","578","NA","3335","8191","5912","NA","578","2","legacy","1024","2","48000","-16","task","5210171","odd","NA","27815","33155","29819","138000","5787","19920","14003","138504","NA","137997","138504","137926","33155","139083","25917","137425","5772","128254","Lexical Decision Task","48","51520","53","yes","1024"
"2.799799878","0","4","ciff","non-word","90.74074074074075","90.74074074074075","969.6666666666666","969.6666666666666","black","no","legacy","legacy","legacy","0","uniform","1","undefined","undefined","undefined","1","f","0","0","0","0","53","0","0","0","53","NA","49","53","49","0","49","3","53","0","53","Thu Feb 18 13:37:21 2021","The main experiment item","yes","Lexical_Decision_Task.osexp","/Users/admin/Downloads","no","Andale Mono","no","18","no","white","no","yes","576","legacy","49","49","3","/Users/admin/Downloads/subject-5210171.csv","legacy","Lentiform Loewenfeld","3.3.7","yes","yes","600bd7cfb6416f0113b04181","602110864497cf011d9c0822","0","f","NA","space","space","space","NA","f","842","NA","3335","8191","5912","NA","842","2","legacy","1024","2","48000","-16","task","5210171","odd","NA","27815","33155","29819","139670","5787","19920","14003","140173","NA","139666","140173","139596","33155","141016","25917","139096","5772","128254","Lexical Decision Task","49","52362","54","yes","1024"
"2.784379519","0","2","snaf","non-word","90.9090909090909","90.9090909090909","993.7818181818182","993.7818181818182","black","no","legacy","legacy","legacy","0","uniform","1","undefined","undefined","undefined","1","f","0","0","0","0","54","0","0","0","54","0","50","54","50","0","50","3","54","0","54","Thu Feb 18 13:37:21 2021","The main experiment item","yes","Lexical_Decision_Task.osexp","/Users/admin/Downloads","no","Andale Mono","no","18","no","white","no","yes","576","legacy","50","50","3","/Users/admin/Downloads/subject-5210171.csv","legacy","Lentiform Loewenfeld","3.3.7","yes","yes","600bd7cfb6416f0113b04181","602110864497cf011d9c0822","0","f","NA","space","space","space","space","f","2296","NA","3335","8191","5912","4614","2296","2","legacy","1024","2","48000","-16","task","5210171","odd","NA","27815","33155","29819","146253","5787","19920","14003","146757","141563","146250","146757","141529","33155","149054","25917","141029","5772","128254","Lexical Decision Task","50","54658","55","yes","1024"
"2.68604012","0","4","pumb","non-word","91.07142857142857","91.07142857142857","1011.75","1011.75","black","no","legacy","legacy","legacy","0","uniform","1","undefined","undefined","undefined","1","f","0","0","0","0","55","0","0","0","55","0","51","55","51","0","51","3","55","0","55","Thu Feb 18 13:37:21 2021","The main experiment item","yes","Lexical_Decision_Task.osexp","/Users/admin/Downloads","no","Andale Mono","no","18","no","white","no","yes","576","legacy","51","51","3","/Users/admin/Downloads/subject-5210171.csv","legacy","Lentiform Loewenfeld","3.3.7","yes","yes","600bd7cfb6416f0113b04181","602110864497cf011d9c0822","0","f","NA","space","space","space","space","f","2000","NA","3335","8191","5912","4614","2000","2","legacy","1024","2","48000","-16","task","5210171","odd","NA","27815","33155","29819","149641","5787","19920","14003","150144","141563","149638","150144","149567","33155","152146","25917","149066","5772","128254","Lexical Decision Task","51","56658","56","yes","1024"
"2.86332286","6.71","2","feud","word","91.2280701754386","91.2280701754386","1007.6315789473684","1007.6315789473684","black","no","legacy","legacy","legacy","0","uniform","1","undefined","undefined","undefined","1","j","0","0","0","0","56","0","0","0","56","0","52","56","52","0","52","3","56","0","56","Thu Feb 18 13:37:21 2021","The main experiment item","yes","Lexical_Decision_Task.osexp","/Users/admin/Downloads","no","Andale Mono","no","18","no","white","no","yes","576","legacy","52","52","3","/Users/admin/Downloads/subject-5210171.csv","legacy","Lentiform Loewenfeld","3.3.7","yes","yes","600bd7cfb6416f0113b04181","602110864497cf011d9c0822","0","j","NA","space","space","space","space","j","777","NA","3335","8191","5912","4614","777","2","legacy","1024","2","48000","-16","task","5210171","odd","NA","27815","33155","29819","152735","5787","19920","14003","153239","141563","152732","153239","152662","33155","154017","25917","152162","5772","128254","Lexical Decision Task","52","57435","57","yes","1024"
"3.366547468","0","6","plat","non-word","91.37931034482759","91.37931034482759","1002.2931034482758","1002.2931034482758","black","no","legacy","legacy","legacy","0","uniform","1","undefined","undefined","undefined","1","f","0","0","0","0","57","0","0","0","57","0","53","57","53","0","53","3","57","0","57","Thu Feb 18 13:37:21 2021","The main experiment item","yes","Lexical_Decision_Task.osexp","/Users/admin/Downloads","no","Andale Mono","no","18","no","white","no","yes","576","legacy","53","53","3","/Users/admin/Downloads/subject-5210171.csv","legacy","Lentiform Loewenfeld","3.3.7","yes","yes","600bd7cfb6416f0113b04181","602110864497cf011d9c0822","0","f","NA","space","space","space","space","f","698","NA","3335","8191","5912","4614","698","2","legacy","1024","2","48000","-16","task","5210171","odd","NA","27815","33155","29819","154599","5787","19920","14003","155102","141563","154596","155102","154526","33155","155801","25917","154026","5772","128254","Lexical Decision Task","53","58133","58","yes","1024"
"2.858136002","0","4","phip","non-word","91.52542372881356","91.52542372881356","996.0847457627119","996.0847457627119","black","no","legacy","legacy","legacy","0","uniform","1","undefined","undefined","undefined","1","f","0","0","0","0","58","0","0","0","58","0","54","58","54","0","54","3","58","0","58","Thu Feb 18 13:37:21 2021","The main experiment item","yes","Lexical_Decision_Task.osexp","/Users/admin/Downloads","no","Andale Mono","no","18","no","white","no","yes","576","legacy","54","54","3","/Users/admin/Downloads/subject-5210171.csv","legacy","Lentiform Loewenfeld","3.3.7","yes","yes","600bd7cfb6416f0113b04181","602110864497cf011d9c0822","0","f","NA","space","space","space","space","f","636","NA","3335","8191","5912","4614","636","2","legacy","1024","2","48000","-16","task","5210171","odd","NA","27815","33155","29819","156387","5787","19920","14003","156890","141563","156383","156890","156314","33155","157528","25917","155813","5772","128254","Lexical Decision Task","54","58769","59","yes","1024"
"3.531734309","0","6","lerd","non-word","91.66666666666667","91.66666666666667","1005.55","1005.55","black","no","legacy","legacy","legacy","0","uniform","1","undefined","undefined","undefined","1","f","0","0","0","0","59","0","0","0","59","0","55","59","55","0","55","3","59","0","59","Thu Feb 18 13:37:21 2021","The main experiment item","yes","Lexical_Decision_Task.osexp","/Users/admin/Downloads","no","Andale Mono","no","18","no","white","no","yes","576","legacy","55","55","3","/Users/admin/Downloads/subject-5210171.csv","legacy","Lentiform Loewenfeld","3.3.7","yes","yes","600bd7cfb6416f0113b04181","602110864497cf011d9c0822","0","f","NA","space","space","space","space","f","1564","NA","3335","8191","5912","4614","1564","2","legacy","1024","2","48000","-16","task","5210171","odd","NA","27815","33155","29819","158116","5787","19920","14003","158619","141563","158113","158619","158043","33155","160184","25917","157542","5772","128254","Lexical Decision Task","55","60333","60","yes","1024"
"3.378276681","6.39","8","bran","word","91.80327868852459","91.80327868852459","1010.327868852459","1010.327868852459","black","no","legacy","legacy","legacy","0","uniform","1","undefined","undefined","undefined","1","j","0","0","0","0","60","0","0","0","60","0","56","60","56","0","56","3","60","0","60","Thu Feb 18 13:37:21 2021","The main experiment item","yes","Lexical_Decision_Task.osexp","/Users/admin/Downloads","no","Andale Mono","no","18","no","white","no","yes","576","legacy","56","56","3","/Users/admin/Downloads/subject-5210171.csv","legacy","Lentiform Loewenfeld","3.3.7","yes","yes","600bd7cfb6416f0113b04181","602110864497cf011d9c0822","0","j","NA","space","space","space","space","j","1297","NA","3335","8191","5912","4614","1297","2","legacy","1024","2","48000","-16","task","5210171","odd","NA","27815","33155","29819","160770","5787","19920","14003","161274","141563","160767","161274","160698","33155","162572","25917","160198","5772","128254","Lexical Decision Task","56","61630","61","yes","1024"
"2.875447132","0","9","jelt","non-word","91.93548387096774","91.93548387096774","1003.0806451612904","1003.0806451612904","black","no","legacy","legacy","legacy","0","uniform","1","undefined","undefined","undefined","1","f","0","0","0","0","61","0","0","0","61","0","57","61","57","0","57","3","61","0","61","Thu Feb 18 13:37:21 2021","The main experiment item","yes","Lexical_Decision_Task.osexp","/Users/admin/Downloads","no","Andale Mono","no","18","no","white","no","yes","576","legacy","57","57","3","/Users/admin/Downloads/subject-5210171.csv","legacy","Lentiform Loewenfeld","3.3.7","yes","yes","600bd7cfb6416f0113b04181","602110864497cf011d9c0822","0","f","NA","space","space","space","space","f","561","NA","3335","8191","5912","4614","561","2","legacy","1024","2","48000","-16","task","5210171","odd","NA","27815","33155","29819","163159","5787","19920","14003","163663","141563","163156","163663","163087","33155","164226","25917","162586","5772","128254","Lexical Decision Task","57","62191","62","yes","1024"
"2.839898939","8.99","6","soap","word","92.06349206349206","92.06349206349206","994.6031746031746","994.6031746031746","black","no","legacy","legacy","legacy","0","uniform","1","undefined","undefined","undefined","1","j","0","0","0","0","62","0","0","0","62","0","58","62","58","0","58","3","62","0","62","Thu Feb 18 13:37:21 2021","The main experiment item","yes","Lexical_Decision_Task.osexp","/Users/admin/Downloads","no","Andale Mono","no","18","no","white","no","yes","576","legacy","58","58","3","/Users/admin/Downloads/subject-5210171.csv","legacy","Lentiform Loewenfeld","3.3.7","yes","yes","600bd7cfb6416f0113b04181","602110864497cf011d9c0822","0","j","NA","space","space","space","space","j","469","NA","3335","8191","5912","4614","469","2","legacy","1024","2","48000","-16","task","5210171","odd","NA","27815","33155","29819","164811","5787","19920","14003","165314","141563","164807","165314","164737","33155","165785","25917","164236","5772","128254","Lexical Decision Task","58","62660","63","yes","1024"
"2.953276337","6.32","4","thaw","word","92.1875","92.1875","990.75","990.75","black","no","legacy","legacy","legacy","0","uniform","1","undefined","undefined","undefined","1","j","0","0","0","0","63","0","0","0","63","0","59","63","59","0","59","3","63","0","63","Thu Feb 18 13:37:21 2021","The main experiment item","yes","Lexical_Decision_Task.osexp","/Users/admin/Downloads","no","Andale Mono","no","18","no","white","no","yes","576","legacy","59","59","3","/Users/admin/Downloads/subject-5210171.csv","legacy","Lentiform Loewenfeld","3.3.7","yes","yes","600bd7cfb6416f0113b04181","602110864497cf011d9c0822","0","j","NA","space","space","space","space","j","748","NA","3335","8191","5912","4614","748","2","legacy","1024","2","48000","-16","task","5210171","odd","NA","27815","33155","29819","166362","5787","19920","14003","166865","141563","166359","166865","166290","33155","167615","25917","165790","5772","128254","Lexical Decision Task","59","63408","64","yes","1024"
"3.197740804","6.74","3","ache","word","92.3076923076923","92.3076923076923","985.0307692307692","985.0307692307692","black","no","legacy","legacy","legacy","0","uniform","1","undefined","undefined","undefined","1","j","0","0","0","0","64","0","0","0","64","0","60","64","60","0","60","3","64","0","64","Thu Feb 18 13:37:21 2021","The main experiment item","yes","Lexical_Decision_Task.osexp","/Users/admin/Downloads","no","Andale Mono","no","18","no","white","no","yes","576","legacy","60","60","3","/Users/admin/Downloads/subject-5210171.csv","legacy","Lentiform Loewenfeld","3.3.7","yes","yes","600bd7cfb6416f0113b04181","602110864497cf011d9c0822","0","j","NA","space","space","space","space","j","619","NA","3335","8191","5912","4614","619","2","legacy","1024","2","48000","-16","task","5210171","odd","NA","27815","33155","29819","168200","5787","19920","14003","168703","141563","168197","168703","168126","33155","169323","25917","167625","5772","128254","Lexical Decision Task","60","64027","65","yes","1024"
"2.937852093","0","7","bamp","non-word","92.42424242424242","92.42424242424242","985.0757575757576","985.0757575757576","black","no","legacy","legacy","legacy","0","uniform","1","undefined","undefined","undefined","1","f","0","0","0","0","65","0","0","0","65","0","61","65","61","0","61","3","65","0","65","Thu Feb 18 13:37:21 2021","The main experiment item","yes","Lexical_Decision_Task.osexp","/Users/admin/Downloads","no","Andale Mono","no","18","no","white","no","yes","576","legacy","61","61","3","/Users/admin/Downloads/subject-5210171.csv","legacy","Lentiform Loewenfeld","3.3.7","yes","yes","600bd7cfb6416f0113b04181","602110864497cf011d9c0822","0","f","NA","space","space","space","space","f","988","NA","3335","8191","5912","4614","988","2","legacy","1024","2","48000","-16","task","5210171","odd","NA","27815","33155","29819","169912","5787","19920","14003","170415","141563","169909","170415","169835","33155","171404","25917","169335","5772","128254","Lexical Decision Task","61","65015","66","yes","1024"
"3.168400243","9.12","6","horn","word","92.53731343283582","92.53731343283582","980.5970149253732","980.5970149253732","black","no","legacy","legacy","legacy","0","uniform","1","undefined","undefined","undefined","1","j","0","0","0","0","66","0","0","0","66","0","62","66","62","0","62","3","66","0","66","Thu Feb 18 13:37:21 2021","The main experiment item","yes","Lexical_Decision_Task.osexp","/Users/admin/Downloads","no","Andale Mono","no","18","no","white","no","yes","576","legacy","62","62","3","/Users/admin/Downloads/subject-5210171.csv","legacy","Lentiform Loewenfeld","3.3.7","yes","yes","600bd7cfb6416f0113b04181","602110864497cf011d9c0822","0","j","NA","space","space","space","space","j","685","NA","3335","8191","5912","4614","685","2","legacy","1024","2","48000","-16","task","5210171","odd","NA","27815","33155","29819","171989","5787","19920","14003","172492","141563","171986","172492","171917","33155","173178","25917","171417","5772","128254","Lexical Decision Task","62","65700","67","yes","1024"
"3.208978517","10.33","4","fish","word","92.6470588235294","92.6470588235294","975.0294117647059","975.0294117647059","black","no","legacy","legacy","legacy","0","uniform","1","undefined","undefined","undefined","1","j","0","0","0","0","67","0","0","0","67","0","63","67","63","0","63","3","67","0","67","Thu Feb 18 13:37:21 2021","The main experiment item","yes","Lexical_Decision_Task.osexp","/Users/admin/Downloads","no","Andale Mono","no","18","no","white","no","yes","576","legacy","63","63","3","/Users/admin/Downloads/subject-5210171.csv","legacy","Lentiform Loewenfeld","3.3.7","yes","yes","600bd7cfb6416f0113b04181","602110864497cf011d9c0822","0","j","NA","space","space","space","space","j","602","NA","3335","8191","5912","4614","602","2","legacy","1024","2","48000","-16","task","5210171","odd","NA","27815","33155","29819","173766","5787","19920","14003","174269","141563","173762","174270","173692","33155","174873","25917","173191","5772","128254","Lexical Decision Task","63","66302","68","yes","1024"
"3.274157849","0","8","leet","non-word","92.7536231884058","92.7536231884058","971.9710144927536","971.9710144927536","black","no","legacy","legacy","legacy","0","uniform","1","undefined","undefined","undefined","1","f","0","0","0","0","68","0","0","0","68","0","64","68","64","0","64","3","68","0","68","Thu Feb 18 13:37:21 2021","The main experiment item","yes","Lexical_Decision_Task.osexp","/Users/admin/Downloads","no","Andale Mono","no","18","no","white","no","yes","576","legacy","64","64","3","/Users/admin/Downloads/subject-5210171.csv","legacy","Lentiform Loewenfeld","3.3.7","yes","yes","600bd7cfb6416f0113b04181","602110864497cf011d9c0822","0","f","NA","space","space","space","space","f","764","NA","3335","8191","5912","4614","764","2","legacy","1024","2","48000","-16","task","5210171","odd","NA","27815","33155","29819","175460","5787","19920","14003","175965","141563","175457","175965","175388","33155","176731","25917","174887","5772","128254","Lexical Decision Task","64","67066","69","yes","1024"
"2.594027722","9.08","8","skip","word","91.42857142857143","91.42857142857143","966.2571428571429","966.2571428571429","black","no","legacy","legacy","legacy","0","uniform","0","undefined","undefined","undefined","0","j","0","0","0","0","69","0","0","0","69","0","65","69","65","0","65","3","69","0","69","Thu Feb 18 13:37:21 2021","The main experiment item","yes","Lexical_Decision_Task.osexp","/Users/admin/Downloads","no","Andale Mono","no","18","no","white","no","yes","576","legacy","65","65","3","/Users/admin/Downloads/subject-5210171.csv","legacy","Lentiform Loewenfeld","3.3.7","yes","yes","600bd7cfb6416f0113b04181","602110864497cf011d9c0822","0","f","NA","space","space","space","space","f","572","NA","3335","8191","5912","4614","572","2","legacy","1024","2","48000","-16","task","5210171","odd","NA","27815","33155","29819","177319","5787","19920","14003","177822","141563","177315","177822","177245","33155","178395","25917","176744","5772","128254","Lexical Decision Task","64","67638","70","yes","1024"
"2.884795364","0","6","flob","non-word","91.54929577464789","91.54929577464789","962.6338028169014","962.6338028169014","black","no","legacy","legacy","legacy","0","uniform","1","undefined","undefined","undefined","1","f","0","0","0","0","70","0","0","0","70","0","66","70","66","0","66","3","70","0","70","Thu Feb 18 13:37:21 2021","The main experiment item","yes","Lexical_Decision_Task.osexp","/Users/admin/Downloads","no","Andale Mono","no","18","no","white","no","yes","576","legacy","66","66","3","/Users/admin/Downloads/subject-5210171.csv","legacy","Lentiform Loewenfeld","3.3.7","yes","yes","600bd7cfb6416f0113b04181","602110864497cf011d9c0822","0","f","NA","space","space","space","space","f","709","NA","3335","8191","5912","4614","709","2","legacy","1024","2","48000","-16","task","5210171","odd","NA","27815","33155","29819","179982","5787","19920","14003","180486","141563","179979","180487","179908","33155","181197","25917","176744","5772","178408","Lexical Decision Task","65","68347","71","yes","1024"
"3.29439347","8.6","9","wand","word","91.66666666666667","91.66666666666667","957.1805555555555","957.1805555555555","black","no","legacy","legacy","legacy","0","uniform","1","undefined","undefined","undefined","1","j","0","0","0","0","71","0","0","0","71","0","67","71","67","0","67","3","71","0","71","Thu Feb 18 13:37:21 2021","The main experiment item","yes","Lexical_Decision_Task.osexp","/Users/admin/Downloads","no","Andale Mono","no","18","no","white","no","yes","576","legacy","67","67","3","/Users/admin/Downloads/subject-5210171.csv","legacy","Lentiform Loewenfeld","3.3.7","yes","yes","600bd7cfb6416f0113b04181","602110864497cf011d9c0822","0","j","NA","space","space","space","space","j","570","NA","3335","8191","5912","4614","570","2","legacy","1024","2","48000","-16","task","5210171","odd","NA","27815","33155","29819","181786","5787","19920","14003","182289","141563","181783","182290","181711","33155","182862","25917","181211","5772","178408","Lexical Decision Task","66","68917","72","yes","1024"
"3.316948329","0","1","besc","non-word","91.78082191780823","91.78082191780823","955.4931506849315","955.4931506849315","black","no","legacy","legacy","legacy","0","uniform","1","undefined","undefined","undefined","1","f","0","0","0","0","72","0","0","0","72","0","68","72","68","0","68","3","72","0","72","Thu Feb 18 13:37:21 2021","The main experiment item","yes","Lexical_Decision_Task.osexp","/Users/admin/Downloads","no","Andale Mono","no","18","no","white","no","yes","576","legacy","68","68","3","/Users/admin/Downloads/subject-5210171.csv","legacy","Lentiform Loewenfeld","3.3.7","yes","yes","600bd7cfb6416f0113b04181","602110864497cf011d9c0822","0","f","NA","space","space","space","space","f","834","NA","3335","8191","5912","4614","834","2","legacy","1024","2","48000","-16","task","5210171","odd","NA","27815","33155","29819","183445","5787","19920","14003","183949","141563","183442","183949","183375","33155","184785","25917","182875","5772","178408","Lexical Decision Task","67","69751","73","yes","1024"
"3.067193647","6.73","6","raft","word","91.89189189189189","91.89189189189189","957.8783783783783","957.8783783783783","black","no","legacy","legacy","legacy","0","uniform","1","undefined","undefined","undefined","1","j","0","0","0","0","73","0","0","0","73","0","69","73","69","0","69","3","73","0","73","Thu Feb 18 13:37:21 2021","The main experiment item","yes","Lexical_Decision_Task.osexp","/Users/admin/Downloads","no","Andale Mono","no","18","no","white","no","yes","576","legacy","69","69","3","/Users/admin/Downloads/subject-5210171.csv","legacy","Lentiform Loewenfeld","3.3.7","yes","yes","600bd7cfb6416f0113b04181","602110864497cf011d9c0822","0","j","NA","space","space","space","space","j","1132","NA","3335","8191","5912","4614","1132","2","legacy","1024","2","48000","-16","task","5210171","odd","NA","27815","33155","29819","185370","5787","19920","14003","185873","141563","185366","185873","185297","33155","187007","25917","184797","5772","178408","Lexical Decision Task","68","70883","74","yes","1024"
"3.20996159","0","4","clee","non-word","92","92","953.24","953.24","black","no","legacy","legacy","legacy","0","uniform","1","undefined","undefined","undefined","1","f","0","0","0","0","74","0","0","0","74","0","70","74","70","0","70","3","74","0","74","Thu Feb 18 13:37:21 2021","The main experiment item","yes","Lexical_Decision_Task.osexp","/Users/admin/Downloads","no","Andale Mono","no","18","no","white","no","yes","576","legacy","70","70","3","/Users/admin/Downloads/subject-5210171.csv","legacy","Lentiform Loewenfeld","3.3.7","yes","yes","600bd7cfb6416f0113b04181","602110864497cf011d9c0822","0","f","NA","space","space","space","space","f","610","NA","3335","8191","5912","4614","610","2","legacy","1024","2","48000","-16","task","5210171","odd","NA","27815","33155","29819","187595","5787","19920","14003","188098","141563","187592","188098","187522","33155","188710","25917","187022","5772","178408","Lexical Decision Task","69","71493","75","yes","1024"
"3.460446784","0","5","dess","non-word","92.10526315789474","92.10526315789474","959.5526315789474","959.5526315789474","black","no","legacy","legacy","legacy","0","uniform","1","undefined","undefined","undefined","1","f","0","0","0","0","75","0","0","0","75","0","71","75","71","0","71","3","75","0","75","Thu Feb 18 13:37:21 2021","The main experiment item","yes","Lexical_Decision_Task.osexp","/Users/admin/Downloads","no","Andale Mono","no","18","no","white","no","yes","576","legacy","71","71","3","/Users/admin/Downloads/subject-5210171.csv","legacy","Lentiform Loewenfeld","3.3.7","yes","yes","600bd7cfb6416f0113b04181","602110864497cf011d9c0822","0","f","NA","space","space","space","space","f","1433","NA","3335","8191","5912","4614","1433","2","legacy","1024","2","48000","-16","task","5210171","odd","NA","27815","33155","29819","189294","5787","19920","14003","189797","141563","189291","189797","189222","33155","191231","25917","188722","5772","178408","Lexical Decision Task","70","72926","76","yes","1024"
"3.363486562","6.93","9","lush","word","92.20779220779221","92.20779220779221","980.6623376623377","980.6623376623377","black","no","legacy","legacy","legacy","0","uniform","1","undefined","undefined","undefined","1","j","0","0","0","0","76","0","0","0","76","0","72","76","72","0","72","3","76","0","76","Thu Feb 18 13:37:21 2021","The main experiment item","yes","Lexical_Decision_Task.osexp","/Users/admin/Downloads","no","Andale Mono","no","18","no","white","no","yes","576","legacy","72","72","3","/Users/admin/Downloads/subject-5210171.csv","legacy","Lentiform Loewenfeld","3.3.7","yes","yes","600bd7cfb6416f0113b04181","602110864497cf011d9c0822","0","j","NA","space","space","space","space","j","2585","NA","3335","8191","5912","4614","2585","2","legacy","1024","2","48000","-16","task","5210171","odd","NA","27815","33155","29819","191818","5787","19920","14003","192321","141563","191815","192321","191744","33155","194907","25917","191244","5772","178408","Lexical Decision Task","71","75511","77","yes","1024"
"2.705007959","6.01","4","wept","word","92.3076923076923","92.3076923076923","976.3974358974359","976.3974358974359","black","no","legacy","legacy","legacy","0","uniform","1","undefined","undefined","undefined","1","j","0","0","0","0","77","0","0","0","77","0","73","77","73","0","73","3","77","0","77","Thu Feb 18 13:37:21 2021","The main experiment item","yes","Lexical_Decision_Task.osexp","/Users/admin/Downloads","no","Andale Mono","no","18","no","white","no","yes","576","legacy","73","73","3","/Users/admin/Downloads/subject-5210171.csv","legacy","Lentiform Loewenfeld","3.3.7","yes","yes","600bd7cfb6416f0113b04181","602110864497cf011d9c0822","0","j","NA","space","space","space","space","j","648","NA","3335","8191","5912","4614","648","2","legacy","1024","2","48000","-16","task","5210171","odd","NA","27815","33155","29819","195494","5787","19920","14003","195997","141563","195491","195997","195421","33155","196647","25917","194921","5772","178408","Lexical Decision Task","72","76159","78","yes","1024"
"2.980306438","0","7","slun","non-word","92.40506329113924","92.40506329113924","971.7848101265823","971.7848101265823","black","no","legacy","legacy","legacy","0","uniform","1","undefined","undefined","undefined","1","f","0","0","0","0","78","0","0","0","78","0","74","78","74","0","74","3","78","0","78","Thu Feb 18 13:37:21 2021","The main experiment item","yes","Lexical_Decision_Task.osexp","/Users/admin/Downloads","no","Andale Mono","no","18","no","white","no","yes","576","legacy","74","74","3","/Users/admin/Downloads/subject-5210171.csv","legacy","Lentiform Loewenfeld","3.3.7","yes","yes","600bd7cfb6416f0113b04181","602110864497cf011d9c0822","0","f","NA","space","space","space","space","f","612","NA","3335","8191","5912","4614","612","2","legacy","1024","2","48000","-16","task","5210171","odd","NA","27815","33155","29819","197235","5787","19920","14003","197738","141563","197231","197738","197162","33155","198351","25917","196662","5772","178408","Lexical Decision Task","73","76771","79","yes","1024"
"3.028977705","0","7","frow","non-word","92.5","92.5","970.7125","970.7125","black","no","legacy","legacy","legacy","0","uniform","1","undefined","undefined","undefined","1","f","0","0","0","0","79","0","0","0","79","0","75","79","75","0","75","3","79","0","79","Thu Feb 18 13:37:21 2021","The main experiment item","yes","Lexical_Decision_Task.osexp","/Users/admin/Downloads","no","Andale Mono","no","18","no","white","no","yes","576","legacy","75","75","3","/Users/admin/Downloads/subject-5210171.csv","legacy","Lentiform Loewenfeld","3.3.7","yes","yes","600bd7cfb6416f0113b04181","602110864497cf011d9c0822","0","f","NA","space","space","space","space","f","886","NA","3335","8191","5912","4614","886","2","legacy","1024","2","48000","-16","task","5210171","odd","NA","27815","33155","29819","198937","5787","19920","14003","199440","141563","198934","199440","198865","33155","200328","25917","198365","5772","178408","Lexical Decision Task","74","77657","80","yes","1024"
"3.431095062","5.74","9","perk","word","92.5925925925926","92.5925925925926","965.0987654320987","965.0987654320987","black","no","legacy","legacy","legacy","0","uniform","1","undefined","undefined","undefined","1","j","0","0","0","0","80","0","0","0","80","0","76","80","76","0","76","3","80","0","80","Thu Feb 18 13:37:21 2021","The main experiment item","yes","Lexical_Decision_Task.osexp","/Users/admin/Downloads","no","Andale Mono","no","18","no","white","no","yes","576","legacy","76","76","3","/Users/admin/Downloads/subject-5210171.csv","legacy","Lentiform Loewenfeld","3.3.7","yes","yes","600bd7cfb6416f0113b04181","602110864497cf011d9c0822","0","j","NA","space","space","space","space","j","516","NA","3335","8191","5912","4614","516","2","legacy","1024","2","48000","-16","task","5210171","odd","NA","27815","33155","29819","200915","5787","19920","14003","201419","141563","200912","201419","200843","33155","201936","25917","200343","5772","178408","Lexical Decision Task","75","78173","81","yes","1024"
"3.062080345","0","6","tomp","non-word","92.6829268292683","92.6829268292683","959.8048780487804","959.8048780487804","black","no","legacy","legacy","legacy","0","uniform","1","undefined","undefined","undefined","1","f","0","0","0","0","81","0","0","0","81","0","77","81","77","0","77","3","81","0","81","Thu Feb 18 13:37:21 2021","The main experiment item","yes","Lexical_Decision_Task.osexp","/Users/admin/Downloads","no","Andale Mono","no","18","no","white","no","yes","576","legacy","77","77","3","/Users/admin/Downloads/subject-5210171.csv","legacy","Lentiform Loewenfeld","3.3.7","yes","yes","600bd7cfb6416f0113b04181","602110864497cf011d9c0822","0","f","NA","space","space","space","space","f","531","NA","3335","8191","5912","4614","531","2","legacy","1024","2","48000","-16","task","5210171","odd","NA","27815","33155","29819","202522","5787","19920","14003","203025","141563","202519","203025","202451","33155","203557","25917","201950","5772","178408","Lexical Decision Task","76","78704","82","yes","1024"
"3.384413096","10.15","3","glad","word","92.7710843373494","92.7710843373494","952.6987951807229","952.6987951807229","black","no","legacy","legacy","legacy","0","uniform","1","undefined","undefined","undefined","1","j","0","0","0","0","82","0","0","0","82","0","78","82","78","0","78","3","82","0","82","Thu Feb 18 13:37:21 2021","The main experiment item","yes","Lexical_Decision_Task.osexp","/Users/admin/Downloads","no","Andale Mono","no","18","no","white","no","yes","576","legacy","78","78","3","/Users/admin/Downloads/subject-5210171.csv","legacy","Lentiform Loewenfeld","3.3.7","yes","yes","600bd7cfb6416f0113b04181","602110864497cf011d9c0822","0","j","NA","space","space","space","space","j","370","NA","3335","8191","5912","4614","370","2","legacy","1024","2","48000","-16","task","5210171","odd","NA","27815","33155","29819","204144","5787","19920","14003","204648","141563","204141","204648","204072","33155","205019","25917","203572","5772","178408","Lexical Decision Task","77","79074","83","yes","1024"
"2.664328519","0","4","plux","non-word","92.85714285714286","92.85714285714286","946.6904761904761","946.6904761904761","black","no","legacy","legacy","legacy","0","uniform","1","undefined","undefined","undefined","1","f","0","0","0","0","83","0","0","0","83","0","79","83","79","0","79","3","83","0","83","Thu Feb 18 13:37:21 2021","The main experiment item","yes","Lexical_Decision_Task.osexp","/Users/admin/Downloads","no","Andale Mono","no","18","no","white","no","yes","576","legacy","79","79","3","/Users/admin/Downloads/subject-5210171.csv","legacy","Lentiform Loewenfeld","3.3.7","yes","yes","600bd7cfb6416f0113b04181","602110864497cf011d9c0822","0","f","NA","space","space","space","space","f","448","NA","3335","8191","5912","4614","448","2","legacy","1024","2","48000","-16","task","5210171","odd","NA","27815","33155","29819","205604","5787","19920","14003","206108","141563","205602","206108","205532","33155","206557","25917","205032","5772","178408","Lexical Decision Task","78","79522","84","yes","1024"
"3.195807436","0","6","stup","non-word","91.76470588235294","91.76470588235294","942.3058823529411","942.3058823529411","black","no","legacy","legacy","legacy","0","uniform","0","undefined","undefined","undefined","0","f","0","0","0","0","84","0","0","0","84","0","80","84","80","0","80","3","84","0","84","Thu Feb 18 13:37:21 2021","The main experiment item","yes","Lexical_Decision_Task.osexp","/Users/admin/Downloads","no","Andale Mono","no","18","no","white","no","yes","576","legacy","80","80","3","/Users/admin/Downloads/subject-5210171.csv","legacy","Lentiform Loewenfeld","3.3.7","yes","yes","600bd7cfb6416f0113b04181","602110864497cf011d9c0822","0","j","NA","space","space","space","space","j","574","NA","3335","8191","5912","4614","574","2","legacy","1024","2","48000","-16","task","5210171","odd","NA","27815","33155","29819","207142","5787","19920","14003","207646","141563","207139","207647","207072","33155","208222","25917","206571","5772","178408","Lexical Decision Task","78","80096","85","yes","1024"
"2.755364069","7.72","2","hoax","word","91.86046511627907","91.86046511627907","937.6860465116279","937.6860465116279","black","no","legacy","legacy","legacy","0","uniform","1","undefined","undefined","undefined","1","j","0","0","0","0","85","0","0","0","85","0","81","85","81","0","81","3","85","0","85","Thu Feb 18 13:37:21 2021","The main experiment item","yes","Lexical_Decision_Task.osexp","/Users/admin/Downloads","no","Andale Mono","no","18","no","white","no","yes","576","legacy","81","81","3","/Users/admin/Downloads/subject-5210171.csv","legacy","Lentiform Loewenfeld","3.3.7","yes","yes","600bd7cfb6416f0113b04181","602110864497cf011d9c0822","0","j","NA","space","space","space","space","j","545","NA","3335","8191","5912","4614","545","2","legacy","1024","2","48000","-16","task","5210171","odd","NA","27815","33155","29819","209810","5787","19920","14003","210313","141563","209806","210313","209736","33155","210860","25917","206571","5772","208236","Lexical Decision Task","79","80641","86","yes","1024"
"2.990042563","6.64","9","plow","word","90.80459770114942","90.80459770114942","934.5632183908046","934.5632183908046","black","no","legacy","legacy","legacy","0","uniform","0","undefined","undefined","undefined","0","j","0","0","0","0","86","0","0","0","86","0","82","86","82","0","82","3","86","0","86","Thu Feb 18 13:37:21 2021","The main experiment item","yes","Lexical_Decision_Task.osexp","/Users/admin/Downloads","no","Andale Mono","no","18","no","white","no","yes","576","legacy","82","82","3","/Users/admin/Downloads/subject-5210171.csv","legacy","Lentiform Loewenfeld","3.3.7","yes","yes","600bd7cfb6416f0113b04181","602110864497cf011d9c0822","0","f","NA","space","space","space","space","f","666","NA","3335","8191","5912","4614","666","2","legacy","1024","2","48000","-16","task","5210171","odd","NA","27815","33155","29819","211442","5787","19920","14003","211946","141563","211439","211946","211372","33155","212614","25917","210872","5772","208236","Lexical Decision Task","79","81307","87","yes","1024"
"3.209246849","0","7","slem","non-word","90.9090909090909","90.9090909090909","940.6363636363636","940.6363636363636","black","no","legacy","legacy","legacy","0","uniform","1","undefined","undefined","undefined","1","f","0","0","0","0","87","0","0","0","87","0","83","87","83","0","83","3","87","0","87","Thu Feb 18 13:37:21 2021","The main experiment item","yes","Lexical_Decision_Task.osexp","/Users/admin/Downloads","no","Andale Mono","no","18","no","white","no","yes","576","legacy","83","83","3","/Users/admin/Downloads/subject-5210171.csv","legacy","Lentiform Loewenfeld","3.3.7","yes","yes","600bd7cfb6416f0113b04181","602110864497cf011d9c0822","0","f","NA","space","space","space","space","f","1469","NA","3335","8191","5912","4614","1469","2","legacy","1024","2","48000","-16","task","5210171","odd","NA","27815","33155","29819","214203","5787","19920","14003","214706","141563","214199","214706","214129","33155","216176","25917","210872","5772","212629","Lexical Decision Task","80","82776","88","yes","1024"
"3.269668578","0","7","trag","non-word","89.88764044943821","89.88764044943821","935.9101123595506","935.9101123595506","black","no","legacy","legacy","legacy","0","uniform","0","undefined","undefined","undefined","0","f","0","0","0","0","88","0","0","0","88","0","84","88","84","0","84","3","88","0","88","Thu Feb 18 13:37:21 2021","The main experiment item","yes","Lexical_Decision_Task.osexp","/Users/admin/Downloads","no","Andale Mono","no","18","no","white","no","yes","576","legacy","84","84","3","/Users/admin/Downloads/subject-5210171.csv","legacy","Lentiform Loewenfeld","3.3.7","yes","yes","600bd7cfb6416f0113b04181","602110864497cf011d9c0822","0","j","NA","space","space","space","space","j","520","NA","3335","8191","5912","4614","520","2","legacy","1024","2","48000","-16","task","5210171","odd","NA","27815","33155","29819","216764","5787","19920","14003","217268","141563","216761","217269","216691","33155","217791","25917","216191","5772","212629","Lexical Decision Task","80","83296","89","yes","1024"
"3.374137706","10.21","4","tree","word","90","90","931.2444444444444","931.2444444444444","black","no","legacy","legacy","legacy","0","uniform","1","undefined","undefined","undefined","1","j","0","0","0","0","89","0","0","0","89","0","85","89","85","0","85","3","89","0","89","Thu Feb 18 13:37:21 2021","The main experiment item","yes","Lexical_Decision_Task.osexp","/Users/admin/Downloads","no","Andale Mono","no","18","no","white","no","yes","576","legacy","85","85","3","/Users/admin/Downloads/subject-5210171.csv","legacy","Lentiform Loewenfeld","3.3.7","yes","yes","600bd7cfb6416f0113b04181","602110864497cf011d9c0822","0","j","NA","space","space","space","space","j","516","NA","3335","8191","5912","4614","516","2","legacy","1024","2","48000","-16","task","5210171","odd","NA","27815","33155","29819","219380","5787","19920","14003","219884","141563","219377","219884","219304","33155","220403","25917","216191","5772","217804","Lexical Decision Task","81","83812","90","yes","1024"
"3.076883066","0","8","mout","non-word","90.10989010989012","90.10989010989012","930.032967032967","930.032967032967","black","no","legacy","legacy","legacy","0","uniform","1","undefined","undefined","undefined","1","f","0","0","0","0","90","0","0","0","90","0","86","90","86","0","86","3","90","0","90","Thu Feb 18 13:37:21 2021","The main experiment item","yes","Lexical_Decision_Task.osexp","/Users/admin/Downloads","no","Andale Mono","no","18","no","white","no","yes","576","legacy","86","86","3","/Users/admin/Downloads/subject-5210171.csv","legacy","Lentiform Loewenfeld","3.3.7","yes","yes","600bd7cfb6416f0113b04181","602110864497cf011d9c0822","0","f","NA","space","space","space","space","f","821","NA","3335","8191","5912","4614","821","2","legacy","1024","2","48000","-16","task","5210171","odd","NA","27815","33155","29819","220988","5787","19920","14003","221491","141563","220985","221492","220916","33155","222315","25917","220415","5772","217804","Lexical Decision Task","82","84633","91","yes","1024"
"3.263399331","0","8","cour","non-word","90.21739130434783","90.21739130434783","926.6195652173913","926.6195652173913","black","no","legacy","legacy","legacy","0","uniform","1","undefined","undefined","undefined","1","f","0","0","0","0","91","0","0","0","91","0","87","91","87","0","87","3","91","0","91","Thu Feb 18 13:37:21 2021","The main experiment item","yes","Lexical_Decision_Task.osexp","/Users/admin/Downloads","no","Andale Mono","no","18","no","white","no","yes","576","legacy","87","87","3","/Users/admin/Downloads/subject-5210171.csv","legacy","Lentiform Loewenfeld","3.3.7","yes","yes","600bd7cfb6416f0113b04181","602110864497cf011d9c0822","0","f","NA","space","space","space","space","f","616","NA","3335","8191","5912","4614","616","2","legacy","1024","2","48000","-16","task","5210171","odd","NA","27815","33155","29819","222901","5787","19920","14003","223404","141563","222897","223404","222828","33155","224021","25917","222328","5772","217804","Lexical Decision Task","83","85249","92","yes","1024"
"2.778633532","0","3","jurp","non-word","90.3225806451613","90.3225806451613","923.6666666666666","923.6666666666666","black","no","legacy","legacy","legacy","0","uniform","1","undefined","undefined","undefined","1","f","0","0","0","0","92","0","0","0","92","0","88","92","88","0","88","3","92","0","92","Thu Feb 18 13:37:21 2021","The main experiment item","yes","Lexical_Decision_Task.osexp","/Users/admin/Downloads","no","Andale Mono","no","18","no","white","no","yes","576","legacy","88","88","3","/Users/admin/Downloads/subject-5210171.csv","legacy","Lentiform Loewenfeld","3.3.7","yes","yes","600bd7cfb6416f0113b04181","602110864497cf011d9c0822","0","f","NA","space","space","space","space","f","652","NA","3335","8191","5912","4614","652","2","legacy","1024","2","48000","-16","task","5210171","odd","NA","27815","33155","29819","224607","5787","19920","14003","225111","141563","224604","225111","224535","33155","225765","25917","224034","5772","217804","Lexical Decision Task","84","85901","93","yes","1024"
"3.20871002","7.15","8","cram","word","89.36170212765957","89.36170212765957","920.4574468085107","920.4574468085107","black","no","legacy","legacy","legacy","0","uniform","0","undefined","undefined","undefined","0","j","0","0","0","0","93","0","0","0","93","0","89","93","89","0","89","3","93","0","93","Thu Feb 18 13:37:21 2021","The main experiment item","yes","Lexical_Decision_Task.osexp","/Users/admin/Downloads","no","Andale Mono","no","18","no","white","no","yes","576","legacy","89","89","3","/Users/admin/Downloads/subject-5210171.csv","legacy","Lentiform Loewenfeld","3.3.7","yes","yes","600bd7cfb6416f0113b04181","602110864497cf011d9c0822","0","f","NA","space","space","space","space","f","622","NA","3335","8191","5912","4614","622","2","legacy","1024","2","48000","-16","task","5210171","odd","NA","27815","33155","29819","226352","5787","19920","14003","226856","141563","226349","226857","226279","33155","227480","25917","225779","5772","217804","Lexical Decision Task","84","86523","94","yes","1024"
"2.814027728","8.2","4","foam","word","89.47368421052632","89.47368421052632","921.3578947368421","921.3578947368421","black","no","legacy","legacy","legacy","0","uniform","1","undefined","undefined","undefined","1","j","0","0","0","0","94","0","0","0","94","0","90","94","90","0","90","3","94","0","94","Thu Feb 18 13:37:21 2021","The main experiment item","yes","Lexical_Decision_Task.osexp","/Users/admin/Downloads","no","Andale Mono","no","18","no","white","no","yes","576","legacy","90","90","3","/Users/admin/Downloads/subject-5210171.csv","legacy","Lentiform Loewenfeld","3.3.7","yes","yes","600bd7cfb6416f0113b04181","602110864497cf011d9c0822","0","j","NA","space","space","space","space","j","1006","NA","3335","8191","5912","4614","1006","2","legacy","1024","2","48000","-16","task","5210171","odd","NA","27815","33155","29819","229065","5787","19920","14003","229569","141563","229062","229569","228992","33155","230577","25917","225779","5772","227492","Lexical Decision Task","85","87529","95","yes","1024"
"3.165936429","0","7","leps","non-word","89.58333333333333","89.58333333333333","920.15625","920.15625","black","no","legacy","legacy","legacy","0","uniform","1","undefined","undefined","undefined","1","f","0","0","0","0","95","0","0","0","95","0","91","95","91","0","91","3","95","0","95","Thu Feb 18 13:37:21 2021","The main experiment item","yes","Lexical_Decision_Task.osexp","/Users/admin/Downloads","no","Andale Mono","no","18","no","white","no","yes","576","legacy","91","91","3","/Users/admin/Downloads/subject-5210171.csv","legacy","Lentiform Loewenfeld","3.3.7","yes","yes","600bd7cfb6416f0113b04181","602110864497cf011d9c0822","0","f","NA","space","space","space","space","f","806","NA","3335","8191","5912","4614","806","2","legacy","1024","2","48000","-16","task","5210171","odd","NA","27815","33155","29819","231164","5787","19920","14003","231667","141563","231161","231667","231092","33155","232474","25917","230592","5772","227492","Lexical Decision Task","86","88335","96","yes","1024"
"3.131833513","7.66","4","limb","word","89.69072164948453","89.69072164948453","915.9278350515464","915.9278350515464","black","no","legacy","legacy","legacy","0","uniform","1","undefined","undefined","undefined","1","j","0","0","0","0","96","0","0","0","96","0","92","96","92","0","92","3","96","0","96","Thu Feb 18 13:37:21 2021","The main experiment item","yes","Lexical_Decision_Task.osexp","/Users/admin/Downloads","no","Andale Mono","no","18","no","white","no","yes","576","legacy","92","92","3","/Users/admin/Downloads/subject-5210171.csv","legacy","Lentiform Loewenfeld","3.3.7","yes","yes","600bd7cfb6416f0113b04181","602110864497cf011d9c0822","0","j","NA","space","space","space","space","j","510","NA","3335","8191","5912","4614","510","2","legacy","1024","2","48000","-16","task","5210171","odd","NA","27815","33155","29819","233061","5787","19920","14003","233564","141563","233058","233564","232988","33155","234075","25917","232488","5772","227492","Lexical Decision Task","87","88845","97","yes","1024"
"2.719886232","7.98","2","quiz","word","89.79591836734694","89.79591836734694","913.3877551020408","913.3877551020408","black","no","legacy","legacy","legacy","0","uniform","1","undefined","undefined","undefined","1","j","0","0","0","0","97","0","0","0","97","0","93","97","93","0","93","3","97","0","97","Thu Feb 18 13:37:21 2021","The main experiment item","yes","Lexical_Decision_Task.osexp","/Users/admin/Downloads","no","Andale Mono","no","18","no","white","no","yes","576","legacy","93","93","3","/Users/admin/Downloads/subject-5210171.csv","legacy","Lentiform Loewenfeld","3.3.7","yes","yes","600bd7cfb6416f0113b04181","602110864497cf011d9c0822","0","j","NA","space","space","space","space","j","667","NA","3335","8191","5912","4614","667","2","legacy","1024","2","48000","-16","task","5210171","odd","NA","27815","33155","29819","234663","5787","19920","14003","235166","141563","234660","235166","234590","33155","235835","25917","234090","5772","227492","Lexical Decision Task","88","89512","98","yes","1024"
"2.771097306","0","9","jold","non-word","89.8989898989899","89.8989898989899","912.8282828282828","912.8282828282828","black","no","legacy","legacy","legacy","0","uniform","1","undefined","undefined","undefined","1","f","0","0","0","0","98","0","0","0","98","0","94","98","94","0","94","3","98","0","98","Thu Feb 18 13:37:21 2021","The main experiment item","yes","Lexical_Decision_Task.osexp","/Users/admin/Downloads","no","Andale Mono","no","18","no","white","no","yes","576","legacy","94","94","3","/Users/admin/Downloads/subject-5210171.csv","legacy","Lentiform Loewenfeld","3.3.7","yes","yes","600bd7cfb6416f0113b04181","602110864497cf011d9c0822","0","f","NA","space","space","space","space","f","858","NA","3335","8191","5912","4614","858","2","legacy","1024","2","48000","-16","task","5210171","odd","NA","27815","33155","29819","236420","5787","19920","14003","236924","141563","236417","236924","236348","33155","237783","25917","235847","5772","227492","Lexical Decision Task","89","90370","99","yes","1024"
"3.064581521","5.51","6","cask","word","89","89","912.76","912.76","black","no","legacy","legacy","legacy","0","uniform","0","undefined","undefined","undefined","0","j","0","0","0","0","99","0","0","0","99","0","95","99","95","0","95","3","99","0","99","Thu Feb 18 13:37:21 2021","The main experiment item","yes","Lexical_Decision_Task.osexp","/Users/admin/Downloads","no","Andale Mono","no","18","no","white","no","yes","576","legacy","95","95","3","/Users/admin/Downloads/subject-5210171.csv","legacy","Lentiform Loewenfeld","3.3.7","yes","yes","600bd7cfb6416f0113b04181","602110864497cf011d9c0822","0","f","NA","space","space","space","space","f","906","NA","3335","8191","5912","4614","906","2","legacy","1024","2","48000","-16","task","5210171","odd","NA","27815","33155","29819","238367","5787","19920","14003","238870","141563","238363","238871","238295","33155","239779","25917","237795","5772","227492","Lexical Decision Task","89","91276","100","yes","1024"
"2.845304797","0","6","buct","non-word","89.10891089108911","89.10891089108911","911.8217821782179","911.8217821782179","black","no","legacy","legacy","legacy","0","uniform","1","undefined","undefined","undefined","1","f","0","0","0","0","100","0","0","0","100","0","96","100","96","0","96","3","100","0","100","Thu Feb 18 13:37:21 2021","The main experiment item","yes","Lexical_Decision_Task.osexp","/Users/admin/Downloads","no","Andale Mono","no","18","no","white","no","yes","576","legacy","96","96","3","/Users/admin/Downloads/subject-5210171.csv","legacy","Lentiform Loewenfeld","3.3.7","yes","yes","600bd7cfb6416f0113b04181","602110864497cf011d9c0822","0","f","NA","space","space","space","space","f","818","NA","3335","8191","5912","4614","818","2","legacy","1024","2","48000","-16","task","5210171","odd","NA","27815","33155","29819","241366","5787","19920","14003","241870","141563","241362","241870","241292","33155","242690","25917","237795","5772","239791","Lexical Decision Task","90","92094","101","yes","1024"
