"Log_BG","Log_Freq_HAL","Ortho_N","Stimulus","Type","acc","accuracy","average_response_time","avg_rt","background","bidi","canvas_backend","clock_backend","color_backend","compensation","coordinates","correct","correct_Experimental_intro","correct_Introduction","correct_Practice_intro","correct_experimenter_kb","correct_response","count_End_Of_Experiment","count_End_Of_Practice","count_Experimental_Loop","count_Experimental_intro","count_Fixation","count_Introduction","count_Practice_Loop","count_Practice_intro","count_Stimulus","count_block_break_feedback","count_experimental_sequence","count_experimenter_kb","count_increment_trial_count","count_init_trial_count","count_logger","count_practice_sequence","count_right","count_task","count_wrong","datetime","description","disable_garbage_collection","experiment_file","experiment_path","font_bold","font_family","font_italic","font_size","font_underline","foreground","form_clicks","fullscreen","height","keyboard_backend","live_row","live_row_Experimental_Loop","live_row_Practice_Loop","logfile","mouse_backend","opensesame_codename","opensesame_version","osf_always_upload_data","osf_always_upload_experiment","osf_datanode_id","osf_id","repeat_cycle","response","response_End_Of_Experiment","response_Experimental_intro","response_Introduction","response_Practice_intro","response_block_break_feedback","response_experimenter_kb","response_time","response_time_End_Of_Experiment","response_time_Experimental_intro","response_time_Introduction","response_time_Practice_intro","response_time_block_break_feedback","response_time_experimenter_kb","round_decimals","sampler_backend","sound_buf_size","sound_channels","sound_freq","sound_sample_size","start","subject_nr","subject_parity","time_End_Of_Experiment","time_End_Of_Practice","time_Experimental_Loop","time_Experimental_intro","time_Fixation","time_Introduction","time_Practice_Loop","time_Practice_intro","time_Stimulus","time_block_break_feedback","time_experimental_sequence","time_experimenter_kb","time_increment_trial_count","time_init_trial_count","time_logger","time_practice_sequence","time_right","time_task","time_wrong","title","total_correct","total_response_time","total_responses","uniform_coordinates","width"
"3.705778213","0","6","stin","non-word","40","40","2707.4","2707.4","black","no","legacy","legacy","legacy","0","uniform","1","undefined","undefined","undefined","1","f","0","0","0","0","4","0","0","0","4","NA","0","4","0","0","0","3","4","0","4","Tue Feb 16 13:20:00 2021","The main experiment item","yes","Lexical_Decision_Task.osexp","/Users/phoebedimmock","no","Andale Mono","no","18","no","white","no","yes","576","legacy","0","0","3","/Users/phoebedimmock/subject-5215577.csv","legacy","Lentiform Loewenfeld","3.3.7","yes","yes","600bd7cfb6416f0113b04181","602110864497cf011d9c0822","0","f","NA","space","space","space","NA","f","2208","NA","24509","14814","5243","NA","2208","2","legacy","1024","2","48000","-16","task","5215577","odd","NA","44331","70844","46334","70871","5562","25646","20399","71374","NA","70869","71375","NA","70844","73584","39289","33670","5552","42797","Lexical Decision Task","2","13537","5","yes","1024"
"3.368162872","0","4","ferk","non-word","50","50","2409.5","2409.5","black","no","legacy","legacy","legacy","0","uniform","1","undefined","undefined","undefined","1","f","0","0","0","0","5","0","0","0","5","NA","1","5","1","0","1","3","5","0","5","Tue Feb 16 13:20:00 2021","The main experiment item","yes","Lexical_Decision_Task.osexp","/Users/phoebedimmock","no","Andale Mono","no","18","no","white","no","yes","576","legacy","1","1","3","/Users/phoebedimmock/subject-5215577.csv","legacy","Lentiform Loewenfeld","3.3.7","yes","yes","600bd7cfb6416f0113b04181","602110864497cf011d9c0822","0","f","NA","space","space","space","NA","f","920","NA","24509","14814","5243","NA","920","2","legacy","1024","2","48000","-16","task","5215577","odd","NA","44331","70844","46334","74152","5562","25646","20399","74655","NA","74150","74655","74091","70844","75576","39289","73591","5552","42797","Lexical Decision Task","3","14457","6","yes","1024"
"3.003891166","8.05","2","frog","word","57.142857142857146","57.142857142857146","2145.5714285714284","2145.5714285714284","black","no","legacy","legacy","legacy","0","uniform","1","undefined","undefined","undefined","1","j","0","0","0","0","6","0","0","0","6","NA","2","6","2","0","2","3","6","0","6","Tue Feb 16 13:20:00 2021","The main experiment item","yes","Lexical_Decision_Task.osexp","/Users/phoebedimmock","no","Andale Mono","no","18","no","white","no","yes","576","legacy","2","2","3","/Users/phoebedimmock/subject-5215577.csv","legacy","Lentiform Loewenfeld","3.3.7","yes","yes","600bd7cfb6416f0113b04181","602110864497cf011d9c0822","0","j","NA","space","space","space","NA","j","562","NA","24509","14814","5243","NA","562","2","legacy","1024","2","48000","-16","task","5215577","odd","NA","44331","70844","46334","76138","5562","25646","20399","76640","NA","76135","76641","76080","70844","77204","39289","75579","5552","42797","Lexical Decision Task","4","15019","7","yes","1024"
"3.374137706","10.21","4","tree","word","62.5","62.5","1945.5","1945.5","black","no","legacy","legacy","legacy","0","uniform","1","undefined","undefined","undefined","1","j","0","0","0","0","7","0","0","0","7","NA","3","7","3","0","3","3","7","0","7","Tue Feb 16 13:20:00 2021","The main experiment item","yes","Lexical_Decision_Task.osexp","/Users/phoebedimmock","no","Andale Mono","no","18","no","white","no","yes","576","legacy","3","3","3","/Users/phoebedimmock/subject-5215577.csv","legacy","Lentiform Loewenfeld","3.3.7","yes","yes","600bd7cfb6416f0113b04181","602110864497cf011d9c0822","0","j","NA","space","space","space","NA","j","545","NA","24509","14814","5243","NA","545","2","legacy","1024","2","48000","-16","task","5215577","odd","NA","44331","70844","46334","77765","5562","25646","20399","78268","NA","77762","78268","77708","70844","78814","39289","77208","5552","42797","Lexical Decision Task","5","15564","8","yes","1024"
"3.316948329","0","1","besc","non-word","66.66666666666667","66.66666666666667","1791.3333333333333","1791.3333333333333","black","no","legacy","legacy","legacy","0","uniform","1","undefined","undefined","undefined","1","f","0","0","0","0","8","0","0","0","8","NA","4","8","4","0","4","3","8","0","8","Tue Feb 16 13:20:00 2021","The main experiment item","yes","Lexical_Decision_Task.osexp","/Users/phoebedimmock","no","Andale Mono","no","18","no","white","no","yes","576","legacy","4","4","3","/Users/phoebedimmock/subject-5215577.csv","legacy","Lentiform Loewenfeld","3.3.7","yes","yes","600bd7cfb6416f0113b04181","602110864497cf011d9c0822","0","f","NA","space","space","space","NA","f","558","NA","24509","14814","5243","NA","558","2","legacy","1024","2","48000","-16","task","5215577","odd","NA","44331","70844","46334","79375","5562","25646","20399","79879","NA","79373","79879","79317","70844","80438","39289","78817","5552","42797","Lexical Decision Task","6","16122","9","yes","1024"
"3.156347201","0","8","lasp","non-word","70","70","1740.2","1740.2","black","no","legacy","legacy","legacy","0","uniform","1","undefined","undefined","undefined","1","f","0","0","0","0","9","0","0","0","9","NA","5","9","5","0","5","3","9","0","9","Tue Feb 16 13:20:00 2021","The main experiment item","yes","Lexical_Decision_Task.osexp","/Users/phoebedimmock","no","Andale Mono","no","18","no","white","no","yes","576","legacy","5","5","3","/Users/phoebedimmock/subject-5215577.csv","legacy","Lentiform Loewenfeld","3.3.7","yes","yes","600bd7cfb6416f0113b04181","602110864497cf011d9c0822","0","f","NA","space","space","space","NA","f","1280","NA","24509","14814","5243","NA","1280","2","legacy","1024","2","48000","-16","task","5215577","odd","NA","44331","70844","46334","81001","5562","25646","20399","81503","NA","80998","81504","80942","70844","82785","39289","80442","5552","42797","Lexical Decision Task","7","17402","10","yes","1024"
"2.813801082","5.47","7","nook","word","72.72727272727273","72.72727272727273","1656.2727272727273","1656.2727272727273","black","no","legacy","legacy","legacy","0","uniform","1","undefined","undefined","undefined","1","j","0","0","0","0","10","0","0","0","10","NA","6","10","6","0","6","3","10","0","10","Tue Feb 16 13:20:00 2021","The main experiment item","yes","Lexical_Decision_Task.osexp","/Users/phoebedimmock","no","Andale Mono","no","18","no","white","no","yes","576","legacy","6","6","3","/Users/phoebedimmock/subject-5215577.csv","legacy","Lentiform Loewenfeld","3.3.7","yes","yes","600bd7cfb6416f0113b04181","602110864497cf011d9c0822","0","j","NA","space","space","space","NA","j","817","NA","24509","14814","5243","NA","817","2","legacy","1024","2","48000","-16","task","5215577","odd","NA","44331","70844","46334","83346","5562","25646","20399","83849","NA","83344","83849","83289","70844","84667","39289","82789","5552","42797","Lexical Decision Task","8","18219","11","yes","1024"
"3.397302518","7.01","2","knit","word","75","75","1616.5833333333333","1616.5833333333333","black","no","legacy","legacy","legacy","0","uniform","1","undefined","undefined","undefined","1","j","0","0","0","0","11","0","0","0","11","NA","7","11","7","0","7","3","11","0","11","Tue Feb 16 13:20:00 2021","The main experiment item","yes","Lexical_Decision_Task.osexp","/Users/phoebedimmock","no","Andale Mono","no","18","no","white","no","yes","576","legacy","7","7","3","/Users/phoebedimmock/subject-5215577.csv","legacy","Lentiform Loewenfeld","3.3.7","yes","yes","600bd7cfb6416f0113b04181","602110864497cf011d9c0822","0","j","NA","space","space","space","NA","j","1180","NA","24509","14814","5243","NA","1180","2","legacy","1024","2","48000","-16","task","5215577","odd","NA","44331","70844","46334","85228","5562","25646","20399","85731","NA","85225","85731","85170","70844","86912","39289","84670","5552","42797","Lexical Decision Task","9","19399","12","yes","1024"
"2.893578687","8.69","3","surf","word","76.92307692307692","76.92307692307692","1541.8461538461538","1541.8461538461538","black","no","legacy","legacy","legacy","0","uniform","1","undefined","undefined","undefined","1","j","0","0","0","0","12","0","0","0","12","NA","8","12","8","0","8","3","12","0","12","Tue Feb 16 13:20:00 2021","The main experiment item","yes","Lexical_Decision_Task.osexp","/Users/phoebedimmock","no","Andale Mono","no","18","no","white","no","yes","576","legacy","8","8","3","/Users/phoebedimmock/subject-5215577.csv","legacy","Lentiform Loewenfeld","3.3.7","yes","yes","600bd7cfb6416f0113b04181","602110864497cf011d9c0822","0","j","NA","space","space","space","NA","j","645","NA","24509","14814","5243","NA","645","2","legacy","1024","2","48000","-16","task","5215577","odd","NA","44331","70844","46334","87475","5562","25646","20399","87978","NA","87472","87978","87416","70844","88623","39289","86916","5552","42797","Lexical Decision Task","10","20044","13","yes","1024"
"3.2757719","0","5","slea","non-word","71.42857142857143","71.42857142857143","1500.0714285714287","1500.0714285714287","black","no","legacy","legacy","legacy","0","uniform","0","undefined","undefined","undefined","0","f","0","0","0","0","13","0","0","0","13","NA","9","13","9","0","9","3","13","0","13","Tue Feb 16 13:20:00 2021","The main experiment item","yes","Lexical_Decision_Task.osexp","/Users/phoebedimmock","no","Andale Mono","no","18","no","white","no","yes","576","legacy","9","9","3","/Users/phoebedimmock/subject-5215577.csv","legacy","Lentiform Loewenfeld","3.3.7","yes","yes","600bd7cfb6416f0113b04181","602110864497cf011d9c0822","0","j","NA","space","space","space","NA","j","957","NA","24509","14814","5243","NA","957","2","legacy","1024","2","48000","-16","task","5215577","odd","NA","44331","70844","46334","89185","5562","25646","20399","89688","NA","89182","89688","89127","70844","90646","39289","88627","5552","42797","Lexical Decision Task","10","21001","14","yes","1024"
"2.884795364","0","6","flob","non-word","73.33333333333333","73.33333333333333","1457.9333333333334","1457.9333333333334","black","no","legacy","legacy","legacy","0","uniform","1","undefined","undefined","undefined","1","f","0","0","0","0","14","0","0","0","14","NA","10","14","10","0","10","3","14","0","14","Tue Feb 16 13:20:00 2021","The main experiment item","yes","Lexical_Decision_Task.osexp","/Users/phoebedimmock","no","Andale Mono","no","18","no","white","no","yes","576","legacy","10","10","3","/Users/phoebedimmock/subject-5215577.csv","legacy","Lentiform Loewenfeld","3.3.7","yes","yes","600bd7cfb6416f0113b04181","602110864497cf011d9c0822","0","f","NA","space","space","space","NA","f","868","NA","24509","14814","5243","NA","868","2","legacy","1024","2","48000","-16","task","5215577","odd","NA","44331","70844","46334","92211","5562","25646","20399","92714","NA","92208","92714","92150","70844","93583","39289","88627","5552","90649","Lexical Decision Task","11","21869","15","yes","1024"
"2.838639236","0","4","furg","non-word","75","75","1407.75","1407.75","black","no","legacy","legacy","legacy","0","uniform","1","undefined","undefined","undefined","1","f","0","0","0","0","15","0","0","0","15","NA","11","15","11","0","11","3","15","0","15","Tue Feb 16 13:20:00 2021","The main experiment item","yes","Lexical_Decision_Task.osexp","/Users/phoebedimmock","no","Andale Mono","no","18","no","white","no","yes","576","legacy","11","11","3","/Users/phoebedimmock/subject-5215577.csv","legacy","Lentiform Loewenfeld","3.3.7","yes","yes","600bd7cfb6416f0113b04181","602110864497cf011d9c0822","0","f","NA","space","space","space","NA","f","655","NA","24509","14814","5243","NA","655","2","legacy","1024","2","48000","-16","task","5215577","odd","NA","44331","70844","46334","94145","5562","25646","20399","94648","NA","94142","94648","94087","70844","95303","39289","93586","5552","90649","Lexical Decision Task","12","22524","16","yes","1024"
"3.481012421","8.34","5","teen","word","76.47058823529412","76.47058823529412","1356.9411764705883","1356.9411764705883","black","no","legacy","legacy","legacy","0","uniform","1","undefined","undefined","undefined","1","j","0","0","0","0","16","0","0","0","16","NA","12","16","12","0","12","3","16","0","16","Tue Feb 16 13:20:00 2021","The main experiment item","yes","Lexical_Decision_Task.osexp","/Users/phoebedimmock","no","Andale Mono","no","18","no","white","no","yes","576","legacy","12","12","3","/Users/phoebedimmock/subject-5215577.csv","legacy","Lentiform Loewenfeld","3.3.7","yes","yes","600bd7cfb6416f0113b04181","602110864497cf011d9c0822","0","j","NA","space","space","space","NA","j","544","NA","24509","14814","5243","NA","544","2","legacy","1024","2","48000","-16","task","5215577","odd","NA","44331","70844","46334","95864","5562","25646","20399","96367","NA","95862","96367","95807","70844","96911","39289","95307","5552","90649","Lexical Decision Task","13","23068","17","yes","1024"
"3.440331212","7.35","6","stew","word","77.77777777777777","77.77777777777777","1318.1666666666667","1318.1666666666667","black","no","legacy","legacy","legacy","0","uniform","1","undefined","undefined","undefined","1","j","0","0","0","0","17","0","0","0","17","NA","13","17","13","0","13","3","17","0","17","Tue Feb 16 13:20:00 2021","The main experiment item","yes","Lexical_Decision_Task.osexp","/Users/phoebedimmock","no","Andale Mono","no","18","no","white","no","yes","576","legacy","13","13","3","/Users/phoebedimmock/subject-5215577.csv","legacy","Lentiform Loewenfeld","3.3.7","yes","yes","600bd7cfb6416f0113b04181","602110864497cf011d9c0822","0","j","NA","space","space","space","NA","j","659","NA","24509","14814","5243","NA","659","2","legacy","1024","2","48000","-16","task","5215577","odd","NA","44331","70844","46334","97475","5562","25646","20399","97978","NA","97472","97978","97415","70844","98638","39289","96915","5552","90649","Lexical Decision Task","14","23727","18","yes","1024"
"2.972357144","0","5","dasp","non-word","78.94736842105263","78.94736842105263","1300.5263157894738","1300.5263157894738","black","no","legacy","legacy","legacy","0","uniform","1","undefined","undefined","undefined","1","f","0","0","0","0","18","0","0","0","18","NA","14","18","14","0","14","3","18","0","18","Tue Feb 16 13:20:00 2021","The main experiment item","yes","Lexical_Decision_Task.osexp","/Users/phoebedimmock","no","Andale Mono","no","18","no","white","no","yes","576","legacy","14","14","3","/Users/phoebedimmock/subject-5215577.csv","legacy","Lentiform Loewenfeld","3.3.7","yes","yes","600bd7cfb6416f0113b04181","602110864497cf011d9c0822","0","f","NA","space","space","space","NA","f","983","NA","24509","14814","5243","NA","983","2","legacy","1024","2","48000","-16","task","5215577","odd","NA","44331","70844","46334","99199","5562","25646","20399","99702","NA","99197","99702","99141","70844","100686","39289","98641","5552","90649","Lexical Decision Task","15","24710","19","yes","1024"
"2.746890964","9.67","3","plug","word","80","80","1268.75","1268.75","black","no","legacy","legacy","legacy","0","uniform","1","undefined","undefined","undefined","1","j","0","0","0","0","19","0","0","0","19","NA","15","19","15","0","15","3","19","0","19","Tue Feb 16 13:20:00 2021","The main experiment item","yes","Lexical_Decision_Task.osexp","/Users/phoebedimmock","no","Andale Mono","no","18","no","white","no","yes","576","legacy","15","15","3","/Users/phoebedimmock/subject-5215577.csv","legacy","Lentiform Loewenfeld","3.3.7","yes","yes","600bd7cfb6416f0113b04181","602110864497cf011d9c0822","0","j","NA","space","space","space","NA","j","665","NA","24509","14814","5243","NA","665","2","legacy","1024","2","48000","-16","task","5215577","odd","NA","44331","70844","46334","101247","5562","25646","20399","101750","NA","101244","101751","101189","70844","102416","39289","100689","5552","90649","Lexical Decision Task","16","25375","20","yes","1024"
"2.668385917","5.48","4","twig","word","80.95238095238095","80.95238095238095","1257.095238095238","1257.095238095238","black","no","legacy","legacy","legacy","0","uniform","1","undefined","undefined","undefined","1","j","0","0","0","0","20","0","0","0","20","NA","16","20","16","0","16","3","20","0","20","Tue Feb 16 13:20:00 2021","The main experiment item","yes","Lexical_Decision_Task.osexp","/Users/phoebedimmock","no","Andale Mono","no","18","no","white","no","yes","576","legacy","16","16","3","/Users/phoebedimmock/subject-5215577.csv","legacy","Lentiform Loewenfeld","3.3.7","yes","yes","600bd7cfb6416f0113b04181","602110864497cf011d9c0822","0","j","NA","space","space","space","NA","j","1024","NA","24509","14814","5243","NA","1024","2","legacy","1024","2","48000","-16","task","5215577","odd","NA","44331","70844","46334","102979","5562","25646","20399","103481","NA","102976","103481","102920","70844","104506","39289","102420","5552","90649","Lexical Decision Task","17","26399","21","yes","1024"
"2.594027722","9.08","8","skip","word","81.81818181818181","81.81818181818181","1228.5","1228.5","black","no","legacy","legacy","legacy","0","uniform","1","undefined","undefined","undefined","1","j","0","0","0","0","21","0","0","0","21","NA","17","21","17","0","17","3","21","0","21","Tue Feb 16 13:20:00 2021","The main experiment item","yes","Lexical_Decision_Task.osexp","/Users/phoebedimmock","no","Andale Mono","no","18","no","white","no","yes","576","legacy","17","17","3","/Users/phoebedimmock/subject-5215577.csv","legacy","Lentiform Loewenfeld","3.3.7","yes","yes","600bd7cfb6416f0113b04181","602110864497cf011d9c0822","0","j","NA","space","space","space","NA","j","628","NA","24509","14814","5243","NA","628","2","legacy","1024","2","48000","-16","task","5215577","odd","NA","44331","70844","46334","105067","5562","25646","20399","105570","NA","105064","105570","105009","70844","106199","39289","104509","5552","90649","Lexical Decision Task","18","27027","22","yes","1024"
"2.937852093","0","7","bamp","non-word","82.6086956521739","82.6086956521739","1198.9130434782608","1198.9130434782608","black","no","legacy","legacy","legacy","0","uniform","1","undefined","undefined","undefined","1","f","0","0","0","0","22","0","0","0","22","NA","18","22","18","0","18","3","22","0","22","Tue Feb 16 13:20:00 2021","The main experiment item","yes","Lexical_Decision_Task.osexp","/Users/phoebedimmock","no","Andale Mono","no","18","no","white","no","yes","576","legacy","18","18","3","/Users/phoebedimmock/subject-5215577.csv","legacy","Lentiform Loewenfeld","3.3.7","yes","yes","600bd7cfb6416f0113b04181","602110864497cf011d9c0822","0","f","NA","space","space","space","NA","f","548","NA","24509","14814","5243","NA","548","2","legacy","1024","2","48000","-16","task","5215577","odd","NA","44331","70844","46334","106760","5562","25646","20399","107263","NA","106758","107263","106703","70844","107812","39289","106203","5552","90649","Lexical Decision Task","19","27575","23","yes","1024"
"3.062080345","0","6","tomp","non-word","83.33333333333333","83.33333333333333","1175.0833333333333","1175.0833333333333","black","no","legacy","legacy","legacy","0","uniform","1","undefined","undefined","undefined","1","f","0","0","0","0","23","0","0","0","23","NA","19","23","19","0","19","3","23","0","23","Tue Feb 16 13:20:00 2021","The main experiment item","yes","Lexical_Decision_Task.osexp","/Users/phoebedimmock","no","Andale Mono","no","18","no","white","no","yes","576","legacy","19","19","3","/Users/phoebedimmock/subject-5215577.csv","legacy","Lentiform Loewenfeld","3.3.7","yes","yes","600bd7cfb6416f0113b04181","602110864497cf011d9c0822","0","f","NA","space","space","space","NA","f","627","NA","24509","14814","5243","NA","627","2","legacy","1024","2","48000","-16","task","5215577","odd","NA","44331","70844","46334","108373","5562","25646","20399","108876","NA","108371","108876","108315","70844","109504","39289","107815","5552","90649","Lexical Decision Task","20","28202","24","yes","1024"
"2.86332286","6.71","2","feud","word","84","84","1156.32","1156.32","black","no","legacy","legacy","legacy","0","uniform","1","undefined","undefined","undefined","1","j","0","0","0","0","24","0","0","0","24","NA","20","24","20","0","20","3","24","0","24","Tue Feb 16 13:20:00 2021","The main experiment item","yes","Lexical_Decision_Task.osexp","/Users/phoebedimmock","no","Andale Mono","no","18","no","white","no","yes","576","legacy","20","20","3","/Users/phoebedimmock/subject-5215577.csv","legacy","Lentiform Loewenfeld","3.3.7","yes","yes","600bd7cfb6416f0113b04181","602110864497cf011d9c0822","0","j","NA","space","space","space","NA","j","706","NA","24509","14814","5243","NA","706","2","legacy","1024","2","48000","-16","task","5215577","odd","NA","44331","70844","46334","110066","5562","25646","20399","110569","NA","110063","110569","110008","70844","111275","39289","109508","5552","90649","Lexical Decision Task","21","28908","25","yes","1024"
"2.794720352","0","9","koot","non-word","84.61538461538461","84.61538461538461","1138.8846153846155","1138.8846153846155","black","no","legacy","legacy","legacy","0","uniform","1","undefined","undefined","undefined","1","f","0","0","0","0","25","0","0","0","25","NA","21","25","21","0","21","3","25","0","25","Tue Feb 16 13:20:00 2021","The main experiment item","yes","Lexical_Decision_Task.osexp","/Users/phoebedimmock","no","Andale Mono","no","18","no","white","no","yes","576","legacy","21","21","3","/Users/phoebedimmock/subject-5215577.csv","legacy","Lentiform Loewenfeld","3.3.7","yes","yes","600bd7cfb6416f0113b04181","602110864497cf011d9c0822","0","f","NA","space","space","space","NA","f","703","NA","24509","14814","5243","NA","703","2","legacy","1024","2","48000","-16","task","5215577","odd","NA","44331","70844","46334","111837","5562","25646","20399","112339","NA","111834","112340","111779","70844","113044","39289","111278","5552","90649","Lexical Decision Task","22","29611","26","yes","1024"
"3.460446784","0","5","dess","non-word","85.18518518518519","85.18518518518519","1129.4074074074074","1129.4074074074074","black","no","legacy","legacy","legacy","0","uniform","1","undefined","undefined","undefined","1","f","0","0","0","0","26","0","0","0","26","NA","22","26","22","0","22","3","26","0","26","Tue Feb 16 13:20:00 2021","The main experiment item","yes","Lexical_Decision_Task.osexp","/Users/phoebedimmock","no","Andale Mono","no","18","no","white","no","yes","576","legacy","22","22","3","/Users/phoebedimmock/subject-5215577.csv","legacy","Lentiform Loewenfeld","3.3.7","yes","yes","600bd7cfb6416f0113b04181","602110864497cf011d9c0822","0","f","NA","space","space","space","NA","f","883","NA","24509","14814","5243","NA","883","2","legacy","1024","2","48000","-16","task","5215577","odd","NA","44331","70844","46334","113606","5562","25646","20399","114109","NA","113603","114109","113548","70844","114993","39289","113048","5552","90649","Lexical Decision Task","23","30494","27","yes","1024"
"3.492014979","0","9","yine","non-word","85.71428571428571","85.71428571428571","1112.4642857142858","1112.4642857142858","black","no","legacy","legacy","legacy","0","uniform","1","undefined","undefined","undefined","1","f","0","0","0","0","27","0","0","0","27","NA","23","27","23","0","23","3","27","0","27","Tue Feb 16 13:20:00 2021","The main experiment item","yes","Lexical_Decision_Task.osexp","/Users/phoebedimmock","no","Andale Mono","no","18","no","white","no","yes","576","legacy","23","23","3","/Users/phoebedimmock/subject-5215577.csv","legacy","Lentiform Loewenfeld","3.3.7","yes","yes","600bd7cfb6416f0113b04181","602110864497cf011d9c0822","0","f","NA","space","space","space","NA","f","655","NA","24509","14814","5243","NA","655","2","legacy","1024","2","48000","-16","task","5215577","odd","NA","44331","70844","46334","115555","5562","25646","20399","116058","NA","115553","116058","115497","70844","116713","39289","114996","5552","90649","Lexical Decision Task","24","31149","28","yes","1024"
"2.95456409","0","4","taud","non-word","86.20689655172414","86.20689655172414","1091.4137931034484","1091.4137931034484","black","no","legacy","legacy","legacy","0","uniform","1","undefined","undefined","undefined","1","f","0","0","0","0","28","0","0","0","28","NA","24","28","24","0","24","3","28","0","28","Tue Feb 16 13:20:00 2021","The main experiment item","yes","Lexical_Decision_Task.osexp","/Users/phoebedimmock","no","Andale Mono","no","18","no","white","no","yes","576","legacy","24","24","3","/Users/phoebedimmock/subject-5215577.csv","legacy","Lentiform Loewenfeld","3.3.7","yes","yes","600bd7cfb6416f0113b04181","602110864497cf011d9c0822","0","f","NA","space","space","space","NA","f","502","NA","24509","14814","5243","NA","502","2","legacy","1024","2","48000","-16","task","5215577","odd","NA","44331","70844","46334","117274","5562","25646","20399","117777","NA","117272","117778","117216","70844","118281","39289","116716","5552","90649","Lexical Decision Task","25","31651","29","yes","1024"
"3.230789326","5.38","5","prim","word","83.33333333333333","83.33333333333333","1079.9","1079.9","black","no","legacy","legacy","legacy","0","uniform","0","undefined","undefined","undefined","0","j","0","0","0","0","29","0","0","0","29","NA","25","29","25","0","25","3","29","0","29","Tue Feb 16 13:20:00 2021","The main experiment item","yes","Lexical_Decision_Task.osexp","/Users/phoebedimmock","no","Andale Mono","no","18","no","white","no","yes","576","legacy","25","25","3","/Users/phoebedimmock/subject-5215577.csv","legacy","Lentiform Loewenfeld","3.3.7","yes","yes","600bd7cfb6416f0113b04181","602110864497cf011d9c0822","0","f","NA","space","space","space","NA","f","746","NA","24509","14814","5243","NA","746","2","legacy","1024","2","48000","-16","task","5215577","odd","NA","44331","70844","46334","118845","5562","25646","20399","119348","NA","118842","119348","118785","70844","120094","39289","118285","5552","90649","Lexical Decision Task","25","32397","30","yes","1024"
"3.248054965","7.86","5","glow","word","83.87096774193549","83.87096774193549","1069.7096774193549","1069.7096774193549","black","no","legacy","legacy","legacy","0","uniform","1","undefined","undefined","undefined","1","j","0","0","0","0","30","0","0","0","30","NA","26","30","26","0","26","3","30","0","30","Tue Feb 16 13:20:00 2021","The main experiment item","yes","Lexical_Decision_Task.osexp","/Users/phoebedimmock","no","Andale Mono","no","18","no","white","no","yes","576","legacy","26","26","3","/Users/phoebedimmock/subject-5215577.csv","legacy","Lentiform Loewenfeld","3.3.7","yes","yes","600bd7cfb6416f0113b04181","602110864497cf011d9c0822","0","j","NA","space","space","space","NA","j","764","NA","24509","14814","5243","NA","764","2","legacy","1024","2","48000","-16","task","5215577","odd","NA","44331","70844","46334","121659","5562","25646","20399","122162","NA","121657","122162","121598","70844","122926","39289","118285","5552","120098","Lexical Decision Task","26","33161","31","yes","1024"
"2.972819734","0","4","scew","non-word","84.375","84.375","1064.25","1064.25","black","no","legacy","legacy","legacy","0","uniform","1","undefined","undefined","undefined","1","f","0","0","0","0","31","0","0","0","31","NA","27","31","27","0","27","3","31","0","31","Tue Feb 16 13:20:00 2021","The main experiment item","yes","Lexical_Decision_Task.osexp","/Users/phoebedimmock","no","Andale Mono","no","18","no","white","no","yes","576","legacy","27","27","3","/Users/phoebedimmock/subject-5215577.csv","legacy","Lentiform Loewenfeld","3.3.7","yes","yes","600bd7cfb6416f0113b04181","602110864497cf011d9c0822","0","f","NA","space","space","space","NA","f","895","NA","24509","14814","5243","NA","895","2","legacy","1024","2","48000","-16","task","5215577","odd","NA","44331","70844","46334","123488","5562","25646","20399","123991","NA","123485","123992","123430","70844","124888","39289","122930","5552","120098","Lexical Decision Task","27","34056","32","yes","1024"
"3.100255637","0","6","brax","non-word","84.84848484848484","84.84848484848484","1056.7575757575758","1056.7575757575758","black","no","legacy","legacy","legacy","0","uniform","1","undefined","undefined","undefined","1","f","0","0","0","0","32","0","0","0","32","NA","28","32","28","0","28","3","32","0","32","Tue Feb 16 13:20:00 2021","The main experiment item","yes","Lexical_Decision_Task.osexp","/Users/phoebedimmock","no","Andale Mono","no","18","no","white","no","yes","576","legacy","28","28","3","/Users/phoebedimmock/subject-5215577.csv","legacy","Lentiform Loewenfeld","3.3.7","yes","yes","600bd7cfb6416f0113b04181","602110864497cf011d9c0822","0","f","NA","space","space","space","NA","f","817","NA","24509","14814","5243","NA","817","2","legacy","1024","2","48000","-16","task","5215577","odd","NA","44331","70844","46334","125450","5562","25646","20399","125952","NA","125448","125952","125392","70844","126769","39289","124892","5552","120098","Lexical Decision Task","28","34873","33","yes","1024"
"2.807758206","6.25","4","hurl","word","85.29411764705883","85.29411764705883","1054.6470588235295","1054.6470588235295","black","no","legacy","legacy","legacy","0","uniform","1","undefined","undefined","undefined","1","j","0","0","0","0","33","0","0","0","33","NA","29","33","29","0","29","3","33","0","33","Tue Feb 16 13:20:00 2021","The main experiment item","yes","Lexical_Decision_Task.osexp","/Users/phoebedimmock","no","Andale Mono","no","18","no","white","no","yes","576","legacy","29","29","3","/Users/phoebedimmock/subject-5215577.csv","legacy","Lentiform Loewenfeld","3.3.7","yes","yes","600bd7cfb6416f0113b04181","602110864497cf011d9c0822","0","j","NA","space","space","space","NA","j","985","NA","24509","14814","5243","NA","985","2","legacy","1024","2","48000","-16","task","5215577","odd","NA","44331","70844","46334","127330","5562","25646","20399","127833","NA","127327","127833","127272","70844","128819","39289","126772","5552","120098","Lexical Decision Task","29","35858","34","yes","1024"
"3.031812271","6.52","3","gulp","word","85.71428571428571","85.71428571428571","1058.5142857142857","1058.5142857142857","black","no","legacy","legacy","legacy","0","uniform","1","undefined","undefined","undefined","1","j","0","0","0","0","34","0","0","0","34","NA","30","34","30","0","30","3","34","0","34","Tue Feb 16 13:20:00 2021","The main experiment item","yes","Lexical_Decision_Task.osexp","/Users/phoebedimmock","no","Andale Mono","no","18","no","white","no","yes","576","legacy","30","30","3","/Users/phoebedimmock/subject-5215577.csv","legacy","Lentiform Loewenfeld","3.3.7","yes","yes","600bd7cfb6416f0113b04181","602110864497cf011d9c0822","0","j","NA","space","space","space","NA","j","1190","NA","24509","14814","5243","NA","1190","2","legacy","1024","2","48000","-16","task","5215577","odd","NA","44331","70844","46334","129380","5562","25646","20399","129883","NA","129377","129883","129322","70844","131074","39289","128822","5552","120098","Lexical Decision Task","30","37048","35","yes","1024"
"2.69019608","9.01","2","myth","word","86.11111111111111","86.11111111111111","1047.7777777777778","1047.7777777777778","black","no","legacy","legacy","legacy","0","uniform","1","undefined","undefined","undefined","1","j","0","0","0","0","35","0","0","0","35","NA","31","35","31","0","31","3","35","0","35","Tue Feb 16 13:20:00 2021","The main experiment item","yes","Lexical_Decision_Task.osexp","/Users/phoebedimmock","no","Andale Mono","no","18","no","white","no","yes","576","legacy","31","31","3","/Users/phoebedimmock/subject-5215577.csv","legacy","Lentiform Loewenfeld","3.3.7","yes","yes","600bd7cfb6416f0113b04181","602110864497cf011d9c0822","0","j","NA","space","space","space","NA","j","672","NA","24509","14814","5243","NA","672","2","legacy","1024","2","48000","-16","task","5215577","odd","NA","44331","70844","46334","131636","5562","25646","20399","132139","NA","131633","132139","131577","70844","132812","39289","131077","5552","120098","Lexical Decision Task","31","37720","36","yes","1024"
"3.276537627","9.15","5","trap","word","86.48648648648648","86.48648648648648","1039.837837837838","1039.837837837838","black","no","legacy","legacy","legacy","0","uniform","1","undefined","undefined","undefined","1","j","0","0","0","0","36","0","0","0","36","NA","32","36","32","0","32","3","36","0","36","Tue Feb 16 13:20:00 2021","The main experiment item","yes","Lexical_Decision_Task.osexp","/Users/phoebedimmock","no","Andale Mono","no","18","no","white","no","yes","576","legacy","32","32","3","/Users/phoebedimmock/subject-5215577.csv","legacy","Lentiform Loewenfeld","3.3.7","yes","yes","600bd7cfb6416f0113b04181","602110864497cf011d9c0822","0","j","NA","space","space","space","NA","j","754","NA","24509","14814","5243","NA","754","2","legacy","1024","2","48000","-16","task","5215577","odd","NA","44331","70844","46334","133373","5562","25646","20399","133876","NA","133371","133876","133315","70844","134631","39289","132815","5552","120098","Lexical Decision Task","32","38474","37","yes","1024"
"3.140404328","10.66","9","deep","word","86.84210526315789","86.84210526315789","1029.157894736842","1029.157894736842","black","no","legacy","legacy","legacy","0","uniform","1","undefined","undefined","undefined","1","j","0","0","0","0","37","0","0","0","37","NA","33","37","33","0","33","3","37","0","37","Tue Feb 16 13:20:00 2021","The main experiment item","yes","Lexical_Decision_Task.osexp","/Users/phoebedimmock","no","Andale Mono","no","18","no","white","no","yes","576","legacy","33","33","3","/Users/phoebedimmock/subject-5215577.csv","legacy","Lentiform Loewenfeld","3.3.7","yes","yes","600bd7cfb6416f0113b04181","602110864497cf011d9c0822","0","j","NA","space","space","space","NA","j","634","NA","24509","14814","5243","NA","634","2","legacy","1024","2","48000","-16","task","5215577","odd","NA","44331","70844","46334","135192","5562","25646","20399","135695","NA","135190","135695","135135","70844","136330","39289","134635","5552","120098","Lexical Decision Task","33","39108","38","yes","1024"
"2.803231716","5.26","3","kiln","word","87.17948717948718","87.17948717948718","1027.974358974359","1027.974358974359","black","no","legacy","legacy","legacy","0","uniform","1","undefined","undefined","undefined","1","j","0","0","0","0","38","0","0","0","38","NA","34","38","34","0","34","3","38","0","38","Tue Feb 16 13:20:00 2021","The main experiment item","yes","Lexical_Decision_Task.osexp","/Users/phoebedimmock","no","Andale Mono","no","18","no","white","no","yes","576","legacy","34","34","3","/Users/phoebedimmock/subject-5215577.csv","legacy","Lentiform Loewenfeld","3.3.7","yes","yes","600bd7cfb6416f0113b04181","602110864497cf011d9c0822","0","j","NA","space","space","space","NA","j","983","NA","24509","14814","5243","NA","983","2","legacy","1024","2","48000","-16","task","5215577","odd","NA","44331","70844","46334","136893","5562","25646","20399","137396","NA","136890","137396","136834","70844","138379","39289","136333","5552","120098","Lexical Decision Task","34","40091","39","yes","1024"
"2.990042563","6.64","9","plow","word","87.5","87.5","1037.525","1037.525","black","no","legacy","legacy","legacy","0","uniform","1","undefined","undefined","undefined","1","j","0","0","0","0","39","0","0","0","39","NA","35","39","35","0","35","3","39","0","39","Tue Feb 16 13:20:00 2021","The main experiment item","yes","Lexical_Decision_Task.osexp","/Users/phoebedimmock","no","Andale Mono","no","18","no","white","no","yes","576","legacy","35","35","3","/Users/phoebedimmock/subject-5215577.csv","legacy","Lentiform Loewenfeld","3.3.7","yes","yes","600bd7cfb6416f0113b04181","602110864497cf011d9c0822","0","j","NA","space","space","space","NA","j","1410","NA","24509","14814","5243","NA","1410","2","legacy","1024","2","48000","-16","task","5215577","odd","NA","44331","70844","46334","138941","5562","25646","20399","139443","NA","138938","139444","138883","70844","140855","39289","138383","5552","120098","Lexical Decision Task","35","41501","40","yes","1024"
"3.474361976","5.24","6","veer","word","87.8048780487805","87.8048780487805","1030.9756097560976","1030.9756097560976","black","no","legacy","legacy","legacy","0","uniform","1","undefined","undefined","undefined","1","j","0","0","0","0","40","0","0","0","40","NA","36","40","36","0","36","3","40","0","40","Tue Feb 16 13:20:00 2021","The main experiment item","yes","Lexical_Decision_Task.osexp","/Users/phoebedimmock","no","Andale Mono","no","18","no","white","no","yes","576","legacy","36","36","3","/Users/phoebedimmock/subject-5215577.csv","legacy","Lentiform Loewenfeld","3.3.7","yes","yes","600bd7cfb6416f0113b04181","602110864497cf011d9c0822","0","j","NA","space","space","space","NA","j","769","NA","24509","14814","5243","NA","769","2","legacy","1024","2","48000","-16","task","5215577","odd","NA","44331","70844","46334","141417","5562","25646","20399","141920","NA","141414","141920","141359","70844","142690","39289","140859","5552","120098","Lexical Decision Task","36","42270","41","yes","1024"
"2.812467698","0","7","hafe","non-word","88.0952380952381","88.0952380952381","1025.2857142857142","1025.2857142857142","black","no","legacy","legacy","legacy","0","uniform","1","undefined","undefined","undefined","1","f","0","0","0","0","41","0","0","0","41","NA","37","41","37","0","37","3","41","0","41","Tue Feb 16 13:20:00 2021","The main experiment item","yes","Lexical_Decision_Task.osexp","/Users/phoebedimmock","no","Andale Mono","no","18","no","white","no","yes","576","legacy","37","37","3","/Users/phoebedimmock/subject-5215577.csv","legacy","Lentiform Loewenfeld","3.3.7","yes","yes","600bd7cfb6416f0113b04181","602110864497cf011d9c0822","0","f","NA","space","space","space","NA","f","792","NA","24509","14814","5243","NA","792","2","legacy","1024","2","48000","-16","task","5215577","odd","NA","44331","70844","46334","143251","5562","25646","20399","143754","NA","143249","143754","143193","70844","144547","39289","142693","5552","120098","Lexical Decision Task","37","43062","42","yes","1024"
"2.845304797","0","6","buct","non-word","88.37209302325581","88.37209302325581","1015.1162790697674","1015.1162790697674","black","no","legacy","legacy","legacy","0","uniform","1","undefined","undefined","undefined","1","f","0","0","0","0","42","0","0","0","42","NA","38","42","38","0","38","3","42","0","42","Tue Feb 16 13:20:00 2021","The main experiment item","yes","Lexical_Decision_Task.osexp","/Users/phoebedimmock","no","Andale Mono","no","18","no","white","no","yes","576","legacy","38","38","3","/Users/phoebedimmock/subject-5215577.csv","legacy","Lentiform Loewenfeld","3.3.7","yes","yes","600bd7cfb6416f0113b04181","602110864497cf011d9c0822","0","f","NA","space","space","space","NA","f","588","NA","24509","14814","5243","NA","588","2","legacy","1024","2","48000","-16","task","5215577","odd","NA","44331","70844","46334","145109","5562","25646","20399","145612","NA","145107","145612","145051","70844","146201","39289","144550","5552","120098","Lexical Decision Task","38","43650","43","yes","1024"
"2.966923697","5.4","2","fume","word","88.63636363636364","88.63636363636364","1006.3181818181819","1006.3181818181819","black","no","legacy","legacy","legacy","0","uniform","1","undefined","undefined","undefined","1","j","0","0","0","0","43","0","0","0","43","NA","39","43","39","0","39","3","43","0","43","Tue Feb 16 13:20:00 2021","The main experiment item","yes","Lexical_Decision_Task.osexp","/Users/phoebedimmock","no","Andale Mono","no","18","no","white","no","yes","576","legacy","39","39","3","/Users/phoebedimmock/subject-5215577.csv","legacy","Lentiform Loewenfeld","3.3.7","yes","yes","600bd7cfb6416f0113b04181","602110864497cf011d9c0822","0","j","NA","space","space","space","NA","j","628","NA","24509","14814","5243","NA","628","2","legacy","1024","2","48000","-16","task","5215577","odd","NA","44331","70844","46334","146761","5562","25646","20399","147264","NA","146759","147264","146704","70844","147892","39289","146204","5552","120098","Lexical Decision Task","39","44278","44","yes","1024"
"3.119255889","6.63","2","itch","word","88.88888888888889","88.88888888888889","997.1111111111111","997.1111111111111","black","no","legacy","legacy","legacy","0","uniform","1","undefined","undefined","undefined","1","j","0","0","0","0","44","0","0","0","44","NA","40","44","40","0","40","3","44","0","44","Tue Feb 16 13:20:00 2021","The main experiment item","yes","Lexical_Decision_Task.osexp","/Users/phoebedimmock","no","Andale Mono","no","18","no","white","no","yes","576","legacy","40","40","3","/Users/phoebedimmock/subject-5215577.csv","legacy","Lentiform Loewenfeld","3.3.7","yes","yes","600bd7cfb6416f0113b04181","602110864497cf011d9c0822","0","j","NA","space","space","space","NA","j","592","NA","24509","14814","5243","NA","592","2","legacy","1024","2","48000","-16","task","5215577","odd","NA","44331","70844","46334","148455","5562","25646","20399","148958","NA","148452","148958","148397","70844","149551","39289","147897","5552","120098","Lexical Decision Task","40","44870","45","yes","1024"
"2.75025376","10.2","6","jump","word","89.1304347826087","89.1304347826087","989.9782608695652","989.9782608695652","black","no","legacy","legacy","legacy","0","uniform","1","undefined","undefined","undefined","1","j","0","0","0","0","45","0","0","0","45","NA","41","45","41","0","41","3","45","0","45","Tue Feb 16 13:20:00 2021","The main experiment item","yes","Lexical_Decision_Task.osexp","/Users/phoebedimmock","no","Andale Mono","no","18","no","white","no","yes","576","legacy","41","41","3","/Users/phoebedimmock/subject-5215577.csv","legacy","Lentiform Loewenfeld","3.3.7","yes","yes","600bd7cfb6416f0113b04181","602110864497cf011d9c0822","0","j","NA","space","space","space","NA","j","669","NA","24509","14814","5243","NA","669","2","legacy","1024","2","48000","-16","task","5215577","odd","NA","44331","70844","46334","150113","5562","25646","20399","150616","NA","150111","150616","150054","70844","151286","39289","149554","5552","120098","Lexical Decision Task","41","45539","46","yes","1024"
"2.8162413","0","5","nusk","non-word","89.36170212765957","89.36170212765957","990.0851063829788","990.0851063829788","black","no","legacy","legacy","legacy","0","uniform","1","undefined","undefined","undefined","1","f","0","0","0","0","46","0","0","0","46","NA","42","46","42","0","42","3","46","0","46","Tue Feb 16 13:20:00 2021","The main experiment item","yes","Lexical_Decision_Task.osexp","/Users/phoebedimmock","no","Andale Mono","no","18","no","white","no","yes","576","legacy","42","42","3","/Users/phoebedimmock/subject-5215577.csv","legacy","Lentiform Loewenfeld","3.3.7","yes","yes","600bd7cfb6416f0113b04181","602110864497cf011d9c0822","0","f","NA","space","space","space","NA","f","995","NA","24509","14814","5243","NA","995","2","legacy","1024","2","48000","-16","task","5215577","odd","NA","44331","70844","46334","151846","5562","25646","20399","152349","NA","151844","152349","151789","70844","153344","39289","151289","5552","120098","Lexical Decision Task","42","46534","47","yes","1024"
"2.664011697","8.19","4","hawk","word","89.58333333333333","89.58333333333333","982.875","982.875","black","no","legacy","legacy","legacy","0","uniform","1","undefined","undefined","undefined","1","j","0","0","0","0","47","0","0","0","47","NA","43","47","43","0","43","3","47","0","47","Tue Feb 16 13:20:00 2021","The main experiment item","yes","Lexical_Decision_Task.osexp","/Users/phoebedimmock","no","Andale Mono","no","18","no","white","no","yes","576","legacy","43","43","3","/Users/phoebedimmock/subject-5215577.csv","legacy","Lentiform Loewenfeld","3.3.7","yes","yes","600bd7cfb6416f0113b04181","602110864497cf011d9c0822","0","j","NA","space","space","space","NA","j","644","NA","24509","14814","5243","NA","644","2","legacy","1024","2","48000","-16","task","5215577","odd","NA","44331","70844","46334","153905","5562","25646","20399","154408","NA","153902","154408","153848","70844","155053","39289","153348","5552","120098","Lexical Decision Task","43","47178","48","yes","1024"
"3.028977705","0","7","frow","non-word","87.75510204081633","87.75510204081633","977.9183673469388","977.9183673469388","black","no","legacy","legacy","legacy","0","uniform","0","undefined","undefined","undefined","0","f","0","0","0","0","48","0","0","0","48","NA","44","48","44","0","44","3","48","0","48","Tue Feb 16 13:20:00 2021","The main experiment item","yes","Lexical_Decision_Task.osexp","/Users/phoebedimmock","no","Andale Mono","no","18","no","white","no","yes","576","legacy","44","44","3","/Users/phoebedimmock/subject-5215577.csv","legacy","Lentiform Loewenfeld","3.3.7","yes","yes","600bd7cfb6416f0113b04181","602110864497cf011d9c0822","0","j","NA","space","space","space","NA","j","740","NA","24509","14814","5243","NA","740","2","legacy","1024","2","48000","-16","task","5215577","odd","NA","44331","70844","46334","155615","5562","25646","20399","156118","NA","155612","156118","155556","70844","156859","39289","155056","5552","120098","Lexical Decision Task","43","47918","49","yes","1024"
"3.209246849","0","7","slem","non-word","88","88","980.56","980.56","black","no","legacy","legacy","legacy","0","uniform","1","undefined","undefined","undefined","1","f","0","0","0","0","49","0","0","0","49","NA","45","49","45","0","45","3","49","0","49","Tue Feb 16 13:20:00 2021","The main experiment item","yes","Lexical_Decision_Task.osexp","/Users/phoebedimmock","no","Andale Mono","no","18","no","white","no","yes","576","legacy","45","45","3","/Users/phoebedimmock/subject-5215577.csv","legacy","Lentiform Loewenfeld","3.3.7","yes","yes","600bd7cfb6416f0113b04181","602110864497cf011d9c0822","0","f","NA","space","space","space","NA","f","1110","NA","24509","14814","5243","NA","1110","2","legacy","1024","2","48000","-16","task","5215577","odd","NA","44331","70844","46334","158425","5562","25646","20399","158928","NA","158422","158928","158363","70844","160039","39289","155056","5552","156862","Lexical Decision Task","44","49028","50","yes","1024"
"2.996511672","0","7","hoil","non-word","86.27450980392157","86.27450980392157","976.9215686274509","976.9215686274509","black","no","legacy","legacy","legacy","0","uniform","0","undefined","undefined","undefined","0","f","0","0","0","0","50","0","0","0","50","NA","46","50","46","0","46","3","50","0","50","Tue Feb 16 13:20:00 2021","The main experiment item","yes","Lexical_Decision_Task.osexp","/Users/phoebedimmock","no","Andale Mono","no","18","no","white","no","yes","576","legacy","46","46","3","/Users/phoebedimmock/subject-5215577.csv","legacy","Lentiform Loewenfeld","3.3.7","yes","yes","600bd7cfb6416f0113b04181","602110864497cf011d9c0822","0","j","NA","space","space","space","NA","j","795","NA","24509","14814","5243","NA","795","2","legacy","1024","2","48000","-16","task","5215577","odd","NA","44331","70844","46334","160600","5562","25646","20399","161102","NA","160597","161102","160543","70844","161898","39289","160043","5552","156862","Lexical Decision Task","44","49823","51","yes","1024"
"3.090140555","5.81","8","pout","word","86.53846153846153","86.53846153846153","978.9615384615385","978.9615384615385","black","no","legacy","legacy","legacy","0","uniform","1","undefined","undefined","undefined","1","j","0","0","0","0","51","0","0","0","51","NA","47","51","47","0","47","3","51","0","51","Tue Feb 16 13:20:00 2021","The main experiment item","yes","Lexical_Decision_Task.osexp","/Users/phoebedimmock","no","Andale Mono","no","18","no","white","no","yes","576","legacy","47","47","3","/Users/phoebedimmock/subject-5215577.csv","legacy","Lentiform Loewenfeld","3.3.7","yes","yes","600bd7cfb6416f0113b04181","602110864497cf011d9c0822","0","j","NA","space","space","space","NA","j","1083","NA","24509","14814","5243","NA","1083","2","legacy","1024","2","48000","-16","task","5215577","odd","NA","44331","70844","46334","163464","5562","25646","20399","163967","NA","163461","163967","163402","70844","165051","39289","160043","5552","161902","Lexical Decision Task","45","50906","52","yes","1024"
"3.382617311","0","4","pret","non-word","84.90566037735849","84.90566037735849","982.5849056603773","982.5849056603773","black","no","legacy","legacy","legacy","0","uniform","0","undefined","undefined","undefined","0","f","0","0","0","0","52","0","0","0","52","NA","48","52","48","0","48","3","52","0","52","Tue Feb 16 13:20:00 2021","The main experiment item","yes","Lexical_Decision_Task.osexp","/Users/phoebedimmock","no","Andale Mono","no","18","no","white","no","yes","576","legacy","48","48","3","/Users/phoebedimmock/subject-5215577.csv","legacy","Lentiform Loewenfeld","3.3.7","yes","yes","600bd7cfb6416f0113b04181","602110864497cf011d9c0822","0","j","NA","space","space","space","NA","j","1171","NA","24509","14814","5243","NA","1171","2","legacy","1024","2","48000","-16","task","5215577","odd","NA","44331","70844","46334","165612","5562","25646","20399","166115","NA","165609","166115","165554","70844","167287","39289","165054","5552","161902","Lexical Decision Task","45","52077","53","yes","1024"
"2.839898939","8.99","6","soap","word","85.18518518518519","85.18518518518519","1010","1010","black","no","legacy","legacy","legacy","0","uniform","1","undefined","undefined","undefined","1","j","0","0","0","0","53","0","0","0","53","NA","49","53","49","0","49","3","53","0","53","Tue Feb 16 13:20:00 2021","The main experiment item","yes","Lexical_Decision_Task.osexp","/Users/phoebedimmock","no","Andale Mono","no","18","no","white","no","yes","576","legacy","49","49","3","/Users/phoebedimmock/subject-5215577.csv","legacy","Lentiform Loewenfeld","3.3.7","yes","yes","600bd7cfb6416f0113b04181","602110864497cf011d9c0822","0","j","NA","space","space","space","NA","j","2463","NA","24509","14814","5243","NA","2463","2","legacy","1024","2","48000","-16","task","5215577","odd","NA","44331","70844","46334","168854","5562","25646","20399","169357","NA","168851","169357","168791","70844","171821","39289","165054","5552","167291","Lexical Decision Task","46","54540","54","yes","1024"
"2.696356389","0","1","pizz","non-word","85.45454545454545","85.45454545454545","1021","1021","black","no","legacy","legacy","legacy","0","uniform","1","undefined","undefined","undefined","1","f","0","0","0","0","54","0","0","0","54","0","50","54","50","0","50","3","54","0","54","Tue Feb 16 13:20:00 2021","The main experiment item","yes","Lexical_Decision_Task.osexp","/Users/phoebedimmock","no","Andale Mono","no","18","no","white","no","yes","576","legacy","50","50","3","/Users/phoebedimmock/subject-5215577.csv","legacy","Lentiform Loewenfeld","3.3.7","yes","yes","600bd7cfb6416f0113b04181","602110864497cf011d9c0822","0","f","NA","space","space","space","space","f","1615","NA","24509","14814","5243","48160","1615","2","legacy","1024","2","48000","-16","task","5215577","odd","NA","44331","70844","46334","220566","5562","25646","20399","221069","172352","220564","221070","172325","70844","222686","39289","171825","5552","167291","Lexical Decision Task","47","56155","55","yes","1024"
"3.531734309","0","6","lerd","non-word","85.71428571428571","85.71428571428571","1017.1071428571429","1017.1071428571429","black","no","legacy","legacy","legacy","0","uniform","1","undefined","undefined","undefined","1","f","0","0","0","0","55","0","0","0","55","0","51","55","51","0","51","3","55","0","55","Tue Feb 16 13:20:00 2021","The main experiment item","yes","Lexical_Decision_Task.osexp","/Users/phoebedimmock","no","Andale Mono","no","18","no","white","no","yes","576","legacy","51","51","3","/Users/phoebedimmock/subject-5215577.csv","legacy","Lentiform Loewenfeld","3.3.7","yes","yes","600bd7cfb6416f0113b04181","602110864497cf011d9c0822","0","f","NA","space","space","space","space","f","803","NA","24509","14814","5243","48160","803","2","legacy","1024","2","48000","-16","task","5215577","odd","NA","44331","70844","46334","223248","5562","25646","20399","223750","172352","223245","223751","223190","70844","224555","39289","222690","5552","167291","Lexical Decision Task","48","56958","56","yes","1024"
"2.880623071","0","9","curp","non-word","85.96491228070175","85.96491228070175","1012.4736842105264","1012.4736842105264","black","no","legacy","legacy","legacy","0","uniform","1","undefined","undefined","undefined","1","f","0","0","0","0","56","0","0","0","56","0","52","56","52","0","52","3","56","0","56","Tue Feb 16 13:20:00 2021","The main experiment item","yes","Lexical_Decision_Task.osexp","/Users/phoebedimmock","no","Andale Mono","no","18","no","white","no","yes","576","legacy","52","52","3","/Users/phoebedimmock/subject-5215577.csv","legacy","Lentiform Loewenfeld","3.3.7","yes","yes","600bd7cfb6416f0113b04181","602110864497cf011d9c0822","0","f","NA","space","space","space","space","f","753","NA","24509","14814","5243","48160","753","2","legacy","1024","2","48000","-16","task","5215577","odd","NA","44331","70844","46334","225116","5562","25646","20399","225619","172352","225113","225619","225058","70844","226373","39289","224558","5552","167291","Lexical Decision Task","49","57711","57","yes","1024"
"3.168890155","0","6","thet","non-word","86.20689655172414","86.20689655172414","1006.2241379310345","1006.2241379310345","black","no","legacy","legacy","legacy","0","uniform","1","undefined","undefined","undefined","1","f","0","0","0","0","57","0","0","0","57","0","53","57","53","0","53","3","57","0","57","Tue Feb 16 13:20:00 2021","The main experiment item","yes","Lexical_Decision_Task.osexp","/Users/phoebedimmock","no","Andale Mono","no","18","no","white","no","yes","576","legacy","53","53","3","/Users/phoebedimmock/subject-5215577.csv","legacy","Lentiform Loewenfeld","3.3.7","yes","yes","600bd7cfb6416f0113b04181","602110864497cf011d9c0822","0","f","NA","space","space","space","space","f","650","NA","24509","14814","5243","48160","650","2","legacy","1024","2","48000","-16","task","5215577","odd","NA","44331","70844","46334","226934","5562","25646","20399","227437","172352","226932","227438","226876","70844","228089","39289","226376","5552","167291","Lexical Decision Task","50","58361","58","yes","1024"
"3.031408464","0","7","drow","non-word","86.44067796610169","86.44067796610169","1015.3389830508474","1015.3389830508474","black","no","legacy","legacy","legacy","0","uniform","1","undefined","undefined","undefined","1","f","0","0","0","0","58","0","0","0","58","0","54","58","54","0","54","3","58","0","58","Tue Feb 16 13:20:00 2021","The main experiment item","yes","Lexical_Decision_Task.osexp","/Users/phoebedimmock","no","Andale Mono","no","18","no","white","no","yes","576","legacy","54","54","3","/Users/phoebedimmock/subject-5215577.csv","legacy","Lentiform Loewenfeld","3.3.7","yes","yes","600bd7cfb6416f0113b04181","602110864497cf011d9c0822","0","f","NA","space","space","space","space","f","1544","NA","24509","14814","5243","48160","1544","2","legacy","1024","2","48000","-16","task","5215577","odd","NA","44331","70844","46334","228652","5562","25646","20399","229155","172352","228649","229155","228593","70844","230699","39289","228093","5552","167291","Lexical Decision Task","51","59905","59","yes","1024"
"3.134602053","0","8","jart","non-word","86.66666666666667","86.66666666666667","1009.9166666666666","1009.9166666666666","black","no","legacy","legacy","legacy","0","uniform","1","undefined","undefined","undefined","1","f","0","0","0","0","59","0","0","0","59","0","55","59","55","0","55","3","59","0","59","Tue Feb 16 13:20:00 2021","The main experiment item","yes","Lexical_Decision_Task.osexp","/Users/phoebedimmock","no","Andale Mono","no","18","no","white","no","yes","576","legacy","55","55","3","/Users/phoebedimmock/subject-5215577.csv","legacy","Lentiform Loewenfeld","3.3.7","yes","yes","600bd7cfb6416f0113b04181","602110864497cf011d9c0822","0","f","NA","space","space","space","space","f","690","NA","24509","14814","5243","48160","690","2","legacy","1024","2","48000","-16","task","5215577","odd","NA","44331","70844","46334","231261","5562","25646","20399","231763","172352","231258","231763","231203","70844","232453","39289","230703","5552","167291","Lexical Decision Task","52","60595","60","yes","1024"
"3.1430148","7.92","8","bald","word","86.88524590163935","86.88524590163935","1007.1311475409836","1007.1311475409836","black","no","legacy","legacy","legacy","0","uniform","1","undefined","undefined","undefined","1","j","0","0","0","0","60","0","0","0","60","0","56","60","56","0","56","3","60","0","60","Tue Feb 16 13:20:00 2021","The main experiment item","yes","Lexical_Decision_Task.osexp","/Users/phoebedimmock","no","Andale Mono","no","18","no","white","no","yes","576","legacy","56","56","3","/Users/phoebedimmock/subject-5215577.csv","legacy","Lentiform Loewenfeld","3.3.7","yes","yes","600bd7cfb6416f0113b04181","602110864497cf011d9c0822","0","j","NA","space","space","space","space","j","840","NA","24509","14814","5243","48160","840","2","legacy","1024","2","48000","-16","task","5215577","odd","NA","44331","70844","46334","233015","5562","25646","20399","233518","172352","233013","233518","232957","70844","234358","39289","232457","5552","167291","Lexical Decision Task","53","61435","61","yes","1024"
"2.664328519","0","4","plux","non-word","87.09677419354838","87.09677419354838","1001.7903225806451","1001.7903225806451","black","no","legacy","legacy","legacy","0","uniform","1","undefined","undefined","undefined","1","f","0","0","0","0","61","0","0","0","61","0","57","61","57","0","57","3","61","0","61","Tue Feb 16 13:20:00 2021","The main experiment item","yes","Lexical_Decision_Task.osexp","/Users/phoebedimmock","no","Andale Mono","no","18","no","white","no","yes","576","legacy","57","57","3","/Users/phoebedimmock/subject-5215577.csv","legacy","Lentiform Loewenfeld","3.3.7","yes","yes","600bd7cfb6416f0113b04181","602110864497cf011d9c0822","0","f","NA","space","space","space","space","f","676","NA","24509","14814","5243","48160","676","2","legacy","1024","2","48000","-16","task","5215577","odd","NA","44331","70844","46334","234920","5562","25646","20399","235423","172352","234918","235423","234862","70844","236100","39289","234362","5552","167291","Lexical Decision Task","54","62111","62","yes","1024"
"2.6599162","0","6","flug","non-word","87.3015873015873","87.3015873015873","997.015873015873","997.015873015873","black","no","legacy","legacy","legacy","0","uniform","1","undefined","undefined","undefined","1","f","0","0","0","0","62","0","0","0","62","0","58","62","58","0","58","3","62","0","62","Tue Feb 16 13:20:00 2021","The main experiment item","yes","Lexical_Decision_Task.osexp","/Users/phoebedimmock","no","Andale Mono","no","18","no","white","no","yes","576","legacy","58","58","3","/Users/phoebedimmock/subject-5215577.csv","legacy","Lentiform Loewenfeld","3.3.7","yes","yes","600bd7cfb6416f0113b04181","602110864497cf011d9c0822","0","f","NA","space","space","space","space","f","701","NA","24509","14814","5243","48160","701","2","legacy","1024","2","48000","-16","task","5215577","odd","NA","44331","70844","46334","236661","5562","25646","20399","237163","172352","236658","237164","236603","70844","237865","39289","236103","5552","167291","Lexical Decision Task","55","62812","63","yes","1024"
"3.259832699","0","9","flar","non-word","87.5","87.5","996.640625","996.640625","black","no","legacy","legacy","legacy","0","uniform","1","undefined","undefined","undefined","1","f","0","0","0","0","63","0","0","0","63","0","59","63","59","0","59","3","63","0","63","Tue Feb 16 13:20:00 2021","The main experiment item","yes","Lexical_Decision_Task.osexp","/Users/phoebedimmock","no","Andale Mono","no","18","no","white","no","yes","576","legacy","59","59","3","/Users/phoebedimmock/subject-5215577.csv","legacy","Lentiform Loewenfeld","3.3.7","yes","yes","600bd7cfb6416f0113b04181","602110864497cf011d9c0822","0","f","NA","space","space","space","space","f","973","NA","24509","14814","5243","48160","973","2","legacy","1024","2","48000","-16","task","5215577","odd","NA","44331","70844","46334","238426","5562","25646","20399","238929","172352","238423","238929","238369","70844","239903","39289","237869","5552","167291","Lexical Decision Task","56","63785","64","yes","1024"
"3.094121596","0","8","fode","non-word","87.6923076923077","87.6923076923077","991.9538461538461","991.9538461538461","black","no","legacy","legacy","legacy","0","uniform","1","undefined","undefined","undefined","1","f","0","0","0","0","64","0","0","0","64","0","60","64","60","0","60","3","64","0","64","Tue Feb 16 13:20:00 2021","The main experiment item","yes","Lexical_Decision_Task.osexp","/Users/phoebedimmock","no","Andale Mono","no","18","no","white","no","yes","576","legacy","60","60","3","/Users/phoebedimmock/subject-5215577.csv","legacy","Lentiform Loewenfeld","3.3.7","yes","yes","600bd7cfb6416f0113b04181","602110864497cf011d9c0822","0","f","NA","space","space","space","space","f","692","NA","24509","14814","5243","48160","692","2","legacy","1024","2","48000","-16","task","5215577","odd","NA","44331","70844","46334","240465","5562","25646","20399","240968","172352","240463","240968","240408","70844","241661","39289","239907","5552","167291","Lexical Decision Task","57","64477","65","yes","1024"
"2.793790385","5.67","9","swab","word","87.87878787878788","87.87878787878788","989.8787878787879","989.8787878787879","black","no","legacy","legacy","legacy","0","uniform","1","undefined","undefined","undefined","1","j","0","0","0","0","65","0","0","0","65","0","61","65","61","0","61","3","65","0","65","Tue Feb 16 13:20:00 2021","The main experiment item","yes","Lexical_Decision_Task.osexp","/Users/phoebedimmock","no","Andale Mono","no","18","no","white","no","yes","576","legacy","61","61","3","/Users/phoebedimmock/subject-5215577.csv","legacy","Lentiform Loewenfeld","3.3.7","yes","yes","600bd7cfb6416f0113b04181","602110864497cf011d9c0822","0","j","NA","space","space","space","space","j","855","NA","24509","14814","5243","48160","855","2","legacy","1024","2","48000","-16","task","5215577","odd","NA","44331","70844","46334","242222","5562","25646","20399","242724","172352","242219","242725","242165","70844","243581","39289","241665","5552","167291","Lexical Decision Task","58","65332","66","yes","1024"
"3.216517684","10.87","3","film","word","88.05970149253731","88.05970149253731","983.5671641791045","983.5671641791045","black","no","legacy","legacy","legacy","0","uniform","1","undefined","undefined","undefined","1","j","0","0","0","0","66","0","0","0","66","0","62","66","62","0","62","3","66","0","66","Tue Feb 16 13:20:00 2021","The main experiment item","yes","Lexical_Decision_Task.osexp","/Users/phoebedimmock","no","Andale Mono","no","18","no","white","no","yes","576","legacy","62","62","3","/Users/phoebedimmock/subject-5215577.csv","legacy","Lentiform Loewenfeld","3.3.7","yes","yes","600bd7cfb6416f0113b04181","602110864497cf011d9c0822","0","j","NA","space","space","space","space","j","567","NA","24509","14814","5243","48160","567","2","legacy","1024","2","48000","-16","task","5215577","odd","NA","44331","70844","46334","244143","5562","25646","20399","244645","172352","244140","244646","244085","70844","245214","39289","243585","5552","167291","Lexical Decision Task","59","65899","67","yes","1024"
"2.9737419","7.69","7","claw","word","88.23529411764706","88.23529411764706","976.6911764705883","976.6911764705883","black","no","legacy","legacy","legacy","0","uniform","1","undefined","undefined","undefined","1","j","0","0","0","0","67","0","0","0","67","0","63","67","63","0","63","3","67","0","67","Tue Feb 16 13:20:00 2021","The main experiment item","yes","Lexical_Decision_Task.osexp","/Users/phoebedimmock","no","Andale Mono","no","18","no","white","no","yes","576","legacy","63","63","3","/Users/phoebedimmock/subject-5215577.csv","legacy","Lentiform Loewenfeld","3.3.7","yes","yes","600bd7cfb6416f0113b04181","602110864497cf011d9c0822","0","j","NA","space","space","space","space","j","516","NA","24509","14814","5243","48160","516","2","legacy","1024","2","48000","-16","task","5215577","odd","NA","44331","70844","46334","245775","5562","25646","20399","246277","172352","245772","246277","245717","70844","246794","39289","245217","5552","167291","Lexical Decision Task","60","66415","68","yes","1024"
"2.68604012","0","3","mulb","non-word","88.40579710144928","88.40579710144928","972.072463768116","972.072463768116","black","no","legacy","legacy","legacy","0","uniform","1","undefined","undefined","undefined","1","f","0","0","0","0","68","0","0","0","68","0","64","68","64","0","64","3","68","0","68","Tue Feb 16 13:20:00 2021","The main experiment item","yes","Lexical_Decision_Task.osexp","/Users/phoebedimmock","no","Andale Mono","no","18","no","white","no","yes","576","legacy","64","64","3","/Users/phoebedimmock/subject-5215577.csv","legacy","Lentiform Loewenfeld","3.3.7","yes","yes","600bd7cfb6416f0113b04181","602110864497cf011d9c0822","0","f","NA","space","space","space","space","f","658","NA","24509","14814","5243","48160","658","2","legacy","1024","2","48000","-16","task","5215577","odd","NA","44331","70844","46334","247356","5562","25646","20399","247859","172352","247353","247859","247298","70844","248518","39289","246798","5552","167291","Lexical Decision Task","61","67073","69","yes","1024"
"2.6599162","0","2","saff","non-word","88.57142857142857","88.57142857142857","969.5428571428571","969.5428571428571","black","no","legacy","legacy","legacy","0","uniform","1","undefined","undefined","undefined","1","f","0","0","0","0","69","0","0","0","69","0","65","69","65","0","65","3","69","0","69","Tue Feb 16 13:20:00 2021","The main experiment item","yes","Lexical_Decision_Task.osexp","/Users/phoebedimmock","no","Andale Mono","no","18","no","white","no","yes","576","legacy","65","65","3","/Users/phoebedimmock/subject-5215577.csv","legacy","Lentiform Loewenfeld","3.3.7","yes","yes","600bd7cfb6416f0113b04181","602110864497cf011d9c0822","0","f","NA","space","space","space","space","f","795","NA","24509","14814","5243","48160","795","2","legacy","1024","2","48000","-16","task","5215577","odd","NA","44331","70844","46334","249080","5562","25646","20399","249582","172352","249077","249582","249022","70844","250378","39289","248522","5552","167291","Lexical Decision Task","62","67868","70","yes","1024"
"2.68604012","0","4","pumb","non-word","88.73239436619718","88.73239436619718","970.1971830985915","970.1971830985915","black","no","legacy","legacy","legacy","0","uniform","1","undefined","undefined","undefined","1","f","0","0","0","0","70","0","0","0","70","0","66","70","66","0","66","3","70","0","70","Tue Feb 16 13:20:00 2021","The main experiment item","yes","Lexical_Decision_Task.osexp","/Users/phoebedimmock","no","Andale Mono","no","18","no","white","no","yes","576","legacy","66","66","3","/Users/phoebedimmock/subject-5215577.csv","legacy","Lentiform Loewenfeld","3.3.7","yes","yes","600bd7cfb6416f0113b04181","602110864497cf011d9c0822","0","f","NA","space","space","space","space","f","1016","NA","24509","14814","5243","48160","1016","2","legacy","1024","2","48000","-16","task","5215577","odd","NA","44331","70844","46334","250940","5562","25646","20399","251443","172352","250938","251444","250882","70844","252461","39289","250382","5552","167291","Lexical Decision Task","63","68884","71","yes","1024"
"3.257359335","8","6","brew","word","88.88888888888889","88.88888888888889","965.9305555555555","965.9305555555555","black","no","legacy","legacy","legacy","0","uniform","1","undefined","undefined","undefined","1","j","0","0","0","0","71","0","0","0","71","0","67","71","67","0","67","3","71","0","71","Tue Feb 16 13:20:00 2021","The main experiment item","yes","Lexical_Decision_Task.osexp","/Users/phoebedimmock","no","Andale Mono","no","18","no","white","no","yes","576","legacy","67","67","3","/Users/phoebedimmock/subject-5215577.csv","legacy","Lentiform Loewenfeld","3.3.7","yes","yes","600bd7cfb6416f0113b04181","602110864497cf011d9c0822","0","j","NA","space","space","space","space","j","663","NA","24509","14814","5243","48160","663","2","legacy","1024","2","48000","-16","task","5215577","odd","NA","44331","70844","46334","253023","5562","25646","20399","253526","172352","253021","253526","252965","70844","254189","39289","252464","5552","167291","Lexical Decision Task","64","69547","72","yes","1024"
"2.771097306","0","9","jold","non-word","89.04109589041096","89.04109589041096","965.4246575342465","965.4246575342465","black","no","legacy","legacy","legacy","0","uniform","1","undefined","undefined","undefined","1","f","0","0","0","0","72","0","0","0","72","0","68","72","68","0","68","3","72","0","72","Tue Feb 16 13:20:00 2021","The main experiment item","yes","Lexical_Decision_Task.osexp","/Users/phoebedimmock","no","Andale Mono","no","18","no","white","no","yes","576","legacy","68","68","3","/Users/phoebedimmock/subject-5215577.csv","legacy","Lentiform Loewenfeld","3.3.7","yes","yes","600bd7cfb6416f0113b04181","602110864497cf011d9c0822","0","f","NA","space","space","space","space","f","929","NA","24509","14814","5243","48160","929","2","legacy","1024","2","48000","-16","task","5215577","odd","NA","44331","70844","46334","254752","5562","25646","20399","255254","172352","254749","255254","254693","70844","256184","39289","254193","5552","167291","Lexical Decision Task","65","70476","73","yes","1024"
"3.299579929","0","2","flis","non-word","89.1891891891892","89.1891891891892","962.2837837837837","962.2837837837837","black","no","legacy","legacy","legacy","0","uniform","1","undefined","undefined","undefined","1","f","0","0","0","0","73","0","0","0","73","0","69","73","69","0","69","3","73","0","73","Tue Feb 16 13:20:00 2021","The main experiment item","yes","Lexical_Decision_Task.osexp","/Users/phoebedimmock","no","Andale Mono","no","18","no","white","no","yes","576","legacy","69","69","3","/Users/phoebedimmock/subject-5215577.csv","legacy","Lentiform Loewenfeld","3.3.7","yes","yes","600bd7cfb6416f0113b04181","602110864497cf011d9c0822","0","f","NA","space","space","space","space","f","733","NA","24509","14814","5243","48160","733","2","legacy","1024","2","48000","-16","task","5215577","odd","NA","44331","70844","46334","256747","5562","25646","20399","257250","172352","256744","257250","256688","70844","257984","39289","256188","5552","167291","Lexical Decision Task","66","71209","74","yes","1024"
"2.858136002","0","4","phip","non-word","89.33333333333333","89.33333333333333","959.1066666666667","959.1066666666667","black","no","legacy","legacy","legacy","0","uniform","1","undefined","undefined","undefined","1","f","0","0","0","0","74","0","0","0","74","0","70","74","70","0","70","3","74","0","74","Tue Feb 16 13:20:00 2021","The main experiment item","yes","Lexical_Decision_Task.osexp","/Users/phoebedimmock","no","Andale Mono","no","18","no","white","no","yes","576","legacy","70","70","3","/Users/phoebedimmock/subject-5215577.csv","legacy","Lentiform Loewenfeld","3.3.7","yes","yes","600bd7cfb6416f0113b04181","602110864497cf011d9c0822","0","f","NA","space","space","space","space","f","724","NA","24509","14814","5243","48160","724","2","legacy","1024","2","48000","-16","task","5215577","odd","NA","44331","70844","46334","258546","5562","25646","20399","259049","172352","258543","259049","258488","70844","259774","39289","257988","5552","167291","Lexical Decision Task","67","71933","75","yes","1024"
"3.149629599","0","2","cleb","non-word","89.47368421052632","89.47368421052632","959.0131578947369","959.0131578947369","black","no","legacy","legacy","legacy","0","uniform","1","undefined","undefined","undefined","1","f","0","0","0","0","75","0","0","0","75","0","71","75","71","0","71","3","75","0","75","Tue Feb 16 13:20:00 2021","The main experiment item","yes","Lexical_Decision_Task.osexp","/Users/phoebedimmock","no","Andale Mono","no","18","no","white","no","yes","576","legacy","71","71","3","/Users/phoebedimmock/subject-5215577.csv","legacy","Lentiform Loewenfeld","3.3.7","yes","yes","600bd7cfb6416f0113b04181","602110864497cf011d9c0822","0","f","NA","space","space","space","space","f","952","NA","24509","14814","5243","48160","952","2","legacy","1024","2","48000","-16","task","5215577","odd","NA","44331","70844","46334","260335","5562","25646","20399","260838","172352","260332","260838","260277","70844","261791","39289","259777","5552","167291","Lexical Decision Task","68","72885","76","yes","1024"
"3.137775856","7.39","5","comb","word","89.6103896103896","89.6103896103896","954.2727272727273","954.2727272727273","black","no","legacy","legacy","legacy","0","uniform","1","undefined","undefined","undefined","1","j","0","0","0","0","76","0","0","0","76","0","72","76","72","0","72","3","76","0","76","Tue Feb 16 13:20:00 2021","The main experiment item","yes","Lexical_Decision_Task.osexp","/Users/phoebedimmock","no","Andale Mono","no","18","no","white","no","yes","576","legacy","72","72","3","/Users/phoebedimmock/subject-5215577.csv","legacy","Lentiform Loewenfeld","3.3.7","yes","yes","600bd7cfb6416f0113b04181","602110864497cf011d9c0822","0","j","NA","space","space","space","space","j","594","NA","24509","14814","5243","48160","594","2","legacy","1024","2","48000","-16","task","5215577","odd","NA","44331","70844","46334","262353","5562","25646","20399","262856","172352","262351","262856","262295","70844","263451","39289","261795","5552","167291","Lexical Decision Task","69","73479","77","yes","1024"
"2.719886232","7.98","2","quiz","word","89.74358974358974","89.74358974358974","951.7307692307693","951.7307692307693","black","no","legacy","legacy","legacy","0","uniform","1","undefined","undefined","undefined","1","j","0","0","0","0","77","0","0","0","77","0","73","77","73","0","73","3","77","0","77","Tue Feb 16 13:20:00 2021","The main experiment item","yes","Lexical_Decision_Task.osexp","/Users/phoebedimmock","no","Andale Mono","no","18","no","white","no","yes","576","legacy","73","73","3","/Users/phoebedimmock/subject-5215577.csv","legacy","Lentiform Loewenfeld","3.3.7","yes","yes","600bd7cfb6416f0113b04181","602110864497cf011d9c0822","0","j","NA","space","space","space","space","j","756","NA","24509","14814","5243","48160","756","2","legacy","1024","2","48000","-16","task","5215577","odd","NA","44331","70844","46334","264014","5562","25646","20399","264517","172352","264011","264517","263954","70844","265274","39289","263454","5552","167291","Lexical Decision Task","70","74235","78","yes","1024"
"2.693726949","5.08","3","swig","word","89.87341772151899","89.87341772151899","953.2025316455696","953.2025316455696","black","no","legacy","legacy","legacy","0","uniform","1","undefined","undefined","undefined","1","j","0","0","0","0","78","0","0","0","78","0","74","78","74","0","74","3","78","0","78","Tue Feb 16 13:20:00 2021","The main experiment item","yes","Lexical_Decision_Task.osexp","/Users/phoebedimmock","no","Andale Mono","no","18","no","white","no","yes","576","legacy","74","74","3","/Users/phoebedimmock/subject-5215577.csv","legacy","Lentiform Loewenfeld","3.3.7","yes","yes","600bd7cfb6416f0113b04181","602110864497cf011d9c0822","0","j","NA","space","space","space","space","j","1068","NA","24509","14814","5243","48160","1068","2","legacy","1024","2","48000","-16","task","5215577","odd","NA","44331","70844","46334","265835","5562","25646","20399","266338","172352","265833","266338","265778","70844","267407","39289","265277","5552","167291","Lexical Decision Task","71","75303","79","yes","1024"
"2.897810299","0","5","glur","non-word","90","90","951.3125","951.3125","black","no","legacy","legacy","legacy","0","uniform","1","undefined","undefined","undefined","1","f","0","0","0","0","79","0","0","0","79","0","75","79","75","0","75","3","79","0","79","Tue Feb 16 13:20:00 2021","The main experiment item","yes","Lexical_Decision_Task.osexp","/Users/phoebedimmock","no","Andale Mono","no","18","no","white","no","yes","576","legacy","75","75","3","/Users/phoebedimmock/subject-5215577.csv","legacy","Lentiform Loewenfeld","3.3.7","yes","yes","600bd7cfb6416f0113b04181","602110864497cf011d9c0822","0","f","NA","space","space","space","space","f","802","NA","24509","14814","5243","48160","802","2","legacy","1024","2","48000","-16","task","5215577","odd","NA","44331","70844","46334","267972","5562","25646","20399","268475","172352","267969","268475","267911","70844","269277","39289","267411","5552","167291","Lexical Decision Task","72","76105","80","yes","1024"
"3.384413096","10.15","3","glad","word","90.12345679012346","90.12345679012346","946.395061728395","946.395061728395","black","no","legacy","legacy","legacy","0","uniform","1","undefined","undefined","undefined","1","j","0","0","0","0","80","0","0","0","80","0","76","80","76","0","76","3","80","0","80","Tue Feb 16 13:20:00 2021","The main experiment item","yes","Lexical_Decision_Task.osexp","/Users/phoebedimmock","no","Andale Mono","no","18","no","white","no","yes","576","legacy","76","76","3","/Users/phoebedimmock/subject-5215577.csv","legacy","Lentiform Loewenfeld","3.3.7","yes","yes","600bd7cfb6416f0113b04181","602110864497cf011d9c0822","0","j","NA","space","space","space","space","j","553","NA","24509","14814","5243","48160","553","2","legacy","1024","2","48000","-16","task","5215577","odd","NA","44331","70844","46334","269838","5562","25646","20399","270341","172352","269836","270341","269781","70844","270895","39289","269281","5552","167291","Lexical Decision Task","73","76658","81","yes","1024"
"2.696644658","5.78","2","yolk","word","90.2439024390244","90.2439024390244","942.8536585365854","942.8536585365854","black","no","legacy","legacy","legacy","0","uniform","1","undefined","undefined","undefined","1","j","0","0","0","0","81","0","0","0","81","0","77","81","77","0","77","3","81","0","81","Tue Feb 16 13:20:00 2021","The main experiment item","yes","Lexical_Decision_Task.osexp","/Users/phoebedimmock","no","Andale Mono","no","18","no","white","no","yes","576","legacy","77","77","3","/Users/phoebedimmock/subject-5215577.csv","legacy","Lentiform Loewenfeld","3.3.7","yes","yes","600bd7cfb6416f0113b04181","602110864497cf011d9c0822","0","j","NA","space","space","space","space","j","656","NA","24509","14814","5243","48160","656","2","legacy","1024","2","48000","-16","task","5215577","odd","NA","44331","70844","46334","271456","5562","25646","20399","271958","172352","271453","271959","271398","70844","272616","39289","270898","5552","167291","Lexical Decision Task","74","77314","82","yes","1024"
"3.303771854","0","9","dath","non-word","89.1566265060241","89.1566265060241","948.0361445783133","948.0361445783133","black","no","legacy","legacy","legacy","0","uniform","0","undefined","undefined","undefined","0","f","0","0","0","0","82","0","0","0","82","0","78","82","78","0","78","3","82","0","82","Tue Feb 16 13:20:00 2021","The main experiment item","yes","Lexical_Decision_Task.osexp","/Users/phoebedimmock","no","Andale Mono","no","18","no","white","no","yes","576","legacy","78","78","3","/Users/phoebedimmock/subject-5215577.csv","legacy","Lentiform Loewenfeld","3.3.7","yes","yes","600bd7cfb6416f0113b04181","602110864497cf011d9c0822","0","j","NA","space","space","space","space","j","1373","NA","24509","14814","5243","48160","1373","2","legacy","1024","2","48000","-16","task","5215577","odd","NA","44331","70844","46334","273177","5562","25646","20399","273679","172352","273174","273680","273119","70844","275054","39289","272619","5552","167291","Lexical Decision Task","74","78687","83","yes","1024"
"2.695770526","7.34","6","pawn","word","89.28571428571429","89.28571428571429","947.5357142857143","947.5357142857143","black","no","legacy","legacy","legacy","0","uniform","1","undefined","undefined","undefined","1","j","0","0","0","0","83","0","0","0","83","0","79","83","79","0","79","3","83","0","83","Tue Feb 16 13:20:00 2021","The main experiment item","yes","Lexical_Decision_Task.osexp","/Users/phoebedimmock","no","Andale Mono","no","18","no","white","no","yes","576","legacy","79","79","3","/Users/phoebedimmock/subject-5215577.csv","legacy","Lentiform Loewenfeld","3.3.7","yes","yes","600bd7cfb6416f0113b04181","602110864497cf011d9c0822","0","j","NA","space","space","space","space","j","906","NA","24509","14814","5243","48160","906","2","legacy","1024","2","48000","-16","task","5215577","odd","NA","44331","70844","46334","276619","5562","25646","20399","277122","172352","276617","277122","276557","70844","278029","39289","272619","5552","275057","Lexical Decision Task","75","79593","84","yes","1024"
"2.67699827","0","6","hulf","non-word","89.41176470588235","89.41176470588235","945.6","945.6","black","no","legacy","legacy","legacy","0","uniform","1","undefined","undefined","undefined","1","f","0","0","0","0","84","0","0","0","84","0","80","84","80","0","80","3","84","0","84","Tue Feb 16 13:20:00 2021","The main experiment item","yes","Lexical_Decision_Task.osexp","/Users/phoebedimmock","no","Andale Mono","no","18","no","white","no","yes","576","legacy","80","80","3","/Users/phoebedimmock/subject-5215577.csv","legacy","Lentiform Loewenfeld","3.3.7","yes","yes","600bd7cfb6416f0113b04181","602110864497cf011d9c0822","0","f","NA","space","space","space","space","f","783","NA","24509","14814","5243","48160","783","2","legacy","1024","2","48000","-16","task","5215577","odd","NA","44331","70844","46334","278590","5562","25646","20399","279093","172352","278587","279093","278532","70844","279877","39289","278032","5552","275057","Lexical Decision Task","76","80376","85","yes","1024"
"2.767650507","0","6","yolt","non-word","89.53488372093024","89.53488372093024","945.5","945.5","black","no","legacy","legacy","legacy","0","uniform","1","undefined","undefined","undefined","1","f","0","0","0","0","85","0","0","0","85","0","81","85","81","0","81","3","85","0","85","Tue Feb 16 13:20:00 2021","The main experiment item","yes","Lexical_Decision_Task.osexp","/Users/phoebedimmock","no","Andale Mono","no","18","no","white","no","yes","576","legacy","81","81","3","/Users/phoebedimmock/subject-5215577.csv","legacy","Lentiform Loewenfeld","3.3.7","yes","yes","600bd7cfb6416f0113b04181","602110864497cf011d9c0822","0","f","NA","space","space","space","space","f","937","NA","24509","14814","5243","48160","937","2","legacy","1024","2","48000","-16","task","5215577","odd","NA","44331","70844","46334","280438","5562","25646","20399","280941","172352","280436","280941","280381","70844","281879","39289","279881","5552","275057","Lexical Decision Task","77","81313","86","yes","1024"
"2.778633532","0","3","jurp","non-word","89.65517241379311","89.65517241379311","946.7586206896551","946.7586206896551","black","no","legacy","legacy","legacy","0","uniform","1","undefined","undefined","undefined","1","f","0","0","0","0","86","0","0","0","86","0","82","86","82","0","82","3","86","0","86","Tue Feb 16 13:20:00 2021","The main experiment item","yes","Lexical_Decision_Task.osexp","/Users/phoebedimmock","no","Andale Mono","no","18","no","white","no","yes","576","legacy","82","82","3","/Users/phoebedimmock/subject-5215577.csv","legacy","Lentiform Loewenfeld","3.3.7","yes","yes","600bd7cfb6416f0113b04181","602110864497cf011d9c0822","0","f","NA","space","space","space","space","f","1055","NA","24509","14814","5243","48160","1055","2","legacy","1024","2","48000","-16","task","5215577","odd","NA","44331","70844","46334","282441","5562","25646","20399","282943","172352","282438","282944","282383","70844","284000","39289","281882","5552","275057","Lexical Decision Task","78","82368","87","yes","1024"
"3.049218023","7.4","9","robe","word","89.77272727272727","89.77272727272727","943.4886363636364","943.4886363636364","black","no","legacy","legacy","legacy","0","uniform","1","undefined","undefined","undefined","1","j","0","0","0","0","87","0","0","0","87","0","83","87","83","0","83","3","87","0","87","Tue Feb 16 13:20:00 2021","The main experiment item","yes","Lexical_Decision_Task.osexp","/Users/phoebedimmock","no","Andale Mono","no","18","no","white","no","yes","576","legacy","83","83","3","/Users/phoebedimmock/subject-5215577.csv","legacy","Lentiform Loewenfeld","3.3.7","yes","yes","600bd7cfb6416f0113b04181","602110864497cf011d9c0822","0","j","NA","space","space","space","space","j","659","NA","24509","14814","5243","48160","659","2","legacy","1024","2","48000","-16","task","5215577","odd","NA","44331","70844","46334","284561","5562","25646","20399","285065","172352","284559","285065","284504","70844","285725","39289","284004","5552","275057","Lexical Decision Task","79","83027","88","yes","1024"
"2.842815106","7.86","8","lump","word","89.88764044943821","89.88764044943821","945.3258426966293","945.3258426966293","black","no","legacy","legacy","legacy","0","uniform","1","undefined","undefined","undefined","1","j","0","0","0","0","88","0","0","0","88","0","84","88","84","0","84","3","88","0","88","Tue Feb 16 13:20:00 2021","The main experiment item","yes","Lexical_Decision_Task.osexp","/Users/phoebedimmock","no","Andale Mono","no","18","no","white","no","yes","576","legacy","84","84","3","/Users/phoebedimmock/subject-5215577.csv","legacy","Lentiform Loewenfeld","3.3.7","yes","yes","600bd7cfb6416f0113b04181","602110864497cf011d9c0822","0","j","NA","space","space","space","space","j","1107","NA","24509","14814","5243","48160","1107","2","legacy","1024","2","48000","-16","task","5215577","odd","NA","44331","70844","46334","286286","5562","25646","20399","286789","172352","286284","286789","286229","70844","287897","39289","285729","5552","275057","Lexical Decision Task","80","84134","89","yes","1024"
"3.159867847","5.98","5","brim","word","90","90","944","944","black","no","legacy","legacy","legacy","0","uniform","1","undefined","undefined","undefined","1","j","0","0","0","0","89","0","0","0","89","0","85","89","85","0","85","3","89","0","89","Tue Feb 16 13:20:00 2021","The main experiment item","yes","Lexical_Decision_Task.osexp","/Users/phoebedimmock","no","Andale Mono","no","18","no","white","no","yes","576","legacy","85","85","3","/Users/phoebedimmock/subject-5215577.csv","legacy","Lentiform Loewenfeld","3.3.7","yes","yes","600bd7cfb6416f0113b04181","602110864497cf011d9c0822","0","j","NA","space","space","space","space","j","826","NA","24509","14814","5243","48160","826","2","legacy","1024","2","48000","-16","task","5215577","odd","NA","44331","70844","46334","288459","5562","25646","20399","288962","172352","288456","288962","288401","70844","289789","39289","287901","5552","275057","Lexical Decision Task","81","84960","90","yes","1024"
"2.728085817","10.02","9","bike","word","90.10989010989012","90.10989010989012","942.7912087912088","942.7912087912088","black","no","legacy","legacy","legacy","0","uniform","1","undefined","undefined","undefined","1","j","0","0","0","0","90","0","0","0","90","0","86","90","86","0","86","3","90","0","90","Tue Feb 16 13:20:00 2021","The main experiment item","yes","Lexical_Decision_Task.osexp","/Users/phoebedimmock","no","Andale Mono","no","18","no","white","no","yes","576","legacy","86","86","3","/Users/phoebedimmock/subject-5215577.csv","legacy","Lentiform Loewenfeld","3.3.7","yes","yes","600bd7cfb6416f0113b04181","602110864497cf011d9c0822","0","j","NA","space","space","space","space","j","834","NA","24509","14814","5243","48160","834","2","legacy","1024","2","48000","-16","task","5215577","odd","NA","44331","70844","46334","290350","5562","25646","20399","290853","172352","290347","290853","290292","70844","291688","39289","289792","5552","275057","Lexical Decision Task","82","85794","91","yes","1024"
"2.784379519","0","2","snaf","non-word","90.21739130434783","90.21739130434783","940.6847826086956","940.6847826086956","black","no","legacy","legacy","legacy","0","uniform","1","undefined","undefined","undefined","1","f","0","0","0","0","91","0","0","0","91","0","87","91","87","0","87","3","91","0","91","Tue Feb 16 13:20:00 2021","The main experiment item","yes","Lexical_Decision_Task.osexp","/Users/phoebedimmock","no","Andale Mono","no","18","no","white","no","yes","576","legacy","87","87","3","/Users/phoebedimmock/subject-5215577.csv","legacy","Lentiform Loewenfeld","3.3.7","yes","yes","600bd7cfb6416f0113b04181","602110864497cf011d9c0822","0","f","NA","space","space","space","space","f","749","NA","24509","14814","5243","48160","749","2","legacy","1024","2","48000","-16","task","5215577","odd","NA","44331","70844","46334","292249","5562","25646","20399","292752","172352","292246","292752","292191","70844","293502","39289","291691","5552","275057","Lexical Decision Task","83","86543","92","yes","1024"
"3.088136089","8.32","9","worm","word","90.3225806451613","90.3225806451613","937.8602150537635","937.8602150537635","black","no","legacy","legacy","legacy","0","uniform","1","undefined","undefined","undefined","1","j","0","0","0","0","92","0","0","0","92","0","88","92","88","0","88","3","92","0","92","Tue Feb 16 13:20:00 2021","The main experiment item","yes","Lexical_Decision_Task.osexp","/Users/phoebedimmock","no","Andale Mono","no","18","no","white","no","yes","576","legacy","88","88","3","/Users/phoebedimmock/subject-5215577.csv","legacy","Lentiform Loewenfeld","3.3.7","yes","yes","600bd7cfb6416f0113b04181","602110864497cf011d9c0822","0","j","NA","space","space","space","space","j","678","NA","24509","14814","5243","48160","678","2","legacy","1024","2","48000","-16","task","5215577","odd","NA","44331","70844","46334","294063","5562","25646","20399","294566","172352","294061","294566","294006","70844","295245","39289","293506","5552","275057","Lexical Decision Task","84","87221","93","yes","1024"
"3.282244367","0","6","fute","non-word","90.42553191489361","90.42553191489361","936.936170212766","936.936170212766","black","no","legacy","legacy","legacy","0","uniform","1","undefined","undefined","undefined","1","f","0","0","0","0","93","0","0","0","93","0","89","93","89","0","89","3","93","0","93","Tue Feb 16 13:20:00 2021","The main experiment item","yes","Lexical_Decision_Task.osexp","/Users/phoebedimmock","no","Andale Mono","no","18","no","white","no","yes","576","legacy","89","89","3","/Users/phoebedimmock/subject-5215577.csv","legacy","Lentiform Loewenfeld","3.3.7","yes","yes","600bd7cfb6416f0113b04181","602110864497cf011d9c0822","0","f","NA","space","space","space","space","f","851","NA","24509","14814","5243","48160","851","2","legacy","1024","2","48000","-16","task","5215577","odd","NA","44331","70844","46334","295807","5562","25646","20399","296310","172352","295804","296310","295749","70844","297162","39289","295249","5552","275057","Lexical Decision Task","85","88072","94","yes","1024"
"2.713490543","0","3","feps","non-word","90.52631578947368","90.52631578947368","934.0105263157894","934.0105263157894","black","no","legacy","legacy","legacy","0","uniform","1","undefined","undefined","undefined","1","f","0","0","0","0","94","0","0","0","94","0","90","94","90","0","90","3","94","0","94","Tue Feb 16 13:20:00 2021","The main experiment item","yes","Lexical_Decision_Task.osexp","/Users/phoebedimmock","no","Andale Mono","no","18","no","white","no","yes","576","legacy","90","90","3","/Users/phoebedimmock/subject-5215577.csv","legacy","Lentiform Loewenfeld","3.3.7","yes","yes","600bd7cfb6416f0113b04181","602110864497cf011d9c0822","0","f","NA","space","space","space","space","f","659","NA","24509","14814","5243","48160","659","2","legacy","1024","2","48000","-16","task","5215577","odd","NA","44331","70844","46334","297723","5562","25646","20399","298226","172352","297720","298226","297665","70844","298886","39289","297165","5552","275057","Lexical Decision Task","86","88731","95","yes","1024"
"3.378276681","6.39","8","bran","word","90.625","90.625","937.3645833333334","937.3645833333334","black","no","legacy","legacy","legacy","0","uniform","1","undefined","undefined","undefined","1","j","0","0","0","0","95","0","0","0","95","0","91","95","91","0","91","3","95","0","95","Tue Feb 16 13:20:00 2021","The main experiment item","yes","Lexical_Decision_Task.osexp","/Users/phoebedimmock","no","Andale Mono","no","18","no","white","no","yes","576","legacy","91","91","3","/Users/phoebedimmock/subject-5215577.csv","legacy","Lentiform Loewenfeld","3.3.7","yes","yes","600bd7cfb6416f0113b04181","602110864497cf011d9c0822","0","j","NA","space","space","space","space","j","1256","NA","24509","14814","5243","48160","1256","2","legacy","1024","2","48000","-16","task","5215577","odd","NA","44331","70844","46334","299447","5562","25646","20399","299950","172352","299444","299950","299389","70844","301207","39289","298889","5552","275057","Lexical Decision Task","87","89987","96","yes","1024"
"3.307211407","6.07","7","honk","word","90.72164948453609","90.72164948453609","936.8144329896908","936.8144329896908","black","no","legacy","legacy","legacy","0","uniform","1","undefined","undefined","undefined","1","j","0","0","0","0","96","0","0","0","96","0","92","96","92","0","92","3","96","0","96","Tue Feb 16 13:20:00 2021","The main experiment item","yes","Lexical_Decision_Task.osexp","/Users/phoebedimmock","no","Andale Mono","no","18","no","white","no","yes","576","legacy","92","92","3","/Users/phoebedimmock/subject-5215577.csv","legacy","Lentiform Loewenfeld","3.3.7","yes","yes","600bd7cfb6416f0113b04181","602110864497cf011d9c0822","0","j","NA","space","space","space","space","j","884","NA","24509","14814","5243","48160","884","2","legacy","1024","2","48000","-16","task","5215577","odd","NA","44331","70844","46334","301769","5562","25646","20399","302272","172352","301766","302272","301711","70844","303157","39289","301211","5552","275057","Lexical Decision Task","88","90871","97","yes","1024"
"2.82129731","6.72","5","plum","word","90.81632653061224","90.81632653061224","936","936","black","no","legacy","legacy","legacy","0","uniform","1","undefined","undefined","undefined","1","j","0","0","0","0","97","0","0","0","97","0","93","97","93","0","93","3","97","0","97","Tue Feb 16 13:20:00 2021","The main experiment item","yes","Lexical_Decision_Task.osexp","/Users/phoebedimmock","no","Andale Mono","no","18","no","white","no","yes","576","legacy","93","93","3","/Users/phoebedimmock/subject-5215577.csv","legacy","Lentiform Loewenfeld","3.3.7","yes","yes","600bd7cfb6416f0113b04181","602110864497cf011d9c0822","0","j","NA","space","space","space","space","j","857","NA","24509","14814","5243","48160","857","2","legacy","1024","2","48000","-16","task","5215577","odd","NA","44331","70844","46334","303718","5562","25646","20399","304220","172352","303716","304220","303661","70844","305078","39289","303161","5552","275057","Lexical Decision Task","89","91728","98","yes","1024"
"2.907588697","8.91","9","mood","word","90.9090909090909","90.9090909090909","931.8080808080808","931.8080808080808","black","no","legacy","legacy","legacy","0","uniform","1","undefined","undefined","undefined","1","j","0","0","0","0","98","0","0","0","98","0","94","98","94","0","94","3","98","0","98","Tue Feb 16 13:20:00 2021","The main experiment item","yes","Lexical_Decision_Task.osexp","/Users/phoebedimmock","no","Andale Mono","no","18","no","white","no","yes","576","legacy","94","94","3","/Users/phoebedimmock/subject-5215577.csv","legacy","Lentiform Loewenfeld","3.3.7","yes","yes","600bd7cfb6416f0113b04181","602110864497cf011d9c0822","0","j","NA","space","space","space","space","j","521","NA","24509","14814","5243","48160","521","2","legacy","1024","2","48000","-16","task","5215577","odd","NA","44331","70844","46334","305640","5562","25646","20399","306142","172352","305637","306143","305582","70844","306665","39289","305082","5552","275057","Lexical Decision Task","90","92249","99","yes","1024"
"2.576725172","0","8","gowl","non-word","91","91","931.55","931.55","black","no","legacy","legacy","legacy","0","uniform","1","undefined","undefined","undefined","1","f","0","0","0","0","99","0","0","0","99","0","95","99","95","0","95","3","99","0","99","Tue Feb 16 13:20:00 2021","The main experiment item","yes","Lexical_Decision_Task.osexp","/Users/phoebedimmock","no","Andale Mono","no","18","no","white","no","yes","576","legacy","95","95","3","/Users/phoebedimmock/subject-5215577.csv","legacy","Lentiform Loewenfeld","3.3.7","yes","yes","600bd7cfb6416f0113b04181","602110864497cf011d9c0822","0","f","NA","space","space","space","space","f","906","NA","24509","14814","5243","48160","906","2","legacy","1024","2","48000","-16","task","5215577","odd","NA","44331","70844","46334","307228","5562","25646","20399","307730","172352","307225","307731","307169","70844","308638","39289","306669","5552","275057","Lexical Decision Task","91","93155","100","yes","1024"
"2.814027728","8.2","4","foam","word","91.08910891089108","91.08910891089108","927.7623762376238","927.7623762376238","black","no","legacy","legacy","legacy","0","uniform","1","undefined","undefined","undefined","1","j","0","0","0","0","100","0","0","0","100","0","96","100","96","0","96","3","100","0","100","Tue Feb 16 13:20:00 2021","The main experiment item","yes","Lexical_Decision_Task.osexp","/Users/phoebedimmock","no","Andale Mono","no","18","no","white","no","yes","576","legacy","96","96","3","/Users/phoebedimmock/subject-5215577.csv","legacy","Lentiform Loewenfeld","3.3.7","yes","yes","600bd7cfb6416f0113b04181","602110864497cf011d9c0822","0","j","NA","space","space","space","space","j","549","NA","24509","14814","5243","48160","549","2","legacy","1024","2","48000","-16","task","5215577","odd","NA","44331","70844","46334","309200","5562","25646","20399","309703","172352","309197","309703","309142","70844","310253","39289","308642","5552","275057","Lexical Decision Task","92","93704","101","yes","1024"
