"Log_BG","Log_Freq_HAL","Ortho_N","Stimulus","Type","acc","accuracy","average_response_time","avg_rt","background","bidi","canvas_backend","clock_backend","color_backend","compensation","coordinates","correct","correct_Experimental_intro","correct_Introduction","correct_Practice_intro","correct_experimenter_kb","correct_response","count_End_Of_Experiment","count_End_Of_Practice","count_Experimental_Loop","count_Experimental_intro","count_Fixation","count_Introduction","count_Practice_Loop","count_Practice_intro","count_Stimulus","count_block_break_feedback","count_experimental_sequence","count_experimenter_kb","count_increment_trial_count","count_init_trial_count","count_logger","count_practice_sequence","count_right","count_task","count_wrong","datetime","description","disable_garbage_collection","experiment_file","experiment_path","font_bold","font_family","font_italic","font_size","font_underline","foreground","form_clicks","fullscreen","height","keyboard_backend","live_row","live_row_Experimental_Loop","live_row_Practice_Loop","logfile","mouse_backend","opensesame_codename","opensesame_version","osf_always_upload_data","osf_always_upload_experiment","osf_datanode_id","osf_id","repeat_cycle","response","response_End_Of_Experiment","response_Experimental_intro","response_Introduction","response_Practice_intro","response_block_break_feedback","response_experimenter_kb","response_time","response_time_End_Of_Experiment","response_time_Experimental_intro","response_time_Introduction","response_time_Practice_intro","response_time_block_break_feedback","response_time_experimenter_kb","round_decimals","sampler_backend","sound_buf_size","sound_channels","sound_freq","sound_sample_size","start","subject_nr","subject_parity","time_End_Of_Experiment","time_End_Of_Practice","time_Experimental_Loop","time_Experimental_intro","time_Fixation","time_Introduction","time_Practice_Loop","time_Practice_intro","time_Stimulus","time_block_break_feedback","time_experimental_sequence","time_experimenter_kb","time_increment_trial_count","time_init_trial_count","time_logger","time_practice_sequence","time_right","time_task","time_wrong","title","total_correct","total_response_time","total_responses","uniform_coordinates","width"
"2.819763221","0","2","durp","non-word","80","80","1023.6","1023.6","black","no","legacy","legacy","legacy","0","uniform","1","undefined","undefined","undefined","1","f","0","0","0","0","4","0","0","0","4","NA","0","4","0","0","0","3","4","0","4","Fri Feb 19 09:33:48 2021","The main experiment item","yes","Lexical_Decision_Task.osexp","C:/Users/Yerodin","no","Andale Mono","no","18","no","white","no","yes","576","legacy","0","0","3","C:/Users/Yerodin/subject-5128660.csv","legacy","Lentiform Loewenfeld","3.3.7","yes","yes","600bd7cfb6416f0113b04181","602110864497cf011d9c0822","0","f","NA","space","m","space","NA","f","515","NA","2170","5523","6174","NA","515","2","legacy","1024","2","48000","-16","task","5128660","even","NA","26530","30701","28531","30731","4958","16657","10483","31232","NA","30730","31232","NA","30701","31747","24881","26012","4951","19887","Lexical Decision Task","4","5118","5","yes","1024"
"3.134602053","0","8","jart","non-word","83.33333333333333","83.33333333333333","960.8333333333334","960.8333333333334","black","no","legacy","legacy","legacy","0","uniform","1","undefined","undefined","undefined","1","f","0","0","0","0","5","0","0","0","5","NA","1","5","1","0","1","3","5","0","5","Fri Feb 19 09:33:48 2021","The main experiment item","yes","Lexical_Decision_Task.osexp","C:/Users/Yerodin","no","Andale Mono","no","18","no","white","no","yes","576","legacy","1","1","3","C:/Users/Yerodin/subject-5128660.csv","legacy","Lentiform Loewenfeld","3.3.7","yes","yes","600bd7cfb6416f0113b04181","602110864497cf011d9c0822","0","f","NA","space","m","space","NA","f","647","NA","2170","5523","6174","NA","647","2","legacy","1024","2","48000","-16","task","5128660","even","NA","26530","30701","28531","32363","4958","16657","10483","32865","NA","32361","32865","32281","30701","33512","24881","31781","4951","19887","Lexical Decision Task","5","5765","6","yes","1024"
"2.706148589","0","4","hube","non-word","85.71428571428571","85.71428571428571","919","919","black","no","legacy","legacy","legacy","0","uniform","1","undefined","undefined","undefined","1","f","0","0","0","0","6","0","0","0","6","NA","2","6","2","0","2","3","6","0","6","Fri Feb 19 09:33:48 2021","The main experiment item","yes","Lexical_Decision_Task.osexp","C:/Users/Yerodin","no","Andale Mono","no","18","no","white","no","yes","576","legacy","2","2","3","C:/Users/Yerodin/subject-5128660.csv","legacy","Lentiform Loewenfeld","3.3.7","yes","yes","600bd7cfb6416f0113b04181","602110864497cf011d9c0822","0","f","NA","space","m","space","NA","f","668","NA","2170","5523","6174","NA","668","2","legacy","1024","2","48000","-16","task","5128660","even","NA","26530","30701","28531","34096","4958","16657","10483","34597","NA","34095","34597","34049","30701","35265","24881","33549","4951","19887","Lexical Decision Task","6","6433","7","yes","1024"
"3.20871002","7.15","8","cram","word","87.5","87.5","885.875","885.875","black","no","legacy","legacy","legacy","0","uniform","1","undefined","undefined","undefined","1","j","0","0","0","0","7","0","0","0","7","NA","3","7","3","0","3","3","7","0","7","Fri Feb 19 09:33:48 2021","The main experiment item","yes","Lexical_Decision_Task.osexp","C:/Users/Yerodin","no","Andale Mono","no","18","no","white","no","yes","576","legacy","3","3","3","C:/Users/Yerodin/subject-5128660.csv","legacy","Lentiform Loewenfeld","3.3.7","yes","yes","600bd7cfb6416f0113b04181","602110864497cf011d9c0822","0","j","NA","space","m","space","NA","j","654","NA","2170","5523","6174","NA","654","2","legacy","1024","2","48000","-16","task","5128660","even","NA","26530","30701","28531","35849","4958","16657","10483","36350","NA","35847","36350","35803","30701","37004","24881","35303","4951","19887","Lexical Decision Task","7","7087","8","yes","1024"
"2.95456409","0","4","taud","non-word","88.88888888888889","88.88888888888889","861.8888888888889","861.8888888888889","black","no","legacy","legacy","legacy","0","uniform","1","undefined","undefined","undefined","1","f","0","0","0","0","8","0","0","0","8","NA","4","8","4","0","4","3","8","0","8","Fri Feb 19 09:33:48 2021","The main experiment item","yes","Lexical_Decision_Task.osexp","C:/Users/Yerodin","no","Andale Mono","no","18","no","white","no","yes","576","legacy","4","4","3","C:/Users/Yerodin/subject-5128660.csv","legacy","Lentiform Loewenfeld","3.3.7","yes","yes","600bd7cfb6416f0113b04181","602110864497cf011d9c0822","0","f","NA","space","m","space","NA","f","670","NA","2170","5523","6174","NA","670","2","legacy","1024","2","48000","-16","task","5128660","even","NA","26530","30701","28531","37594","4958","16657","10483","38095","NA","37593","38095","37549","30701","38766","24881","37048","4951","19887","Lexical Decision Task","8","7757","9","yes","1024"
"3.102203805","7.21","3","drip","word","90","90","825.4","825.4","black","no","legacy","legacy","legacy","0","uniform","1","undefined","undefined","undefined","1","j","0","0","0","0","9","0","0","0","9","NA","5","9","5","0","5","3","9","0","9","Fri Feb 19 09:33:48 2021","The main experiment item","yes","Lexical_Decision_Task.osexp","C:/Users/Yerodin","no","Andale Mono","no","18","no","white","no","yes","576","legacy","5","5","3","C:/Users/Yerodin/subject-5128660.csv","legacy","Lentiform Loewenfeld","3.3.7","yes","yes","600bd7cfb6416f0113b04181","602110864497cf011d9c0822","0","j","NA","space","m","space","NA","j","497","NA","2170","5523","6174","NA","497","2","legacy","1024","2","48000","-16","task","5128660","even","NA","26530","30701","28531","39355","4958","16657","10483","39856","NA","39354","39856","39311","30701","40354","24881","38811","4951","19887","Lexical Decision Task","9","8254","10","yes","1024"
"3.269668578","0","7","trag","non-word","90.9090909090909","90.9090909090909","808.5454545454545","808.5454545454545","black","no","legacy","legacy","legacy","0","uniform","1","undefined","undefined","undefined","1","f","0","0","0","0","10","0","0","0","10","NA","6","10","6","0","6","3","10","0","10","Fri Feb 19 09:33:48 2021","The main experiment item","yes","Lexical_Decision_Task.osexp","C:/Users/Yerodin","no","Andale Mono","no","18","no","white","no","yes","576","legacy","6","6","3","C:/Users/Yerodin/subject-5128660.csv","legacy","Lentiform Loewenfeld","3.3.7","yes","yes","600bd7cfb6416f0113b04181","602110864497cf011d9c0822","0","f","NA","space","m","space","NA","f","640","NA","2170","5523","6174","NA","640","2","legacy","1024","2","48000","-16","task","5128660","even","NA","26530","30701","28531","40901","4958","16657","10483","41403","NA","40900","41403","40858","30701","42043","24881","40358","4951","19887","Lexical Decision Task","10","8894","11","yes","1024"
"2.664011697","8.19","4","hawk","word","83.33333333333333","83.33333333333333","793.75","793.75","black","no","legacy","legacy","legacy","0","uniform","0","undefined","undefined","undefined","0","j","0","0","0","0","11","0","0","0","11","NA","7","11","7","0","7","3","11","0","11","Fri Feb 19 09:33:48 2021","The main experiment item","yes","Lexical_Decision_Task.osexp","C:/Users/Yerodin","no","Andale Mono","no","18","no","white","no","yes","576","legacy","7","7","3","C:/Users/Yerodin/subject-5128660.csv","legacy","Lentiform Loewenfeld","3.3.7","yes","yes","600bd7cfb6416f0113b04181","602110864497cf011d9c0822","0","f","NA","space","m","space","NA","f","631","NA","2170","5523","6174","NA","631","2","legacy","1024","2","48000","-16","task","5128660","even","NA","26530","30701","28531","42634","4958","16657","10483","43135","NA","42632","43135","42591","30701","43766","24881","42090","4951","19887","Lexical Decision Task","10","9525","12","yes","1024"
"3.168400243","9.12","6","horn","word","84.61538461538461","84.61538461538461","791.5384615384615","791.5384615384615","black","no","legacy","legacy","legacy","0","uniform","1","undefined","undefined","undefined","1","j","0","0","0","0","12","0","0","0","12","NA","8","12","8","0","8","3","12","0","12","Fri Feb 19 09:33:48 2021","The main experiment item","yes","Lexical_Decision_Task.osexp","C:/Users/Yerodin","no","Andale Mono","no","18","no","white","no","yes","576","legacy","8","8","3","C:/Users/Yerodin/subject-5128660.csv","legacy","Lentiform Loewenfeld","3.3.7","yes","yes","600bd7cfb6416f0113b04181","602110864497cf011d9c0822","0","j","NA","space","m","space","NA","j","765","NA","2170","5523","6174","NA","765","2","legacy","1024","2","48000","-16","task","5128660","even","NA","26530","30701","28531","45352","4958","16657","10483","45853","NA","45351","45853","45297","30701","46619","24881","42090","4951","43797","Lexical Decision Task","11","10290","13","yes","1024"
"2.838639236","0","4","furg","non-word","85.71428571428571","85.71428571428571","777.5","777.5","black","no","legacy","legacy","legacy","0","uniform","1","undefined","undefined","undefined","1","f","0","0","0","0","13","0","0","0","13","NA","9","13","9","0","9","3","13","0","13","Fri Feb 19 09:33:48 2021","The main experiment item","yes","Lexical_Decision_Task.osexp","C:/Users/Yerodin","no","Andale Mono","no","18","no","white","no","yes","576","legacy","9","9","3","C:/Users/Yerodin/subject-5128660.csv","legacy","Lentiform Loewenfeld","3.3.7","yes","yes","600bd7cfb6416f0113b04181","602110864497cf011d9c0822","0","f","NA","space","m","space","NA","f","595","NA","2170","5523","6174","NA","595","2","legacy","1024","2","48000","-16","task","5128660","even","NA","26530","30701","28531","47199","4958","16657","10483","47700","NA","47198","47700","47154","30701","48295","24881","46654","4951","43797","Lexical Decision Task","12","10885","14","yes","1024"
"2.980306438","0","7","slun","non-word","86.66666666666667","86.66666666666667","764.0666666666667","764.0666666666667","black","no","legacy","legacy","legacy","0","uniform","1","undefined","undefined","undefined","1","f","0","0","0","0","14","0","0","0","14","NA","10","14","10","0","10","3","14","0","14","Fri Feb 19 09:33:48 2021","The main experiment item","yes","Lexical_Decision_Task.osexp","C:/Users/Yerodin","no","Andale Mono","no","18","no","white","no","yes","576","legacy","10","10","3","C:/Users/Yerodin/subject-5128660.csv","legacy","Lentiform Loewenfeld","3.3.7","yes","yes","600bd7cfb6416f0113b04181","602110864497cf011d9c0822","0","f","NA","space","m","space","NA","f","576","NA","2170","5523","6174","NA","576","2","legacy","1024","2","48000","-16","task","5128660","even","NA","26530","30701","28531","48875","4958","16657","10483","49376","NA","48873","49376","48830","30701","49953","24881","48330","4951","43797","Lexical Decision Task","13","11461","15","yes","1024"
"2.755364069","7.72","2","hoax","word","87.5","87.5","753.1875","753.1875","black","no","legacy","legacy","legacy","0","uniform","1","undefined","undefined","undefined","1","j","0","0","0","0","15","0","0","0","15","NA","11","15","11","0","11","3","15","0","15","Fri Feb 19 09:33:48 2021","The main experiment item","yes","Lexical_Decision_Task.osexp","C:/Users/Yerodin","no","Andale Mono","no","18","no","white","no","yes","576","legacy","11","11","3","C:/Users/Yerodin/subject-5128660.csv","legacy","Lentiform Loewenfeld","3.3.7","yes","yes","600bd7cfb6416f0113b04181","602110864497cf011d9c0822","0","j","NA","space","m","space","NA","j","590","NA","2170","5523","6174","NA","590","2","legacy","1024","2","48000","-16","task","5128660","even","NA","26530","30701","28531","50536","4958","16657","10483","51037","NA","50534","51037","50491","30701","51628","24881","49990","4951","43797","Lexical Decision Task","14","12051","16","yes","1024"
"3.705778213","0","6","stin","non-word","88.23529411764706","88.23529411764706","751.1176470588235","751.1176470588235","black","no","legacy","legacy","legacy","0","uniform","1","undefined","undefined","undefined","1","f","0","0","0","0","16","0","0","0","16","NA","12","16","12","0","12","3","16","0","16","Fri Feb 19 09:33:48 2021","The main experiment item","yes","Lexical_Decision_Task.osexp","C:/Users/Yerodin","no","Andale Mono","no","18","no","white","no","yes","576","legacy","12","12","3","C:/Users/Yerodin/subject-5128660.csv","legacy","Lentiform Loewenfeld","3.3.7","yes","yes","600bd7cfb6416f0113b04181","602110864497cf011d9c0822","0","f","NA","space","m","space","NA","f","718","NA","2170","5523","6174","NA","718","2","legacy","1024","2","48000","-16","task","5128660","even","NA","26530","30701","28531","52194","4958","16657","10483","52695","NA","52193","52695","52150","30701","53413","24881","51650","4951","43797","Lexical Decision Task","15","12769","17","yes","1024"
"2.784379519","0","2","snaf","non-word","88.88888888888889","88.88888888888889","740.2777777777778","740.2777777777778","black","no","legacy","legacy","legacy","0","uniform","1","undefined","undefined","undefined","1","f","0","0","0","0","17","0","0","0","17","NA","13","17","13","0","13","3","17","0","17","Fri Feb 19 09:33:48 2021","The main experiment item","yes","Lexical_Decision_Task.osexp","C:/Users/Yerodin","no","Andale Mono","no","18","no","white","no","yes","576","legacy","13","13","3","C:/Users/Yerodin/subject-5128660.csv","legacy","Lentiform Loewenfeld","3.3.7","yes","yes","600bd7cfb6416f0113b04181","602110864497cf011d9c0822","0","f","NA","space","m","space","NA","f","556","NA","2170","5523","6174","NA","556","2","legacy","1024","2","48000","-16","task","5128660","even","NA","26530","30701","28531","53994","4958","16657","10483","54495","NA","53993","54495","53942","30701","55052","24881","53442","4951","43797","Lexical Decision Task","16","13325","18","yes","1024"
"3.282244367","0","6","fute","non-word","89.47368421052632","89.47368421052632","747","747","black","no","legacy","legacy","legacy","0","uniform","1","undefined","undefined","undefined","1","f","0","0","0","0","18","0","0","0","18","NA","14","18","14","0","14","3","18","0","18","Fri Feb 19 09:33:48 2021","The main experiment item","yes","Lexical_Decision_Task.osexp","C:/Users/Yerodin","no","Andale Mono","no","18","no","white","no","yes","576","legacy","14","14","3","C:/Users/Yerodin/subject-5128660.csv","legacy","Lentiform Loewenfeld","3.3.7","yes","yes","600bd7cfb6416f0113b04181","602110864497cf011d9c0822","0","f","NA","space","m","space","NA","f","868","NA","2170","5523","6174","NA","868","2","legacy","1024","2","48000","-16","task","5128660","even","NA","26530","30701","28531","55620","4958","16657","10483","56121","NA","55619","56121","55576","30701","56989","24881","55076","4951","43797","Lexical Decision Task","17","14193","19","yes","1024"
"2.7084209","0","8","vump","non-word","90","90","745.95","745.95","black","no","legacy","legacy","legacy","0","uniform","1","undefined","undefined","undefined","1","f","0","0","0","0","19","0","0","0","19","NA","15","19","15","0","15","3","19","0","19","Fri Feb 19 09:33:48 2021","The main experiment item","yes","Lexical_Decision_Task.osexp","C:/Users/Yerodin","no","Andale Mono","no","18","no","white","no","yes","576","legacy","15","15","3","C:/Users/Yerodin/subject-5128660.csv","legacy","Lentiform Loewenfeld","3.3.7","yes","yes","600bd7cfb6416f0113b04181","602110864497cf011d9c0822","0","f","NA","space","m","space","NA","f","726","NA","2170","5523","6174","NA","726","2","legacy","1024","2","48000","-16","task","5128660","even","NA","26530","30701","28531","57555","4958","16657","10483","58056","NA","57554","58056","57511","30701","58783","24881","57011","4951","43797","Lexical Decision Task","18","14919","20","yes","1024"
"3.29439347","8.6","9","wand","word","90.47619047619048","90.47619047619048","737.7619047619048","737.7619047619048","black","no","legacy","legacy","legacy","0","uniform","1","undefined","undefined","undefined","1","j","0","0","0","0","20","0","0","0","20","NA","16","20","16","0","16","3","20","0","20","Fri Feb 19 09:33:48 2021","The main experiment item","yes","Lexical_Decision_Task.osexp","C:/Users/Yerodin","no","Andale Mono","no","18","no","white","no","yes","576","legacy","16","16","3","C:/Users/Yerodin/subject-5128660.csv","legacy","Lentiform Loewenfeld","3.3.7","yes","yes","600bd7cfb6416f0113b04181","602110864497cf011d9c0822","0","j","NA","space","m","space","NA","j","574","NA","2170","5523","6174","NA","574","2","legacy","1024","2","48000","-16","task","5128660","even","NA","26530","30701","28531","59368","4958","16657","10483","59869","NA","59367","59869","59316","30701","60444","24881","58816","4951","43797","Lexical Decision Task","19","15493","21","yes","1024"
"3.384413096","10.15","3","glad","word","90.9090909090909","90.9090909090909","740.5909090909091","740.5909090909091","black","no","legacy","legacy","legacy","0","uniform","1","undefined","undefined","undefined","1","j","0","0","0","0","21","0","0","0","21","NA","17","21","17","0","17","3","21","0","21","Fri Feb 19 09:33:48 2021","The main experiment item","yes","Lexical_Decision_Task.osexp","C:/Users/Yerodin","no","Andale Mono","no","18","no","white","no","yes","576","legacy","17","17","3","C:/Users/Yerodin/subject-5128660.csv","legacy","Lentiform Loewenfeld","3.3.7","yes","yes","600bd7cfb6416f0113b04181","602110864497cf011d9c0822","0","j","NA","space","m","space","NA","j","800","NA","2170","5523","6174","NA","800","2","legacy","1024","2","48000","-16","task","5128660","even","NA","26530","30701","28531","61025","4958","16657","10483","61526","NA","61024","61526","60981","30701","62326","24881","60481","4951","43797","Lexical Decision Task","20","16293","22","yes","1024"
"3.20996159","0","4","clee","non-word","91.30434782608695","91.30434782608695","731.4782608695652","731.4782608695652","black","no","legacy","legacy","legacy","0","uniform","1","undefined","undefined","undefined","1","f","0","0","0","0","22","0","0","0","22","NA","18","22","18","0","18","3","22","0","22","Fri Feb 19 09:33:48 2021","The main experiment item","yes","Lexical_Decision_Task.osexp","C:/Users/Yerodin","no","Andale Mono","no","18","no","white","no","yes","576","legacy","18","18","3","C:/Users/Yerodin/subject-5128660.csv","legacy","Lentiform Loewenfeld","3.3.7","yes","yes","600bd7cfb6416f0113b04181","602110864497cf011d9c0822","0","f","NA","space","m","space","NA","f","531","NA","2170","5523","6174","NA","531","2","legacy","1024","2","48000","-16","task","5128660","even","NA","26530","30701","28531","62895","4958","16657","10483","63396","NA","62894","63396","62852","30701","63928","24881","62352","4951","43797","Lexical Decision Task","21","16824","23","yes","1024"
"3.082307743","9.68","8","camp","word","87.5","87.5","722.5833333333334","722.5833333333334","black","no","legacy","legacy","legacy","0","uniform","0","undefined","undefined","undefined","0","j","0","0","0","0","23","0","0","0","23","NA","19","23","19","0","19","3","23","0","23","Fri Feb 19 09:33:48 2021","The main experiment item","yes","Lexical_Decision_Task.osexp","C:/Users/Yerodin","no","Andale Mono","no","18","no","white","no","yes","576","legacy","19","19","3","C:/Users/Yerodin/subject-5128660.csv","legacy","Lentiform Loewenfeld","3.3.7","yes","yes","600bd7cfb6416f0113b04181","602110864497cf011d9c0822","0","f","NA","space","m","space","NA","f","518","NA","2170","5523","6174","NA","518","2","legacy","1024","2","48000","-16","task","5128660","even","NA","26530","30701","28531","64497","4958","16657","10483","64998","NA","64496","64998","64453","30701","65517","24881","63953","4951","43797","Lexical Decision Task","21","17342","24","yes","1024"
"2.8162413","0","5","nusk","non-word","88","88","724.68","724.68","black","no","legacy","legacy","legacy","0","uniform","1","undefined","undefined","undefined","1","f","0","0","0","0","24","0","0","0","24","NA","20","24","20","0","20","3","24","0","24","Fri Feb 19 09:33:48 2021","The main experiment item","yes","Lexical_Decision_Task.osexp","C:/Users/Yerodin","no","Andale Mono","no","18","no","white","no","yes","576","legacy","20","20","3","C:/Users/Yerodin/subject-5128660.csv","legacy","Lentiform Loewenfeld","3.3.7","yes","yes","600bd7cfb6416f0113b04181","602110864497cf011d9c0822","0","f","NA","space","m","space","NA","f","775","NA","2170","5523","6174","NA","775","2","legacy","1024","2","48000","-16","task","5128660","even","NA","26530","30701","28531","67087","4958","16657","10483","67588","NA","67086","67588","67041","30701","68364","24881","63953","4951","65541","Lexical Decision Task","22","18117","25","yes","1024"
"2.616654026","9.37","5","gift","word","88.46153846153847","88.46153846153847","717.5","717.5","black","no","legacy","legacy","legacy","0","uniform","1","undefined","undefined","undefined","1","j","0","0","0","0","25","0","0","0","25","NA","21","25","21","0","21","3","25","0","25","Fri Feb 19 09:33:48 2021","The main experiment item","yes","Lexical_Decision_Task.osexp","C:/Users/Yerodin","no","Andale Mono","no","18","no","white","no","yes","576","legacy","21","21","3","C:/Users/Yerodin/subject-5128660.csv","legacy","Lentiform Loewenfeld","3.3.7","yes","yes","600bd7cfb6416f0113b04181","602110864497cf011d9c0822","0","j","NA","space","m","space","NA","j","538","NA","2170","5523","6174","NA","538","2","legacy","1024","2","48000","-16","task","5128660","even","NA","26530","30701","28531","68945","4958","16657","10483","69446","NA","68944","69446","68901","30701","69984","24881","68401","4951","65541","Lexical Decision Task","23","18655","26","yes","1024"
"2.907588697","8.91","9","mood","word","88.88888888888889","88.88888888888889","711.074074074074","711.074074074074","black","no","legacy","legacy","legacy","0","uniform","1","undefined","undefined","undefined","1","j","0","0","0","0","26","0","0","0","26","NA","22","26","22","0","22","3","26","0","26","Fri Feb 19 09:33:48 2021","The main experiment item","yes","Lexical_Decision_Task.osexp","C:/Users/Yerodin","no","Andale Mono","no","18","no","white","no","yes","576","legacy","22","22","3","C:/Users/Yerodin/subject-5128660.csv","legacy","Lentiform Loewenfeld","3.3.7","yes","yes","600bd7cfb6416f0113b04181","602110864497cf011d9c0822","0","j","NA","space","m","space","NA","j","544","NA","2170","5523","6174","NA","544","2","legacy","1024","2","48000","-16","task","5128660","even","NA","26530","30701","28531","70569","4958","16657","10483","71070","NA","70568","71070","70526","30701","71615","24881","70025","4951","65541","Lexical Decision Task","24","19199","27","yes","1024"
"2.744553742","0","2","nawk","non-word","89.28571428571429","89.28571428571429","706.75","706.75","black","no","legacy","legacy","legacy","0","uniform","1","undefined","undefined","undefined","1","f","0","0","0","0","27","0","0","0","27","NA","23","27","23","0","23","3","27","0","27","Fri Feb 19 09:33:48 2021","The main experiment item","yes","Lexical_Decision_Task.osexp","C:/Users/Yerodin","no","Andale Mono","no","18","no","white","no","yes","576","legacy","23","23","3","C:/Users/Yerodin/subject-5128660.csv","legacy","Lentiform Loewenfeld","3.3.7","yes","yes","600bd7cfb6416f0113b04181","602110864497cf011d9c0822","0","f","NA","space","m","space","NA","f","590","NA","2170","5523","6174","NA","590","2","legacy","1024","2","48000","-16","task","5128660","even","NA","26530","30701","28531","72190","4958","16657","10483","72691","NA","72189","72691","72145","30701","73282","24881","71645","4951","65541","Lexical Decision Task","25","19789","28","yes","1024"
"3.031812271","6.52","3","gulp","word","89.65517241379311","89.65517241379311","705.6896551724138","705.6896551724138","black","no","legacy","legacy","legacy","0","uniform","1","undefined","undefined","undefined","1","j","0","0","0","0","28","0","0","0","28","NA","24","28","24","0","24","3","28","0","28","Fri Feb 19 09:33:48 2021","The main experiment item","yes","Lexical_Decision_Task.osexp","C:/Users/Yerodin","no","Andale Mono","no","18","no","white","no","yes","576","legacy","24","24","3","C:/Users/Yerodin/subject-5128660.csv","legacy","Lentiform Loewenfeld","3.3.7","yes","yes","600bd7cfb6416f0113b04181","602110864497cf011d9c0822","0","j","NA","space","m","space","NA","j","676","NA","2170","5523","6174","NA","676","2","legacy","1024","2","48000","-16","task","5128660","even","NA","26530","30701","28531","73871","4958","16657","10483","74373","NA","73870","74373","73828","30701","75049","24881","73328","4951","65541","Lexical Decision Task","26","20465","29","yes","1024"
"3.049218023","7.4","9","robe","word","90","90","706","706","black","no","legacy","legacy","legacy","0","uniform","1","undefined","undefined","undefined","1","j","0","0","0","0","29","0","0","0","29","NA","25","29","25","0","25","3","29","0","29","Fri Feb 19 09:33:48 2021","The main experiment item","yes","Lexical_Decision_Task.osexp","C:/Users/Yerodin","no","Andale Mono","no","18","no","white","no","yes","576","legacy","25","25","3","C:/Users/Yerodin/subject-5128660.csv","legacy","Lentiform Loewenfeld","3.3.7","yes","yes","600bd7cfb6416f0113b04181","602110864497cf011d9c0822","0","j","NA","space","m","space","NA","j","715","NA","2170","5523","6174","NA","715","2","legacy","1024","2","48000","-16","task","5128660","even","NA","26530","30701","28531","75636","4958","16657","10483","76137","NA","75634","76137","75592","30701","76852","24881","75092","4951","65541","Lexical Decision Task","27","21180","30","yes","1024"
"3.14849993","10.75","7","hour","word","90.3225806451613","90.3225806451613","699.0967741935484","699.0967741935484","black","no","legacy","legacy","legacy","0","uniform","1","undefined","undefined","undefined","1","j","0","0","0","0","30","0","0","0","30","NA","26","30","26","0","26","3","30","0","30","Fri Feb 19 09:33:48 2021","The main experiment item","yes","Lexical_Decision_Task.osexp","C:/Users/Yerodin","no","Andale Mono","no","18","no","white","no","yes","576","legacy","26","26","3","C:/Users/Yerodin/subject-5128660.csv","legacy","Lentiform Loewenfeld","3.3.7","yes","yes","600bd7cfb6416f0113b04181","602110864497cf011d9c0822","0","j","NA","space","m","space","NA","j","492","NA","2170","5523","6174","NA","492","2","legacy","1024","2","48000","-16","task","5128660","even","NA","26530","30701","28531","77435","4958","16657","10483","77936","NA","77434","77936","77391","30701","78429","24881","76891","4951","65541","Lexical Decision Task","28","21672","31","yes","1024"
"3.259832699","0","9","flar","non-word","87.5","87.5","696","696","black","no","legacy","legacy","legacy","0","uniform","0","undefined","undefined","undefined","0","f","0","0","0","0","31","0","0","0","31","NA","27","31","27","0","27","3","31","0","31","Fri Feb 19 09:33:48 2021","The main experiment item","yes","Lexical_Decision_Task.osexp","C:/Users/Yerodin","no","Andale Mono","no","18","no","white","no","yes","576","legacy","27","27","3","C:/Users/Yerodin/subject-5128660.csv","legacy","Lentiform Loewenfeld","3.3.7","yes","yes","600bd7cfb6416f0113b04181","602110864497cf011d9c0822","0","j","NA","space","m","space","NA","j","600","NA","2170","5523","6174","NA","600","2","legacy","1024","2","48000","-16","task","5128660","even","NA","26530","30701","28531","79011","4958","16657","10483","79512","NA","79010","79512","78968","30701","80112","24881","78468","4951","65541","Lexical Decision Task","28","22272","32","yes","1024"
"3.347850856","10.51","2","rich","word","87.87878787878788","87.87878787878788","694.6666666666666","694.6666666666666","black","no","legacy","legacy","legacy","0","uniform","1","undefined","undefined","undefined","1","j","0","0","0","0","32","0","0","0","32","NA","28","32","28","0","28","3","32","0","32","Fri Feb 19 09:33:48 2021","The main experiment item","yes","Lexical_Decision_Task.osexp","C:/Users/Yerodin","no","Andale Mono","no","18","no","white","no","yes","576","legacy","28","28","3","C:/Users/Yerodin/subject-5128660.csv","legacy","Lentiform Loewenfeld","3.3.7","yes","yes","600bd7cfb6416f0113b04181","602110864497cf011d9c0822","0","j","NA","space","m","space","NA","j","652","NA","2170","5523","6174","NA","652","2","legacy","1024","2","48000","-16","task","5128660","even","NA","26530","30701","28531","81696","4958","16657","10483","82197","NA","81695","82197","81651","30701","82850","24881","78468","4951","80151","Lexical Decision Task","29","22924","33","yes","1024"
"3.028977705","0","7","frow","non-word","88.23529411764706","88.23529411764706","699.2647058823529","699.2647058823529","black","no","legacy","legacy","legacy","0","uniform","1","undefined","undefined","undefined","1","f","0","0","0","0","33","0","0","0","33","NA","29","33","29","0","29","3","33","0","33","Fri Feb 19 09:33:48 2021","The main experiment item","yes","Lexical_Decision_Task.osexp","C:/Users/Yerodin","no","Andale Mono","no","18","no","white","no","yes","576","legacy","29","29","3","C:/Users/Yerodin/subject-5128660.csv","legacy","Lentiform Loewenfeld","3.3.7","yes","yes","600bd7cfb6416f0113b04181","602110864497cf011d9c0822","0","f","NA","space","m","space","NA","f","851","NA","2170","5523","6174","NA","851","2","legacy","1024","2","48000","-16","task","5128660","even","NA","26530","30701","28531","83442","4958","16657","10483","83943","NA","83441","83943","83400","30701","84795","24881","82900","4951","80151","Lexical Decision Task","30","23775","34","yes","1024"
"2.709837904","6.85","8","skim","word","88.57142857142857","88.57142857142857","699.4857142857143","699.4857142857143","black","no","legacy","legacy","legacy","0","uniform","1","undefined","undefined","undefined","1","j","0","0","0","0","34","0","0","0","34","NA","30","34","30","0","30","3","34","0","34","Fri Feb 19 09:33:48 2021","The main experiment item","yes","Lexical_Decision_Task.osexp","C:/Users/Yerodin","no","Andale Mono","no","18","no","white","no","yes","576","legacy","30","30","3","C:/Users/Yerodin/subject-5128660.csv","legacy","Lentiform Loewenfeld","3.3.7","yes","yes","600bd7cfb6416f0113b04181","602110864497cf011d9c0822","0","j","NA","space","m","space","NA","j","707","NA","2170","5523","6174","NA","707","2","legacy","1024","2","48000","-16","task","5128660","even","NA","26530","30701","28531","85392","4958","16657","10483","85893","NA","85391","85893","85349","30701","86600","24881","84848","4951","80151","Lexical Decision Task","31","24482","35","yes","1024"
"3.043885998","0","9","gome","non-word","88.88888888888889","88.88888888888889","700.8888888888889","700.8888888888889","black","no","legacy","legacy","legacy","0","uniform","1","undefined","undefined","undefined","1","f","0","0","0","0","35","0","0","0","35","NA","31","35","31","0","31","3","35","0","35","Fri Feb 19 09:33:48 2021","The main experiment item","yes","Lexical_Decision_Task.osexp","C:/Users/Yerodin","no","Andale Mono","no","18","no","white","no","yes","576","legacy","31","31","3","C:/Users/Yerodin/subject-5128660.csv","legacy","Lentiform Loewenfeld","3.3.7","yes","yes","600bd7cfb6416f0113b04181","602110864497cf011d9c0822","0","f","NA","space","m","space","NA","f","750","NA","2170","5523","6174","NA","750","2","legacy","1024","2","48000","-16","task","5128660","even","NA","26530","30701","28531","87158","4958","16657","10483","87659","NA","87157","87659","87114","30701","88410","24881","86614","4951","80151","Lexical Decision Task","32","25232","36","yes","1024"
"3.094121596","0","8","fode","non-word","89.1891891891892","89.1891891891892","698.5675675675676","698.5675675675676","black","no","legacy","legacy","legacy","0","uniform","1","undefined","undefined","undefined","1","f","0","0","0","0","36","0","0","0","36","NA","32","36","32","0","32","3","36","0","36","Fri Feb 19 09:33:48 2021","The main experiment item","yes","Lexical_Decision_Task.osexp","C:/Users/Yerodin","no","Andale Mono","no","18","no","white","no","yes","576","legacy","32","32","3","C:/Users/Yerodin/subject-5128660.csv","legacy","Lentiform Loewenfeld","3.3.7","yes","yes","600bd7cfb6416f0113b04181","602110864497cf011d9c0822","0","f","NA","space","m","space","NA","f","615","NA","2170","5523","6174","NA","615","2","legacy","1024","2","48000","-16","task","5128660","even","NA","26530","30701","28531","88993","4958","16657","10483","89494","NA","88991","89494","88948","30701","90110","24881","88448","4951","80151","Lexical Decision Task","33","25847","37","yes","1024"
"3.145920145","8.51","8","flew","word","89.47368421052632","89.47368421052632","692.9473684210526","692.9473684210526","black","no","legacy","legacy","legacy","0","uniform","1","undefined","undefined","undefined","1","j","0","0","0","0","37","0","0","0","37","NA","33","37","33","0","33","3","37","0","37","Fri Feb 19 09:33:48 2021","The main experiment item","yes","Lexical_Decision_Task.osexp","C:/Users/Yerodin","no","Andale Mono","no","18","no","white","no","yes","576","legacy","33","33","3","C:/Users/Yerodin/subject-5128660.csv","legacy","Lentiform Loewenfeld","3.3.7","yes","yes","600bd7cfb6416f0113b04181","602110864497cf011d9c0822","0","j","NA","space","m","space","NA","j","485","NA","2170","5523","6174","NA","485","2","legacy","1024","2","48000","-16","task","5128660","even","NA","26530","30701","28531","90694","4958","16657","10483","91195","NA","90692","91195","90649","30701","91681","24881","90149","4951","80151","Lexical Decision Task","34","26332","38","yes","1024"
"3.003891166","8.05","2","frog","word","89.74358974358974","89.74358974358974","689.3846153846154","689.3846153846154","black","no","legacy","legacy","legacy","0","uniform","1","undefined","undefined","undefined","1","j","0","0","0","0","38","0","0","0","38","NA","34","38","34","0","34","3","38","0","38","Fri Feb 19 09:33:48 2021","The main experiment item","yes","Lexical_Decision_Task.osexp","C:/Users/Yerodin","no","Andale Mono","no","18","no","white","no","yes","576","legacy","34","34","3","C:/Users/Yerodin/subject-5128660.csv","legacy","Lentiform Loewenfeld","3.3.7","yes","yes","600bd7cfb6416f0113b04181","602110864497cf011d9c0822","0","j","NA","space","m","space","NA","j","554","NA","2170","5523","6174","NA","554","2","legacy","1024","2","48000","-16","task","5128660","even","NA","26530","30701","28531","92264","4958","16657","10483","92765","NA","92262","92765","92220","30701","93320","24881","91720","4951","80151","Lexical Decision Task","35","26886","39","yes","1024"
"2.68604012","0","3","mulb","non-word","90","90","685.8","685.8","black","no","legacy","legacy","legacy","0","uniform","1","undefined","undefined","undefined","1","f","0","0","0","0","39","0","0","0","39","NA","35","39","35","0","35","3","39","0","39","Fri Feb 19 09:33:48 2021","The main experiment item","yes","Lexical_Decision_Task.osexp","C:/Users/Yerodin","no","Andale Mono","no","18","no","white","no","yes","576","legacy","35","35","3","C:/Users/Yerodin/subject-5128660.csv","legacy","Lentiform Loewenfeld","3.3.7","yes","yes","600bd7cfb6416f0113b04181","602110864497cf011d9c0822","0","f","NA","space","m","space","NA","f","546","NA","2170","5523","6174","NA","546","2","legacy","1024","2","48000","-16","task","5128660","even","NA","26530","30701","28531","93915","4958","16657","10483","94416","NA","93913","94416","93866","30701","94964","24881","93366","4951","80151","Lexical Decision Task","36","27432","40","yes","1024"
"2.767650507","0","6","yolt","non-word","90.2439024390244","90.2439024390244","683.5121951219512","683.5121951219512","black","no","legacy","legacy","legacy","0","uniform","1","undefined","undefined","undefined","1","f","0","0","0","0","40","0","0","0","40","NA","36","40","36","0","36","3","40","0","40","Fri Feb 19 09:33:48 2021","The main experiment item","yes","Lexical_Decision_Task.osexp","C:/Users/Yerodin","no","Andale Mono","no","18","no","white","no","yes","576","legacy","36","36","3","C:/Users/Yerodin/subject-5128660.csv","legacy","Lentiform Loewenfeld","3.3.7","yes","yes","600bd7cfb6416f0113b04181","602110864497cf011d9c0822","0","f","NA","space","m","space","NA","f","592","NA","2170","5523","6174","NA","592","2","legacy","1024","2","48000","-16","task","5128660","even","NA","26530","30701","28531","95554","4958","16657","10483","96055","NA","95552","96055","95509","30701","96648","24881","95009","4951","80151","Lexical Decision Task","37","28024","41","yes","1024"
"3.156347201","0","8","lasp","non-word","90.47619047619048","90.47619047619048","684.2142857142857","684.2142857142857","black","no","legacy","legacy","legacy","0","uniform","1","undefined","undefined","undefined","1","f","0","0","0","0","41","0","0","0","41","NA","37","41","37","0","37","3","41","0","41","Fri Feb 19 09:33:48 2021","The main experiment item","yes","Lexical_Decision_Task.osexp","C:/Users/Yerodin","no","Andale Mono","no","18","no","white","no","yes","576","legacy","37","37","3","C:/Users/Yerodin/subject-5128660.csv","legacy","Lentiform Loewenfeld","3.3.7","yes","yes","600bd7cfb6416f0113b04181","602110864497cf011d9c0822","0","f","NA","space","m","space","NA","f","713","NA","2170","5523","6174","NA","713","2","legacy","1024","2","48000","-16","task","5128660","even","NA","26530","30701","28531","97241","4958","16657","10483","97742","NA","97239","97742","97196","30701","98456","24881","96696","4951","80151","Lexical Decision Task","38","28737","42","yes","1024"
"3.159867847","5.98","5","brim","word","90.69767441860465","90.69767441860465","688.6976744186046","688.6976744186046","black","no","legacy","legacy","legacy","0","uniform","1","undefined","undefined","undefined","1","j","0","0","0","0","42","0","0","0","42","NA","38","42","38","0","38","3","42","0","42","Fri Feb 19 09:33:48 2021","The main experiment item","yes","Lexical_Decision_Task.osexp","C:/Users/Yerodin","no","Andale Mono","no","18","no","white","no","yes","576","legacy","38","38","3","C:/Users/Yerodin/subject-5128660.csv","legacy","Lentiform Loewenfeld","3.3.7","yes","yes","600bd7cfb6416f0113b04181","602110864497cf011d9c0822","0","j","NA","space","m","space","NA","j","877","NA","2170","5523","6174","NA","877","2","legacy","1024","2","48000","-16","task","5128660","even","NA","26530","30701","28531","99047","4958","16657","10483","99548","NA","99046","99548","99003","30701","100425","24881","98503","4951","80151","Lexical Decision Task","39","29614","43","yes","1024"
"3.165936429","0","7","leps","non-word","90.9090909090909","90.9090909090909","685.4090909090909","685.4090909090909","black","no","legacy","legacy","legacy","0","uniform","1","undefined","undefined","undefined","1","f","0","0","0","0","43","0","0","0","43","NA","39","43","39","0","39","3","43","0","43","Fri Feb 19 09:33:48 2021","The main experiment item","yes","Lexical_Decision_Task.osexp","C:/Users/Yerodin","no","Andale Mono","no","18","no","white","no","yes","576","legacy","39","39","3","C:/Users/Yerodin/subject-5128660.csv","legacy","Lentiform Loewenfeld","3.3.7","yes","yes","600bd7cfb6416f0113b04181","602110864497cf011d9c0822","0","f","NA","space","m","space","NA","f","544","NA","2170","5523","6174","NA","544","2","legacy","1024","2","48000","-16","task","5128660","even","NA","26530","30701","28531","101018","4958","16657","10483","101519","NA","101017","101519","100974","30701","102064","24881","100474","4951","80151","Lexical Decision Task","40","30158","44","yes","1024"
"2.920123326","7.43","4","duel","word","91.11111111111111","91.11111111111111","681.6888888888889","681.6888888888889","black","no","legacy","legacy","legacy","0","uniform","1","undefined","undefined","undefined","1","j","0","0","0","0","44","0","0","0","44","NA","40","44","40","0","40","3","44","0","44","Fri Feb 19 09:33:48 2021","The main experiment item","yes","Lexical_Decision_Task.osexp","C:/Users/Yerodin","no","Andale Mono","no","18","no","white","no","yes","576","legacy","40","40","3","C:/Users/Yerodin/subject-5128660.csv","legacy","Lentiform Loewenfeld","3.3.7","yes","yes","600bd7cfb6416f0113b04181","602110864497cf011d9c0822","0","j","NA","space","m","space","NA","j","518","NA","2170","5523","6174","NA","518","2","legacy","1024","2","48000","-16","task","5128660","even","NA","26530","30701","28531","102632","4958","16657","10483","103133","NA","102631","103133","102590","30701","103651","24881","102090","4951","80151","Lexical Decision Task","41","30676","45","yes","1024"
"2.69019608","9.01","2","myth","word","91.30434782608695","91.30434782608695","678.7173913043479","678.7173913043479","black","no","legacy","legacy","legacy","0","uniform","1","undefined","undefined","undefined","1","j","0","0","0","0","45","0","0","0","45","NA","41","45","41","0","41","3","45","0","45","Fri Feb 19 09:33:48 2021","The main experiment item","yes","Lexical_Decision_Task.osexp","C:/Users/Yerodin","no","Andale Mono","no","18","no","white","no","yes","576","legacy","41","41","3","C:/Users/Yerodin/subject-5128660.csv","legacy","Lentiform Loewenfeld","3.3.7","yes","yes","600bd7cfb6416f0113b04181","602110864497cf011d9c0822","0","j","NA","space","m","space","NA","j","545","NA","2170","5523","6174","NA","545","2","legacy","1024","2","48000","-16","task","5128660","even","NA","26530","30701","28531","104223","4958","16657","10483","104724","NA","104221","104724","104180","30701","105270","24881","103680","4951","80151","Lexical Decision Task","42","31221","46","yes","1024"
"3.443783828","7.65","3","verb","word","91.48936170212765","91.48936170212765","676.1489361702128","676.1489361702128","black","no","legacy","legacy","legacy","0","uniform","1","undefined","undefined","undefined","1","j","0","0","0","0","46","0","0","0","46","NA","42","46","42","0","42","3","46","0","46","Fri Feb 19 09:33:48 2021","The main experiment item","yes","Lexical_Decision_Task.osexp","C:/Users/Yerodin","no","Andale Mono","no","18","no","white","no","yes","576","legacy","42","42","3","C:/Users/Yerodin/subject-5128660.csv","legacy","Lentiform Loewenfeld","3.3.7","yes","yes","600bd7cfb6416f0113b04181","602110864497cf011d9c0822","0","j","NA","space","m","space","NA","j","558","NA","2170","5523","6174","NA","558","2","legacy","1024","2","48000","-16","task","5128660","even","NA","26530","30701","28531","105843","4958","16657","10483","106344","NA","105842","106344","105800","30701","106902","24881","105300","4951","80151","Lexical Decision Task","43","31779","47","yes","1024"
"3.153104174","10.89","6","door","word","91.66666666666667","91.66666666666667","671.1875","671.1875","black","no","legacy","legacy","legacy","0","uniform","1","undefined","undefined","undefined","1","j","0","0","0","0","47","0","0","0","47","NA","43","47","43","0","43","3","47","0","47","Fri Feb 19 09:33:48 2021","The main experiment item","yes","Lexical_Decision_Task.osexp","C:/Users/Yerodin","no","Andale Mono","no","18","no","white","no","yes","576","legacy","43","43","3","C:/Users/Yerodin/subject-5128660.csv","legacy","Lentiform Loewenfeld","3.3.7","yes","yes","600bd7cfb6416f0113b04181","602110864497cf011d9c0822","0","j","NA","space","m","space","NA","j","438","NA","2170","5523","6174","NA","438","2","legacy","1024","2","48000","-16","task","5128660","even","NA","26530","30701","28531","107489","4958","16657","10483","107990","NA","107488","107990","107445","30701","108429","24881","106945","4951","80151","Lexical Decision Task","44","32217","48","yes","1024"
"2.696644658","5.78","2","yolk","word","91.83673469387755","91.83673469387755","669.8163265306123","669.8163265306123","black","no","legacy","legacy","legacy","0","uniform","1","undefined","undefined","undefined","1","j","0","0","0","0","48","0","0","0","48","NA","44","48","44","0","44","3","48","0","48","Fri Feb 19 09:33:48 2021","The main experiment item","yes","Lexical_Decision_Task.osexp","C:/Users/Yerodin","no","Andale Mono","no","18","no","white","no","yes","576","legacy","44","44","3","C:/Users/Yerodin/subject-5128660.csv","legacy","Lentiform Loewenfeld","3.3.7","yes","yes","600bd7cfb6416f0113b04181","602110864497cf011d9c0822","0","j","NA","space","m","space","NA","j","604","NA","2170","5523","6174","NA","604","2","legacy","1024","2","48000","-16","task","5128660","even","NA","26530","30701","28531","109017","4958","16657","10483","109518","NA","109016","109518","108974","30701","110122","24881","108474","4951","80151","Lexical Decision Task","45","32821","49","yes","1024"
"3.230789326","5.38","5","prim","word","92","92","665.54","665.54","black","no","legacy","legacy","legacy","0","uniform","1","undefined","undefined","undefined","1","j","0","0","0","0","49","0","0","0","49","NA","45","49","45","0","45","3","49","0","49","Fri Feb 19 09:33:48 2021","The main experiment item","yes","Lexical_Decision_Task.osexp","C:/Users/Yerodin","no","Andale Mono","no","18","no","white","no","yes","576","legacy","45","45","3","C:/Users/Yerodin/subject-5128660.csv","legacy","Lentiform Loewenfeld","3.3.7","yes","yes","600bd7cfb6416f0113b04181","602110864497cf011d9c0822","0","j","NA","space","m","space","NA","j","456","NA","2170","5523","6174","NA","456","2","legacy","1024","2","48000","-16","task","5128660","even","NA","26530","30701","28531","110711","4958","16657","10483","111212","NA","110710","111212","110668","30701","111668","24881","110168","4951","80151","Lexical Decision Task","46","33277","50","yes","1024"
"2.6599162","0","6","flug","non-word","92.15686274509804","92.15686274509804","666.3333333333334","666.3333333333334","black","no","legacy","legacy","legacy","0","uniform","1","undefined","undefined","undefined","1","f","0","0","0","0","50","0","0","0","50","NA","46","50","46","0","46","3","50","0","50","Fri Feb 19 09:33:48 2021","The main experiment item","yes","Lexical_Decision_Task.osexp","C:/Users/Yerodin","no","Andale Mono","no","18","no","white","no","yes","576","legacy","46","46","3","C:/Users/Yerodin/subject-5128660.csv","legacy","Lentiform Loewenfeld","3.3.7","yes","yes","600bd7cfb6416f0113b04181","602110864497cf011d9c0822","0","f","NA","space","m","space","NA","f","706","NA","2170","5523","6174","NA","706","2","legacy","1024","2","48000","-16","task","5128660","even","NA","26530","30701","28531","112259","4958","16657","10483","112760","NA","112258","112760","112215","30701","113466","24881","111715","4951","80151","Lexical Decision Task","47","33983","51","yes","1024"
"3.064581521","5.51","6","cask","word","90.38461538461539","90.38461538461539","663.2307692307693","663.2307692307693","black","no","legacy","legacy","legacy","0","uniform","0","undefined","undefined","undefined","0","j","0","0","0","0","51","0","0","0","51","NA","47","51","47","0","47","3","51","0","51","Fri Feb 19 09:33:48 2021","The main experiment item","yes","Lexical_Decision_Task.osexp","C:/Users/Yerodin","no","Andale Mono","no","18","no","white","no","yes","576","legacy","47","47","3","C:/Users/Yerodin/subject-5128660.csv","legacy","Lentiform Loewenfeld","3.3.7","yes","yes","600bd7cfb6416f0113b04181","602110864497cf011d9c0822","0","f","NA","space","m","space","NA","f","505","NA","2170","5523","6174","NA","505","2","legacy","1024","2","48000","-16","task","5128660","even","NA","26530","30701","28531","114057","4958","16657","10483","114558","NA","114055","114558","114013","30701","115064","24881","113513","4951","80151","Lexical Decision Task","47","34488","52","yes","1024"
"3.460446784","0","5","dess","non-word","90.56603773584905","90.56603773584905","663.7735849056604","663.7735849056604","black","no","legacy","legacy","legacy","0","uniform","1","undefined","undefined","undefined","1","f","0","0","0","0","52","0","0","0","52","NA","48","52","48","0","48","3","52","0","52","Fri Feb 19 09:33:48 2021","The main experiment item","yes","Lexical_Decision_Task.osexp","C:/Users/Yerodin","no","Andale Mono","no","18","no","white","no","yes","576","legacy","48","48","3","C:/Users/Yerodin/subject-5128660.csv","legacy","Lentiform Loewenfeld","3.3.7","yes","yes","600bd7cfb6416f0113b04181","602110864497cf011d9c0822","0","f","NA","space","m","space","NA","f","692","NA","2170","5523","6174","NA","692","2","legacy","1024","2","48000","-16","task","5128660","even","NA","26530","30701","28531","116656","4958","16657","10483","117157","NA","116655","117157","116611","30701","117849","24881","113513","4951","115111","Lexical Decision Task","48","35180","53","yes","1024"
"3.218535505","7.85","7","goat","word","90.74074074074075","90.74074074074075","662.6296296296297","662.6296296296297","black","no","legacy","legacy","legacy","0","uniform","1","undefined","undefined","undefined","1","j","0","0","0","0","53","0","0","0","53","NA","49","53","49","0","49","3","53","0","53","Fri Feb 19 09:33:48 2021","The main experiment item","yes","Lexical_Decision_Task.osexp","C:/Users/Yerodin","no","Andale Mono","no","18","no","white","no","yes","576","legacy","49","49","3","C:/Users/Yerodin/subject-5128660.csv","legacy","Lentiform Loewenfeld","3.3.7","yes","yes","600bd7cfb6416f0113b04181","602110864497cf011d9c0822","0","j","NA","space","m","space","NA","j","602","NA","2170","5523","6174","NA","602","2","legacy","1024","2","48000","-16","task","5128660","even","NA","26530","30701","28531","118441","4958","16657","10483","118942","NA","118440","118942","118396","30701","119545","24881","117896","4951","115111","Lexical Decision Task","49","35782","54","yes","1024"
"3.131833513","7.66","4","limb","word","90.9090909090909","90.9090909090909","663.4363636363636","663.4363636363636","black","no","legacy","legacy","legacy","0","uniform","1","undefined","undefined","undefined","1","j","0","0","0","0","54","0","0","0","54","0","50","54","50","0","50","3","54","0","54","Fri Feb 19 09:33:48 2021","The main experiment item","yes","Lexical_Decision_Task.osexp","C:/Users/Yerodin","no","Andale Mono","no","18","no","white","no","yes","576","legacy","50","50","3","C:/Users/Yerodin/subject-5128660.csv","legacy","Lentiform Loewenfeld","3.3.7","yes","yes","600bd7cfb6416f0113b04181","602110864497cf011d9c0822","0","j","NA","space","m","space","space","j","707","NA","2170","5523","6174","2220","707","2","legacy","1024","2","48000","-16","task","5128660","even","NA","26530","30701","28531","122384","4958","16657","10483","122886","120120","122383","122886","120092","30701","123593","24881","119592","4951","115111","Lexical Decision Task","50","36489","55","yes","1024"
"2.668385917","5.48","4","twig","word","91.07142857142857","91.07142857142857","670.3214285714286","670.3214285714286","black","no","legacy","legacy","legacy","0","uniform","1","undefined","undefined","undefined","1","j","0","0","0","0","55","0","0","0","55","0","51","55","51","0","51","3","55","0","55","Fri Feb 19 09:33:48 2021","The main experiment item","yes","Lexical_Decision_Task.osexp","C:/Users/Yerodin","no","Andale Mono","no","18","no","white","no","yes","576","legacy","51","51","3","C:/Users/Yerodin/subject-5128660.csv","legacy","Lentiform Loewenfeld","3.3.7","yes","yes","600bd7cfb6416f0113b04181","602110864497cf011d9c0822","0","j","NA","space","m","space","space","j","1049","NA","2170","5523","6174","2220","1049","2","legacy","1024","2","48000","-16","task","5128660","even","NA","26530","30701","28531","124142","4958","16657","10483","124643","120120","124141","124643","124098","30701","125693","24881","123598","4951","115111","Lexical Decision Task","51","37538","56","yes","1024"
"3.225825991","0","7","talm","non-word","91.2280701754386","91.2280701754386","670.2456140350877","670.2456140350877","black","no","legacy","legacy","legacy","0","uniform","1","undefined","undefined","undefined","1","f","0","0","0","0","56","0","0","0","56","0","52","56","52","0","52","3","56","0","56","Fri Feb 19 09:33:48 2021","The main experiment item","yes","Lexical_Decision_Task.osexp","C:/Users/Yerodin","no","Andale Mono","no","18","no","white","no","yes","576","legacy","52","52","3","C:/Users/Yerodin/subject-5128660.csv","legacy","Lentiform Loewenfeld","3.3.7","yes","yes","600bd7cfb6416f0113b04181","602110864497cf011d9c0822","0","f","NA","space","m","space","space","f","666","NA","2170","5523","6174","2220","666","2","legacy","1024","2","48000","-16","task","5128660","even","NA","26530","30701","28531","126293","4958","16657","10483","126794","120120","126291","126794","126249","30701","127461","24881","125748","4951","115111","Lexical Decision Task","52","38204","57","yes","1024"
"3.077974404","10.41","8","tool","word","91.37931034482759","91.37931034482759","668.1379310344828","668.1379310344828","black","no","legacy","legacy","legacy","0","uniform","1","undefined","undefined","undefined","1","j","0","0","0","0","57","0","0","0","57","0","53","57","53","0","53","3","57","0","57","Fri Feb 19 09:33:48 2021","The main experiment item","yes","Lexical_Decision_Task.osexp","C:/Users/Yerodin","no","Andale Mono","no","18","no","white","no","yes","576","legacy","53","53","3","C:/Users/Yerodin/subject-5128660.csv","legacy","Lentiform Loewenfeld","3.3.7","yes","yes","600bd7cfb6416f0113b04181","602110864497cf011d9c0822","0","j","NA","space","m","space","space","j","548","NA","2170","5523","6174","2220","548","2","legacy","1024","2","48000","-16","task","5128660","even","NA","26530","30701","28531","128037","4958","16657","10483","128538","120120","128036","128538","127994","30701","129087","24881","127494","4951","115111","Lexical Decision Task","53","38752","58","yes","1024"
"3.374198258","0","8","vist","non-word","91.52542372881356","91.52542372881356","670.4237288135594","670.4237288135594","black","no","legacy","legacy","legacy","0","uniform","1","undefined","undefined","undefined","1","f","0","0","0","0","58","0","0","0","58","0","54","58","54","0","54","3","58","0","58","Fri Feb 19 09:33:48 2021","The main experiment item","yes","Lexical_Decision_Task.osexp","C:/Users/Yerodin","no","Andale Mono","no","18","no","white","no","yes","576","legacy","54","54","3","C:/Users/Yerodin/subject-5128660.csv","legacy","Lentiform Loewenfeld","3.3.7","yes","yes","600bd7cfb6416f0113b04181","602110864497cf011d9c0822","0","f","NA","space","m","space","space","f","803","NA","2170","5523","6174","2220","803","2","legacy","1024","2","48000","-16","task","5128660","even","NA","26530","30701","28531","129665","4958","16657","10483","130166","120120","129663","130166","129621","30701","130970","24881","129121","4951","115111","Lexical Decision Task","54","39555","59","yes","1024"
"2.703007489","8.37","3","pulp","word","91.66666666666667","91.66666666666667","668.3666666666667","668.3666666666667","black","no","legacy","legacy","legacy","0","uniform","1","undefined","undefined","undefined","1","j","0","0","0","0","59","0","0","0","59","0","55","59","55","0","55","3","59","0","59","Fri Feb 19 09:33:48 2021","The main experiment item","yes","Lexical_Decision_Task.osexp","C:/Users/Yerodin","no","Andale Mono","no","18","no","white","no","yes","576","legacy","55","55","3","C:/Users/Yerodin/subject-5128660.csv","legacy","Lentiform Loewenfeld","3.3.7","yes","yes","600bd7cfb6416f0113b04181","602110864497cf011d9c0822","0","j","NA","space","m","space","space","j","547","NA","2170","5523","6174","2220","547","2","legacy","1024","2","48000","-16","task","5128660","even","NA","26530","30701","28531","131551","4958","16657","10483","132052","120120","131549","132052","131505","30701","132599","24881","131005","4951","115111","Lexical Decision Task","55","40102","60","yes","1024"
"3.276537627","9.15","5","trap","word","91.80327868852459","91.80327868852459","668.4262295081967","668.4262295081967","black","no","legacy","legacy","legacy","0","uniform","1","undefined","undefined","undefined","1","j","0","0","0","0","60","0","0","0","60","0","56","60","56","0","56","3","60","0","60","Fri Feb 19 09:33:48 2021","The main experiment item","yes","Lexical_Decision_Task.osexp","C:/Users/Yerodin","no","Andale Mono","no","18","no","white","no","yes","576","legacy","56","56","3","C:/Users/Yerodin/subject-5128660.csv","legacy","Lentiform Loewenfeld","3.3.7","yes","yes","600bd7cfb6416f0113b04181","602110864497cf011d9c0822","0","j","NA","space","m","space","space","j","672","NA","2170","5523","6174","2220","672","2","legacy","1024","2","48000","-16","task","5128660","even","NA","26530","30701","28531","133191","4958","16657","10483","133693","120120","133190","133693","133148","30701","134366","24881","132648","4951","115111","Lexical Decision Task","56","40774","61","yes","1024"
"2.892836167","10.01","5","soft","word","91.93548387096774","91.93548387096774","666","666","black","no","legacy","legacy","legacy","0","uniform","1","undefined","undefined","undefined","1","j","0","0","0","0","61","0","0","0","61","0","57","61","57","0","57","3","61","0","61","Fri Feb 19 09:33:48 2021","The main experiment item","yes","Lexical_Decision_Task.osexp","C:/Users/Yerodin","no","Andale Mono","no","18","no","white","no","yes","576","legacy","57","57","3","C:/Users/Yerodin/subject-5128660.csv","legacy","Lentiform Loewenfeld","3.3.7","yes","yes","600bd7cfb6416f0113b04181","602110864497cf011d9c0822","0","j","NA","space","m","space","space","j","518","NA","2170","5523","6174","2220","518","2","legacy","1024","2","48000","-16","task","5128660","even","NA","26530","30701","28531","134957","4958","16657","10483","135458","120120","134956","135458","134914","30701","135977","24881","134414","4951","115111","Lexical Decision Task","57","41292","62","yes","1024"
"3.22685757","9.99","7","roll","word","92.06349206349206","92.06349206349206","664.5238095238095","664.5238095238095","black","no","legacy","legacy","legacy","0","uniform","1","undefined","undefined","undefined","1","j","0","0","0","0","62","0","0","0","62","0","58","62","58","0","58","3","62","0","62","Fri Feb 19 09:33:48 2021","The main experiment item","yes","Lexical_Decision_Task.osexp","C:/Users/Yerodin","no","Andale Mono","no","18","no","white","no","yes","576","legacy","58","58","3","C:/Users/Yerodin/subject-5128660.csv","legacy","Lentiform Loewenfeld","3.3.7","yes","yes","600bd7cfb6416f0113b04181","602110864497cf011d9c0822","0","j","NA","space","m","space","space","j","573","NA","2170","5523","6174","2220","573","2","legacy","1024","2","48000","-16","task","5128660","even","NA","26530","30701","28531","136569","4958","16657","10483","137070","120120","136568","137070","136526","30701","137644","24881","136026","4951","115111","Lexical Decision Task","58","41865","63","yes","1024"
"2.719886232","7.98","2","quiz","word","92.1875","92.1875","663.734375","663.734375","black","no","legacy","legacy","legacy","0","uniform","1","undefined","undefined","undefined","1","j","0","0","0","0","63","0","0","0","63","0","59","63","59","0","59","3","63","0","63","Fri Feb 19 09:33:48 2021","The main experiment item","yes","Lexical_Decision_Task.osexp","C:/Users/Yerodin","no","Andale Mono","no","18","no","white","no","yes","576","legacy","59","59","3","C:/Users/Yerodin/subject-5128660.csv","legacy","Lentiform Loewenfeld","3.3.7","yes","yes","600bd7cfb6416f0113b04181","602110864497cf011d9c0822","0","j","NA","space","m","space","space","j","614","NA","2170","5523","6174","2220","614","2","legacy","1024","2","48000","-16","task","5128660","even","NA","26530","30701","28531","138232","4958","16657","10483","138733","120120","138230","138733","138185","30701","139347","24881","137685","4951","115111","Lexical Decision Task","59","42479","64","yes","1024"
"2.705007959","6.01","4","wept","word","92.3076923076923","92.3076923076923","664.9846153846154","664.9846153846154","black","no","legacy","legacy","legacy","0","uniform","1","undefined","undefined","undefined","1","j","0","0","0","0","64","0","0","0","64","0","60","64","60","0","60","3","64","0","64","Fri Feb 19 09:33:48 2021","The main experiment item","yes","Lexical_Decision_Task.osexp","C:/Users/Yerodin","no","Andale Mono","no","18","no","white","no","yes","576","legacy","60","60","3","C:/Users/Yerodin/subject-5128660.csv","legacy","Lentiform Loewenfeld","3.3.7","yes","yes","600bd7cfb6416f0113b04181","602110864497cf011d9c0822","0","j","NA","space","m","space","space","j","745","NA","2170","5523","6174","2220","745","2","legacy","1024","2","48000","-16","task","5128660","even","NA","26530","30701","28531","139932","4958","16657","10483","140433","120120","139931","140433","139888","30701","141179","24881","139388","4951","115111","Lexical Decision Task","60","43224","65","yes","1024"
"2.979548375","8.71","4","soup","word","92.42424242424242","92.42424242424242","662.969696969697","662.969696969697","black","no","legacy","legacy","legacy","0","uniform","1","undefined","undefined","undefined","1","j","0","0","0","0","65","0","0","0","65","0","61","65","61","0","61","3","65","0","65","Fri Feb 19 09:33:48 2021","The main experiment item","yes","Lexical_Decision_Task.osexp","C:/Users/Yerodin","no","Andale Mono","no","18","no","white","no","yes","576","legacy","61","61","3","C:/Users/Yerodin/subject-5128660.csv","legacy","Lentiform Loewenfeld","3.3.7","yes","yes","600bd7cfb6416f0113b04181","602110864497cf011d9c0822","0","j","NA","space","m","space","space","j","532","NA","2170","5523","6174","2220","532","2","legacy","1024","2","48000","-16","task","5128660","even","NA","26530","30701","28531","141772","4958","16657","10483","142273","120120","141771","142273","141728","30701","142806","24881","141228","4951","115111","Lexical Decision Task","61","43756","66","yes","1024"
"2.6599162","0","2","saff","non-word","92.53731343283582","92.53731343283582","662.0895522388059","662.0895522388059","black","no","legacy","legacy","legacy","0","uniform","1","undefined","undefined","undefined","1","f","0","0","0","0","66","0","0","0","66","0","62","66","62","0","62","3","66","0","66","Fri Feb 19 09:33:48 2021","The main experiment item","yes","Lexical_Decision_Task.osexp","C:/Users/Yerodin","no","Andale Mono","no","18","no","white","no","yes","576","legacy","62","62","3","C:/Users/Yerodin/subject-5128660.csv","legacy","Lentiform Loewenfeld","3.3.7","yes","yes","600bd7cfb6416f0113b04181","602110864497cf011d9c0822","0","f","NA","space","m","space","space","f","604","NA","2170","5523","6174","2220","604","2","legacy","1024","2","48000","-16","task","5128660","even","NA","26530","30701","28531","143405","4958","16657","10483","143906","120120","143403","143906","143360","30701","144511","24881","142860","4951","115111","Lexical Decision Task","62","44360","67","yes","1024"
"2.793790385","5.67","9","swab","word","92.6470588235294","92.6470588235294","660.7058823529412","660.7058823529412","black","no","legacy","legacy","legacy","0","uniform","1","undefined","undefined","undefined","1","j","0","0","0","0","67","0","0","0","67","0","63","67","63","0","63","3","67","0","67","Fri Feb 19 09:33:48 2021","The main experiment item","yes","Lexical_Decision_Task.osexp","C:/Users/Yerodin","no","Andale Mono","no","18","no","white","no","yes","576","legacy","63","63","3","C:/Users/Yerodin/subject-5128660.csv","legacy","Lentiform Loewenfeld","3.3.7","yes","yes","600bd7cfb6416f0113b04181","602110864497cf011d9c0822","0","j","NA","space","m","space","space","j","568","NA","2170","5523","6174","2220","568","2","legacy","1024","2","48000","-16","task","5128660","even","NA","26530","30701","28531","145106","4958","16657","10483","145608","120120","145105","145608","145063","30701","146176","24881","144563","4951","115111","Lexical Decision Task","63","44928","68","yes","1024"
"2.937852093","0","7","bamp","non-word","92.7536231884058","92.7536231884058","661.7826086956521","661.7826086956521","black","no","legacy","legacy","legacy","0","uniform","1","undefined","undefined","undefined","1","f","0","0","0","0","68","0","0","0","68","0","64","68","64","0","64","3","68","0","68","Fri Feb 19 09:33:48 2021","The main experiment item","yes","Lexical_Decision_Task.osexp","C:/Users/Yerodin","no","Andale Mono","no","18","no","white","no","yes","576","legacy","64","64","3","C:/Users/Yerodin/subject-5128660.csv","legacy","Lentiform Loewenfeld","3.3.7","yes","yes","600bd7cfb6416f0113b04181","602110864497cf011d9c0822","0","f","NA","space","m","space","space","f","735","NA","2170","5523","6174","2220","735","2","legacy","1024","2","48000","-16","task","5128660","even","NA","26530","30701","28531","146749","4958","16657","10483","147250","120120","146747","147250","146704","30701","147986","24881","146204","4951","115111","Lexical Decision Task","64","45663","69","yes","1024"
"2.953276337","6.32","4","thaw","word","92.85714285714286","92.85714285714286","663.4142857142857","663.4142857142857","black","no","legacy","legacy","legacy","0","uniform","1","undefined","undefined","undefined","1","j","0","0","0","0","69","0","0","0","69","0","65","69","65","0","65","3","69","0","69","Fri Feb 19 09:33:48 2021","The main experiment item","yes","Lexical_Decision_Task.osexp","C:/Users/Yerodin","no","Andale Mono","no","18","no","white","no","yes","576","legacy","65","65","3","C:/Users/Yerodin/subject-5128660.csv","legacy","Lentiform Loewenfeld","3.3.7","yes","yes","600bd7cfb6416f0113b04181","602110864497cf011d9c0822","0","j","NA","space","m","space","space","j","776","NA","2170","5523","6174","2220","776","2","legacy","1024","2","48000","-16","task","5128660","even","NA","26530","30701","28531","148567","4958","16657","10483","149069","120120","148566","149069","148522","30701","149846","24881","148022","4951","115111","Lexical Decision Task","65","46439","70","yes","1024"
"2.814027728","8.2","4","foam","word","92.95774647887323","92.95774647887323","661.7746478873239","661.7746478873239","black","no","legacy","legacy","legacy","0","uniform","1","undefined","undefined","undefined","1","j","0","0","0","0","70","0","0","0","70","0","66","70","66","0","66","3","70","0","70","Fri Feb 19 09:33:48 2021","The main experiment item","yes","Lexical_Decision_Task.osexp","C:/Users/Yerodin","no","Andale Mono","no","18","no","white","no","yes","576","legacy","66","66","3","C:/Users/Yerodin/subject-5128660.csv","legacy","Lentiform Loewenfeld","3.3.7","yes","yes","600bd7cfb6416f0113b04181","602110864497cf011d9c0822","0","j","NA","space","m","space","space","j","547","NA","2170","5523","6174","2220","547","2","legacy","1024","2","48000","-16","task","5128660","even","NA","26530","30701","28531","150414","4958","16657","10483","150915","120120","150413","150915","150370","30701","151463","24881","149870","4951","115111","Lexical Decision Task","66","46986","71","yes","1024"
"2.983324025","9.56","2","debt","word","93.05555555555556","93.05555555555556","659.1944444444445","659.1944444444445","black","no","legacy","legacy","legacy","0","uniform","1","undefined","undefined","undefined","1","j","0","0","0","0","71","0","0","0","71","0","67","71","67","0","67","3","71","0","71","Fri Feb 19 09:33:48 2021","The main experiment item","yes","Lexical_Decision_Task.osexp","C:/Users/Yerodin","no","Andale Mono","no","18","no","white","no","yes","576","legacy","67","67","3","C:/Users/Yerodin/subject-5128660.csv","legacy","Lentiform Loewenfeld","3.3.7","yes","yes","600bd7cfb6416f0113b04181","602110864497cf011d9c0822","0","j","NA","space","m","space","space","j","476","NA","2170","5523","6174","2220","476","2","legacy","1024","2","48000","-16","task","5128660","even","NA","26530","30701","28531","152079","4958","16657","10483","152580","120120","152077","152580","152036","30701","153056","24881","151536","4951","115111","Lexical Decision Task","67","47462","72","yes","1024"
"2.80048796","0","8","pife","non-word","93.15068493150685","93.15068493150685","661.4246575342465","661.4246575342465","black","no","legacy","legacy","legacy","0","uniform","1","undefined","undefined","undefined","1","f","0","0","0","0","72","0","0","0","72","0","68","72","68","0","68","3","72","0","72","Fri Feb 19 09:33:48 2021","The main experiment item","yes","Lexical_Decision_Task.osexp","C:/Users/Yerodin","no","Andale Mono","no","18","no","white","no","yes","576","legacy","68","68","3","C:/Users/Yerodin/subject-5128660.csv","legacy","Lentiform Loewenfeld","3.3.7","yes","yes","600bd7cfb6416f0113b04181","602110864497cf011d9c0822","0","f","NA","space","m","space","space","f","822","NA","2170","5523","6174","2220","822","2","legacy","1024","2","48000","-16","task","5128660","even","NA","26530","30701","28531","153623","4958","16657","10483","154124","120120","153622","154124","153581","30701","154946","24881","153081","4951","115111","Lexical Decision Task","68","48284","73","yes","1024"
"2.594027722","9.08","8","skip","word","93.24324324324324","93.24324324324324","659.3648648648649","659.3648648648649","black","no","legacy","legacy","legacy","0","uniform","1","undefined","undefined","undefined","1","j","0","0","0","0","73","0","0","0","73","0","69","73","69","0","69","3","73","0","73","Fri Feb 19 09:33:48 2021","The main experiment item","yes","Lexical_Decision_Task.osexp","C:/Users/Yerodin","no","Andale Mono","no","18","no","white","no","yes","576","legacy","69","69","3","C:/Users/Yerodin/subject-5128660.csv","legacy","Lentiform Loewenfeld","3.3.7","yes","yes","600bd7cfb6416f0113b04181","602110864497cf011d9c0822","0","j","NA","space","m","space","space","j","509","NA","2170","5523","6174","2220","509","2","legacy","1024","2","48000","-16","task","5128660","even","NA","26530","30701","28531","155495","4958","16657","10483","155996","120120","155493","155996","155451","30701","156506","24881","154951","4951","115111","Lexical Decision Task","69","48793","74","yes","1024"
"3.15462682","0","6","noal","non-word","93.33333333333333","93.33333333333333","660.1333333333333","660.1333333333333","black","no","legacy","legacy","legacy","0","uniform","1","undefined","undefined","undefined","1","f","0","0","0","0","74","0","0","0","74","0","70","74","70","0","70","3","74","0","74","Fri Feb 19 09:33:48 2021","The main experiment item","yes","Lexical_Decision_Task.osexp","C:/Users/Yerodin","no","Andale Mono","no","18","no","white","no","yes","576","legacy","70","70","3","C:/Users/Yerodin/subject-5128660.csv","legacy","Lentiform Loewenfeld","3.3.7","yes","yes","600bd7cfb6416f0113b04181","602110864497cf011d9c0822","0","f","NA","space","m","space","space","f","717","NA","2170","5523","6174","2220","717","2","legacy","1024","2","48000","-16","task","5128660","even","NA","26530","30701","28531","157077","4958","16657","10483","157579","120120","157076","157579","157034","30701","158297","24881","156534","4951","115111","Lexical Decision Task","70","49510","75","yes","1024"
"3.374137706","10.21","4","tree","word","93.42105263157895","93.42105263157895","659.8947368421053","659.8947368421053","black","no","legacy","legacy","legacy","0","uniform","1","undefined","undefined","undefined","1","j","0","0","0","0","75","0","0","0","75","0","71","75","71","0","71","3","75","0","75","Fri Feb 19 09:33:48 2021","The main experiment item","yes","Lexical_Decision_Task.osexp","C:/Users/Yerodin","no","Andale Mono","no","18","no","white","no","yes","576","legacy","71","71","3","C:/Users/Yerodin/subject-5128660.csv","legacy","Lentiform Loewenfeld","3.3.7","yes","yes","600bd7cfb6416f0113b04181","602110864497cf011d9c0822","0","j","NA","space","m","space","space","j","642","NA","2170","5523","6174","2220","642","2","legacy","1024","2","48000","-16","task","5128660","even","NA","26530","30701","28531","158873","4958","16657","10483","159374","120120","158871","159374","158828","30701","160017","24881","158328","4951","115111","Lexical Decision Task","71","50152","76","yes","1024"
"2.966923697","5.4","2","fume","word","93.50649350649351","93.50649350649351","659.2337662337662","659.2337662337662","black","no","legacy","legacy","legacy","0","uniform","1","undefined","undefined","undefined","1","j","0","0","0","0","76","0","0","0","76","0","72","76","72","0","72","3","76","0","76","Fri Feb 19 09:33:48 2021","The main experiment item","yes","Lexical_Decision_Task.osexp","C:/Users/Yerodin","no","Andale Mono","no","18","no","white","no","yes","576","legacy","72","72","3","C:/Users/Yerodin/subject-5128660.csv","legacy","Lentiform Loewenfeld","3.3.7","yes","yes","600bd7cfb6416f0113b04181","602110864497cf011d9c0822","0","j","NA","space","m","space","space","j","609","NA","2170","5523","6174","2220","609","2","legacy","1024","2","48000","-16","task","5128660","even","NA","26530","30701","28531","160598","4958","16657","10483","161100","120120","160597","161100","160552","30701","161710","24881","160052","4951","115111","Lexical Decision Task","72","50761","77","yes","1024"
"3.174641193","0","3","ramb","non-word","93.58974358974359","93.58974358974359","660.4615384615385","660.4615384615385","black","no","legacy","legacy","legacy","0","uniform","1","undefined","undefined","undefined","1","f","0","0","0","0","77","0","0","0","77","0","73","77","73","0","73","3","77","0","77","Fri Feb 19 09:33:48 2021","The main experiment item","yes","Lexical_Decision_Task.osexp","C:/Users/Yerodin","no","Andale Mono","no","18","no","white","no","yes","576","legacy","73","73","3","C:/Users/Yerodin/subject-5128660.csv","legacy","Lentiform Loewenfeld","3.3.7","yes","yes","600bd7cfb6416f0113b04181","602110864497cf011d9c0822","0","f","NA","space","m","space","space","f","755","NA","2170","5523","6174","2220","755","2","legacy","1024","2","48000","-16","task","5128660","even","NA","26530","30701","28531","162289","4958","16657","10483","162790","120120","162288","162790","162245","30701","163546","24881","161745","4951","115111","Lexical Decision Task","73","51516","78","yes","1024"
"2.728085817","10.02","9","bike","word","93.67088607594937","93.67088607594937","659.5443037974684","659.5443037974684","black","no","legacy","legacy","legacy","0","uniform","1","undefined","undefined","undefined","1","j","0","0","0","0","78","0","0","0","78","0","74","78","74","0","74","3","78","0","78","Fri Feb 19 09:33:48 2021","The main experiment item","yes","Lexical_Decision_Task.osexp","C:/Users/Yerodin","no","Andale Mono","no","18","no","white","no","yes","576","legacy","74","74","3","C:/Users/Yerodin/subject-5128660.csv","legacy","Lentiform Loewenfeld","3.3.7","yes","yes","600bd7cfb6416f0113b04181","602110864497cf011d9c0822","0","j","NA","space","m","space","space","j","588","NA","2170","5523","6174","2220","588","2","legacy","1024","2","48000","-16","task","5128660","even","NA","26530","30701","28531","164120","4958","16657","10483","164622","120120","164119","164622","164076","30701","165211","24881","163576","4951","115111","Lexical Decision Task","74","52104","79","yes","1024"
"3.529815197","0","3","lerm","non-word","93.75","93.75","660.9625","660.9625","black","no","legacy","legacy","legacy","0","uniform","1","undefined","undefined","undefined","1","f","0","0","0","0","79","0","0","0","79","0","75","79","75","0","75","3","79","0","79","Fri Feb 19 09:33:48 2021","The main experiment item","yes","Lexical_Decision_Task.osexp","C:/Users/Yerodin","no","Andale Mono","no","18","no","white","no","yes","576","legacy","75","75","3","C:/Users/Yerodin/subject-5128660.csv","legacy","Lentiform Loewenfeld","3.3.7","yes","yes","600bd7cfb6416f0113b04181","602110864497cf011d9c0822","0","f","NA","space","m","space","space","f","773","NA","2170","5523","6174","2220","773","2","legacy","1024","2","48000","-16","task","5128660","even","NA","26530","30701","28531","165784","4958","16657","10483","166285","120120","165783","166285","165741","30701","167058","24881","165241","4951","115111","Lexical Decision Task","75","52877","80","yes","1024"
"2.981215883","10.66","5","hair","word","92.5925925925926","92.5925925925926","661.1358024691358","661.1358024691358","black","no","legacy","legacy","legacy","0","uniform","0","undefined","undefined","undefined","0","j","0","0","0","0","80","0","0","0","80","0","76","80","76","0","76","3","80","0","80","Fri Feb 19 09:33:48 2021","The main experiment item","yes","Lexical_Decision_Task.osexp","C:/Users/Yerodin","no","Andale Mono","no","18","no","white","no","yes","576","legacy","76","76","3","C:/Users/Yerodin/subject-5128660.csv","legacy","Lentiform Loewenfeld","3.3.7","yes","yes","600bd7cfb6416f0113b04181","602110864497cf011d9c0822","0","f","NA","space","m","space","space","f","675","NA","2170","5523","6174","2220","675","2","legacy","1024","2","48000","-16","task","5128660","even","NA","26530","30701","28531","167636","4958","16657","10483","168137","120120","167634","168137","167592","30701","168813","24881","167092","4951","115111","Lexical Decision Task","75","53552","81","yes","1024"
"3.302475237","0","7","leel","non-word","92.6829268292683","92.6829268292683","662.8048780487804","662.8048780487804","black","no","legacy","legacy","legacy","0","uniform","1","undefined","undefined","undefined","1","f","0","0","0","0","81","0","0","0","81","0","77","81","77","0","77","3","81","0","81","Fri Feb 19 09:33:48 2021","The main experiment item","yes","Lexical_Decision_Task.osexp","C:/Users/Yerodin","no","Andale Mono","no","18","no","white","no","yes","576","legacy","77","77","3","C:/Users/Yerodin/subject-5128660.csv","legacy","Lentiform Loewenfeld","3.3.7","yes","yes","600bd7cfb6416f0113b04181","602110864497cf011d9c0822","0","f","NA","space","m","space","space","f","798","NA","2170","5523","6174","2220","798","2","legacy","1024","2","48000","-16","task","5128660","even","NA","26530","30701","28531","170385","4958","16657","10483","170886","120120","170384","170886","170339","30701","171684","24881","167092","4951","168839","Lexical Decision Task","76","54350","82","yes","1024"
"2.884795364","0","6","flob","non-word","92.7710843373494","92.7710843373494","666.7469879518072","666.7469879518072","black","no","legacy","legacy","legacy","0","uniform","1","undefined","undefined","undefined","1","f","0","0","0","0","82","0","0","0","82","0","78","82","78","0","78","3","82","0","82","Fri Feb 19 09:33:48 2021","The main experiment item","yes","Lexical_Decision_Task.osexp","C:/Users/Yerodin","no","Andale Mono","no","18","no","white","no","yes","576","legacy","78","78","3","C:/Users/Yerodin/subject-5128660.csv","legacy","Lentiform Loewenfeld","3.3.7","yes","yes","600bd7cfb6416f0113b04181","602110864497cf011d9c0822","0","f","NA","space","m","space","space","f","990","NA","2170","5523","6174","2220","990","2","legacy","1024","2","48000","-16","task","5128660","even","NA","26530","30701","28531","172256","4958","16657","10483","172757","120120","172254","172757","172212","30701","173748","24881","171712","4951","168839","Lexical Decision Task","77","55340","83","yes","1024"
"2.75025376","10.2","6","jump","word","92.85714285714286","92.85714285714286","664.5357142857143","664.5357142857143","black","no","legacy","legacy","legacy","0","uniform","1","undefined","undefined","undefined","1","j","0","0","0","0","83","0","0","0","83","0","79","83","79","0","79","3","83","0","83","Fri Feb 19 09:33:48 2021","The main experiment item","yes","Lexical_Decision_Task.osexp","C:/Users/Yerodin","no","Andale Mono","no","18","no","white","no","yes","576","legacy","79","79","3","C:/Users/Yerodin/subject-5128660.csv","legacy","Lentiform Loewenfeld","3.3.7","yes","yes","600bd7cfb6416f0113b04181","602110864497cf011d9c0822","0","j","NA","space","m","space","space","j","481","NA","2170","5523","6174","2220","481","2","legacy","1024","2","48000","-16","task","5128660","even","NA","26530","30701","28531","174317","4958","16657","10483","174818","120120","174315","174818","174274","30701","175300","24881","173774","4951","168839","Lexical Decision Task","78","55821","84","yes","1024"
"2.868644438","10.52","4","town","word","92.94117647058823","92.94117647058823","662.1294117647059","662.1294117647059","black","no","legacy","legacy","legacy","0","uniform","1","undefined","undefined","undefined","1","j","0","0","0","0","84","0","0","0","84","0","80","84","80","0","80","3","84","0","84","Fri Feb 19 09:33:48 2021","The main experiment item","yes","Lexical_Decision_Task.osexp","C:/Users/Yerodin","no","Andale Mono","no","18","no","white","no","yes","576","legacy","80","80","3","C:/Users/Yerodin/subject-5128660.csv","legacy","Lentiform Loewenfeld","3.3.7","yes","yes","600bd7cfb6416f0113b04181","602110864497cf011d9c0822","0","j","NA","space","m","space","space","j","460","NA","2170","5523","6174","2220","460","2","legacy","1024","2","48000","-16","task","5128660","even","NA","26530","30701","28531","175869","4958","16657","10483","176369","120120","175868","176369","175826","30701","176830","24881","175326","4951","168839","Lexical Decision Task","79","56281","85","yes","1024"
"3.120135028","0","3","vals","non-word","93.02325581395348","93.02325581395348","661.453488372093","661.453488372093","black","no","legacy","legacy","legacy","0","uniform","1","undefined","undefined","undefined","1","f","0","0","0","0","85","0","0","0","85","0","81","85","81","0","81","3","85","0","85","Fri Feb 19 09:33:48 2021","The main experiment item","yes","Lexical_Decision_Task.osexp","C:/Users/Yerodin","no","Andale Mono","no","18","no","white","no","yes","576","legacy","81","81","3","C:/Users/Yerodin/subject-5128660.csv","legacy","Lentiform Loewenfeld","3.3.7","yes","yes","600bd7cfb6416f0113b04181","602110864497cf011d9c0822","0","f","NA","space","m","space","space","f","604","NA","2170","5523","6174","2220","604","2","legacy","1024","2","48000","-16","task","5128660","even","NA","26530","30701","28531","177403","4958","16657","10483","177904","120120","177401","177904","177359","30701","178509","24881","176859","4951","168839","Lexical Decision Task","80","56885","86","yes","1024"
"3.2757719","0","5","slea","non-word","93.10344827586206","93.10344827586206","663.8620689655172","663.8620689655172","black","no","legacy","legacy","legacy","0","uniform","1","undefined","undefined","undefined","1","f","0","0","0","0","86","0","0","0","86","0","82","86","82","0","82","3","86","0","86","Fri Feb 19 09:33:48 2021","The main experiment item","yes","Lexical_Decision_Task.osexp","C:/Users/Yerodin","no","Andale Mono","no","18","no","white","no","yes","576","legacy","82","82","3","C:/Users/Yerodin/subject-5128660.csv","legacy","Lentiform Loewenfeld","3.3.7","yes","yes","600bd7cfb6416f0113b04181","602110864497cf011d9c0822","0","f","NA","space","m","space","space","f","871","NA","2170","5523","6174","2220","871","2","legacy","1024","2","48000","-16","task","5128660","even","NA","26530","30701","28531","179085","4958","16657","10483","179586","120120","179084","179586","179043","30701","180458","24881","178543","4951","168839","Lexical Decision Task","81","57756","87","yes","1024"
"3.378276681","6.39","8","bran","word","92.04545454545455","92.04545454545455","670.4545454545455","670.4545454545455","black","no","legacy","legacy","legacy","0","uniform","0","undefined","undefined","undefined","0","j","0","0","0","0","87","0","0","0","87","0","83","87","83","0","83","3","87","0","87","Fri Feb 19 09:33:48 2021","The main experiment item","yes","Lexical_Decision_Task.osexp","C:/Users/Yerodin","no","Andale Mono","no","18","no","white","no","yes","576","legacy","83","83","3","C:/Users/Yerodin/subject-5128660.csv","legacy","Lentiform Loewenfeld","3.3.7","yes","yes","600bd7cfb6416f0113b04181","602110864497cf011d9c0822","0","f","NA","space","m","space","space","f","1244","NA","2170","5523","6174","2220","1244","2","legacy","1024","2","48000","-16","task","5128660","even","NA","26530","30701","28531","181038","4958","16657","10483","181539","120120","181037","181539","180993","30701","182784","24881","180493","4951","168839","Lexical Decision Task","81","59000","88","yes","1024"
"2.873320602","0","4","lurg","non-word","92.13483146067416","92.13483146067416","669.9662921348314","669.9662921348314","black","no","legacy","legacy","legacy","0","uniform","1","undefined","undefined","undefined","1","f","0","0","0","0","88","0","0","0","88","0","84","88","84","0","84","3","88","0","88","Fri Feb 19 09:33:48 2021","The main experiment item","yes","Lexical_Decision_Task.osexp","C:/Users/Yerodin","no","Andale Mono","no","18","no","white","no","yes","576","legacy","84","84","3","C:/Users/Yerodin/subject-5128660.csv","legacy","Lentiform Loewenfeld","3.3.7","yes","yes","600bd7cfb6416f0113b04181","602110864497cf011d9c0822","0","f","NA","space","m","space","space","f","627","NA","2170","5523","6174","2220","627","2","legacy","1024","2","48000","-16","task","5128660","even","NA","26530","30701","28531","184365","4958","16657","10483","184866","120120","184363","184866","184318","30701","185493","24881","180493","4951","182818","Lexical Decision Task","82","59627","89","yes","1024"
"3.257359335","8","6","brew","word","92.22222222222223","92.22222222222223","670.8","670.8","black","no","legacy","legacy","legacy","0","uniform","1","undefined","undefined","undefined","1","j","0","0","0","0","89","0","0","0","89","0","85","89","85","0","85","3","89","0","89","Fri Feb 19 09:33:48 2021","The main experiment item","yes","Lexical_Decision_Task.osexp","C:/Users/Yerodin","no","Andale Mono","no","18","no","white","no","yes","576","legacy","85","85","3","C:/Users/Yerodin/subject-5128660.csv","legacy","Lentiform Loewenfeld","3.3.7","yes","yes","600bd7cfb6416f0113b04181","602110864497cf011d9c0822","0","j","NA","space","m","space","space","j","745","NA","2170","5523","6174","2220","745","2","legacy","1024","2","48000","-16","task","5128660","even","NA","26530","30701","28531","186073","4958","16657","10483","186574","120120","186072","186574","186029","30701","187320","24881","185529","4951","182818","Lexical Decision Task","83","60372","90","yes","1024"
"3.209246849","0","7","slem","non-word","92.3076923076923","92.3076923076923","670.6923076923077","670.6923076923077","black","no","legacy","legacy","legacy","0","uniform","1","undefined","undefined","undefined","1","f","0","0","0","0","90","0","0","0","90","0","86","90","86","0","86","3","90","0","90","Fri Feb 19 09:33:48 2021","The main experiment item","yes","Lexical_Decision_Task.osexp","C:/Users/Yerodin","no","Andale Mono","no","18","no","white","no","yes","576","legacy","86","86","3","C:/Users/Yerodin/subject-5128660.csv","legacy","Lentiform Loewenfeld","3.3.7","yes","yes","600bd7cfb6416f0113b04181","602110864497cf011d9c0822","0","f","NA","space","m","space","space","f","661","NA","2170","5523","6174","2220","661","2","legacy","1024","2","48000","-16","task","5128660","even","NA","26530","30701","28531","187870","4958","16657","10483","188371","120120","187868","188371","187824","30701","189033","24881","187324","4951","182818","Lexical Decision Task","84","61033","91","yes","1024"
"2.64476673","0","5","moft","non-word","92.3913043478261","92.3913043478261","670.8478260869565","670.8478260869565","black","no","legacy","legacy","legacy","0","uniform","1","undefined","undefined","undefined","1","f","0","0","0","0","91","0","0","0","91","0","87","91","87","0","87","3","91","0","91","Fri Feb 19 09:33:48 2021","The main experiment item","yes","Lexical_Decision_Task.osexp","C:/Users/Yerodin","no","Andale Mono","no","18","no","white","no","yes","576","legacy","87","87","3","C:/Users/Yerodin/subject-5128660.csv","legacy","Lentiform Loewenfeld","3.3.7","yes","yes","600bd7cfb6416f0113b04181","602110864497cf011d9c0822","0","f","NA","space","m","space","space","f","685","NA","2170","5523","6174","2220","685","2","legacy","1024","2","48000","-16","task","5128660","even","NA","26530","30701","28531","189587","4958","16657","10483","190088","120120","189586","190088","189538","30701","190774","24881","189038","4951","182818","Lexical Decision Task","85","61718","92","yes","1024"
"3.248054965","7.86","5","glow","word","92.47311827956989","92.47311827956989","670.9784946236559","670.9784946236559","black","no","legacy","legacy","legacy","0","uniform","1","undefined","undefined","undefined","1","j","0","0","0","0","92","0","0","0","92","0","88","92","88","0","88","3","92","0","92","Fri Feb 19 09:33:48 2021","The main experiment item","yes","Lexical_Decision_Task.osexp","C:/Users/Yerodin","no","Andale Mono","no","18","no","white","no","yes","576","legacy","88","88","3","C:/Users/Yerodin/subject-5128660.csv","legacy","Lentiform Loewenfeld","3.3.7","yes","yes","600bd7cfb6416f0113b04181","602110864497cf011d9c0822","0","j","NA","space","m","space","space","j","683","NA","2170","5523","6174","2220","683","2","legacy","1024","2","48000","-16","task","5128660","even","NA","26530","30701","28531","191355","4958","16657","10483","191856","120120","191354","191856","191311","30701","192539","24881","190811","4951","182818","Lexical Decision Task","86","62401","93","yes","1024"
"2.82129731","6.72","5","plum","word","92.55319148936171","92.55319148936171","671.9574468085107","671.9574468085107","black","no","legacy","legacy","legacy","0","uniform","1","undefined","undefined","undefined","1","j","0","0","0","0","93","0","0","0","93","0","89","93","89","0","89","3","93","0","93","Fri Feb 19 09:33:48 2021","The main experiment item","yes","Lexical_Decision_Task.osexp","C:/Users/Yerodin","no","Andale Mono","no","18","no","white","no","yes","576","legacy","89","89","3","C:/Users/Yerodin/subject-5128660.csv","legacy","Lentiform Loewenfeld","3.3.7","yes","yes","600bd7cfb6416f0113b04181","602110864497cf011d9c0822","0","j","NA","space","m","space","space","j","763","NA","2170","5523","6174","2220","763","2","legacy","1024","2","48000","-16","task","5128660","even","NA","26530","30701","28531","193087","4958","16657","10483","193588","120120","193086","193588","193044","30701","194352","24881","192544","4951","182818","Lexical Decision Task","87","63164","94","yes","1024"
"3.274543461","7.46","7","scar","word","92.63157894736842","92.63157894736842","670.8","670.8","black","no","legacy","legacy","legacy","0","uniform","1","undefined","undefined","undefined","1","j","0","0","0","0","94","0","0","0","94","0","90","94","90","0","90","3","94","0","94","Fri Feb 19 09:33:48 2021","The main experiment item","yes","Lexical_Decision_Task.osexp","C:/Users/Yerodin","no","Andale Mono","no","18","no","white","no","yes","576","legacy","90","90","3","C:/Users/Yerodin/subject-5128660.csv","legacy","Lentiform Loewenfeld","3.3.7","yes","yes","600bd7cfb6416f0113b04181","602110864497cf011d9c0822","0","j","NA","space","m","space","space","j","562","NA","2170","5523","6174","2220","562","2","legacy","1024","2","48000","-16","task","5128660","even","NA","26530","30701","28531","194938","4958","16657","10483","195439","120120","194936","195439","194894","30701","196002","24881","194394","4951","182818","Lexical Decision Task","88","63726","95","yes","1024"
"2.845304797","0","6","buct","non-word","92.70833333333333","92.70833333333333","673.5416666666666","673.5416666666666","black","no","legacy","legacy","legacy","0","uniform","1","undefined","undefined","undefined","1","f","0","0","0","0","95","0","0","0","95","0","91","95","91","0","91","3","95","0","95","Fri Feb 19 09:33:48 2021","The main experiment item","yes","Lexical_Decision_Task.osexp","C:/Users/Yerodin","no","Andale Mono","no","18","no","white","no","yes","576","legacy","91","91","3","C:/Users/Yerodin/subject-5128660.csv","legacy","Lentiform Loewenfeld","3.3.7","yes","yes","600bd7cfb6416f0113b04181","602110864497cf011d9c0822","0","f","NA","space","m","space","space","f","934","NA","2170","5523","6174","2220","934","2","legacy","1024","2","48000","-16","task","5128660","even","NA","26530","30701","28531","196583","4958","16657","10483","197083","120120","196582","197083","196539","30701","198019","24881","196039","4951","182818","Lexical Decision Task","89","64660","96","yes","1024"
"2.899638141","0","3","hapt","non-word","92.78350515463917","92.78350515463917","673.3092783505155","673.3092783505155","black","no","legacy","legacy","legacy","0","uniform","1","undefined","undefined","undefined","1","f","0","0","0","0","96","0","0","0","96","0","92","96","92","0","92","3","96","0","96","Fri Feb 19 09:33:48 2021","The main experiment item","yes","Lexical_Decision_Task.osexp","C:/Users/Yerodin","no","Andale Mono","no","18","no","white","no","yes","576","legacy","92","92","3","C:/Users/Yerodin/subject-5128660.csv","legacy","Lentiform Loewenfeld","3.3.7","yes","yes","600bd7cfb6416f0113b04181","602110864497cf011d9c0822","0","f","NA","space","m","space","space","f","651","NA","2170","5523","6174","2220","651","2","legacy","1024","2","48000","-16","task","5128660","even","NA","26530","30701","28531","198602","4958","16657","10483","199103","120120","198601","199103","198557","30701","199755","24881","198057","4951","182818","Lexical Decision Task","90","65311","97","yes","1024"
"2.794720352","0","9","koot","non-word","92.85714285714286","92.85714285714286","672.0102040816327","672.0102040816327","black","no","legacy","legacy","legacy","0","uniform","1","undefined","undefined","undefined","1","f","0","0","0","0","97","0","0","0","97","0","93","97","93","0","93","3","97","0","97","Fri Feb 19 09:33:48 2021","The main experiment item","yes","Lexical_Decision_Task.osexp","C:/Users/Yerodin","no","Andale Mono","no","18","no","white","no","yes","576","legacy","93","93","3","C:/Users/Yerodin/subject-5128660.csv","legacy","Lentiform Loewenfeld","3.3.7","yes","yes","600bd7cfb6416f0113b04181","602110864497cf011d9c0822","0","f","NA","space","m","space","space","f","546","NA","2170","5523","6174","2220","546","2","legacy","1024","2","48000","-16","task","5128660","even","NA","26530","30701","28531","200345","4958","16657","10483","200846","120120","200343","200846","200292","30701","201393","24881","199792","4951","182818","Lexical Decision Task","91","65857","98","yes","1024"
"2.858136002","0","4","phip","non-word","92.92929292929293","92.92929292929293","669.8686868686868","669.8686868686868","black","no","legacy","legacy","legacy","0","uniform","1","undefined","undefined","undefined","1","f","0","0","0","0","98","0","0","0","98","0","94","98","94","0","94","3","98","0","98","Fri Feb 19 09:33:48 2021","The main experiment item","yes","Lexical_Decision_Task.osexp","C:/Users/Yerodin","no","Andale Mono","no","18","no","white","no","yes","576","legacy","94","94","3","C:/Users/Yerodin/subject-5128660.csv","legacy","Lentiform Loewenfeld","3.3.7","yes","yes","600bd7cfb6416f0113b04181","602110864497cf011d9c0822","0","f","NA","space","m","space","space","f","460","NA","2170","5523","6174","2220","460","2","legacy","1024","2","48000","-16","task","5128660","even","NA","26530","30701","28531","201973","4958","16657","10483","202473","120120","201972","202474","201929","30701","202935","24881","201429","4951","182818","Lexical Decision Task","92","66317","99","yes","1024"
"2.799799878","0","4","ciff","non-word","93","93","669.84","669.84","black","no","legacy","legacy","legacy","0","uniform","1","undefined","undefined","undefined","1","f","0","0","0","0","99","0","0","0","99","0","95","99","95","0","95","3","99","0","99","Fri Feb 19 09:33:48 2021","The main experiment item","yes","Lexical_Decision_Task.osexp","C:/Users/Yerodin","no","Andale Mono","no","18","no","white","no","yes","576","legacy","95","95","3","C:/Users/Yerodin/subject-5128660.csv","legacy","Lentiform Loewenfeld","3.3.7","yes","yes","600bd7cfb6416f0113b04181","602110864497cf011d9c0822","0","f","NA","space","m","space","space","f","667","NA","2170","5523","6174","2220","667","2","legacy","1024","2","48000","-16","task","5128660","even","NA","26530","30701","28531","203509","4958","16657","10483","204010","120120","203508","204010","203464","30701","204678","24881","202964","4951","182818","Lexical Decision Task","93","66984","100","yes","1024"
"3.474361976","5.24","6","veer","word","93.06930693069307","93.06930693069307","671.7227722772277","671.7227722772277","black","no","legacy","legacy","legacy","0","uniform","1","undefined","undefined","undefined","1","j","0","0","0","0","100","0","0","0","100","0","96","100","96","0","96","3","100","0","100","Fri Feb 19 09:33:48 2021","The main experiment item","yes","Lexical_Decision_Task.osexp","C:/Users/Yerodin","no","Andale Mono","no","18","no","white","no","yes","576","legacy","96","96","3","C:/Users/Yerodin/subject-5128660.csv","legacy","Lentiform Loewenfeld","3.3.7","yes","yes","600bd7cfb6416f0113b04181","602110864497cf011d9c0822","0","j","NA","space","m","space","space","j","860","NA","2170","5523","6174","2220","860","2","legacy","1024","2","48000","-16","task","5128660","even","NA","26530","30701","28531","205256","4958","16657","10483","205757","120120","205254","205757","205212","30701","206618","24881","204712","4951","182818","Lexical Decision Task","94","67844","101","yes","1024"
"2.771097306","0","9","jold","non-word","93.13725490196079","93.13725490196079","672.4117647058823","672.4117647058823","black","no","legacy","legacy","legacy","0","uniform","1","undefined","undefined","undefined","1","f","0","0","0","0","101","0","0","0","101","0","97","101","97","0","97","3","101","0","101","Fri Feb 19 09:33:48 2021","The main experiment item","yes","Lexical_Decision_Task.osexp","C:/Users/Yerodin","no","Andale Mono","no","18","no","white","no","yes","576","legacy","97","97","3","C:/Users/Yerodin/subject-5128660.csv","legacy","Lentiform Loewenfeld","3.3.7","yes","yes","600bd7cfb6416f0113b04181","602110864497cf011d9c0822","0","f","NA","space","m","space","space","f","742","NA","2170","5523","6174","2220","742","2","legacy","1024","2","48000","-16","task","5128660","even","NA","26530","30701","28531","207191","4958","16657","10483","207692","120120","207190","207692","207147","30701","208435","24881","206647","4951","182818","Lexical Decision Task","95","68586","102","yes","1024"
